trial_type,trial_index,time_elapsed,internal_node_id,interactions,blur_events,focus_events,fullscreenenter_events,fullscreenexit_events,success,rt,stimulus,key_press,prompt,subject_id,participant_id,age,gender,button_pressed,next_reward,animation_sequence,responses,planet,curr_prac_trial,n_prac_rounds,alien,aliens,reward_received,decay_rate_actual,decay_rate_exp,time_in_block,block_num,prt,last_trial_on_planet,button_html,bonus,num_failures
pavlovia,0,12,0.0-0.0,"""event"",""trial"",""time""
""fullscreenenter"",""1"",""11467""
","
","
","""event"",""trial"",""time""
""fullscreenenter"",""1"",""11467""
","
",,,,,,,,,,,,,,,,,,,,,,,,,,,,
fullscreen,1,12455,0.0-1.0,"""event"",""trial"",""time""
""fullscreenenter"",""1"",""11467""
","
","
","""event"",""trial"",""time""
""fullscreenenter"",""1"",""11467""
","
",TRUE,,,,,,,,,,,,,,,,,,,,,,,,,,,
instruc_welcome,2,22380,0.0-2.0,"""event"",""trial"",""time""
""fullscreenenter"",""1"",""11467""
","
","
","""event"",""trial"",""time""
""fullscreenenter"",""1"",""11467""
","
",,null,run_exp/static/audio/clip_1_welcome.m4a,null,"<p>Howdy! In this experiment, you’ll be an explorer traveling through space to collect space treasure.</p><p>Your mission is to collect as much treasure as possible.</p><br><br><p><img src='run_exp/static/images/task_images/opening_img-01.jpg' height='300' width='auto'></p>",9794,4534,15.25,Male,,,,,,,,,,,,,,,,,,,
audio-keyboard-response,3,39412,0.0-3.0,"""event"",""trial"",""time""
""fullscreenenter"",""1"",""11467""
","
","
","""event"",""trial"",""time""
""fullscreenenter"",""1"",""11467""
","
",,null,run_exp/static/audio/clip_2_move.m4a,null,,,,,,,,,,,,,,,,,,,,,,,,
welcome_dec,4,43445,0.0-4.0,"""event"",""trial"",""time""
""fullscreenenter"",""1"",""11467""
","
","
","""event"",""trial"",""time""
""fullscreenenter"",""1"",""11467""
","
",,4025,"<p>Howdy! In this experiment, you’ll be an explorer traveling through space to collect space treasure.</p><p>Your mission is to collect as much treasure as possible.</p><br><br><p><img src='run_exp/static/images/task_images/opening_img-01.jpg' height='300' width='auto'></p>",,,,,,,1,,,,,,,,,,,,,,,,,,
html-keyboard-response,5,49187,0.0-5.0,"""event"",""trial"",""time""
""fullscreenenter"",""1"",""11467""
","
","
","""event"",""trial"",""time""
""fullscreenenter"",""1"",""11467""
","
",,5733.6,"<p>Howdy! In this experiment, you’ll be an explorer traveling through space to collect space treasure.</p><p>Your mission is to collect as much treasure as possible.</p><br><br><p><img src='run_exp/static/images/task_images/opening_img-01.jpg' height='300' width='auto'></p><button class=""jspsych-html-btn-unchosen""><img src=""run_exp/static/images/task_images/planet-01.jpg"" height=""50""></button><button class=""jspsych-html-btn-chosen""><img src=""run_exp/static/images/task_images/planet-02.jpg"" height=""50""></button><p><b>[press the space bar to lock in your answer]<b><br></p>",32,,,,,,,,,,,,,,,,,,,,,,,,
instruc_goal,6,59646,0.0-6.0-0.0,"""event"",""trial"",""time""
""fullscreenenter"",""1"",""11467""
","
","
","""event"",""trial"",""time""
""fullscreenenter"",""1"",""11467""
","
",,null,run_exp/static/audio/clip_3_goal.m4a,null,"<p> As a space explorer, you’ll visit different planets to dig for space treasure, these pink gems.</p> <p> The more treasure you dig up, the more bonus money you’ll win! </p><br><br><p><img src='run_exp/static/images/task_images/pink_gem.jpg' height='300' width='auto'></p>",,,,,,,,,,,,,,,,,,,,,,,
instruc_goal,7,62175,0.0-6.0-1.0,"""event"",""trial"",""time""
""fullscreenenter"",""1"",""11467""
","
","
","""event"",""trial"",""time""
""fullscreenenter"",""1"",""11467""
","
",,2522,"<p> As a space explorer, you’ll visit different planets to dig for space treasure, these pink gems.</p> <p> The more treasure you dig up, the more bonus money you’ll win! </p><br><br><p><img src='run_exp/static/images/task_images/pink_gem.jpg' height='300' width='auto'></p>",,,,,,,1,,,,,,,,,,,,,,,,,,
html-keyboard-response,8,62850,0.0-6.0-2.0,"""event"",""trial"",""time""
""fullscreenenter"",""1"",""11467""
","
","
","""event"",""trial"",""time""
""fullscreenenter"",""1"",""11467""
","
",,667,"<p> As a space explorer, you’ll visit different planets to dig for space treasure, these pink gems.</p> <p> The more treasure you dig up, the more bonus money you’ll win! </p><br><br><p><img src='run_exp/static/images/task_images/pink_gem.jpg' height='300' width='auto'></p><button class=""jspsych-html-btn-unchosen""><img src=""run_exp/static/images/task_images/planet-01.jpg"" height=""50""></button><button class=""jspsych-html-btn-chosen""><img src=""run_exp/static/images/task_images/planet-02.jpg"" height=""50""></button><p><b>[press the space bar to lock in your answer]<b><br></p>",32,,,,,,,,,,,,,,,,,,,,,,,,
instruc_dig,9,79240,0.0-7.0-0.0,"""event"",""trial"",""time""
""fullscreenenter"",""1"",""11467""
","
","
","""event"",""trial"",""time""
""fullscreenenter"",""1"",""11467""
","
",,null,run_exp/static/audio/clip_4_dig.m4a,null,,,,,,,100,,,,,,,,,,,,,,,,,
instruc_dig_try,10,80674,0.0-7.0-1.0,"""event"",""trial"",""time""
""fullscreenenter"",""1"",""11467""
","
","
","""event"",""trial"",""time""
""fullscreenenter"",""1"",""11467""
","
",,1429.4,"<p> When you’ve arrived at a new planet, you will dig once. </p> <p>Then, you get to decide if you want to stay on the planet and dig again or travel to a new planet and dig there.</p> <p> To stay and dig, press the letter <strong>‘A’</strong> on your keyboard. Try pressing it now! </p><p><img src='run_exp/static/images/task_images/land.jpg'  height='700' width='auto'></p>",65,"<p> When you’ve arrived at a new planet, you will dig once. </p> <p>Then, you get to decide if you want to stay on the planet and dig again or travel to a new planet and dig there.</p> <p> To stay and dig, press the letter <strong>‘A’</strong> on your keyboard. Try pressing it now! </p><p><img src='run_exp/static/images/task_images/land.jpg'  height='700' width='auto'></p>",,,,,,100,,,,,,,,,,,,,,,,,
dig_prac,11,82710,0.0-7.0-2.0,"""event"",""trial"",""time""
""fullscreenenter"",""1"",""11467""
","
","
","""event"",""trial"",""time""
""fullscreenenter"",""1"",""11467""
","
",,,,,,,,,,,,"[{""stimulus"":""run_exp/static/images/task_images/dig.jpg"",""time"":1.6000000000931323},{""stimulus"":""run_exp/static/images/task_images/land.jpg"",""time"":677.2000000001863},{""stimulus"":""run_exp/static/images/task_images/dig.jpg"",""time"":1340.9000000003725}]",[],,,,,,,,,,,,,,,
instruc_travel,12,119323,0.0-7.0-3.0,"""event"",""trial"",""time""
""fullscreenenter"",""1"",""11467""
","
","
","""event"",""trial"",""time""
""fullscreenenter"",""1"",""11467""
","
",,null,run_exp/static/audio/clip_5_travel.m4a,null,"<p>Every time you dig up gems, there are less gems on the planet, so the more you dig on a planet the fewer gems you’ll get with each dig.</p><p>When gems are running low, you may want to travel to a new planet. </p> <p>  Planets are very far apart in this galaxy, so it will take some time to travel between them. </p> <br><p>There are lots and lots of planets for you to visit, so you won’t be able to return to any planets you’ve seen before. </p><br><p>To leave this planet and travel to a new one, press the letter <strong>‘L’</strong> on your keyboard. Try pressing it now! </p><p><img src='run_exp/static/images/task_images/rocket-01.jpg'  height='600' width='auto'></p>",,,,,,,,,,,,,,,,,,,,,,,
instruc_travel_try,13,130431,0.0-7.0-4.0,"""event"",""trial"",""time""
""fullscreenenter"",""1"",""11467""
","
","
","""event"",""trial"",""time""
""fullscreenenter"",""1"",""11467""
","
",,11102.7,"<p>Every time you dig up gems, there are less gems on the planet, so the more you dig on a planet the fewer gems you’ll get with each dig.</p><p>When gems are running low, you may want to travel to a new planet. </p> <p>  Planets are very far apart in this galaxy, so it will take some time to travel between them. </p> <br><p>There are lots and lots of planets for you to visit, so you won’t be able to return to any planets you’ve seen before. </p><br><p>To leave this planet and travel to a new one, press the letter <strong>‘L’</strong> on your keyboard. Try pressing it now! </p><p><img src='run_exp/static/images/task_images/rocket-01.jpg'  height='600' width='auto'></p>",76,"<p>Every time you dig up gems, there are less gems on the planet, so the more you dig on a planet the fewer gems you’ll get with each dig.</p><p>When gems are running low, you may want to travel to a new planet. </p> <p>  Planets are very far apart in this galaxy, so it will take some time to travel between them. </p> <br><p>There are lots and lots of planets for you to visit, so you won’t be able to return to any planets you’ve seen before. </p><br><p>To leave this planet and travel to a new one, press the letter <strong>‘L’</strong> on your keyboard. Try pressing it now! </p><p><img src='run_exp/static/images/task_images/rocket-01.jpg'  height='600' width='auto'></p>",,,,,,,,,,,,,,,,,,,,,,,
travel_prac,14,140446,0.0-7.0-5.0,"""event"",""trial"",""time""
""fullscreenenter"",""1"",""11467""
","
","
","""event"",""trial"",""time""
""fullscreenenter"",""1"",""11467""
","
",,,,,,,,,,,,"[{""stimulus"":""run_exp/static/images/task_images/rocket-01.jpg"",""time"":1.2000000001862645},{""stimulus"":""run_exp/static/images/task_images/rocket-02.jpg"",""time"":1121.5},{""stimulus"":""run_exp/static/images/task_images/rocket-03.jpg"",""time"":2233.7999999998137},{""stimulus"":""run_exp/static/images/task_images/rocket-04.jpg"",""time"":3338},{""stimulus"":""run_exp/static/images/task_images/rocket-05.jpg"",""time"":4450},{""stimulus"":""run_exp/static/images/task_images/rocket-06.jpg"",""time"":5561.799999999814},{""stimulus"":""run_exp/static/images/task_images/rocket-07.jpg"",""time"":6673.700000000186},{""stimulus"":""run_exp/static/images/task_images/rocket-08.jpg"",""time"":7786},{""stimulus"":""run_exp/static/images/task_images/rocket-09.jpg"",""time"":8897.700000000186}]",[],0,,,,,,,,,,,,,,
instruc_alien_greet,15,167797,0.0-7.0-6.0,"""event"",""trial"",""time""
""fullscreenenter"",""1"",""11467""
","
","
","""event"",""trial"",""time""
""fullscreenenter"",""1"",""11467""
","
",,null,run_exp/static/audio/clip_6_alien.m4a,null,"<p>When you arrive at a new planet, the alien who owns the treasure mine on that planet will greet you!</p><p>The better an alien takes care of their mine the easier it is to dig for gems. Some aliens take better care of their mine than others. So, you won’t get exactly the same amount of gems on each planet.</p><p>What the alien looks like does not tell you anything about how many gems there are on the planet.</p><br><p><img src=""run_exp/static/images/task_images/aliens/instructions_aliens/planet/alien_planet-1.jpg""  height=""600"" width=""auto""></p>",,,,,,,,,,,,,,,,,,,,,,,
instruc_alien_greet,16,173809,0.0-7.0-7.0,"""event"",""trial"",""time""
""fullscreenenter"",""1"",""11467""
","
","
","""event"",""trial"",""time""
""fullscreenenter"",""1"",""11467""
","
",,6004.6,"<p>When you arrive at a new planet, the alien who owns the treasure mine on that planet will greet you!</p><p>The better an alien takes care of their mine the easier it is to dig for gems. Some aliens take better care of their mine than others. So, you won’t get exactly the same amount of gems on each planet.</p><p>What the alien looks like does not tell you anything about how many gems there are on the planet.</p><br><p><img src=""run_exp/static/images/task_images/aliens/instructions_aliens/planet/alien_planet-1.jpg""  height=""600"" width=""auto""></p>",,,,,,,1,,,,,,,,,,,,,,,,,,
html-keyboard-response,17,176465,0.0-7.0-8.0,"""event"",""trial"",""time""
""fullscreenenter"",""1"",""11467""
","
","
","""event"",""trial"",""time""
""fullscreenenter"",""1"",""11467""
","
",,2648.8,"<p>When you arrive at a new planet, the alien who owns the treasure mine on that planet will greet you!</p><p>The better an alien takes care of their mine the easier it is to dig for gems. Some aliens take better care of their mine than others. So, you won’t get exactly the same amount of gems on each planet.</p><p>What the alien looks like does not tell you anything about how many gems there are on the planet.</p><br><p><img src=""run_exp/static/images/task_images/aliens/instructions_aliens/planet/alien_planet-1.jpg""  height=""600"" width=""auto""></p><button class=""jspsych-html-btn-unchosen""><img src=""run_exp/static/images/task_images/planet-01.jpg"" height=""50""></button><button class=""jspsych-html-btn-chosen""><img src=""run_exp/static/images/task_images/planet-02.jpg"" height=""50""></button><p><b>[press the space bar to lock in your answer]<b><br></p>",32,,,,,,,,,,,,,,,,,,,,,,,,
time_out,18,187776,0.0-8.0-0.0,"""event"",""trial"",""time""
""fullscreenenter"",""1"",""11467""
","
","
","""event"",""trial"",""time""
""fullscreenenter"",""1"",""11467""
","
",,null,run_exp/static/audio/clip_7_timeout.m4a,null,"<p>If you don't make your choice fast enough, you’ll have to wait a few seconds before you can make another one.</p><p>You can’t dig for more gems or travel to new planets. You just have to sit and wait.</p><br><p><img src='run_exp/static/images/task_images/time_out.jpg'  height='600' width='auto'></p>",,,,,,,,,,,,,,,,,,,,,,,
time_out,19,192242,0.0-8.0-1.0,"""event"",""trial"",""time""
""fullscreenenter"",""1"",""11467""
","
","
","""event"",""trial"",""time""
""fullscreenenter"",""1"",""11467""
","
",,4458.9,"<p>If you don't make your choice fast enough, you’ll have to wait a few seconds before you can make another one.</p><p>You can’t dig for more gems or travel to new planets. You just have to sit and wait.</p><br><p><img src='run_exp/static/images/task_images/time_out.jpg'  height='600' width='auto'></p>",,,,,,,1,,,,,,,,,,,,,,,,,,
html-keyboard-response,20,192893,0.0-8.0-2.0,"""event"",""trial"",""time""
""fullscreenenter"",""1"",""11467""
","
","
","""event"",""trial"",""time""
""fullscreenenter"",""1"",""11467""
","
",,642.7,"<p>If you don't make your choice fast enough, you’ll have to wait a few seconds before you can make another one.</p><p>You can’t dig for more gems or travel to new planets. You just have to sit and wait.</p><br><p><img src='run_exp/static/images/task_images/time_out.jpg'  height='600' width='auto'></p><button class=""jspsych-html-btn-unchosen""><img src=""run_exp/static/images/task_images/planet-01.jpg"" height=""50""></button><button class=""jspsych-html-btn-chosen""><img src=""run_exp/static/images/task_images/planet-02.jpg"" height=""50""></button><p><b>[press the space bar to lock in your answer]<b><br></p>",32,,,,,,,,,,,,,,,,,,,,,,,,
instruc_break,21,208906,0.0-9.0-0.0,"""event"",""trial"",""time""
""fullscreenenter"",""1"",""11467""
","
","
","""event"",""trial"",""time""
""fullscreenenter"",""1"",""11467""
","
",,null,run_exp/static/audio/clip_8_break.m4a,null,"<p> After digging and traveling for a while, you’ll be able to take a break at home base. </p><p>The game will last 20 minutes no matter what.</p><p>You will visit home base every 5 minutes, so, you will visit home base three times during the game.</p><br><p><img src='run_exp/static/images/task_images/home_base.jpg' height='600' width='auto'></p>",,,,,,,,,,,,,,,,,,,,,,,
instruc_break,22,215254,0.0-9.0-1.0,"""event"",""trial"",""time""
""fullscreenenter"",""1"",""11467""
","
","
","""event"",""trial"",""time""
""fullscreenenter"",""1"",""11467""
","
",,6341.3,"<p> After digging and traveling for a while, you’ll be able to take a break at home base. </p><p>The game will last 20 minutes no matter what.</p><p>You will visit home base every 5 minutes, so, you will visit home base three times during the game.</p><br><p><img src='run_exp/static/images/task_images/home_base.jpg' height='600' width='auto'></p>",,,,,,,1,,,,,,,,,,,,,,,,,,
html-keyboard-response,23,215771,0.0-9.0-2.0,"""event"",""trial"",""time""
""fullscreenenter"",""1"",""11467""
","
","
","""event"",""trial"",""time""
""fullscreenenter"",""1"",""11467""
","
",,509.5,"<p> After digging and traveling for a while, you’ll be able to take a break at home base. </p><p>The game will last 20 minutes no matter what.</p><p>You will visit home base every 5 minutes, so, you will visit home base three times during the game.</p><br><p><img src='run_exp/static/images/task_images/home_base.jpg' height='600' width='auto'></p><button class=""jspsych-html-btn-unchosen""><img src=""run_exp/static/images/task_images/planet-01.jpg"" height=""50""></button><button class=""jspsych-html-btn-chosen""><img src=""run_exp/static/images/task_images/planet-02.jpg"" height=""50""></button><p><b>[press the space bar to lock in your answer]<b><br></p>",32,,,,,,,,,,,,,,,,,,,,,,,,
instruc_prac_game,24,226194,0.0-10.0-0.0,"""event"",""trial"",""time""
""fullscreenenter"",""1"",""11467""
","
","
","""event"",""trial"",""time""
""fullscreenenter"",""1"",""11467""
","
",,null,run_exp/static/audio/clip_9_practice.m4a,null,"<p> Are you ready to play a practice game? </p> <p>In this practice game, you'll be digging up barrels of gems. But, in the real game, you'll be digging up the gems themselves. </p>",,,,,,,,,,,,,,,,,,,,,,,
html-button-response,25,229251,0.0-10.0-1.0,"""event"",""trial"",""time""
""fullscreenenter"",""1"",""11467""
","
","
","""event"",""trial"",""time""
""fullscreenenter"",""1"",""11467""
","
",,3052,"<p> Are you ready to play a practice game? </p> <p>In this practice game, you'll be digging up barrels of gems. But, in the real game, you'll be digging up the gems themselves. </p>",,,,,,,0,,,,,,,,,,,,,,,,,,
alien_welcome_prac,26,234270,0.0-11.0-0.0,"""event"",""trial"",""time""
""fullscreenenter"",""1"",""11467""
","
","
","""event"",""trial"",""time""
""fullscreenenter"",""1"",""11467""
","
",,null,run_exp/static/images/task_images/aliens/practice_aliens/planet/alien_planet-5.jpg,null,,,,,,,,,,,,,,,,,,,,,,,,
land_prac,27,234782,0.0-11.0-1.0,"""event"",""trial"",""time""
""fullscreenenter"",""1"",""11467""
","
","
","""event"",""trial"",""time""
""fullscreenenter"",""1"",""11467""
","
",,null,run_exp/static/images/task_images/land.jpg,null,,,,,,,104,,,0,,,,,,,,,,,,,,
dig_prac,28,236798,0.0-11.0-2.0,"""event"",""trial"",""time""
""fullscreenenter"",""1"",""11467""
","
","
","""event"",""trial"",""time""
""fullscreenenter"",""1"",""11467""
","
",,,,,,,,,,,,"[{""stimulus"":""run_exp/static/images/task_images/dig.jpg"",""time"":1.2999999998137355},{""stimulus"":""run_exp/static/images/task_images/land.jpg"",""time"":674.2999999998137},{""stimulus"":""run_exp/static/images/task_images/dig.jpg"",""time"":1338.3999999999069}]",[],,,,,,,,,,,,,,,
harvest_prac,29,237806,0.0-11.0-3.0,"""event"",""trial"",""time""
""fullscreenenter"",""1"",""11467""
","
","
","""event"",""trial"",""time""
""fullscreenenter"",""1"",""11467""
","
",,null,run_exp/static/images/task_images/barrel_text.jpg,null,,,,,,,,,,,,,,,,,,,,,,,,
decision_prac,30,239276,0.0-11.0-4.0,"""event"",""trial"",""time""
""fullscreenenter"",""1"",""11467""
","
","
","""event"",""trial"",""time""
""fullscreenenter"",""1"",""11467""
","
",,1466,run_exp/static/images/task_images/land.jpg,65,,,,,,,,,,,1,,,,,,,,,,,,,
dig_prac,31,241302,0.0-12.0-0.0,"""event"",""trial"",""time""
""fullscreenenter"",""1"",""11467""
","
","
","""event"",""trial"",""time""
""fullscreenenter"",""1"",""11467""
","
",,,,,,,,,,,,"[{""stimulus"":""run_exp/static/images/task_images/dig.jpg"",""time"":1.3000000002793968},{""stimulus"":""run_exp/static/images/task_images/land.jpg"",""time"":676.9000000003725},{""stimulus"":""run_exp/static/images/task_images/dig.jpg"",""time"":1341.3000000002794}]",[],,,,,,,,,,,,,,,
harvest_prac,32,242310,0.0-12.0-1.0,"""event"",""trial"",""time""
""fullscreenenter"",""1"",""11467""
","
","
","""event"",""trial"",""time""
""fullscreenenter"",""1"",""11467""
","
",,null,run_exp/static/images/task_images/barrel_text.jpg,null,,,,,,,,,,,,,,,,,,,,,,,,
decision_prac,33,243155,0.0-12.0-2.0,"""event"",""trial"",""time""
""fullscreenenter"",""1"",""11467""
","
","
","""event"",""trial"",""time""
""fullscreenenter"",""1"",""11467""
","
",,840.7,run_exp/static/images/task_images/land.jpg,65,,,,,,,,,,,2,,,,,,,,,,,,,
dig_prac,34,245174,0.0-13.0-0.0,"""event"",""trial"",""time""
""fullscreenenter"",""1"",""11467""
","
","
","""event"",""trial"",""time""
""fullscreenenter"",""1"",""11467""
","
",,,,,,,,,,,,"[{""stimulus"":""run_exp/static/images/task_images/dig.jpg"",""time"":1.1999999997206032},{""stimulus"":""run_exp/static/images/task_images/land.jpg"",""time"":672},{""stimulus"":""run_exp/static/images/task_images/dig.jpg"",""time"":1343.3999999999069}]",[],,,,,,,,,,,,,,,
harvest_prac,35,246182,0.0-13.0-1.0,"""event"",""trial"",""time""
""fullscreenenter"",""1"",""11467""
","
","
","""event"",""trial"",""time""
""fullscreenenter"",""1"",""11467""
","
",,null,run_exp/static/images/task_images/barrel_text.jpg,null,,,,,,,,,,,,,,,,,,,,,,,,
decision_prac,36,246888,0.0-13.0-2.0,"""event"",""trial"",""time""
""fullscreenenter"",""1"",""11467""
","
","
","""event"",""trial"",""time""
""fullscreenenter"",""1"",""11467""
","
",,703.3,run_exp/static/images/task_images/land.jpg,65,,,,,,,,,,,3,,,,,,,,,,,,,
dig_prac,37,248911,0.0-14.0-0.0,"""event"",""trial"",""time""
""fullscreenenter"",""1"",""11467""
","
","
","""event"",""trial"",""time""
""fullscreenenter"",""1"",""11467""
","
",,,,,,,,,,,,"[{""stimulus"":""run_exp/static/images/task_images/dig.jpg"",""time"":1.2000000001862645},{""stimulus"":""run_exp/static/images/task_images/land.jpg"",""time"":671.7000000001863},{""stimulus"":""run_exp/static/images/task_images/dig.jpg"",""time"":1344}]",[],,,,,,,,,,,,,,,
harvest_prac,38,249918,0.0-14.0-1.0,"""event"",""trial"",""time""
""fullscreenenter"",""1"",""11467""
","
","
","""event"",""trial"",""time""
""fullscreenenter"",""1"",""11467""
","
",,null,run_exp/static/images/task_images/barrel_text.jpg,null,,,,,,,,,,,,,,,,,,,,,,,,
decision_prac,39,250892,0.0-14.0-2.0,"""event"",""trial"",""time""
""fullscreenenter"",""1"",""11467""
","
","
","""event"",""trial"",""time""
""fullscreenenter"",""1"",""11467""
","
",,970.7,run_exp/static/images/task_images/land.jpg,76,,,,,,,,,,,4,,,,,,,,,,,,,
travel,40,259934,0.0-15.0-0.0,"""event"",""trial"",""time""
""fullscreenenter"",""1"",""11467""
","
","
","""event"",""trial"",""time""
""fullscreenenter"",""1"",""11467""
","
",,,,,,,,,,,,"[{""stimulus"":""run_exp/static/images/task_images/rocket-01.jpg"",""time"":1.2000000001862645},{""stimulus"":""run_exp/static/images/task_images/rocket-02.jpg"",""time"":1008.8000000002794},{""stimulus"":""run_exp/static/images/task_images/rocket-03.jpg"",""time"":2017.5},{""stimulus"":""run_exp/static/images/task_images/rocket-04.jpg"",""time"":3017.5},{""stimulus"":""run_exp/static/images/task_images/rocket-05.jpg"",""time"":4025.100000000093},{""stimulus"":""run_exp/static/images/task_images/rocket-06.jpg"",""time"":5025.200000000186},{""stimulus"":""run_exp/static/images/task_images/rocket-07.jpg"",""time"":6044},{""stimulus"":""run_exp/static/images/task_images/rocket-08.jpg"",""time"":7033.200000000186},{""stimulus"":""run_exp/static/images/task_images/rocket-09.jpg"",""time"":8033.700000000186}]",[],0,,,,,,,,,,,,,,
alien_welcome_prac,41,264942,0.0-15.0-1.0,"""event"",""trial"",""time""
""fullscreenenter"",""1"",""11467""
","
","
","""event"",""trial"",""time""
""fullscreenenter"",""1"",""11467""
","
",,null,run_exp/static/images/task_images/aliens/practice_aliens/planet/alien_planet-4.jpg,null,,,,,,,,,,,,,,,,,,,,,,,,
land_prac,42,265455,0.0-15.0-2.0,"""event"",""trial"",""time""
""fullscreenenter"",""1"",""11467""
","
","
","""event"",""trial"",""time""
""fullscreenenter"",""1"",""11467""
","
",,null,run_exp/static/images/task_images/land.jpg,null,,,,,,,96,,,0,,,,,,,,,,,,,,
dig_prac,43,267469,0.0-15.0-3.0,"""event"",""trial"",""time""
""fullscreenenter"",""1"",""11467""
","
","
","""event"",""trial"",""time""
""fullscreenenter"",""1"",""11467""
","
",,,,,,,,,,,,"[{""stimulus"":""run_exp/static/images/task_images/dig.jpg"",""time"":0.3000000002793968},{""stimulus"":""run_exp/static/images/task_images/land.jpg"",""time"":675.8000000002794},{""stimulus"":""run_exp/static/images/task_images/dig.jpg"",""time"":1558.3000000002794}]",[],,,,,,,,,,,,,,,
harvest_prac,44,268478,0.0-15.0-4.0,"""event"",""trial"",""time""
""fullscreenenter"",""1"",""11467""
","
","
","""event"",""trial"",""time""
""fullscreenenter"",""1"",""11467""
","
",,null,run_exp/static/images/task_images/barrel_text.jpg,null,,,,,,,,,,,,,,,,,,,,,,,,
decision_prac,45,269458,0.0-15.0-5.0,"""event"",""trial"",""time""
""fullscreenenter"",""1"",""11467""
","
","
","""event"",""trial"",""time""
""fullscreenenter"",""1"",""11467""
","
",,976.6,run_exp/static/images/task_images/land.jpg,65,,,,,,,,,,,,1,,,,,,,,,,,,
quiz_instruc,46,274899,0.0-16.0-0.0,"""event"",""trial"",""time""
""fullscreenenter"",""1"",""11467""
","
","
","""event"",""trial"",""time""
""fullscreenenter"",""1"",""11467""
","
",,5430.1,run_exp/static/audio/clip_10_quiz.m4a,,,,,,,0,,,,,,,,,,,,,,,,,,
instruc_repeat,47,317973,0.0-16.0-1.0,"""event"",""trial"",""time""
""fullscreenenter"",""1"",""11467""
","
","
","""event"",""trial"",""time""
""fullscreenenter"",""1"",""11467""
","
",,null,"<p> Are you ready to play a practice game? </p> <p>In this practice game, you'll be digging up barrels of gems. But, in the real game, you'll be digging up the gems themselves. </p>",null,"<p>In this game, your goal is to collect as many gems as you can. That’s how you will win bonus money. </p> <p>The entire game will last 20 minutes no matter how many gems you collect or how many planets you visit. </p><p>To stay on a planet and dig again, press the letter A on your keyboard. To leave for a new planet, press the letter L.</p><p>The more you dig on a planet, the fewer gems you’ll get with each dig which is why you might consider leaving for a new planet. </p><p>When you arrive at a new planet, you’ll be greeted by an alien. What the alien looks like does not tell you anything about how much treasure is on the planet. </p>",,,,,,,,,,,,,,,,,,,,,,,
instruc_repeat_continue,48,320436,0.0-16.0-2.0,"""event"",""trial"",""time""
""fullscreenenter"",""1"",""11467""
","
","
","""event"",""trial"",""time""
""fullscreenenter"",""1"",""11467""
","
",,2458.1,"<p> Are you ready to play a practice game? </p> <p>In this practice game, you'll be digging up barrels of gems. But, in the real game, you'll be digging up the gems themselves. </p>",,,,,,,0,,,,,,,,,,,,,,,,,,
quiz_q_1_ask,49,327323,0.0-16.0-3.0,"""event"",""trial"",""time""
""fullscreenenter"",""1"",""11467""
","
","
","""event"",""trial"",""time""
""fullscreenenter"",""1"",""11467""
","
",,6880.5,run_exp/static/audio/clip_11_q1_ask.m4a,,,,,,,2,,,,,,,,,,,,,,,,,,
quiz_q_1_fb_correct,50,331547,0.0-17.0-0.0,"""event"",""trial"",""time""
""fullscreenenter"",""1"",""11467""
","
","
","""event"",""trial"",""time""
""fullscreenenter"",""1"",""11467""
","
",,null,run_exp/static/audio/clip_12_q1_correct.m4a,null,<p>That’s correct. You win extra money by collecting more gems.</p>,,,,,,,,,,,,,,,,,,,,,,,
quiz_q_2_ask,51,334041,0.0-17.0-1.0,"""event"",""trial"",""time""
""fullscreenenter"",""1"",""11467""
","
","
","""event"",""trial"",""time""
""fullscreenenter"",""1"",""11467""
","
",,2486.7,run_exp/static/audio/clip_14_q2_ask.m4a,,,,,,,1,,,,,,,,,,,,,,,,,,
quiz_q_2_fb_correct,52,338207,0.0-18.0-0.0,"""event"",""trial"",""time""
""fullscreenenter"",""1"",""11467""
","
","
","""event"",""trial"",""time""
""fullscreenenter"",""1"",""11467""
","
",,null,run_exp/static/audio/clip_15_q2_correct.m4a,null,<p>That’s correct. The experiment is 20 minutes no matter what.</p>,,,,,,,,,,,,,,,,,,,,,,,
quiz_q_3_ask,53,342128,0.0-18.0-1.0,"""event"",""trial"",""time""
""fullscreenenter"",""1"",""11467""
","
","
","""event"",""trial"",""time""
""fullscreenenter"",""1"",""11467""
","
",,3910.8,run_exp/static/audio/clip_17_q3_ask.m4a,,,,,,,1,,,,,,,,,,,,,,,,,,
quiz_q_3_fb_correct,54,346403,0.0-19.0-0.0,"""event"",""trial"",""time""
""fullscreenenter"",""1"",""11467""
","
","
","""event"",""trial"",""time""
""fullscreenenter"",""1"",""11467""
","
",,null,run_exp/static/audio/clip_18_q3_correct.m4a,null,<p> That’s correct. You press the letter L to travel to a new planet.</p>,,,,,,,,,,,,,,,,,,,,,,,
quiz_q_4_ask,55,356684,0.0-19.0-1.0,"""event"",""trial"",""time""
""fullscreenenter"",""1"",""11467""
","
","
","""event"",""trial"",""time""
""fullscreenenter"",""1"",""11467""
","
",,10277,run_exp/static/audio/clip_20_q4_ask.m4a,,,,,,,0,,,,,,,,,,,,,,,,,,
quiz_q_4_fb_correct,56,362282,0.0-20.0-0.0,"""event"",""trial"",""time""
""fullscreenenter"",""1"",""11467""
","
","
","""event"",""trial"",""time""
""fullscreenenter"",""1"",""11467""
","
",,null,run_exp/static/audio/clip_21_q4_correct.m4a,null,<p> That’s correct. The more you dig on a planet the fewer gems you’ll get with each dig. </p>,,,,,,,,,,,,,,,,,,,,,,,
quiz_q_5_ask,57,366573,0.0-20.0-1.0,"""event"",""trial"",""time""
""fullscreenenter"",""1"",""11467""
","
","
","""event"",""trial"",""time""
""fullscreenenter"",""1"",""11467""
","
",,4283.8,run_exp/static/audio/clip_23_q5_ask.m4a,,,,,,,1,,,,,,,,,,,,,,,,,,
quiz_q_5_fb_correct,58,371887,0.0-21.0-0.0,"""event"",""trial"",""time""
""fullscreenenter"",""1"",""11467""
","
","
","""event"",""trial"",""time""
""fullscreenenter"",""1"",""11467""
","
",,null,run_exp/static/audio/clip_24_q5_correct.m4a,null,<p> That’s correct. The alien tells you nothing about how much treasure is on the planet.</p>,,,,,,,,,,,,,,,,,,,,,,,
quiz_correct,59,375729,0.0-22.0-0.0,"""event"",""trial"",""time""
""fullscreenenter"",""1"",""11467""
","
","
","""event"",""trial"",""time""
""fullscreenenter"",""1"",""11467""
","
",,null,run_exp/static/audio/clip_26_correct_quiz.m4a,null,,,,,,,,,,,,,,,,,,,,,,,,
quiz_correct_continue,60,380476,0.0-22.0-1.0,"""event"",""trial"",""time""
""fullscreenenter"",""1"",""11467""
","
","
","""event"",""trial"",""time""
""fullscreenenter"",""1"",""11467""
","
",,4743.5,<p>Good job! You're now ready to move on to the real game!</p>,,,,,,,0,,,,,,,,,,,,,,,,,,
audio-keyboard-response,61,390969,0.0-22.0-2.0,"""event"",""trial"",""time""
""fullscreenenter"",""1"",""11467""
","
","
","""event"",""trial"",""time""
""fullscreenenter"",""1"",""11467""
","
",,null,run_exp/static/audio/clip_28_real_game.m4a,null,,,,,,,,,,,,,,,,,,,,,,,,
instruc_begin_exp_contine,62,392493,0.0-22.0-3.0,"""event"",""trial"",""time""
""fullscreenenter"",""1"",""11467""
","
","
","""event"",""trial"",""time""
""fullscreenenter"",""1"",""11467""
","
",,1519.7,"<p>Now that you know how  to dig for space treasure and travel to new planets,you can start exploring! </p><p>Do you want to go over the instructions again or get started with the real game?</p>",,,,,,,1,,,,,,1,,,,,,,,,,,,
alien_welcome,63,397510,0.0-23.0-0.0,"""event"",""trial"",""time""
""fullscreenenter"",""1"",""11467""
","
","
","""event"",""trial"",""time""
""fullscreenenter"",""1"",""11467""
","
",,null,run_exp/static/images/task_images/aliens/old_aliens/planet/alien_planet-51.jpg,null,,,,,,,,,,,,,51,"51,26,64,20,30,37,59,9,27,12,6,54,78,44,10,46,2,7,3,60,4,14,1,47,67,41,35,18,49,70,22,48,80,50,33,77,73,32,45,25,16",,,,,,,,,,
land,64,398022,0.0-23.0-1.0,"""event"",""trial"",""time""
""fullscreenenter"",""1"",""11467""
","
","
","""event"",""trial"",""time""
""fullscreenenter"",""1"",""11467""
","
",,null,run_exp/static/images/task_images/land.jpg,null,,,,,,,99,,,1,,,,,,,,,,,,,,
dig,65,400038,0.0-23.0-2.0,"""event"",""trial"",""time""
""fullscreenenter"",""1"",""11467""
","
","
","""event"",""trial"",""time""
""fullscreenenter"",""1"",""11467""
","
",,,,,,,,,,,,"[{""stimulus"":""run_exp/static/images/task_images/dig.jpg"",""time"":1.1999999997206032},{""stimulus"":""run_exp/static/images/task_images/land.jpg"",""time"":674.5},{""stimulus"":""run_exp/static/images/task_images/dig.jpg"",""time"":1338.5999999996275}]",[],1,,,,,,,,,,,,,,
harvest,66,401046,0.0-23.0-3.0,"""event"",""trial"",""time""
""fullscreenenter"",""1"",""11467""
","
","
","""event"",""trial"",""time""
""fullscreenenter"",""1"",""11467""
","
",,null,run_exp/static/images/task_images/gems/99.jpg,null,,,,,,,25,,,1,,,,,99,0.254874231,0.252525253,,,,,,,
decision,67,402112,0.0-23.0-4.0,"""event"",""trial"",""time""
""fullscreenenter"",""1"",""11467""
","
","
","""event"",""trial"",""time""
""fullscreenenter"",""1"",""11467""
","
",,1059.2,run_exp/static/images/task_images/land.jpg,65,,,,,,,25,,,1,,,,,,,,9613,1,0,FALSE,,,
dig,68,404078,0.0-24.0-0.0,"""event"",""trial"",""time""
""fullscreenenter"",""1"",""11467""
","
","
","""event"",""trial"",""time""
""fullscreenenter"",""1"",""11467""
","
",,,,,,,,,,,,"[{""stimulus"":""run_exp/static/images/task_images/dig.jpg"",""time"":1},{""stimulus"":""run_exp/static/images/task_images/land.jpg"",""time"":652.2000000001863},{""stimulus"":""run_exp/static/images/task_images/dig.jpg"",""time"":1299.9000000003725}]",[],1,,,,,,,,,,,,,,
harvest,69,405086,0.0-24.0-1.0,"""event"",""trial"",""time""
""fullscreenenter"",""1"",""11467""
","
","
","""event"",""trial"",""time""
""fullscreenenter"",""1"",""11467""
","
",,null,run_exp/static/images/task_images/gems/25.jpg,null,,,,,,,5,,,1,,,,,25,0.210433707,0.2,,,,,,,
decision,70,406964,0.0-24.0-2.0,"""event"",""trial"",""time""
""fullscreenenter"",""1"",""11467""
","
","
","""event"",""trial"",""time""
""fullscreenenter"",""1"",""11467""
","
",,1873.2,run_exp/static/images/task_images/land.jpg,76,,,,,,,5,,,1,,,,,,,,14464,1,1,TRUE,,,
travel,71,415094,0.0-25.0-0.0,"""event"",""trial"",""time""
""fullscreenenter"",""1"",""11467""
","
","
","""event"",""trial"",""time""
""fullscreenenter"",""1"",""11467""
","
",,,,,,,,,,,,"[{""stimulus"":""run_exp/static/images/task_images/rocket-01.jpg"",""time"":0.7999999998137355},{""stimulus"":""run_exp/static/images/task_images/rocket-02.jpg"",""time"":905.6999999997206},{""stimulus"":""run_exp/static/images/task_images/rocket-03.jpg"",""time"":1810.2999999998137},{""stimulus"":""run_exp/static/images/task_images/rocket-04.jpg"",""time"":2713.899999999907},{""stimulus"":""run_exp/static/images/task_images/rocket-05.jpg"",""time"":3617.2999999998137},{""stimulus"":""run_exp/static/images/task_images/rocket-06.jpg"",""time"":4513.699999999721},{""stimulus"":""run_exp/static/images/task_images/rocket-07.jpg"",""time"":5418},{""stimulus"":""run_exp/static/images/task_images/rocket-08.jpg"",""time"":6321.799999999814},{""stimulus"":""run_exp/static/images/task_images/rocket-09.jpg"",""time"":7225.899999999907}]",[],1,,,,,,,,,,,,,,
alien_welcome,72,420102,0.0-25.0-1.0,"""event"",""trial"",""time""
""fullscreenenter"",""1"",""11467""
","
","
","""event"",""trial"",""time""
""fullscreenenter"",""1"",""11467""
","
",,null,run_exp/static/images/task_images/aliens/old_aliens/planet/alien_planet-26.jpg,null,,,,,,,,,,,,,26,"51,26,64,20,30,37,59,9,27,12,6,54,78,44,10,46,2,7,3,60,4,14,1,47,67,41,35,18,49,70,22,48,80,50,33,77,73,32,45,25,16",,,,,,,,,,
land,73,420606,0.0-25.0-2.0,"""event"",""trial"",""time""
""fullscreenenter"",""1"",""11467""
","
","
","""event"",""trial"",""time""
""fullscreenenter"",""1"",""11467""
","
",,null,run_exp/static/images/task_images/land.jpg,null,,,,,,,100,,,2,,,,,,,,,,,,,,
dig,74,422622,0.0-25.0-3.0,"""event"",""trial"",""time""
""fullscreenenter"",""1"",""11467""
","
","
","""event"",""trial"",""time""
""fullscreenenter"",""1"",""11467""
","
",,,,,,,,,,,,"[{""stimulus"":""run_exp/static/images/task_images/dig.jpg"",""time"":1.1999999997206032},{""stimulus"":""run_exp/static/images/task_images/land.jpg"",""time"":676},{""stimulus"":""run_exp/static/images/task_images/dig.jpg"",""time"":1339.1999999997206}]",[],2,,,,,,,,,,,,,,
harvest,75,423630,0.0-25.0-4.0,"""event"",""trial"",""time""
""fullscreenenter"",""1"",""11467""
","
","
","""event"",""trial"",""time""
""fullscreenenter"",""1"",""11467""
","
",,null,run_exp/static/images/task_images/gems/100.jpg,null,,,,,,,15,,,2,,,,,100,0.154761838,0.15,,,,,,,
decision,76,424391,0.0-25.0-5.0,"""event"",""trial"",""time""
""fullscreenenter"",""1"",""11467""
","
","
","""event"",""trial"",""time""
""fullscreenenter"",""1"",""11467""
","
",,757.4,run_exp/static/images/task_images/land.jpg,65,,,,,,,15,,,2,,,,,,,,31891,1,0,FALSE,,,
dig,77,426654,0.0-26.0-0.0,"""event"",""trial"",""time""
""fullscreenenter"",""1"",""11467""
","
","
","""event"",""trial"",""time""
""fullscreenenter"",""1"",""11467""
","
",,,,,,,,,,,,"[{""stimulus"":""run_exp/static/images/task_images/dig.jpg"",""time"":1.1000000000931323},{""stimulus"":""run_exp/static/images/task_images/land.jpg"",""time"":758.5},{""stimulus"":""run_exp/static/images/task_images/dig.jpg"",""time"":1503.2999999998137}]",[],2,,,,,,,,,,,,,,
harvest,78,427661,0.0-26.0-1.0,"""event"",""trial"",""time""
""fullscreenenter"",""1"",""11467""
","
","
","""event"",""trial"",""time""
""fullscreenenter"",""1"",""11467""
","
",,null,run_exp/static/images/task_images/gems/15.jpg,null,,,,,,,3,,,2,,,,,15,0.16667948,0.2,,,,,,,
decision,79,428436,0.0-26.0-2.0,"""event"",""trial"",""time""
""fullscreenenter"",""1"",""11467""
","
","
","""event"",""trial"",""time""
""fullscreenenter"",""1"",""11467""
","
",,771.4,run_exp/static/images/task_images/land.jpg,65,,,,,,,3,,,2,,,,,,,,35936,1,1,FALSE,,,
dig,80,430678,0.0-27.0-0.0,"""event"",""trial"",""time""
""fullscreenenter"",""1"",""11467""
","
","
","""event"",""trial"",""time""
""fullscreenenter"",""1"",""11467""
","
",,,,,,,,,,,,"[{""stimulus"":""run_exp/static/images/task_images/dig.jpg"",""time"":1.1999999997206032},{""stimulus"":""run_exp/static/images/task_images/land.jpg"",""time"":750.5},{""stimulus"":""run_exp/static/images/task_images/dig.jpg"",""time"":1494.3999999999069}]",[],2,,,,,,,,,,,,,,
harvest,81,431685,0.0-27.0-1.0,"""event"",""trial"",""time""
""fullscreenenter"",""1"",""11467""
","
","
","""event"",""trial"",""time""
""fullscreenenter"",""1"",""11467""
","
",,null,run_exp/static/images/task_images/gems/3.jpg,null,,,,,,,1,,,2,,,,,3,0.256150793,0.333333333,,,,,,,
decision,82,432256,0.0-27.0-2.0,"""event"",""trial"",""time""
""fullscreenenter"",""1"",""11467""
","
","
","""event"",""trial"",""time""
""fullscreenenter"",""1"",""11467""
","
",,567.6,run_exp/static/images/task_images/land.jpg,76,,,,,,,1,,,2,,,,,,,,39756,1,2,TRUE,,,
travel,83,441702,0.0-28.0-0.0,"""event"",""trial"",""time""
""fullscreenenter"",""1"",""11467""
","
","
","""event"",""trial"",""time""
""fullscreenenter"",""1"",""11467""
","
",,,,,,,,,,,,"[{""stimulus"":""run_exp/static/images/task_images/rocket-01.jpg"",""time"":1},{""stimulus"":""run_exp/static/images/task_images/rocket-02.jpg"",""time"":1052.3000000002794},{""stimulus"":""run_exp/static/images/task_images/rocket-03.jpg"",""time"":2100.600000000093},{""stimulus"":""run_exp/static/images/task_images/rocket-04.jpg"",""time"":3150.100000000093},{""stimulus"":""run_exp/static/images/task_images/rocket-05.jpg"",""time"":4196.9000000003725},{""stimulus"":""run_exp/static/images/task_images/rocket-06.jpg"",""time"":5244.700000000186},{""stimulus"":""run_exp/static/images/task_images/rocket-07.jpg"",""time"":6292.5},{""stimulus"":""run_exp/static/images/task_images/rocket-08.jpg"",""time"":7341.100000000093},{""stimulus"":""run_exp/static/images/task_images/rocket-09.jpg"",""time"":8388.600000000093}]",[],2,,,,,,,,,,,,,,
alien_welcome,84,446710,0.0-28.0-1.0,"""event"",""trial"",""time""
""fullscreenenter"",""1"",""11467""
","
","
","""event"",""trial"",""time""
""fullscreenenter"",""1"",""11467""
","
",,null,run_exp/static/images/task_images/aliens/old_aliens/planet/alien_planet-64.jpg,null,,,,,,,,,,,,,64,"51,26,64,20,30,37,59,9,27,12,6,54,78,44,10,46,2,7,3,60,4,14,1,47,67,41,35,18,49,70,22,48,80,50,33,77,73,32,45,25,16",,,,,,,,,,
land,85,447222,0.0-28.0-2.0,"""event"",""trial"",""time""
""fullscreenenter"",""1"",""11467""
","
","
","""event"",""trial"",""time""
""fullscreenenter"",""1"",""11467""
","
",,null,run_exp/static/images/task_images/land.jpg,null,,,,,,,92,,,3,,,,,,,,,,,,,,
dig,86,449238,0.0-28.0-3.0,"""event"",""trial"",""time""
""fullscreenenter"",""1"",""11467""
","
","
","""event"",""trial"",""time""
""fullscreenenter"",""1"",""11467""
","
",,,,,,,,,,,,"[{""stimulus"":""run_exp/static/images/task_images/dig.jpg"",""time"":1.099999999627471},{""stimulus"":""run_exp/static/images/task_images/land.jpg"",""time"":676.3999999999069},{""stimulus"":""run_exp/static/images/task_images/dig.jpg"",""time"":1339.1999999997206}]",[],3,,,,,,,,,,,,,,
harvest,87,450246,0.0-28.0-4.0,"""event"",""trial"",""time""
""fullscreenenter"",""1"",""11467""
","
","
","""event"",""trial"",""time""
""fullscreenenter"",""1"",""11467""
","
",,null,run_exp/static/images/task_images/gems/92.jpg,null,,,,,,,42,,,3,,,,,92,0.458211344,0.456521739,,,,,,,
decision,88,451309,0.0-28.0-5.0,"""event"",""trial"",""time""
""fullscreenenter"",""1"",""11467""
","
","
","""event"",""trial"",""time""
""fullscreenenter"",""1"",""11467""
","
",,1058.2,run_exp/static/images/task_images/land.jpg,65,,,,,,,42,,,3,,,,,,,,58809,1,0,FALSE,,,
dig,89,453270,0.0-29.0-0.0,"""event"",""trial"",""time""
""fullscreenenter"",""1"",""11467""
","
","
","""event"",""trial"",""time""
""fullscreenenter"",""1"",""11467""
","
",,,,,,,,,,,,"[{""stimulus"":""run_exp/static/images/task_images/dig.jpg"",""time"":1.3999999999068677},{""stimulus"":""run_exp/static/images/task_images/land.jpg"",""time"":652.6000000000931},{""stimulus"":""run_exp/static/images/task_images/dig.jpg"",""time"":1300.8000000002794}]",[],3,,,,,,,,,,,,,,
harvest,90,454278,0.0-29.0-1.0,"""event"",""trial"",""time""
""fullscreenenter"",""1"",""11467""
","
","
","""event"",""trial"",""time""
""fullscreenenter"",""1"",""11467""
","
",,null,run_exp/static/images/task_images/gems/42.jpg,null,,,,,,,22,,,3,,,,,42,0.527910807,0.523809524,,,,,,,
decision,91,454997,0.0-29.0-2.0,"""event"",""trial"",""time""
""fullscreenenter"",""1"",""11467""
","
","
","""event"",""trial"",""time""
""fullscreenenter"",""1"",""11467""
","
",,716.5,run_exp/static/images/task_images/land.jpg,65,,,,,,,22,,,3,,,,,,,,62497,1,1,FALSE,,,
dig,92,457302,0.0-30.0-0.0,"""event"",""trial"",""time""
""fullscreenenter"",""1"",""11467""
","
","
","""event"",""trial"",""time""
""fullscreenenter"",""1"",""11467""
","
",,,,,,,,,,,,"[{""stimulus"":""run_exp/static/images/task_images/dig.jpg"",""time"":1.2000000001862645},{""stimulus"":""run_exp/static/images/task_images/land.jpg"",""time"":772.1000000000931},{""stimulus"":""run_exp/static/images/task_images/dig.jpg"",""time"":1532.5}]",[],3,,,,,,,,,,,,,,
harvest,93,458310,0.0-30.0-1.0,"""event"",""trial"",""time""
""fullscreenenter"",""1"",""11467""
","
","
","""event"",""trial"",""time""
""fullscreenenter"",""1"",""11467""
","
",,null,run_exp/static/images/task_images/gems/22.jpg,null,,,,,,,11,,,3,,,,,22,0.493787283,0.5,,,,,,,
decision,94,459126,0.0-30.0-2.0,"""event"",""trial"",""time""
""fullscreenenter"",""1"",""11467""
","
","
","""event"",""trial"",""time""
""fullscreenenter"",""1"",""11467""
","
",,811.7,run_exp/static/images/task_images/land.jpg,65,,,,,,,11,,,3,,,,,,,,66627,1,2,FALSE,,,
dig,95,461336,0.0-31.0-0.0,"""event"",""trial"",""time""
""fullscreenenter"",""1"",""11467""
","
","
","""event"",""trial"",""time""
""fullscreenenter"",""1"",""11467""
","
",,,,,,,,,,,,"[{""stimulus"":""run_exp/static/images/task_images/dig.jpg"",""time"":1.099999999627471},{""stimulus"":""run_exp/static/images/task_images/land.jpg"",""time"":739.5},{""stimulus"":""run_exp/static/images/task_images/dig.jpg"",""time"":1467.3999999999069}]",[],3,,,,,,,,,,,,,,
harvest,96,462342,0.0-31.0-1.0,"""event"",""trial"",""time""
""fullscreenenter"",""1"",""11467""
","
","
","""event"",""trial"",""time""
""fullscreenenter"",""1"",""11467""
","
",,null,run_exp/static/images/task_images/gems/11.jpg,null,,,,,,,5,,,3,,,,,11,0.464221389,0.454545455,,,,,,,
decision,97,463163,0.0-31.0-2.0,"""event"",""trial"",""time""
""fullscreenenter"",""1"",""11467""
","
","
","""event"",""trial"",""time""
""fullscreenenter"",""1"",""11467""
","
",,816.8,run_exp/static/images/task_images/land.jpg,76,,,,,,,5,,,3,,,,,,,,70663,1,3,TRUE,,,
travel,98,472358,0.0-32.0-0.0,"""event"",""trial"",""time""
""fullscreenenter"",""1"",""11467""
","
","
","""event"",""trial"",""time""
""fullscreenenter"",""1"",""11467""
","
",,,,,,,,,,,,"[{""stimulus"":""run_exp/static/images/task_images/rocket-01.jpg"",""time"":1},{""stimulus"":""run_exp/static/images/task_images/rocket-02.jpg"",""time"":1025.5},{""stimulus"":""run_exp/static/images/task_images/rocket-03.jpg"",""time"":2048.7000000001863},{""stimulus"":""run_exp/static/images/task_images/rocket-04.jpg"",""time"":3065.2000000001863},{""stimulus"":""run_exp/static/images/task_images/rocket-05.jpg"",""time"":4089.2000000001863},{""stimulus"":""run_exp/static/images/task_images/rocket-06.jpg"",""time"":5104.899999999907},{""stimulus"":""run_exp/static/images/task_images/rocket-07.jpg"",""time"":6129},{""stimulus"":""run_exp/static/images/task_images/rocket-08.jpg"",""time"":7145},{""stimulus"":""run_exp/static/images/task_images/rocket-09.jpg"",""time"":8180.100000000093}]",[],3,,,,,,,,,,,,,,
alien_welcome,99,477366,0.0-32.0-1.0,"""event"",""trial"",""time""
""fullscreenenter"",""1"",""11467""
","
","
","""event"",""trial"",""time""
""fullscreenenter"",""1"",""11467""
","
",,null,run_exp/static/images/task_images/aliens/old_aliens/planet/alien_planet-20.jpg,null,,,,,,,,,,,,,20,"51,26,64,20,30,37,59,9,27,12,6,54,78,44,10,46,2,7,3,60,4,14,1,47,67,41,35,18,49,70,22,48,80,50,33,77,73,32,45,25,16",,,,,,,,,,
land,100,477878,0.0-32.0-2.0,"""event"",""trial"",""time""
""fullscreenenter"",""1"",""11467""
","
","
","""event"",""trial"",""time""
""fullscreenenter"",""1"",""11467""
","
",,null,run_exp/static/images/task_images/land.jpg,null,,,,,,,99,,,4,,,,,,,,,,,,,,
dig,101,479894,0.0-32.0-3.0,"""event"",""trial"",""time""
""fullscreenenter"",""1"",""11467""
","
","
","""event"",""trial"",""time""
""fullscreenenter"",""1"",""11467""
","
",,,,,,,,,,,,"[{""stimulus"":""run_exp/static/images/task_images/dig.jpg"",""time"":1.1000000000931323},{""stimulus"":""run_exp/static/images/task_images/land.jpg"",""time"":676.1000000000931},{""stimulus"":""run_exp/static/images/task_images/dig.jpg"",""time"":1340.1000000000931}]",[],4,,,,,,,,,,,,,,
harvest,102,481209,0.0-32.0-4.0,"""event"",""trial"",""time""
""fullscreenenter"",""1"",""11467""
","
","
","""event"",""trial"",""time""
""fullscreenenter"",""1"",""11467""
","
",,null,run_exp/static/images/task_images/gems/99.jpg,null,,,,,,,50,,,4,,,,,99,0.509761199,0.505050505,,,,,,,
decision,103,481763,0.0-32.0-5.0,"""event"",""trial"",""time""
""fullscreenenter"",""1"",""11467""
","
","
","""event"",""trial"",""time""
""fullscreenenter"",""1"",""11467""
","
",,548.8,run_exp/static/images/task_images/land.jpg,65,,,,,,,50,,,4,,,,,,,,89263,1,0,FALSE,,,
dig,104,484238,0.0-33.0-0.0,"""event"",""trial"",""time""
""fullscreenenter"",""1"",""11467""
","
","
","""event"",""trial"",""time""
""fullscreenenter"",""1"",""11467""
","
",,,,,,,,,,,,"[{""stimulus"":""run_exp/static/images/task_images/dig.jpg"",""time"":1.1999999997206032},{""stimulus"":""run_exp/static/images/task_images/land.jpg"",""time"":822.6000000000931},{""stimulus"":""run_exp/static/images/task_images/dig.jpg"",""time"":1638.8999999999069}]",[],4,,,,,,,,,,,,,,
harvest,105,485246,0.0-33.0-1.0,"""event"",""trial"",""time""
""fullscreenenter"",""1"",""11467""
","
","
","""event"",""trial"",""time""
""fullscreenenter"",""1"",""11467""
","
",,null,run_exp/static/images/task_images/gems/50.jpg,null,,,,,,,22,,,4,,,,,50,0.443284496,0.44,,,,,,,
decision,106,485939,0.0-33.0-2.0,"""event"",""trial"",""time""
""fullscreenenter"",""1"",""11467""
","
","
","""event"",""trial"",""time""
""fullscreenenter"",""1"",""11467""
","
",,690,run_exp/static/images/task_images/land.jpg,65,,,,,,,22,,,4,,,,,,,,93439,1,1,FALSE,,,
dig,107,488270,0.0-34.0-0.0,"""event"",""trial"",""time""
""fullscreenenter"",""1"",""11467""
","
","
","""event"",""trial"",""time""
""fullscreenenter"",""1"",""11467""
","
",,,,,,,,,,,,"[{""stimulus"":""run_exp/static/images/task_images/dig.jpg"",""time"":1.2999999998137355},{""stimulus"":""run_exp/static/images/task_images/land.jpg"",""time"":779.1999999997206},{""stimulus"":""run_exp/static/images/task_images/dig.jpg"",""time"":1547.5}]",[],4,,,,,,,,,,,,,,
harvest,108,489278,0.0-34.0-1.0,"""event"",""trial"",""time""
""fullscreenenter"",""1"",""11467""
","
","
","""event"",""trial"",""time""
""fullscreenenter"",""1"",""11467""
","
",,null,run_exp/static/images/task_images/gems/22.jpg,null,,,,,,,9,,,4,,,,,22,0.415594288,0.409090909,,,,,,,
decision,109,489367,0.0-34.0-2.0,"""event"",""trial"",""time""
""fullscreenenter"",""1"",""11467""
","
","
","""event"",""trial"",""time""
""fullscreenenter"",""1"",""11467""
","
",,85.5,run_exp/static/images/task_images/land.jpg,65,,,,,,,9,,,4,,,,,,,,96867,1,2,FALSE,,,
dig,110,492302,0.0-35.0-0.0,"""event"",""trial"",""time""
""fullscreenenter"",""1"",""11467""
","
","
","""event"",""trial"",""time""
""fullscreenenter"",""1"",""11467""
","
",,,,,,,,,,,,"[{""stimulus"":""run_exp/static/images/task_images/dig.jpg"",""time"":1.1999999997206032},{""stimulus"":""run_exp/static/images/task_images/land.jpg"",""time"":979.0999999996275},{""stimulus"":""run_exp/static/images/task_images/dig.jpg"",""time"":1947}]",[],4,,,,,,,,,,,,,,
harvest,111,493310,0.0-35.0-1.0,"""event"",""trial"",""time""
""fullscreenenter"",""1"",""11467""
","
","
","""event"",""trial"",""time""
""fullscreenenter"",""1"",""11467""
","
",,null,run_exp/static/images/task_images/gems/9.jpg,null,,,,,,,4,,,4,,,,,9,0.481185471,0.444444444,,,,,,,
decision,112,494025,0.0-35.0-2.0,"""event"",""trial"",""time""
""fullscreenenter"",""1"",""11467""
","
","
","""event"",""trial"",""time""
""fullscreenenter"",""1"",""11467""
","
",,712.1,run_exp/static/images/task_images/land.jpg,76,,,,,,,4,,,4,,,,,,,,101525,1,3,TRUE,,,
travel,113,503326,0.0-36.0-0.0,"""event"",""trial"",""time""
""fullscreenenter"",""1"",""11467""
","
","
","""event"",""trial"",""time""
""fullscreenenter"",""1"",""11467""
","
",,,,,,,,,,,,"[{""stimulus"":""run_exp/static/images/task_images/rocket-01.jpg"",""time"":1.1000000000931323},{""stimulus"":""run_exp/static/images/task_images/rocket-02.jpg"",""time"":1041},{""stimulus"":""run_exp/static/images/task_images/rocket-03.jpg"",""time"":2072.2000000001863},{""stimulus"":""run_exp/static/images/task_images/rocket-04.jpg"",""time"":3104.5},{""stimulus"":""run_exp/static/images/task_images/rocket-05.jpg"",""time"":4128.200000000186},{""stimulus"":""run_exp/static/images/task_images/rocket-06.jpg"",""time"":5160.600000000093},{""stimulus"":""run_exp/static/images/task_images/rocket-07.jpg"",""time"":6193},{""stimulus"":""run_exp/static/images/task_images/rocket-08.jpg"",""time"":7224.799999999814},{""stimulus"":""run_exp/static/images/task_images/rocket-09.jpg"",""time"":8256.700000000186}]",[],4,,,,,,,,,,,,,,
alien_welcome,114,508334,0.0-36.0-1.0,"""event"",""trial"",""time""
""fullscreenenter"",""1"",""11467""
","
","
","""event"",""trial"",""time""
""fullscreenenter"",""1"",""11467""
","
",,null,run_exp/static/images/task_images/aliens/old_aliens/planet/alien_planet-30.jpg,null,,,,,,,,,,,,,30,"51,26,64,20,30,37,59,9,27,12,6,54,78,44,10,46,2,7,3,60,4,14,1,47,67,41,35,18,49,70,22,48,80,50,33,77,73,32,45,25,16",,,,,,,,,,
land,115,508845,0.0-36.0-2.0,"""event"",""trial"",""time""
""fullscreenenter"",""1"",""11467""
","
","
","""event"",""trial"",""time""
""fullscreenenter"",""1"",""11467""
","
",,null,run_exp/static/images/task_images/land.jpg,null,,,,,,,101,,,5,,,,,,,,,,,,,,
dig,116,510862,0.0-36.0-3.0,"""event"",""trial"",""time""
""fullscreenenter"",""1"",""11467""
","
","
","""event"",""trial"",""time""
""fullscreenenter"",""1"",""11467""
","
",,,,,,,,,,,,"[{""stimulus"":""run_exp/static/images/task_images/dig.jpg"",""time"":1.2000000001862645},{""stimulus"":""run_exp/static/images/task_images/land.jpg"",""time"":676.1000000000931},{""stimulus"":""run_exp/static/images/task_images/dig.jpg"",""time"":1339.5}]",[],5,,,,,,,,,,,,,,
harvest,117,511870,0.0-36.0-4.0,"""event"",""trial"",""time""
""fullscreenenter"",""1"",""11467""
","
","
","""event"",""trial"",""time""
""fullscreenenter"",""1"",""11467""
","
",,null,run_exp/static/images/task_images/gems/101.jpg,null,,,,,,,54,,,5,,,,,101,0.536795643,0.534653465,,,,,,,
decision,118,513466,0.0-36.0-5.0,"""event"",""trial"",""time""
""fullscreenenter"",""1"",""11467""
","
","
","""event"",""trial"",""time""
""fullscreenenter"",""1"",""11467""
","
",,1592.7,run_exp/static/images/task_images/land.jpg,65,,,,,,,54,,,5,,,,,,,,120966,1,0,FALSE,,,
dig,119,514894,0.0-37.0-0.0,"""event"",""trial"",""time""
""fullscreenenter"",""1"",""11467""
","
","
","""event"",""trial"",""time""
""fullscreenenter"",""1"",""11467""
","
",,,,,,,,,,,,"[{""stimulus"":""run_exp/static/images/task_images/dig.jpg"",""time"":1.1999999997206032},{""stimulus"":""run_exp/static/images/task_images/land.jpg"",""time"":479.29999999981374},{""stimulus"":""run_exp/static/images/task_images/dig.jpg"",""time"":943.6999999997206}]",[],5,,,,,,,,,,,,,,
harvest,120,515902,0.0-37.0-1.0,"""event"",""trial"",""time""
""fullscreenenter"",""1"",""11467""
","
","
","""event"",""trial"",""time""
""fullscreenenter"",""1"",""11467""
","
",,null,run_exp/static/images/task_images/gems/54.jpg,null,,,,,,,26,,,5,,,,,54,0.479470012,0.481481481,,,,,,,
decision,121,517413,0.0-37.0-2.0,"""event"",""trial"",""time""
""fullscreenenter"",""1"",""11467""
","
","
","""event"",""trial"",""time""
""fullscreenenter"",""1"",""11467""
","
",,1508.5,run_exp/static/images/task_images/land.jpg,65,,,,,,,26,,,5,,,,,,,,124914,1,1,FALSE,,,
dig,122,518926,0.0-38.0-0.0,"""event"",""trial"",""time""
""fullscreenenter"",""1"",""11467""
","
","
","""event"",""trial"",""time""
""fullscreenenter"",""1"",""11467""
","
",,,,,,,,,,,,"[{""stimulus"":""run_exp/static/images/task_images/dig.jpg"",""time"":1.2000000001862645},{""stimulus"":""run_exp/static/images/task_images/land.jpg"",""time"":508.5},{""stimulus"":""run_exp/static/images/task_images/dig.jpg"",""time"":1004.1000000000931}]",[],5,,,,,,,,,,,,,,
harvest,123,519934,0.0-38.0-1.0,"""event"",""trial"",""time""
""fullscreenenter"",""1"",""11467""
","
","
","""event"",""trial"",""time""
""fullscreenenter"",""1"",""11467""
","
",,null,run_exp/static/images/task_images/gems/26.jpg,null,,,,,,,13,,,5,,,,,26,0.517099444,0.5,,,,,,,
decision,124,520872,0.0-38.0-2.0,"""event"",""trial"",""time""
""fullscreenenter"",""1"",""11467""
","
","
","""event"",""trial"",""time""
""fullscreenenter"",""1"",""11467""
","
",,934.9,run_exp/static/images/task_images/land.jpg,65,,,,,,,13,,,5,,,,,,,,128372,1,2,FALSE,,,
dig,125,522958,0.0-39.0-0.0,"""event"",""trial"",""time""
""fullscreenenter"",""1"",""11467""
","
","
","""event"",""trial"",""time""
""fullscreenenter"",""1"",""11467""
","
",,,,,,,,,,,,"[{""stimulus"":""run_exp/static/images/task_images/dig.jpg"",""time"":1.2000000001862645},{""stimulus"":""run_exp/static/images/task_images/land.jpg"",""time"":696.7000000001863},{""stimulus"":""run_exp/static/images/task_images/dig.jpg"",""time"":1384.7000000001863}]",[],5,,,,,,,,,,,,,,
harvest,126,523966,0.0-39.0-1.0,"""event"",""trial"",""time""
""fullscreenenter"",""1"",""11467""
","
","
","""event"",""trial"",""time""
""fullscreenenter"",""1"",""11467""
","
",,null,run_exp/static/images/task_images/gems/13.jpg,null,,,,,,,7,,,5,,,,,13,0.501914872,0.538461538,,,,,,,
decision,127,525471,0.0-39.0-2.0,"""event"",""trial"",""time""
""fullscreenenter"",""1"",""11467""
","
","
","""event"",""trial"",""time""
""fullscreenenter"",""1"",""11467""
","
",,1502.3,run_exp/static/images/task_images/land.jpg,76,,,,,,,7,,,5,,,,,,,,132971,1,3,TRUE,,,
travel,128,533982,0.0-40.0-0.0,"""event"",""trial"",""time""
""fullscreenenter"",""1"",""11467""
","
","
","""event"",""trial"",""time""
""fullscreenenter"",""1"",""11467""
","
",,,,,,,,,,,,"[{""stimulus"":""run_exp/static/images/task_images/rocket-01.jpg"",""time"":0.8000000002793968},{""stimulus"":""run_exp/static/images/task_images/rocket-02.jpg"",""time"":950},{""stimulus"":""run_exp/static/images/task_images/rocket-03.jpg"",""time"":1894},{""stimulus"":""run_exp/static/images/task_images/rocket-04.jpg"",""time"":2838.5},{""stimulus"":""run_exp/static/images/task_images/rocket-05.jpg"",""time"":3782.2000000001863},{""stimulus"":""run_exp/static/images/task_images/rocket-06.jpg"",""time"":4726.5},{""stimulus"":""run_exp/static/images/task_images/rocket-07.jpg"",""time"":5670.100000000093},{""stimulus"":""run_exp/static/images/task_images/rocket-08.jpg"",""time"":6613.800000000279},{""stimulus"":""run_exp/static/images/task_images/rocket-09.jpg"",""time"":7558.100000000093}]",[],5,,,,,,,,,,,,,,
alien_welcome,129,538990,0.0-40.0-1.0,"""event"",""trial"",""time""
""fullscreenenter"",""1"",""11467""
","
","
","""event"",""trial"",""time""
""fullscreenenter"",""1"",""11467""
","
",,null,run_exp/static/images/task_images/aliens/old_aliens/planet/alien_planet-37.jpg,null,,,,,,,,,,,,,37,"51,26,64,20,30,37,59,9,27,12,6,54,78,44,10,46,2,7,3,60,4,14,1,47,67,41,35,18,49,70,22,48,80,50,33,77,73,32,45,25,16",,,,,,,,,,
land,130,539502,0.0-40.0-2.0,"""event"",""trial"",""time""
""fullscreenenter"",""1"",""11467""
","
","
","""event"",""trial"",""time""
""fullscreenenter"",""1"",""11467""
","
",,null,run_exp/static/images/task_images/land.jpg,null,,,,,,,99,,,6,,,,,,,,,,,,,,
dig,131,541510,0.0-40.0-3.0,"""event"",""trial"",""time""
""fullscreenenter"",""1"",""11467""
","
","
","""event"",""trial"",""time""
""fullscreenenter"",""1"",""11467""
","
",,,,,,,,,,,,"[{""stimulus"":""run_exp/static/images/task_images/dig.jpg"",""time"":0.900000000372529},{""stimulus"":""run_exp/static/images/task_images/land.jpg"",""time"":677.1000000000931},{""stimulus"":""run_exp/static/images/task_images/dig.jpg"",""time"":1341.2000000001863}]",[],6,,,,,,,,,,,,,,
harvest,132,542518,0.0-40.0-4.0,"""event"",""trial"",""time""
""fullscreenenter"",""1"",""11467""
","
","
","""event"",""trial"",""time""
""fullscreenenter"",""1"",""11467""
","
",,null,run_exp/static/images/task_images/gems/99.jpg,null,,,,,,,73,,,6,,,,,99,0.738178462,0.737373737,,,,,,,
decision,133,543351,0.0-40.0-5.0,"""event"",""trial"",""time""
""fullscreenenter"",""1"",""11467""
","
","
","""event"",""trial"",""time""
""fullscreenenter"",""1"",""11467""
","
",,827.8,run_exp/static/images/task_images/land.jpg,65,,,,,,,73,,,6,,,,,,,,150851,1,0,FALSE,,,
dig,134,545542,0.0-41.0-0.0,"""event"",""trial"",""time""
""fullscreenenter"",""1"",""11467""
","
","
","""event"",""trial"",""time""
""fullscreenenter"",""1"",""11467""
","
",,,,,,,,,,,,"[{""stimulus"":""run_exp/static/images/task_images/dig.jpg"",""time"":1.099999999627471},{""stimulus"":""run_exp/static/images/task_images/land.jpg"",""time"":729.0999999996275},{""stimulus"":""run_exp/static/images/task_images/dig.jpg"",""time"":1456.6999999997206}]",[],6,,,,,,,,,,,,,,
harvest,135,546550,0.0-41.0-1.0,"""event"",""trial"",""time""
""fullscreenenter"",""1"",""11467""
","
","
","""event"",""trial"",""time""
""fullscreenenter"",""1"",""11467""
","
",,null,run_exp/static/images/task_images/gems/73.jpg,null,,,,,,,61,,,6,,,,,73,0.834410717,0.835616438,,,,,,,
decision,136,547632,0.0-41.0-2.0,"""event"",""trial"",""time""
""fullscreenenter"",""1"",""11467""
","
","
","""event"",""trial"",""time""
""fullscreenenter"",""1"",""11467""
","
",,1077.7,run_exp/static/images/task_images/land.jpg,65,,,,,,,61,,,6,,,,,,,,155133,1,1,FALSE,,,
dig,137,549574,0.0-42.0-0.0,"""event"",""trial"",""time""
""fullscreenenter"",""1"",""11467""
","
","
","""event"",""trial"",""time""
""fullscreenenter"",""1"",""11467""
","
",,,,,,,,,,,,"[{""stimulus"":""run_exp/static/images/task_images/dig.jpg"",""time"":1.1000000000931323},{""stimulus"":""run_exp/static/images/task_images/land.jpg"",""time"":648.7000000001863},{""stimulus"":""run_exp/static/images/task_images/dig.jpg"",""time"":1288.1000000000931}]",[],6,,,,,,,,,,,,,,
harvest,138,550582,0.0-42.0-1.0,"""event"",""trial"",""time""
""fullscreenenter"",""1"",""11467""
","
","
","""event"",""trial"",""time""
""fullscreenenter"",""1"",""11467""
","
",,null,run_exp/static/images/task_images/gems/61.jpg,null,,,,,,,54,,,6,,,,,61,0.877809877,0.885245902,,,,,,,
decision,139,551452,0.0-42.0-2.0,"""event"",""trial"",""time""
""fullscreenenter"",""1"",""11467""
","
","
","""event"",""trial"",""time""
""fullscreenenter"",""1"",""11467""
","
",,867.3,run_exp/static/images/task_images/land.jpg,65,,,,,,,54,,,6,,,,,,,,158953,1,2,FALSE,,,
dig,140,553606,0.0-43.0-0.0,"""event"",""trial"",""time""
""fullscreenenter"",""1"",""11467""
","
","
","""event"",""trial"",""time""
""fullscreenenter"",""1"",""11467""
","
",,,,,,,,,,,,"[{""stimulus"":""run_exp/static/images/task_images/dig.jpg"",""time"":1.2000000001862645},{""stimulus"":""run_exp/static/images/task_images/land.jpg"",""time"":715.9000000003725},{""stimulus"":""run_exp/static/images/task_images/dig.jpg"",""time"":1427.7000000001863}]",[],6,,,,,,,,,,,,,,
harvest,141,554614,0.0-43.0-1.0,"""event"",""trial"",""time""
""fullscreenenter"",""1"",""11467""
","
","
","""event"",""trial"",""time""
""fullscreenenter"",""1"",""11467""
","
",,null,run_exp/static/images/task_images/gems/54.jpg,null,,,,,,,43,,,6,,,,,54,0.799968496,0.796296296,,,,,,,
decision,142,555239,0.0-43.0-2.0,"""event"",""trial"",""time""
""fullscreenenter"",""1"",""11467""
","
","
","""event"",""trial"",""time""
""fullscreenenter"",""1"",""11467""
","
",,620.3,run_exp/static/images/task_images/land.jpg,65,,,,,,,43,,,6,,,,,,,,162739,1,3,FALSE,,,
dig,143,557638,0.0-44.0-0.0,"""event"",""trial"",""time""
""fullscreenenter"",""1"",""11467""
","
","
","""event"",""trial"",""time""
""fullscreenenter"",""1"",""11467""
","
",,,,,,,,,,,,"[{""stimulus"":""run_exp/static/images/task_images/dig.jpg"",""time"":1.2000000001862645},{""stimulus"":""run_exp/static/images/task_images/land.jpg"",""time"":801.5},{""stimulus"":""run_exp/static/images/task_images/dig.jpg"",""time"":1593.1000000000931}]",[],6,,,,,,,,,,,,,,
harvest,144,558646,0.0-44.0-1.0,"""event"",""trial"",""time""
""fullscreenenter"",""1"",""11467""
","
","
","""event"",""trial"",""time""
""fullscreenenter"",""1"",""11467""
","
",,null,run_exp/static/images/task_images/gems/43.jpg,null,,,,,,,33,,,6,,,,,43,0.757035582,0.76744186,,,,,,,
decision,145,559478,0.0-44.0-2.0,"""event"",""trial"",""time""
""fullscreenenter"",""1"",""11467""
","
","
","""event"",""trial"",""time""
""fullscreenenter"",""1"",""11467""
","
",,827.1,run_exp/static/images/task_images/land.jpg,65,,,,,,,33,,,6,,,,,,,,166978,1,4,FALSE,,,
dig,146,561670,0.0-45.0-0.0,"""event"",""trial"",""time""
""fullscreenenter"",""1"",""11467""
","
","
","""event"",""trial"",""time""
""fullscreenenter"",""1"",""11467""
","
",,,,,,,,,,,,"[{""stimulus"":""run_exp/static/images/task_images/dig.jpg"",""time"":1},{""stimulus"":""run_exp/static/images/task_images/land.jpg"",""time"":732},{""stimulus"":""run_exp/static/images/task_images/dig.jpg"",""time"":1460.0999999996275}]",[],6,,,,,,,,,,,,,,
harvest,147,562959,0.0-45.0-1.0,"""event"",""trial"",""time""
""fullscreenenter"",""1"",""11467""
","
","
","""event"",""trial"",""time""
""fullscreenenter"",""1"",""11467""
","
",,null,run_exp/static/images/task_images/gems/33.jpg,null,,,,,,,27,,,6,,,,,33,0.821355447,0.818181818,,,,,,,
decision,148,563258,0.0-45.0-2.0,"""event"",""trial"",""time""
""fullscreenenter"",""1"",""11467""
","
","
","""event"",""trial"",""time""
""fullscreenenter"",""1"",""11467""
","
",,294.7,run_exp/static/images/task_images/land.jpg,76,,,,,,,27,,,6,,,,,,,,170758,1,5,TRUE,,,
travel,149,572974,0.0-46.0-0.0,"""event"",""trial"",""time""
""fullscreenenter"",""1"",""11467""
","
","
","""event"",""trial"",""time""
""fullscreenenter"",""1"",""11467""
","
",,,,,,,,,,,,"[{""stimulus"":""run_exp/static/images/task_images/rocket-01.jpg"",""time"":0.8000000002793968},{""stimulus"":""run_exp/static/images/task_images/rocket-02.jpg"",""time"":1081.3999999999069},{""stimulus"":""run_exp/static/images/task_images/rocket-03.jpg"",""time"":2161.8000000002794},{""stimulus"":""run_exp/static/images/task_images/rocket-04.jpg"",""time"":3241.899999999907},{""stimulus"":""run_exp/static/images/task_images/rocket-05.jpg"",""time"":4321.300000000279},{""stimulus"":""run_exp/static/images/task_images/rocket-06.jpg"",""time"":5393.800000000279},{""stimulus"":""run_exp/static/images/task_images/rocket-07.jpg"",""time"":6473.899999999907},{""stimulus"":""run_exp/static/images/task_images/rocket-08.jpg"",""time"":7553.899999999907},{""stimulus"":""run_exp/static/images/task_images/rocket-09.jpg"",""time"":8633.700000000186}]",[],6,,,,,,,,,,,,,,
alien_welcome,150,577982,0.0-46.0-1.0,"""event"",""trial"",""time""
""fullscreenenter"",""1"",""11467""
","
","
","""event"",""trial"",""time""
""fullscreenenter"",""1"",""11467""
","
",,null,run_exp/static/images/task_images/aliens/old_aliens/planet/alien_planet-59.jpg,null,,,,,,,,,,,,,59,"51,26,64,20,30,37,59,9,27,12,6,54,78,44,10,46,2,7,3,60,4,14,1,47,67,41,35,18,49,70,22,48,80,50,33,77,73,32,45,25,16",,,,,,,,,,
land,151,578494,0.0-46.0-2.0,"""event"",""trial"",""time""
""fullscreenenter"",""1"",""11467""
","
","
","""event"",""trial"",""time""
""fullscreenenter"",""1"",""11467""
","
",,null,run_exp/static/images/task_images/land.jpg,null,,,,,,,107,,,7,,,,,,,,,,,,,,
dig,152,580510,0.0-46.0-3.0,"""event"",""trial"",""time""
""fullscreenenter"",""1"",""11467""
","
","
","""event"",""trial"",""time""
""fullscreenenter"",""1"",""11467""
","
",,,,,,,,,,,,"[{""stimulus"":""run_exp/static/images/task_images/dig.jpg"",""time"":1.1000000000931323},{""stimulus"":""run_exp/static/images/task_images/land.jpg"",""time"":675.5},{""stimulus"":""run_exp/static/images/task_images/dig.jpg"",""time"":1339.7999999998137}]",[],7,,,,,,,,,,,,,,
harvest,153,581519,0.0-46.0-4.0,"""event"",""trial"",""time""
""fullscreenenter"",""1"",""11467""
","
","
","""event"",""trial"",""time""
""fullscreenenter"",""1"",""11467""
","
",,null,run_exp/static/images/task_images/gems/107.jpg,null,,,,,,,62,,,7,,,,,107,0.577191978,0.579439252,,,,,,,
decision,154,582739,0.0-46.0-5.0,"""event"",""trial"",""time""
""fullscreenenter"",""1"",""11467""
","
","
","""event"",""trial"",""time""
""fullscreenenter"",""1"",""11467""
","
",,1215.7,run_exp/static/images/task_images/land.jpg,65,,,,,,,62,,,7,,,,,,,,190239,1,0,FALSE,,,
dig,155,584542,0.0-47.0-0.0,"""event"",""trial"",""time""
""fullscreenenter"",""1"",""11467""
","
","
","""event"",""trial"",""time""
""fullscreenenter"",""1"",""11467""
","
",,,,,,,,,,,,"[{""stimulus"":""run_exp/static/images/task_images/dig.jpg"",""time"":1.2000000001862645},{""stimulus"":""run_exp/static/images/task_images/land.jpg"",""time"":598.7999999998137},{""stimulus"":""run_exp/static/images/task_images/dig.jpg"",""time"":1198.7000000001863}]",[],7,,,,,,,,,,,,,,
harvest,156,585550,0.0-47.0-1.0,"""event"",""trial"",""time""
""fullscreenenter"",""1"",""11467""
","
","
","""event"",""trial"",""time""
""fullscreenenter"",""1"",""11467""
","
",,null,run_exp/static/images/task_images/gems/62.jpg,null,,,,,,,52,,,7,,,,,62,0.83340037,0.838709677,,,,,,,
decision,157,586946,0.0-47.0-2.0,"""event"",""trial"",""time""
""fullscreenenter"",""1"",""11467""
","
","
","""event"",""trial"",""time""
""fullscreenenter"",""1"",""11467""
","
",,1393.4,run_exp/static/images/task_images/land.jpg,65,,,,,,,52,,,7,,,,,,,,194446,1,1,FALSE,,,
dig,158,588574,0.0-48.0-0.0,"""event"",""trial"",""time""
""fullscreenenter"",""1"",""11467""
","
","
","""event"",""trial"",""time""
""fullscreenenter"",""1"",""11467""
","
",,,,,,,,,,,,"[{""stimulus"":""run_exp/static/images/task_images/dig.jpg"",""time"":1.099999999627471},{""stimulus"":""run_exp/static/images/task_images/land.jpg"",""time"":539.7999999998137},{""stimulus"":""run_exp/static/images/task_images/dig.jpg"",""time"":1075.1999999997206}]",[],7,,,,,,,,,,,,,,
harvest,159,589581,0.0-48.0-1.0,"""event"",""trial"",""time""
""fullscreenenter"",""1"",""11467""
","
","
","""event"",""trial"",""time""
""fullscreenenter"",""1"",""11467""
","
",,null,run_exp/static/images/task_images/gems/52.jpg,null,,,,,,,47,,,7,,,,,52,0.908834503,0.903846154,,,,,,,
decision,160,591553,0.0-48.0-2.0,"""event"",""trial"",""time""
""fullscreenenter"",""1"",""11467""
","
","
","""event"",""trial"",""time""
""fullscreenenter"",""1"",""11467""
","
",,1968.1,run_exp/static/images/task_images/land.jpg,65,,,,,,,47,,,7,,,,,,,,199053,1,2,FALSE,,,
dig,161,592606,0.0-49.0-0.0,"""event"",""trial"",""time""
""fullscreenenter"",""1"",""11467""
","
","
","""event"",""trial"",""time""
""fullscreenenter"",""1"",""11467""
","
",,,,,,,,,,,,"[{""stimulus"":""run_exp/static/images/task_images/dig.jpg"",""time"":1.1999999997206032},{""stimulus"":""run_exp/static/images/task_images/land.jpg"",""time"":351.1999999997206},{""stimulus"":""run_exp/static/images/task_images/dig.jpg"",""time"":696.0999999996275}]",[],7,,,,,,,,,,,,,,
harvest,162,593614,0.0-49.0-1.0,"""event"",""trial"",""time""
""fullscreenenter"",""1"",""11467""
","
","
","""event"",""trial"",""time""
""fullscreenenter"",""1"",""11467""
","
",,null,run_exp/static/images/task_images/gems/47.jpg,null,,,,,,,38,,,7,,,,,47,0.801135071,0.808510638,,,,,,,
decision,163,594729,0.0-49.0-2.0,"""event"",""trial"",""time""
""fullscreenenter"",""1"",""11467""
","
","
","""event"",""trial"",""time""
""fullscreenenter"",""1"",""11467""
","
",,1109.6,run_exp/static/images/task_images/land.jpg,65,,,,,,,38,,,7,,,,,,,,202229,1,3,FALSE,,,
dig,164,596638,0.0-50.0-0.0,"""event"",""trial"",""time""
""fullscreenenter"",""1"",""11467""
","
","
","""event"",""trial"",""time""
""fullscreenenter"",""1"",""11467""
","
",,,,,,,,,,,,"[{""stimulus"":""run_exp/static/images/task_images/dig.jpg"",""time"":1},{""stimulus"":""run_exp/static/images/task_images/land.jpg"",""time"":642},{""stimulus"":""run_exp/static/images/task_images/dig.jpg"",""time"":1265.7000000001863}]",[],7,,,,,,,,,,,,,,
harvest,165,597646,0.0-50.0-1.0,"""event"",""trial"",""time""
""fullscreenenter"",""1"",""11467""
","
","
","""event"",""trial"",""time""
""fullscreenenter"",""1"",""11467""
","
",,null,run_exp/static/images/task_images/gems/38.jpg,null,,,,,,,29,,,7,,,,,38,0.772199252,0.763157895,,,,,,,
decision,166,598644,0.0-50.0-2.0,"""event"",""trial"",""time""
""fullscreenenter"",""1"",""11467""
","
","
","""event"",""trial"",""time""
""fullscreenenter"",""1"",""11467""
","
",,995.3,run_exp/static/images/task_images/land.jpg,65,,,,,,,29,,,7,,,,,,,,206144,1,4,FALSE,,,
dig,167,600670,0.0-51.0-0.0,"""event"",""trial"",""time""
""fullscreenenter"",""1"",""11467""
","
","
","""event"",""trial"",""time""
""fullscreenenter"",""1"",""11467""
","
",,,,,,,,,,,,"[{""stimulus"":""run_exp/static/images/task_images/dig.jpg"",""time"":1.1999999997206032},{""stimulus"":""run_exp/static/images/task_images/land.jpg"",""time"":676.5},{""stimulus"":""run_exp/static/images/task_images/dig.jpg"",""time"":1340.7999999998137}]",[],7,,,,,,,,,,,,,,
harvest,168,601678,0.0-51.0-1.0,"""event"",""trial"",""time""
""fullscreenenter"",""1"",""11467""
","
","
","""event"",""trial"",""time""
""fullscreenenter"",""1"",""11467""
","
",,null,run_exp/static/images/task_images/gems/29.jpg,null,,,,,,,22,,,7,,,,,29,0.747047127,0.75862069,,,,,,,
decision,169,602403,0.0-51.0-2.0,"""event"",""trial"",""time""
""fullscreenenter"",""1"",""11467""
","
","
","""event"",""trial"",""time""
""fullscreenenter"",""1"",""11467""
","
",,722.3,run_exp/static/images/task_images/land.jpg,76,,,,,,,22,,,7,,,,,,,,209904,1,5,TRUE,,,
travel,170,611694,0.0-52.0-0.0,"""event"",""trial"",""time""
""fullscreenenter"",""1"",""11467""
","
","
","""event"",""trial"",""time""
""fullscreenenter"",""1"",""11467""
","
",,,,,,,,,,,,"[{""stimulus"":""run_exp/static/images/task_images/rocket-01.jpg"",""time"":1.3000000002793968},{""stimulus"":""run_exp/static/images/task_images/rocket-02.jpg"",""time"":1036.7000000001863},{""stimulus"":""run_exp/static/images/task_images/rocket-03.jpg"",""time"":2067.8000000002794},{""stimulus"":""run_exp/static/images/task_images/rocket-04.jpg"",""time"":3099.899999999907},{""stimulus"":""run_exp/static/images/task_images/rocket-05.jpg"",""time"":4132.300000000279},{""stimulus"":""run_exp/static/images/task_images/rocket-06.jpg"",""time"":5156.100000000093},{""stimulus"":""run_exp/static/images/task_images/rocket-07.jpg"",""time"":6188},{""stimulus"":""run_exp/static/images/task_images/rocket-08.jpg"",""time"":7220.600000000093},{""stimulus"":""run_exp/static/images/task_images/rocket-09.jpg"",""time"":8252.5}]",[],7,,,,,,,,,,,,,,
alien_welcome,171,616702,0.0-52.0-1.0,"""event"",""trial"",""time""
""fullscreenenter"",""1"",""11467""
","
","
","""event"",""trial"",""time""
""fullscreenenter"",""1"",""11467""
","
",,null,run_exp/static/images/task_images/aliens/old_aliens/planet/alien_planet-9.jpg,null,,,,,,,,,,,,,9,"51,26,64,20,30,37,59,9,27,12,6,54,78,44,10,46,2,7,3,60,4,14,1,47,67,41,35,18,49,70,22,48,80,50,33,77,73,32,45,25,16",,,,,,,,,,
land,172,617214,0.0-52.0-2.0,"""event"",""trial"",""time""
""fullscreenenter"",""1"",""11467""
","
","
","""event"",""trial"",""time""
""fullscreenenter"",""1"",""11467""
","
",,null,run_exp/static/images/task_images/land.jpg,null,,,,,,,110,,,8,,,,,,,,,,,,,,
dig,173,619230,0.0-52.0-3.0,"""event"",""trial"",""time""
""fullscreenenter"",""1"",""11467""
","
","
","""event"",""trial"",""time""
""fullscreenenter"",""1"",""11467""
","
",,,,,,,,,,,,"[{""stimulus"":""run_exp/static/images/task_images/dig.jpg"",""time"":1.1999999997206032},{""stimulus"":""run_exp/static/images/task_images/land.jpg"",""time"":675.5},{""stimulus"":""run_exp/static/images/task_images/dig.jpg"",""time"":1339.5}]",[],8,,,,,,,,,,,,,,
harvest,174,620238,0.0-52.0-4.0,"""event"",""trial"",""time""
""fullscreenenter"",""1"",""11467""
","
","
","""event"",""trial"",""time""
""fullscreenenter"",""1"",""11467""
","
",,null,run_exp/static/images/task_images/gems/110.jpg,null,,,,,,,88,,,8,,,,,110,0.802966614,0.8,,,,,,,
decision,175,623098,0.0-52.0-5.0,"""event"",""trial"",""time""
""fullscreenenter"",""1"",""11467""
","
","
","""event"",""trial"",""time""
""fullscreenenter"",""1"",""11467""
","
",,2854.9,run_exp/static/images/task_images/land.jpg,65,,,,,,,88,,,8,,,,,,,,230598,1,0,FALSE,,,
dig,176,623262,0.0-53.0-0.0,"""event"",""trial"",""time""
""fullscreenenter"",""1"",""11467""
","
","
","""event"",""trial"",""time""
""fullscreenenter"",""1"",""11467""
","
",,,,,,,,,,,,"[{""stimulus"":""run_exp/static/images/task_images/dig.jpg"",""time"":1.6000000000931323},{""stimulus"":""run_exp/static/images/task_images/land.jpg"",""time"":55.299999999813735},{""stimulus"":""run_exp/static/images/task_images/dig.jpg"",""time"":103.10000000009313}]",[],8,,,,,,,,,,,,,,
harvest,177,624270,0.0-53.0-1.0,"""event"",""trial"",""time""
""fullscreenenter"",""1"",""11467""
","
","
","""event"",""trial"",""time""
""fullscreenenter"",""1"",""11467""
","
",,null,run_exp/static/images/task_images/gems/88.jpg,null,,,,,,,71,,,8,,,,,88,0.801338369,0.806818182,,,,,,,
decision,178,625461,0.0-53.0-2.0,"""event"",""trial"",""time""
""fullscreenenter"",""1"",""11467""
","
","
","""event"",""trial"",""time""
""fullscreenenter"",""1"",""11467""
","
",,1185.7,run_exp/static/images/task_images/land.jpg,65,,,,,,,71,,,8,,,,,,,,232961,1,1,FALSE,,,
dig,179,627294,0.0-54.0-0.0,"""event"",""trial"",""time""
""fullscreenenter"",""1"",""11467""
","
","
","""event"",""trial"",""time""
""fullscreenenter"",""1"",""11467""
","
",,,,,,,,,,,,"[{""stimulus"":""run_exp/static/images/task_images/dig.jpg"",""time"":1},{""stimulus"":""run_exp/static/images/task_images/land.jpg"",""time"":611.6999999997206},{""stimulus"":""run_exp/static/images/task_images/dig.jpg"",""time"":1220}]",[],8,,,,,,,,,,,,,,
harvest,180,628302,0.0-54.0-1.0,"""event"",""trial"",""time""
""fullscreenenter"",""1"",""11467""
","
","
","""event"",""trial"",""time""
""fullscreenenter"",""1"",""11467""
","
",,null,run_exp/static/images/task_images/gems/71.jpg,null,,,,,,,56,,,8,,,,,71,0.785073136,0.788732394,,,,,,,
decision,181,629251,0.0-54.0-2.0,"""event"",""trial"",""time""
""fullscreenenter"",""1"",""11467""
","
","
","""event"",""trial"",""time""
""fullscreenenter"",""1"",""11467""
","
",,943.9,run_exp/static/images/task_images/land.jpg,65,,,,,,,56,,,8,,,,,,,,236752,1,2,FALSE,,,
dig,182,631326,0.0-55.0-0.0,"""event"",""trial"",""time""
""fullscreenenter"",""1"",""11467""
","
","
","""event"",""trial"",""time""
""fullscreenenter"",""1"",""11467""
","
",,,,,,,,,,,,"[{""stimulus"":""run_exp/static/images/task_images/dig.jpg"",""time"":1.1000000000931323},{""stimulus"":""run_exp/static/images/task_images/land.jpg"",""time"":693.1000000000931},{""stimulus"":""run_exp/static/images/task_images/dig.jpg"",""time"":1377}]",[],8,,,,,,,,,,,,,,
harvest,183,632334,0.0-55.0-1.0,"""event"",""trial"",""time""
""fullscreenenter"",""1"",""11467""
","
","
","""event"",""trial"",""time""
""fullscreenenter"",""1"",""11467""
","
",,null,run_exp/static/images/task_images/gems/56.jpg,null,,,,,,,47,,,8,,,,,56,0.837628123,0.839285714,,,,,,,
decision,184,633098,0.0-55.0-2.0,"""event"",""trial"",""time""
""fullscreenenter"",""1"",""11467""
","
","
","""event"",""trial"",""time""
""fullscreenenter"",""1"",""11467""
","
",,759.1,run_exp/static/images/task_images/land.jpg,65,,,,,,,47,,,8,,,,,,,,240598,1,3,FALSE,,,
dig,185,635358,0.0-56.0-0.0,"""event"",""trial"",""time""
""fullscreenenter"",""1"",""11467""
","
","
","""event"",""trial"",""time""
""fullscreenenter"",""1"",""11467""
","
",,,,,,,,,,,,"[{""stimulus"":""run_exp/static/images/task_images/dig.jpg"",""time"":1.099999999627471},{""stimulus"":""run_exp/static/images/task_images/land.jpg"",""time"":758},{""stimulus"":""run_exp/static/images/task_images/dig.jpg"",""time"":1501.6999999997206}]",[],8,,,,,,,,,,,,,,
harvest,186,636366,0.0-56.0-1.0,"""event"",""trial"",""time""
""fullscreenenter"",""1"",""11467""
","
","
","""event"",""trial"",""time""
""fullscreenenter"",""1"",""11467""
","
",,null,run_exp/static/images/task_images/gems/47.jpg,null,,,,,,,41,,,8,,,,,47,0.873405875,0.872340426,,,,,,,
decision,187,636515,0.0-56.0-2.0,"""event"",""trial"",""time""
""fullscreenenter"",""1"",""11467""
","
","
","""event"",""trial"",""time""
""fullscreenenter"",""1"",""11467""
","
",,144.4,run_exp/static/images/task_images/land.jpg,76,,,,,,,41,,,8,,,,,,,,244015,1,4,TRUE,,,
travel,188,646390,0.0-57.0-0.0,"""event"",""trial"",""time""
""fullscreenenter"",""1"",""11467""
","
","
","""event"",""trial"",""time""
""fullscreenenter"",""1"",""11467""
","
",,,,,,,,,,,,"[{""stimulus"":""run_exp/static/images/task_images/rocket-01.jpg"",""time"":1},{""stimulus"":""run_exp/static/images/task_images/rocket-02.jpg"",""time"":1105.8000000002794},{""stimulus"":""run_exp/static/images/task_images/rocket-03.jpg"",""time"":2194},{""stimulus"":""run_exp/static/images/task_images/rocket-04.jpg"",""time"":3289.7000000001863},{""stimulus"":""run_exp/static/images/task_images/rocket-05.jpg"",""time"":4385.600000000093},{""stimulus"":""run_exp/static/images/task_images/rocket-06.jpg"",""time"":5482.300000000279},{""stimulus"":""run_exp/static/images/task_images/rocket-07.jpg"",""time"":6578.300000000279},{""stimulus"":""run_exp/static/images/task_images/rocket-08.jpg"",""time"":7674},{""stimulus"":""run_exp/static/images/task_images/rocket-09.jpg"",""time"":8764}]",[],8,,,,,,,,,,,,,,
alien_welcome,189,651398,0.0-57.0-1.0,"""event"",""trial"",""time""
""fullscreenenter"",""1"",""11467""
","
","
","""event"",""trial"",""time""
""fullscreenenter"",""1"",""11467""
","
",,null,run_exp/static/images/task_images/aliens/old_aliens/planet/alien_planet-27.jpg,null,,,,,,,,,,,,,27,"51,26,64,20,30,37,59,9,27,12,6,54,78,44,10,46,2,7,3,60,4,14,1,47,67,41,35,18,49,70,22,48,80,50,33,77,73,32,45,25,16",,,,,,,,,,
land,190,651910,0.0-57.0-2.0,"""event"",""trial"",""time""
""fullscreenenter"",""1"",""11467""
","
","
","""event"",""trial"",""time""
""fullscreenenter"",""1"",""11467""
","
",,null,run_exp/static/images/task_images/land.jpg,null,,,,,,,97,,,9,,,,,,,,,,,,,,
dig,191,653926,0.0-57.0-3.0,"""event"",""trial"",""time""
""fullscreenenter"",""1"",""11467""
","
","
","""event"",""trial"",""time""
""fullscreenenter"",""1"",""11467""
","
",,,,,,,,,,,,"[{""stimulus"":""run_exp/static/images/task_images/dig.jpg"",""time"":1.1999999997206032},{""stimulus"":""run_exp/static/images/task_images/land.jpg"",""time"":676.5},{""stimulus"":""run_exp/static/images/task_images/dig.jpg"",""time"":1339.8999999999069}]",[],9,,,,,,,,,,,,,,
harvest,192,655265,0.0-57.0-4.0,"""event"",""trial"",""time""
""fullscreenenter"",""1"",""11467""
","
","
","""event"",""trial"",""time""
""fullscreenenter"",""1"",""11467""
","
",,null,run_exp/static/images/task_images/gems/97.jpg,null,,,,,,,18,,,9,,,,,97,0.18097679,0.18556701,,,,,,,
decision,193,657700,0.0-57.0-5.0,"""event"",""trial"",""time""
""fullscreenenter"",""1"",""11467""
","
","
","""event"",""trial"",""time""
""fullscreenenter"",""1"",""11467""
","
",,2421.5,run_exp/static/images/task_images/land.jpg,65,,,,,,,18,,,9,,,,,,,,265200,1,0,FALSE,,,
dig,194,658294,0.0-58.0-0.0,"""event"",""trial"",""time""
""fullscreenenter"",""1"",""11467""
","
","
","""event"",""trial"",""time""
""fullscreenenter"",""1"",""11467""
","
",,,,,,,,,,,,"[{""stimulus"":""run_exp/static/images/task_images/dig.jpg"",""time"":1.099999999627471},{""stimulus"":""run_exp/static/images/task_images/land.jpg"",""time"":196.5},{""stimulus"":""run_exp/static/images/task_images/dig.jpg"",""time"":388.1999999997206}]",[],9,,,,,,,,,,,,,,
harvest,195,659302,0.0-58.0-1.0,"""event"",""trial"",""time""
""fullscreenenter"",""1"",""11467""
","
","
","""event"",""trial"",""time""
""fullscreenenter"",""1"",""11467""
","
",,null,run_exp/static/images/task_images/gems/18.jpg,null,,,,,,,5,,,9,,,,,18,0.274658865,0.277777778,,,,,,,
decision,196,661304,0.0-58.0-2.0,"""event"",""trial"",""time""
""fullscreenenter"",""1"",""11467""
","
","
","""event"",""trial"",""time""
""fullscreenenter"",""1"",""11467""
","
",,1999.3,run_exp/static/images/task_images/land.jpg,65,,,,,,,5,,,9,,,,,,,,268804,1,1,FALSE,,,
dig,197,662326,0.0-59.0-0.0,"""event"",""trial"",""time""
""fullscreenenter"",""1"",""11467""
","
","
","""event"",""trial"",""time""
""fullscreenenter"",""1"",""11467""
","
",,,,,,,,,,,,"[{""stimulus"":""run_exp/static/images/task_images/dig.jpg"",""time"":1.2000000001862645},{""stimulus"":""run_exp/static/images/task_images/land.jpg"",""time"":343.70000000018626},{""stimulus"":""run_exp/static/images/task_images/dig.jpg"",""time"":672}]",[],9,,,,,,,,,,,,,,
harvest,198,663334,0.0-59.0-1.0,"""event"",""trial"",""time""
""fullscreenenter"",""1"",""11467""
","
","
","""event"",""trial"",""time""
""fullscreenenter"",""1"",""11467""
","
",,null,run_exp/static/images/task_images/gems/5.jpg,null,,,,,,,1,,,9,,,,,5,0.18998652,0.2,,,,,,,
decision,199,665061,0.0-59.0-2.0,"""event"",""trial"",""time""
""fullscreenenter"",""1"",""11467""
","
","
","""event"",""trial"",""time""
""fullscreenenter"",""1"",""11467""
","
",,1723.7,run_exp/static/images/task_images/land.jpg,65,,,,,,,1,,,9,,,,,,,,272561,1,2,FALSE,,,
dig,200,666358,0.0-60.0-0.0,"""event"",""trial"",""time""
""fullscreenenter"",""1"",""11467""
","
","
","""event"",""trial"",""time""
""fullscreenenter"",""1"",""11467""
","
",,,,,,,,,,,,"[{""stimulus"":""run_exp/static/images/task_images/dig.jpg"",""time"":1.2000000001862645},{""stimulus"":""run_exp/static/images/task_images/land.jpg"",""time"":435.20000000018626},{""stimulus"":""run_exp/static/images/task_images/dig.jpg"",""time"":858.8000000002794}]",[],9,,,,,,,,,,,,,,
harvest,201,667366,0.0-60.0-1.0,"""event"",""trial"",""time""
""fullscreenenter"",""1"",""11467""
","
","
","""event"",""trial"",""time""
""fullscreenenter"",""1"",""11467""
","
",,null,run_exp/static/images/task_images/gems/1.jpg,null,,,,,,,0,,,9,,,,,1,0.214863101,0,,,,,,,
decision,202,668829,0.0-60.0-2.0,"""event"",""trial"",""time""
""fullscreenenter"",""1"",""11467""
","
","
","""event"",""trial"",""time""
""fullscreenenter"",""1"",""11467""
","
",,1459.8,run_exp/static/images/task_images/land.jpg,65,,,,,,,0,,,9,,,,,,,,276329,1,3,FALSE,,,
dig,203,670390,0.0-61.0-0.0,"""event"",""trial"",""time""
""fullscreenenter"",""1"",""11467""
","
","
","""event"",""trial"",""time""
""fullscreenenter"",""1"",""11467""
","
",,,,,,,,,,,,"[{""stimulus"":""run_exp/static/images/task_images/dig.jpg"",""time"":1.8000000002793968},{""stimulus"":""run_exp/static/images/task_images/land.jpg"",""time"":522.7000000001863},{""stimulus"":""run_exp/static/images/task_images/dig.jpg"",""time"":1034.9000000003725}]",[],9,,,,,,,,,,,,,,
harvest,204,671398,0.0-61.0-1.0,"""event"",""trial"",""time""
""fullscreenenter"",""1"",""11467""
","
","
","""event"",""trial"",""time""
""fullscreenenter"",""1"",""11467""
","
",,null,run_exp/static/images/task_images/gems/0.jpg,null,,,,,,,0,,,9,,,,,0,0.151423993,NaN,,,,,,,
decision,205,673925,0.0-61.0-2.0,"""event"",""trial"",""time""
""fullscreenenter"",""1"",""11467""
","
","
","""event"",""trial"",""time""
""fullscreenenter"",""1"",""11467""
","
",,2522.4,run_exp/static/images/task_images/land.jpg,65,,,,,,,0,,,9,,,,,,,,281426,1,4,FALSE,,,
dig,206,674422,0.0-62.0-0.0,"""event"",""trial"",""time""
""fullscreenenter"",""1"",""11467""
","
","
","""event"",""trial"",""time""
""fullscreenenter"",""1"",""11467""
","
",,,,,,,,,,,,"[{""stimulus"":""run_exp/static/images/task_images/dig.jpg"",""time"":1.1000000000931323},{""stimulus"":""run_exp/static/images/task_images/land.jpg"",""time"":169.1999999997206},{""stimulus"":""run_exp/static/images/task_images/dig.jpg"",""time"":323.39999999990687}]",[],9,,,,,,,,,,,,,,
harvest,207,675431,0.0-62.0-1.0,"""event"",""trial"",""time""
""fullscreenenter"",""1"",""11467""
","
","
","""event"",""trial"",""time""
""fullscreenenter"",""1"",""11467""
","
",,null,run_exp/static/images/task_images/gems/0.jpg,null,,,,,,,0,,,9,,,,,0,0.294008167,NaN,,,,,,,
decision,208,675744,0.0-62.0-2.0,"""event"",""trial"",""time""
""fullscreenenter"",""1"",""11467""
","
","
","""event"",""trial"",""time""
""fullscreenenter"",""1"",""11467""
","
",,307.9,run_exp/static/images/task_images/land.jpg,76,,,,,,,0,,,9,,,,,,,,283244,1,5,TRUE,,,
travel,209,685446,0.0-63.0-0.0,"""event"",""trial"",""time""
""fullscreenenter"",""1"",""11467""
","
","
","""event"",""trial"",""time""
""fullscreenenter"",""1"",""11467""
","
",,,,,,,,,,,,"[{""stimulus"":""run_exp/static/images/task_images/rocket-01.jpg"",""time"":0.7999999998137355},{""stimulus"":""run_exp/static/images/task_images/rocket-02.jpg"",""time"":1082.2000000001863},{""stimulus"":""run_exp/static/images/task_images/rocket-03.jpg"",""time"":2162},{""stimulus"":""run_exp/static/images/task_images/rocket-04.jpg"",""time"":3234.7999999998137},{""stimulus"":""run_exp/static/images/task_images/rocket-05.jpg"",""time"":4314.200000000186},{""stimulus"":""run_exp/static/images/task_images/rocket-06.jpg"",""time"":5386.100000000093},{""stimulus"":""run_exp/static/images/task_images/rocket-07.jpg"",""time"":6466.100000000093},{""stimulus"":""run_exp/static/images/task_images/rocket-08.jpg"",""time"":7538.299999999814},{""stimulus"":""run_exp/static/images/task_images/rocket-09.jpg"",""time"":8617.799999999814}]",[],9,,,,,,,,,,,,,,
alien_welcome,210,690455,0.0-63.0-1.0,"""event"",""trial"",""time""
""fullscreenenter"",""1"",""11467""
","
","
","""event"",""trial"",""time""
""fullscreenenter"",""1"",""11467""
","
",,null,run_exp/static/images/task_images/aliens/old_aliens/planet/alien_planet-12.jpg,null,,,,,,,,,,,,,12,"51,26,64,20,30,37,59,9,27,12,6,54,78,44,10,46,2,7,3,60,4,14,1,47,67,41,35,18,49,70,22,48,80,50,33,77,73,32,45,25,16",,,,,,,,,,
land,211,690966,0.0-63.0-2.0,"""event"",""trial"",""time""
""fullscreenenter"",""1"",""11467""
","
","
","""event"",""trial"",""time""
""fullscreenenter"",""1"",""11467""
","
",,null,run_exp/static/images/task_images/land.jpg,null,,,,,,,89,,,10,,,,,,,,,,,,,,
dig,212,692982,0.0-63.0-3.0,"""event"",""trial"",""time""
""fullscreenenter"",""1"",""11467""
","
","
","""event"",""trial"",""time""
""fullscreenenter"",""1"",""11467""
","
",,,,,,,,,,,,"[{""stimulus"":""run_exp/static/images/task_images/dig.jpg"",""time"":1.1999999997206032},{""stimulus"":""run_exp/static/images/task_images/land.jpg"",""time"":675.5},{""stimulus"":""run_exp/static/images/task_images/dig.jpg"",""time"":1339.5}]",[],10,,,,,,,,,,,,,,
harvest,213,694278,0.0-63.0-4.0,"""event"",""trial"",""time""
""fullscreenenter"",""1"",""11467""
","
","
","""event"",""trial"",""time""
""fullscreenenter"",""1"",""11467""
","
",,null,run_exp/static/images/task_images/gems/89.jpg,null,,,,,,,20,,,10,,,,,89,0.219500205,0.224719101,,,,,,,
decision,214,694908,0.0-63.0-5.0,"""event"",""trial"",""time""
""fullscreenenter"",""1"",""11467""
","
","
","""event"",""trial"",""time""
""fullscreenenter"",""1"",""11467""
","
",,624.3,run_exp/static/images/task_images/land.jpg,65,,,,,,,20,,,10,,,,,,,,302408,1,0,TRUE,,,
end_of_block_continue,215,700744,0.0-64.0-0.0,"""event"",""trial"",""time""
""fullscreenenter"",""1"",""11467""
","
","
","""event"",""trial"",""time""
""fullscreenenter"",""1"",""11467""
","
",,5818.5,run_exp/static/audio/clip_32_block_end.m4a,,,,,,,0,,,,,,,,,,,,,,,,,,
alien_welcome,216,705766,0.0-65.0-0.0,"""event"",""trial"",""time""
""fullscreenenter"",""1"",""11467""
","
","
","""event"",""trial"",""time""
""fullscreenenter"",""1"",""11467""
","
",,null,run_exp/static/images/task_images/aliens/old_aliens/planet/alien_planet-6.jpg,null,,,,,,,,,,,,,6,"51,26,64,20,30,37,59,9,27,12,6,54,78,44,10,46,2,7,3,60,4,14,1,47,67,41,35,18,49,70,22,48,80,50,33,77,73,32,45,25,16",,,,,,,,,,
land,217,706279,0.0-65.0-1.0,"""event"",""trial"",""time""
""fullscreenenter"",""1"",""11467""
","
","
","""event"",""trial"",""time""
""fullscreenenter"",""1"",""11467""
","
",,null,run_exp/static/images/task_images/land.jpg,null,,,,,,,101,,,11,,,,,,,,,,,,,,
dig,218,708294,0.0-65.0-2.0,"""event"",""trial"",""time""
""fullscreenenter"",""1"",""11467""
","
","
","""event"",""trial"",""time""
""fullscreenenter"",""1"",""11467""
","
",,,,,,,,,,,,"[{""stimulus"":""run_exp/static/images/task_images/dig.jpg"",""time"":1.1999999997206032},{""stimulus"":""run_exp/static/images/task_images/land.jpg"",""time"":674.3999999999069},{""stimulus"":""run_exp/static/images/task_images/dig.jpg"",""time"":1338.5999999996275}]",[],11,,,,,,,,,,,,,,
harvest,219,709302,0.0-65.0-3.0,"""event"",""trial"",""time""
""fullscreenenter"",""1"",""11467""
","
","
","""event"",""trial"",""time""
""fullscreenenter"",""1"",""11467""
","
",,null,run_exp/static/images/task_images/gems/101.jpg,null,,,,,,,31,,,11,,,,,101,0.30951497,0.306930693,,,,,,,
decision,220,710492,0.0-65.0-4.0,"""event"",""trial"",""time""
""fullscreenenter"",""1"",""11467""
","
","
","""event"",""trial"",""time""
""fullscreenenter"",""1"",""11467""
","
",,1184.4,run_exp/static/images/task_images/land.jpg,65,,,,,,,31,,,11,,,,,,,,9737,2,0,FALSE,,,
dig,221,712334,0.0-66.0-0.0,"""event"",""trial"",""time""
""fullscreenenter"",""1"",""11467""
","
","
","""event"",""trial"",""time""
""fullscreenenter"",""1"",""11467""
","
",,,,,,,,,,,,"[{""stimulus"":""run_exp/static/images/task_images/dig.jpg"",""time"":1},{""stimulus"":""run_exp/static/images/task_images/land.jpg"",""time"":616},{""stimulus"":""run_exp/static/images/task_images/dig.jpg"",""time"":1215.8999999999069}]",[],11,,,,,,,,,,,,,,
harvest,222,713664,0.0-66.0-1.0,"""event"",""trial"",""time""
""fullscreenenter"",""1"",""11467""
","
","
","""event"",""trial"",""time""
""fullscreenenter"",""1"",""11467""
","
",,null,run_exp/static/images/task_images/gems/31.jpg,null,,,,,,,5,,,11,,,,,31,0.176232142,0.161290323,,,,,,,
decision,223,714396,0.0-66.0-2.0,"""event"",""trial"",""time""
""fullscreenenter"",""1"",""11467""
","
","
","""event"",""trial"",""time""
""fullscreenenter"",""1"",""11467""
","
",,726.5,run_exp/static/images/task_images/land.jpg,65,,,,,,,5,,,11,,,,,,,,13641,2,1,FALSE,,,
dig,224,716694,0.0-67.0-0.0,"""event"",""trial"",""time""
""fullscreenenter"",""1"",""11467""
","
","
","""event"",""trial"",""time""
""fullscreenenter"",""1"",""11467""
","
",,,,,,,,,,,,"[{""stimulus"":""run_exp/static/images/task_images/dig.jpg"",""time"":1.5},{""stimulus"":""run_exp/static/images/task_images/land.jpg"",""time"":769.5},{""stimulus"":""run_exp/static/images/task_images/dig.jpg"",""time"":1520.9000000003725}]",[],11,,,,,,,,,,,,,,
harvest,225,717702,0.0-67.0-1.0,"""event"",""trial"",""time""
""fullscreenenter"",""1"",""11467""
","
","
","""event"",""trial"",""time""
""fullscreenenter"",""1"",""11467""
","
",,null,run_exp/static/images/task_images/gems/5.jpg,null,,,,,,,1,,,11,,,,,5,0.250383237,0.2,,,,,,,
decision,226,718702,0.0-67.0-2.0,"""event"",""trial"",""time""
""fullscreenenter"",""1"",""11467""
","
","
","""event"",""trial"",""time""
""fullscreenenter"",""1"",""11467""
","
",,997.1,run_exp/static/images/task_images/land.jpg,65,,,,,,,1,,,11,,,,,,,,17948,2,2,FALSE,,,
dig,227,720727,0.0-68.0-0.0,"""event"",""trial"",""time""
""fullscreenenter"",""1"",""11467""
","
","
","""event"",""trial"",""time""
""fullscreenenter"",""1"",""11467""
","
",,,,,,,,,,,,"[{""stimulus"":""run_exp/static/images/task_images/dig.jpg"",""time"":1.1999999997206032},{""stimulus"":""run_exp/static/images/task_images/land.jpg"",""time"":672.6999999997206},{""stimulus"":""run_exp/static/images/task_images/dig.jpg"",""time"":1344}]",[],11,,,,,,,,,,,,,,
harvest,228,722017,0.0-68.0-1.0,"""event"",""trial"",""time""
""fullscreenenter"",""1"",""11467""
","
","
","""event"",""trial"",""time""
""fullscreenenter"",""1"",""11467""
","
",,null,run_exp/static/images/task_images/gems/1.jpg,null,,,,,,,0,,,11,,,,,1,0.272415599,0,,,,,,,
decision,229,722389,0.0-68.0-2.0,"""event"",""trial"",""time""
""fullscreenenter"",""1"",""11467""
","
","
","""event"",""trial"",""time""
""fullscreenenter"",""1"",""11467""
","
",,369.9,run_exp/static/images/task_images/land.jpg,76,,,,,,,0,,,11,,,,,,,,21635,2,3,TRUE,,,
travel,230,732038,0.0-69.0-0.0,"""event"",""trial"",""time""
""fullscreenenter"",""1"",""11467""
","
","
","""event"",""trial"",""time""
""fullscreenenter"",""1"",""11467""
","
",,,,,,,,,,,,"[{""stimulus"":""run_exp/static/images/task_images/rocket-01.jpg"",""time"":1},{""stimulus"":""run_exp/static/images/task_images/rocket-02.jpg"",""time"":1074.6000000000931},{""stimulus"":""run_exp/static/images/task_images/rocket-03.jpg"",""time"":2146.5},{""stimulus"":""run_exp/static/images/task_images/rocket-04.jpg"",""time"":3218.399999999907},{""stimulus"":""run_exp/static/images/task_images/rocket-05.jpg"",""time"":4291},{""stimulus"":""run_exp/static/images/task_images/rocket-06.jpg"",""time"":5354.299999999814},{""stimulus"":""run_exp/static/images/task_images/rocket-07.jpg"",""time"":6426.600000000093},{""stimulus"":""run_exp/static/images/task_images/rocket-08.jpg"",""time"":7498.100000000093},{""stimulus"":""run_exp/static/images/task_images/rocket-09.jpg"",""time"":8570.799999999814}]",[],11,,,,,,,,,,,,,,
alien_welcome,231,737046,0.0-69.0-1.0,"""event"",""trial"",""time""
""fullscreenenter"",""1"",""11467""
","
","
","""event"",""trial"",""time""
""fullscreenenter"",""1"",""11467""
","
",,null,run_exp/static/images/task_images/aliens/old_aliens/planet/alien_planet-54.jpg,null,,,,,,,,,,,,,54,"51,26,64,20,30,37,59,9,27,12,6,54,78,44,10,46,2,7,3,60,4,14,1,47,67,41,35,18,49,70,22,48,80,50,33,77,73,32,45,25,16",,,,,,,,,,
land,232,737558,0.0-69.0-2.0,"""event"",""trial"",""time""
""fullscreenenter"",""1"",""11467""
","
","
","""event"",""trial"",""time""
""fullscreenenter"",""1"",""11467""
","
",,null,run_exp/static/images/task_images/land.jpg,null,,,,,,,98,,,12,,,,,,,,,,,,,,
dig,233,739574,0.0-69.0-3.0,"""event"",""trial"",""time""
""fullscreenenter"",""1"",""11467""
","
","
","""event"",""trial"",""time""
""fullscreenenter"",""1"",""11467""
","
",,,,,,,,,,,,"[{""stimulus"":""run_exp/static/images/task_images/dig.jpg"",""time"":1.1000000000931323},{""stimulus"":""run_exp/static/images/task_images/land.jpg"",""time"":675},{""stimulus"":""run_exp/static/images/task_images/dig.jpg"",""time"":1339}]",[],12,,,,,,,,,,,,,,
harvest,234,740583,0.0-69.0-4.0,"""event"",""trial"",""time""
""fullscreenenter"",""1"",""11467""
","
","
","""event"",""trial"",""time""
""fullscreenenter"",""1"",""11467""
","
",,null,run_exp/static/images/task_images/gems/98.jpg,null,,,,,,,19,,,12,,,,,98,0.192202464,0.193877551,,,,,,,
decision,235,741697,0.0-69.0-5.0,"""event"",""trial"",""time""
""fullscreenenter"",""1"",""11467""
","
","
","""event"",""trial"",""time""
""fullscreenenter"",""1"",""11467""
","
",,1109,run_exp/static/images/task_images/land.jpg,65,,,,,,,19,,,12,,,,,,,,40942,2,0,FALSE,,,
dig,236,743606,0.0-70.0-0.0,"""event"",""trial"",""time""
""fullscreenenter"",""1"",""11467""
","
","
","""event"",""trial"",""time""
""fullscreenenter"",""1"",""11467""
","
",,,,,,,,,,,,"[{""stimulus"":""run_exp/static/images/task_images/dig.jpg"",""time"":1.099999999627471},{""stimulus"":""run_exp/static/images/task_images/land.jpg"",""time"":640.6999999997206},{""stimulus"":""run_exp/static/images/task_images/dig.jpg"",""time"":1271.3999999999069}]",[],12,,,,,,,,,,,,,,
harvest,237,744614,0.0-70.0-1.0,"""event"",""trial"",""time""
""fullscreenenter"",""1"",""11467""
","
","
","""event"",""trial"",""time""
""fullscreenenter"",""1"",""11467""
","
",,null,run_exp/static/images/task_images/gems/19.jpg,null,,,,,,,3,,,12,,,,,19,0.158990497,0.157894737,,,,,,,
decision,238,745362,0.0-70.0-2.0,"""event"",""trial"",""time""
""fullscreenenter"",""1"",""11467""
","
","
","""event"",""trial"",""time""
""fullscreenenter"",""1"",""11467""
","
",,744.7,run_exp/static/images/task_images/land.jpg,65,,,,,,,3,,,12,,,,,,,,44607,2,1,FALSE,,,
dig,239,747638,0.0-71.0-0.0,"""event"",""trial"",""time""
""fullscreenenter"",""1"",""11467""
","
","
","""event"",""trial"",""time""
""fullscreenenter"",""1"",""11467""
","
",,,,,,,,,,,,"[{""stimulus"":""run_exp/static/images/task_images/dig.jpg"",""time"":1.2000000001862645},{""stimulus"":""run_exp/static/images/task_images/land.jpg"",""time"":757.2000000001863},{""stimulus"":""run_exp/static/images/task_images/dig.jpg"",""time"":1509.3999999999069}]",[],12,,,,,,,,,,,,,,
harvest,240,748646,0.0-71.0-1.0,"""event"",""trial"",""time""
""fullscreenenter"",""1"",""11467""
","
","
","""event"",""trial"",""time""
""fullscreenenter"",""1"",""11467""
","
",,null,run_exp/static/images/task_images/gems/3.jpg,null,,,,,,,1,,,12,,,,,3,0.204417508,0.333333333,,,,,,,
decision,241,749282,0.0-71.0-2.0,"""event"",""trial"",""time""
""fullscreenenter"",""1"",""11467""
","
","
","""event"",""trial"",""time""
""fullscreenenter"",""1"",""11467""
","
",,633.4,run_exp/static/images/task_images/land.jpg,76,,,,,,,1,,,12,,,,,,,,48528,2,2,TRUE,,,
travel,242,758662,0.0-72.0-0.0,"""event"",""trial"",""time""
""fullscreenenter"",""1"",""11467""
","
","
","""event"",""trial"",""time""
""fullscreenenter"",""1"",""11467""
","
",,,,,,,,,,,,"[{""stimulus"":""run_exp/static/images/task_images/rocket-01.jpg"",""time"":1.1000000000931323},{""stimulus"":""run_exp/static/images/task_images/rocket-02.jpg"",""time"":1044.5},{""stimulus"":""run_exp/static/images/task_images/rocket-03.jpg"",""time"":2084.2999999998137},{""stimulus"":""run_exp/static/images/task_images/rocket-04.jpg"",""time"":3124.7999999998137},{""stimulus"":""run_exp/static/images/task_images/rocket-05.jpg"",""time"":4164.299999999814},{""stimulus"":""run_exp/static/images/task_images/rocket-06.jpg"",""time"":5204.600000000093},{""stimulus"":""run_exp/static/images/task_images/rocket-07.jpg"",""time"":6244.100000000093},{""stimulus"":""run_exp/static/images/task_images/rocket-08.jpg"",""time"":7284.899999999907},{""stimulus"":""run_exp/static/images/task_images/rocket-09.jpg"",""time"":8323.899999999907}]",[],12,,,,,,,,,,,,,,
alien_welcome,243,763670,0.0-72.0-1.0,"""event"",""trial"",""time""
""fullscreenenter"",""1"",""11467""
","
","
","""event"",""trial"",""time""
""fullscreenenter"",""1"",""11467""
","
