trial_type,trial_index,time_elapsed,internal_node_id,interactions,blur_events,focus_events,fullscreenenter_events,fullscreenexit_events,success,rt,stimulus,key_press,prompt,subject_id,participant_id,age,gender,button_pressed,next_reward,animation_sequence,responses,planet,curr_prac_trial,n_prac_rounds,alien,aliens,reward_received,decay_rate_actual,decay_rate_exp,time_in_block,block_num,prt,last_trial_on_planet,button_html,bonus,num_failures
pavlovia,0,2,0.0-0.0,"""event"",""trial"",""time""
""focus"",""0"",""0""
""blur"",""0"",""0""
""focus"",""0"",""0""
""fullscreenenter"",""1"",""1075""
","""event"",""trial"",""time""
""blur"",""0"",""0""
","""event"",""trial"",""time""
""focus"",""0"",""0""
""focus"",""0"",""0""
","""event"",""trial"",""time""
""fullscreenenter"",""1"",""1075""
","
",,,,,,,,,,,,,,,,,,,,,,,,,,,,
fullscreen,1,2045,0.0-1.0,"""event"",""trial"",""time""
""focus"",""0"",""0""
""blur"",""0"",""0""
""focus"",""0"",""0""
""fullscreenenter"",""1"",""1075""
""blur"",""2"",""8783""
","""event"",""trial"",""time""
""blur"",""0"",""0""
""blur"",""2"",""8783""
","""event"",""trial"",""time""
""focus"",""0"",""0""
""focus"",""0"",""0""
","""event"",""trial"",""time""
""fullscreenenter"",""1"",""1075""
","
",TRUE,,,,,,,,,,,,,,,,,,,,,,,,,,,
instruc_welcome,2,11840,0.0-2.0,"""event"",""trial"",""time""
""focus"",""0"",""0""
""blur"",""0"",""0""
""focus"",""0"",""0""
""fullscreenenter"",""1"",""1075""
""blur"",""2"",""8783""
""focus"",""3"",""15769""
""blur"",""3"",""27454""
","""event"",""trial"",""time""
""blur"",""0"",""0""
""blur"",""2"",""8783""
""blur"",""3"",""27454""
","""event"",""trial"",""time""
""focus"",""0"",""0""
""focus"",""0"",""0""
""focus"",""3"",""15769""
","""event"",""trial"",""time""
""fullscreenenter"",""1"",""1075""
","
",,null,run_exp/static/audio/clip_1_welcome.m4a,null,"<p>Howdy! In this experiment, you’ll be an explorer traveling through space to collect space treasure.</p><p>Your mission is to collect as much treasure as possible.</p><br><br><p><img src='run_exp/static/images/task_images/opening_img-01.jpg' height='300' width='auto'></p>",9265,2406,19.07,Male,,,,,,,,,,,,,,,,,,,
audio-keyboard-response,3,28438,0.0-3.0,"""event"",""trial"",""time""
""focus"",""0"",""0""
""blur"",""0"",""0""
""focus"",""0"",""0""
""fullscreenenter"",""1"",""1075""
""blur"",""2"",""8783""
""focus"",""3"",""15769""
""blur"",""3"",""27454""
""focus"",""4"",""29820""
","""event"",""trial"",""time""
""blur"",""0"",""0""
""blur"",""2"",""8783""
""blur"",""3"",""27454""
","""event"",""trial"",""time""
""focus"",""0"",""0""
""focus"",""0"",""0""
""focus"",""3"",""15769""
""focus"",""4"",""29820""
","""event"",""trial"",""time""
""fullscreenenter"",""1"",""1075""
","
",,null,run_exp/static/audio/clip_2_move.m4a,null,,,,,,,,,,,,,,,,,,,,,,,,
welcome_dec,4,30061,0.0-4.0,"""event"",""trial"",""time""
""focus"",""0"",""0""
""blur"",""0"",""0""
""focus"",""0"",""0""
""fullscreenenter"",""1"",""1075""
""blur"",""2"",""8783""
""focus"",""3"",""15769""
""blur"",""3"",""27454""
""focus"",""4"",""29820""
","""event"",""trial"",""time""
""blur"",""0"",""0""
""blur"",""2"",""8783""
""blur"",""3"",""27454""
","""event"",""trial"",""time""
""focus"",""0"",""0""
""focus"",""0"",""0""
""focus"",""3"",""15769""
""focus"",""4"",""29820""
","""event"",""trial"",""time""
""fullscreenenter"",""1"",""1075""
","
",,1608.6,"<p>Howdy! In this experiment, you’ll be an explorer traveling through space to collect space treasure.</p><p>Your mission is to collect as much treasure as possible.</p><br><br><p><img src='run_exp/static/images/task_images/opening_img-01.jpg' height='300' width='auto'></p>",,,,,,,1,,,,,,,,,,,,,,,,,,
html-keyboard-response,5,30447,0.0-5.0,"""event"",""trial"",""time""
""focus"",""0"",""0""
""blur"",""0"",""0""
""focus"",""0"",""0""
""fullscreenenter"",""1"",""1075""
""blur"",""2"",""8783""
""focus"",""3"",""15769""
""blur"",""3"",""27454""
""focus"",""4"",""29820""
""blur"",""6"",""32926""
","""event"",""trial"",""time""
""blur"",""0"",""0""
""blur"",""2"",""8783""
""blur"",""3"",""27454""
""blur"",""6"",""32926""
","""event"",""trial"",""time""
""focus"",""0"",""0""
""focus"",""0"",""0""
""focus"",""3"",""15769""
""focus"",""4"",""29820""
","""event"",""trial"",""time""
""fullscreenenter"",""1"",""1075""
","
",,367.5999999,"<p>Howdy! In this experiment, you’ll be an explorer traveling through space to collect space treasure.</p><p>Your mission is to collect as much treasure as possible.</p><br><br><p><img src='run_exp/static/images/task_images/opening_img-01.jpg' height='300' width='auto'></p><button class=""jspsych-html-btn-unchosen""><img src=""run_exp/static/images/task_images/planet-01.jpg"" height=""50""></button><button class=""jspsych-html-btn-chosen""><img src=""run_exp/static/images/task_images/planet-02.jpg"" height=""50""></button><p><b>[press the space bar to lock in your answer]<b><br></p>",32,,,,,,,,,,,,,,,,,,,,,,,,
instruc_goal,6,40492,0.0-6.0-0.0,"""event"",""trial"",""time""
""focus"",""0"",""0""
""blur"",""0"",""0""
""focus"",""0"",""0""
""fullscreenenter"",""1"",""1075""
""blur"",""2"",""8783""
""focus"",""3"",""15769""
""blur"",""3"",""27454""
""focus"",""4"",""29820""
""blur"",""6"",""32926""
""focus"",""7"",""45048""
","""event"",""trial"",""time""
""blur"",""0"",""0""
""blur"",""2"",""8783""
""blur"",""3"",""27454""
""blur"",""6"",""32926""
","""event"",""trial"",""time""
""focus"",""0"",""0""
""focus"",""0"",""0""
""focus"",""3"",""15769""
""focus"",""4"",""29820""
""focus"",""7"",""45048""
","""event"",""trial"",""time""
""fullscreenenter"",""1"",""1075""
","
",,null,run_exp/static/audio/clip_3_goal.m4a,null,"<p> As a space explorer, you’ll visit different planets to dig for space treasure, these pink gems.</p> <p> The more treasure you dig up, the more bonus money you’ll win! </p><br><br><p><img src='run_exp/static/images/task_images/pink_gem.jpg' height='300' width='auto'></p>",,,,,,,,,,,,,,,,,,,,,,,
instruc_goal,7,46144,0.0-6.0-1.0,"""event"",""trial"",""time""
""focus"",""0"",""0""
""blur"",""0"",""0""
""focus"",""0"",""0""
""fullscreenenter"",""1"",""1075""
""blur"",""2"",""8783""
""focus"",""3"",""15769""
""blur"",""3"",""27454""
""focus"",""4"",""29820""
""blur"",""6"",""32926""
""focus"",""7"",""45048""
","""event"",""trial"",""time""
""blur"",""0"",""0""
""blur"",""2"",""8783""
""blur"",""3"",""27454""
""blur"",""6"",""32926""
","""event"",""trial"",""time""
""focus"",""0"",""0""
""focus"",""0"",""0""
""focus"",""3"",""15769""
""focus"",""4"",""29820""
""focus"",""7"",""45048""
","""event"",""trial"",""time""
""fullscreenenter"",""1"",""1075""
","
",,5642.8,"<p> As a space explorer, you’ll visit different planets to dig for space treasure, these pink gems.</p> <p> The more treasure you dig up, the more bonus money you’ll win! </p><br><br><p><img src='run_exp/static/images/task_images/pink_gem.jpg' height='300' width='auto'></p>",,,,,,,1,,,,,,,,,,,,,,,,,,
html-keyboard-response,8,46462,0.0-6.0-2.0,"""event"",""trial"",""time""
""focus"",""0"",""0""
""blur"",""0"",""0""
""focus"",""0"",""0""
""fullscreenenter"",""1"",""1075""
""blur"",""2"",""8783""
""focus"",""3"",""15769""
""blur"",""3"",""27454""
""focus"",""4"",""29820""
""blur"",""6"",""32926""
""focus"",""7"",""45048""
""blur"",""9"",""48595""
","""event"",""trial"",""time""
""blur"",""0"",""0""
""blur"",""2"",""8783""
""blur"",""3"",""27454""
""blur"",""6"",""32926""
""blur"",""9"",""48595""
","""event"",""trial"",""time""
""focus"",""0"",""0""
""focus"",""0"",""0""
""focus"",""3"",""15769""
""focus"",""4"",""29820""
""focus"",""7"",""45048""
","""event"",""trial"",""time""
""fullscreenenter"",""1"",""1075""
","
",,317.1000004,"<p> As a space explorer, you’ll visit different planets to dig for space treasure, these pink gems.</p> <p> The more treasure you dig up, the more bonus money you’ll win! </p><br><br><p><img src='run_exp/static/images/task_images/pink_gem.jpg' height='300' width='auto'></p><button class=""jspsych-html-btn-unchosen""><img src=""run_exp/static/images/task_images/planet-01.jpg"" height=""50""></button><button class=""jspsych-html-btn-chosen""><img src=""run_exp/static/images/task_images/planet-02.jpg"" height=""50""></button><p><b>[press the space bar to lock in your answer]<b><br></p>",32,,,,,,,,,,,,,,,,,,,,,,,,
instruc_dig,9,62465,0.0-7.0-0.0,"""event"",""trial"",""time""
""focus"",""0"",""0""
""blur"",""0"",""0""
""focus"",""0"",""0""
""fullscreenenter"",""1"",""1075""
""blur"",""2"",""8783""
""focus"",""3"",""15769""
""blur"",""3"",""27454""
""focus"",""4"",""29820""
""blur"",""6"",""32926""
""focus"",""7"",""45048""
""blur"",""9"",""48595""
""focus"",""10"",""65641""
","""event"",""trial"",""time""
""blur"",""0"",""0""
""blur"",""2"",""8783""
""blur"",""3"",""27454""
""blur"",""6"",""32926""
""blur"",""9"",""48595""
","""event"",""trial"",""time""
""focus"",""0"",""0""
""focus"",""0"",""0""
""focus"",""3"",""15769""
""focus"",""4"",""29820""
""focus"",""7"",""45048""
""focus"",""10"",""65641""
","""event"",""trial"",""time""
""fullscreenenter"",""1"",""1075""
","
",,null,run_exp/static/audio/clip_4_dig.m4a,null,,,,,,,100,,,,,,,,,,,,,,,,,
instruc_dig_try,10,66325,0.0-7.0-1.0,"""event"",""trial"",""time""
""focus"",""0"",""0""
""blur"",""0"",""0""
""focus"",""0"",""0""
""fullscreenenter"",""1"",""1075""
""blur"",""2"",""8783""
""focus"",""3"",""15769""
""blur"",""3"",""27454""
""focus"",""4"",""29820""
""blur"",""6"",""32926""
""focus"",""7"",""45048""
""blur"",""9"",""48595""
""focus"",""10"",""65641""
","""event"",""trial"",""time""
""blur"",""0"",""0""
""blur"",""2"",""8783""
""blur"",""3"",""27454""
""blur"",""6"",""32926""
""blur"",""9"",""48595""
","""event"",""trial"",""time""
""focus"",""0"",""0""
""focus"",""0"",""0""
""focus"",""3"",""15769""
""focus"",""4"",""29820""
""focus"",""7"",""45048""
""focus"",""10"",""65641""
","""event"",""trial"",""time""
""fullscreenenter"",""1"",""1075""
","
",,3837.8,"<p> When you’ve arrived at a new planet, you will dig once. </p> <p>Then, you get to decide if you want to stay on the planet and dig again or travel to a new planet and dig there.</p> <p> To stay and dig, press the letter <strong>‘A’</strong> on your keyboard. Try pressing it now! </p><p><img src='run_exp/static/images/task_images/land.jpg'  height='700' width='auto'></p>",65,"<p> When you’ve arrived at a new planet, you will dig once. </p> <p>Then, you get to decide if you want to stay on the planet and dig again or travel to a new planet and dig there.</p> <p> To stay and dig, press the letter <strong>‘A’</strong> on your keyboard. Try pressing it now! </p><p><img src='run_exp/static/images/task_images/land.jpg'  height='700' width='auto'></p>",,,,,,100,,,,,,,,,,,,,,,,,
dig_prac,11,68415,0.0-7.0-2.0,"""event"",""trial"",""time""
""focus"",""0"",""0""
""blur"",""0"",""0""
""focus"",""0"",""0""
""fullscreenenter"",""1"",""1075""
""blur"",""2"",""8783""
""focus"",""3"",""15769""
""blur"",""3"",""27454""
""focus"",""4"",""29820""
""blur"",""6"",""32926""
""focus"",""7"",""45048""
""blur"",""9"",""48595""
""focus"",""10"",""65641""
""blur"",""12"",""79107""
""focus"",""12"",""85942""
""blur"",""12"",""93620""
""focus"",""12"",""99458""
","""event"",""trial"",""time""
""blur"",""0"",""0""
""blur"",""2"",""8783""
""blur"",""3"",""27454""
""blur"",""6"",""32926""
""blur"",""9"",""48595""
""blur"",""12"",""79107""
""blur"",""12"",""93620""
","""event"",""trial"",""time""
""focus"",""0"",""0""
""focus"",""0"",""0""
""focus"",""3"",""15769""
""focus"",""4"",""29820""
""focus"",""7"",""45048""
""focus"",""10"",""65641""
""focus"",""12"",""85942""
""focus"",""12"",""99458""
","""event"",""trial"",""time""
""fullscreenenter"",""1"",""1075""
","
",,,,,,,,,,,,"[{""stimulus"":""run_exp/static/images/task_images/dig.jpg"",""time"":0.19999980926513672},{""stimulus"":""run_exp/static/images/task_images/land.jpg"",""time"":679.2999997138977},{""stimulus"":""run_exp/static/images/task_images/dig.jpg"",""time"":1342.6999998092651}]",[],,,,,,,,,,,,,,,
instruc_travel,12,104662,0.0-7.0-3.0,"""event"",""trial"",""time""
""focus"",""0"",""0""
""blur"",""0"",""0""
""focus"",""0"",""0""
""fullscreenenter"",""1"",""1075""
""blur"",""2"",""8783""
""focus"",""3"",""15769""
""blur"",""3"",""27454""
""focus"",""4"",""29820""
""blur"",""6"",""32926""
""focus"",""7"",""45048""
""blur"",""9"",""48595""
""focus"",""10"",""65641""
""blur"",""12"",""79107""
""focus"",""12"",""85942""
""blur"",""12"",""93620""
""focus"",""12"",""99458""
","""event"",""trial"",""time""
""blur"",""0"",""0""
""blur"",""2"",""8783""
""blur"",""3"",""27454""
""blur"",""6"",""32926""
""blur"",""9"",""48595""
""blur"",""12"",""79107""
""blur"",""12"",""93620""
","""event"",""trial"",""time""
""focus"",""0"",""0""
""focus"",""0"",""0""
""focus"",""3"",""15769""
""focus"",""4"",""29820""
""focus"",""7"",""45048""
""focus"",""10"",""65641""
""focus"",""12"",""85942""
""focus"",""12"",""99458""
","""event"",""trial"",""time""
""fullscreenenter"",""1"",""1075""
","
",,null,run_exp/static/audio/clip_5_travel.m4a,null,"<p>Every time you dig up gems, there are less gems on the planet, so the more you dig on a planet the fewer gems you’ll get with each dig.</p><p>When gems are running low, you may want to travel to a new planet. </p> <p>  Planets are very far apart in this galaxy, so it will take some time to travel between them. </p> <br><p>There are lots and lots of planets for you to visit, so you won’t be able to return to any planets you’ve seen before. </p><br><p>To leave this planet and travel to a new one, press the letter <strong>‘L’</strong> on your keyboard. Try pressing it now! </p><p><img src='run_exp/static/images/task_images/rocket-01.jpg'  height='600' width='auto'></p>",,,,,,,,,,,,,,,,,,,,,,,
instruc_travel_try,13,106786,0.0-7.0-4.0,"""event"",""trial"",""time""
""focus"",""0"",""0""
""blur"",""0"",""0""
""focus"",""0"",""0""
""fullscreenenter"",""1"",""1075""
""blur"",""2"",""8783""
""focus"",""3"",""15769""
""blur"",""3"",""27454""
""focus"",""4"",""29820""
""blur"",""6"",""32926""
""focus"",""7"",""45048""
""blur"",""9"",""48595""
""focus"",""10"",""65641""
""blur"",""12"",""79107""
""focus"",""12"",""85942""
""blur"",""12"",""93620""
""focus"",""12"",""99458""
""blur"",""14"",""115550""
","""event"",""trial"",""time""
""blur"",""0"",""0""
""blur"",""2"",""8783""
""blur"",""3"",""27454""
""blur"",""6"",""32926""
""blur"",""9"",""48595""
""blur"",""12"",""79107""
""blur"",""12"",""93620""
""blur"",""14"",""115550""
","""event"",""trial"",""time""
""focus"",""0"",""0""
""focus"",""0"",""0""
""focus"",""3"",""15769""
""focus"",""4"",""29820""
""focus"",""7"",""45048""
""focus"",""10"",""65641""
""focus"",""12"",""85942""
""focus"",""12"",""99458""
","""event"",""trial"",""time""
""fullscreenenter"",""1"",""1075""
","
",,2102.1,"<p>Every time you dig up gems, there are less gems on the planet, so the more you dig on a planet the fewer gems you’ll get with each dig.</p><p>When gems are running low, you may want to travel to a new planet. </p> <p>  Planets are very far apart in this galaxy, so it will take some time to travel between them. </p> <br><p>There are lots and lots of planets for you to visit, so you won’t be able to return to any planets you’ve seen before. </p><br><p>To leave this planet and travel to a new one, press the letter <strong>‘L’</strong> on your keyboard. Try pressing it now! </p><p><img src='run_exp/static/images/task_images/rocket-01.jpg'  height='600' width='auto'></p>",76,"<p>Every time you dig up gems, there are less gems on the planet, so the more you dig on a planet the fewer gems you’ll get with each dig.</p><p>When gems are running low, you may want to travel to a new planet. </p> <p>  Planets are very far apart in this galaxy, so it will take some time to travel between them. </p> <br><p>There are lots and lots of planets for you to visit, so you won’t be able to return to any planets you’ve seen before. </p><br><p>To leave this planet and travel to a new one, press the letter <strong>‘L’</strong> on your keyboard. Try pressing it now! </p><p><img src='run_exp/static/images/task_images/rocket-01.jpg'  height='600' width='auto'></p>",,,,,,,,,,,,,,,,,,,,,,,
travel_prac,14,116939,0.0-7.0-5.0,"""event"",""trial"",""time""
""focus"",""0"",""0""
""blur"",""0"",""0""
""focus"",""0"",""0""
""fullscreenenter"",""1"",""1075""
""blur"",""2"",""8783""
""focus"",""3"",""15769""
""blur"",""3"",""27454""
""focus"",""4"",""29820""
""blur"",""6"",""32926""
""focus"",""7"",""45048""
""blur"",""9"",""48595""
""focus"",""10"",""65641""
""blur"",""12"",""79107""
""focus"",""12"",""85942""
""blur"",""12"",""93620""
""focus"",""12"",""99458""
""blur"",""14"",""115550""
""focus"",""15"",""118236""
""blur"",""15"",""138592""
","""event"",""trial"",""time""
""blur"",""0"",""0""
""blur"",""2"",""8783""
""blur"",""3"",""27454""
""blur"",""6"",""32926""
""blur"",""9"",""48595""
""blur"",""12"",""79107""
""blur"",""12"",""93620""
""blur"",""14"",""115550""
""blur"",""15"",""138592""
","""event"",""trial"",""time""
""focus"",""0"",""0""
""focus"",""0"",""0""
""focus"",""3"",""15769""
""focus"",""4"",""29820""
""focus"",""7"",""45048""
""focus"",""10"",""65641""
""focus"",""12"",""85942""
""focus"",""12"",""99458""
""focus"",""15"",""118236""
","""event"",""trial"",""time""
""fullscreenenter"",""1"",""1075""
","
",,,,,,,,,,,,"[{""stimulus"":""run_exp/static/images/task_images/rocket-01.jpg"",""time"":0.09999990463256836},{""stimulus"":""run_exp/static/images/task_images/rocket-02.jpg"",""time"":1123.5},{""stimulus"":""run_exp/static/images/task_images/rocket-03.jpg"",""time"":2227.300000190735},{""stimulus"":""run_exp/static/images/task_images/rocket-04.jpg"",""time"":3339.9000000953674},{""stimulus"":""run_exp/static/images/task_images/rocket-05.jpg"",""time"":4451.900000095367},{""stimulus"":""run_exp/static/images/task_images/rocket-06.jpg"",""time"":5560.400000095367},{""stimulus"":""run_exp/static/images/task_images/rocket-07.jpg"",""time"":6675.400000095367},{""stimulus"":""run_exp/static/images/task_images/rocket-08.jpg"",""time"":7784.699999809265},{""stimulus"":""run_exp/static/images/task_images/rocket-09.jpg"",""time"":8899.300000190735}]",[],0,,,,,,,,,,,,,,
instruc_alien_greet,15,144151,0.0-7.0-6.0,"""event"",""trial"",""time""
""focus"",""0"",""0""
""blur"",""0"",""0""
""focus"",""0"",""0""
""fullscreenenter"",""1"",""1075""
""blur"",""2"",""8783""
""focus"",""3"",""15769""
""blur"",""3"",""27454""
""focus"",""4"",""29820""
""blur"",""6"",""32926""
""focus"",""7"",""45048""
""blur"",""9"",""48595""
""focus"",""10"",""65641""
""blur"",""12"",""79107""
""focus"",""12"",""85942""
""blur"",""12"",""93620""
""focus"",""12"",""99458""
""blur"",""14"",""115550""
""focus"",""15"",""118236""
""blur"",""15"",""138592""
""focus"",""16"",""152890""
","""event"",""trial"",""time""
""blur"",""0"",""0""
""blur"",""2"",""8783""
""blur"",""3"",""27454""
""blur"",""6"",""32926""
""blur"",""9"",""48595""
""blur"",""12"",""79107""
""blur"",""12"",""93620""
""blur"",""14"",""115550""
""blur"",""15"",""138592""
","""event"",""trial"",""time""
""focus"",""0"",""0""
""focus"",""0"",""0""
""focus"",""3"",""15769""
""focus"",""4"",""29820""
""focus"",""7"",""45048""
""focus"",""10"",""65641""
""focus"",""12"",""85942""
""focus"",""12"",""99458""
""focus"",""15"",""118236""
""focus"",""16"",""152890""
","""event"",""trial"",""time""
""fullscreenenter"",""1"",""1075""
","
",,null,run_exp/static/audio/clip_6_alien.m4a,null,"<p>When you arrive at a new planet, the alien who owns the treasure mine on that planet will greet you!</p><p>The better an alien takes care of their mine the easier it is to dig for gems. Some aliens take better care of their mine than others. So, you won’t get exactly the same amount of gems on each planet.</p><p>What the alien looks like does not tell you anything about how many gems there are on the planet.</p><br><p><img src=""run_exp/static/images/task_images/aliens/instructions_aliens/planet/alien_planet-1.jpg""  height=""600"" width=""auto""></p>",,,,,,,,,,,,,,,,,,,,,,,
instruc_alien_greet,16,153510,0.0-7.0-7.0,"""event"",""trial"",""time""
""focus"",""0"",""0""
""blur"",""0"",""0""
""focus"",""0"",""0""
""fullscreenenter"",""1"",""1075""
""blur"",""2"",""8783""
""focus"",""3"",""15769""
""blur"",""3"",""27454""
""focus"",""4"",""29820""
""blur"",""6"",""32926""
""focus"",""7"",""45048""
""blur"",""9"",""48595""
""focus"",""10"",""65641""
""blur"",""12"",""79107""
""focus"",""12"",""85942""
""blur"",""12"",""93620""
""focus"",""12"",""99458""
""blur"",""14"",""115550""
""focus"",""15"",""118236""
""blur"",""15"",""138592""
""focus"",""16"",""152890""
","""event"",""trial"",""time""
""blur"",""0"",""0""
""blur"",""2"",""8783""
""blur"",""3"",""27454""
""blur"",""6"",""32926""
""blur"",""9"",""48595""
""blur"",""12"",""79107""
""blur"",""12"",""93620""
""blur"",""14"",""115550""
""blur"",""15"",""138592""
","""event"",""trial"",""time""
""focus"",""0"",""0""
""focus"",""0"",""0""
""focus"",""3"",""15769""
""focus"",""4"",""29820""
""focus"",""7"",""45048""
""focus"",""10"",""65641""
""focus"",""12"",""85942""
""focus"",""12"",""99458""
""focus"",""15"",""118236""
""focus"",""16"",""152890""
","""event"",""trial"",""time""
""fullscreenenter"",""1"",""1075""
","
",,9330.5,"<p>When you arrive at a new planet, the alien who owns the treasure mine on that planet will greet you!</p><p>The better an alien takes care of their mine the easier it is to dig for gems. Some aliens take better care of their mine than others. So, you won’t get exactly the same amount of gems on each planet.</p><p>What the alien looks like does not tell you anything about how many gems there are on the planet.</p><br><p><img src=""run_exp/static/images/task_images/aliens/instructions_aliens/planet/alien_planet-1.jpg""  height=""600"" width=""auto""></p>",,,,,,,1,,,,,,,,,,,,,,,,,,
html-keyboard-response,17,153879,0.0-7.0-8.0,"""event"",""trial"",""time""
""focus"",""0"",""0""
""blur"",""0"",""0""
""focus"",""0"",""0""
""fullscreenenter"",""1"",""1075""
""blur"",""2"",""8783""
""focus"",""3"",""15769""
""blur"",""3"",""27454""
""focus"",""4"",""29820""
""blur"",""6"",""32926""
""focus"",""7"",""45048""
""blur"",""9"",""48595""
""focus"",""10"",""65641""
""blur"",""12"",""79107""
""focus"",""12"",""85942""
""blur"",""12"",""93620""
""focus"",""12"",""99458""
""blur"",""14"",""115550""
""focus"",""15"",""118236""
""blur"",""15"",""138592""
""focus"",""16"",""152890""
","""event"",""trial"",""time""
""blur"",""0"",""0""
""blur"",""2"",""8783""
""blur"",""3"",""27454""
""blur"",""6"",""32926""
""blur"",""9"",""48595""
""blur"",""12"",""79107""
""blur"",""12"",""93620""
""blur"",""14"",""115550""
""blur"",""15"",""138592""
","""event"",""trial"",""time""
""focus"",""0"",""0""
""focus"",""0"",""0""
""focus"",""3"",""15769""
""focus"",""4"",""29820""
""focus"",""7"",""45048""
""focus"",""10"",""65641""
""focus"",""12"",""85942""
""focus"",""12"",""99458""
""focus"",""15"",""118236""
""focus"",""16"",""152890""
","""event"",""trial"",""time""
""fullscreenenter"",""1"",""1075""
","
",,335.5,"<p>When you arrive at a new planet, the alien who owns the treasure mine on that planet will greet you!</p><p>The better an alien takes care of their mine the easier it is to dig for gems. Some aliens take better care of their mine than others. So, you won’t get exactly the same amount of gems on each planet.</p><p>What the alien looks like does not tell you anything about how many gems there are on the planet.</p><br><p><img src=""run_exp/static/images/task_images/aliens/instructions_aliens/planet/alien_planet-1.jpg""  height=""600"" width=""auto""></p><button class=""jspsych-html-btn-unchosen""><img src=""run_exp/static/images/task_images/planet-01.jpg"" height=""50""></button><button class=""jspsych-html-btn-chosen""><img src=""run_exp/static/images/task_images/planet-02.jpg"" height=""50""></button><p><b>[press the space bar to lock in your answer]<b><br></p>",32,,,,,,,,,,,,,,,,,,,,,,,,
time_out,18,164950,0.0-8.0-0.0,"""event"",""trial"",""time""
""focus"",""0"",""0""
""blur"",""0"",""0""
""focus"",""0"",""0""
""fullscreenenter"",""1"",""1075""
""blur"",""2"",""8783""
""focus"",""3"",""15769""
""blur"",""3"",""27454""
""focus"",""4"",""29820""
""blur"",""6"",""32926""
""focus"",""7"",""45048""
""blur"",""9"",""48595""
""focus"",""10"",""65641""
""blur"",""12"",""79107""
""focus"",""12"",""85942""
""blur"",""12"",""93620""
""focus"",""12"",""99458""
""blur"",""14"",""115550""
""focus"",""15"",""118236""
""blur"",""15"",""138592""
""focus"",""16"",""152890""
","""event"",""trial"",""time""
""blur"",""0"",""0""
""blur"",""2"",""8783""
""blur"",""3"",""27454""
""blur"",""6"",""32926""
""blur"",""9"",""48595""
""blur"",""12"",""79107""
""blur"",""12"",""93620""
""blur"",""14"",""115550""
""blur"",""15"",""138592""
","""event"",""trial"",""time""
""focus"",""0"",""0""
""focus"",""0"",""0""
""focus"",""3"",""15769""
""focus"",""4"",""29820""
""focus"",""7"",""45048""
""focus"",""10"",""65641""
""focus"",""12"",""85942""
""focus"",""12"",""99458""
""focus"",""15"",""118236""
""focus"",""16"",""152890""
","""event"",""trial"",""time""
""fullscreenenter"",""1"",""1075""
","
",,null,run_exp/static/audio/clip_7_timeout.m4a,null,"<p>If you don't make your choice fast enough, you’ll have to wait a few seconds before you can make another one.</p><p>You can’t dig for more gems or travel to new planets. You just have to sit and wait.</p><br><p><img src='run_exp/static/images/task_images/time_out.jpg'  height='600' width='auto'></p>",,,,,,,,,,,,,,,,,,,,,,,
time_out,19,167173,0.0-8.0-1.0,"""event"",""trial"",""time""
""focus"",""0"",""0""
""blur"",""0"",""0""
""focus"",""0"",""0""
""fullscreenenter"",""1"",""1075""
""blur"",""2"",""8783""
""focus"",""3"",""15769""
""blur"",""3"",""27454""
""focus"",""4"",""29820""
""blur"",""6"",""32926""
""focus"",""7"",""45048""
""blur"",""9"",""48595""
""focus"",""10"",""65641""
""blur"",""12"",""79107""
""focus"",""12"",""85942""
""blur"",""12"",""93620""
""focus"",""12"",""99458""
""blur"",""14"",""115550""
""focus"",""15"",""118236""
""blur"",""15"",""138592""
""focus"",""16"",""152890""
","""event"",""trial"",""time""
""blur"",""0"",""0""
""blur"",""2"",""8783""
""blur"",""3"",""27454""
""blur"",""6"",""32926""
""blur"",""9"",""48595""
""blur"",""12"",""79107""
""blur"",""12"",""93620""
""blur"",""14"",""115550""
""blur"",""15"",""138592""
","""event"",""trial"",""time""
""focus"",""0"",""0""
""focus"",""0"",""0""
""focus"",""3"",""15769""
""focus"",""4"",""29820""
""focus"",""7"",""45048""
""focus"",""10"",""65641""
""focus"",""12"",""85942""
""focus"",""12"",""99458""
""focus"",""15"",""118236""
""focus"",""16"",""152890""
","""event"",""trial"",""time""
""fullscreenenter"",""1"",""1075""
","
",,2204,"<p>If you don't make your choice fast enough, you’ll have to wait a few seconds before you can make another one.</p><p>You can’t dig for more gems or travel to new planets. You just have to sit and wait.</p><br><p><img src='run_exp/static/images/task_images/time_out.jpg'  height='600' width='auto'></p>",,,,,,,1,,,,,,,,,,,,,,,,,,
html-keyboard-response,20,167778,0.0-8.0-2.0,"""event"",""trial"",""time""
""focus"",""0"",""0""
""blur"",""0"",""0""
""focus"",""0"",""0""
""fullscreenenter"",""1"",""1075""
""blur"",""2"",""8783""
""focus"",""3"",""15769""
""blur"",""3"",""27454""
""focus"",""4"",""29820""
""blur"",""6"",""32926""
""focus"",""7"",""45048""
""blur"",""9"",""48595""
""focus"",""10"",""65641""
""blur"",""12"",""79107""
""focus"",""12"",""85942""
""blur"",""12"",""93620""
""focus"",""12"",""99458""
""blur"",""14"",""115550""
""focus"",""15"",""118236""
""blur"",""15"",""138592""
""focus"",""16"",""152890""
","""event"",""trial"",""time""
""blur"",""0"",""0""
""blur"",""2"",""8783""
""blur"",""3"",""27454""
""blur"",""6"",""32926""
""blur"",""9"",""48595""
""blur"",""12"",""79107""
""blur"",""12"",""93620""
""blur"",""14"",""115550""
""blur"",""15"",""138592""
","""event"",""trial"",""time""
""focus"",""0"",""0""
""focus"",""0"",""0""
""focus"",""3"",""15769""
""focus"",""4"",""29820""
""focus"",""7"",""45048""
""focus"",""10"",""65641""
""focus"",""12"",""85942""
""focus"",""12"",""99458""
""focus"",""15"",""118236""
""focus"",""16"",""152890""
","""event"",""trial"",""time""
""fullscreenenter"",""1"",""1075""
","
",,604.7000003,"<p>If you don't make your choice fast enough, you’ll have to wait a few seconds before you can make another one.</p><p>You can’t dig for more gems or travel to new planets. You just have to sit and wait.</p><br><p><img src='run_exp/static/images/task_images/time_out.jpg'  height='600' width='auto'></p><button class=""jspsych-html-btn-unchosen""><img src=""run_exp/static/images/task_images/planet-01.jpg"" height=""50""></button><button class=""jspsych-html-btn-chosen""><img src=""run_exp/static/images/task_images/planet-02.jpg"" height=""50""></button><p><b>[press the space bar to lock in your answer]<b><br></p>",32,,,,,,,,,,,,,,,,,,,,,,,,
instruc_break,21,183446,0.0-9.0-0.0,"""event"",""trial"",""time""
""focus"",""0"",""0""
""blur"",""0"",""0""
""focus"",""0"",""0""
""fullscreenenter"",""1"",""1075""
""blur"",""2"",""8783""
""focus"",""3"",""15769""
""blur"",""3"",""27454""
""focus"",""4"",""29820""
""blur"",""6"",""32926""
""focus"",""7"",""45048""
""blur"",""9"",""48595""
""focus"",""10"",""65641""
""blur"",""12"",""79107""
""focus"",""12"",""85942""
""blur"",""12"",""93620""
""focus"",""12"",""99458""
""blur"",""14"",""115550""
""focus"",""15"",""118236""
""blur"",""15"",""138592""
""focus"",""16"",""152890""
","""event"",""trial"",""time""
""blur"",""0"",""0""
""blur"",""2"",""8783""
""blur"",""3"",""27454""
""blur"",""6"",""32926""
""blur"",""9"",""48595""
""blur"",""12"",""79107""
""blur"",""12"",""93620""
""blur"",""14"",""115550""
""blur"",""15"",""138592""
","""event"",""trial"",""time""
""focus"",""0"",""0""
""focus"",""0"",""0""
""focus"",""3"",""15769""
""focus"",""4"",""29820""
""focus"",""7"",""45048""
""focus"",""10"",""65641""
""focus"",""12"",""85942""
""focus"",""12"",""99458""
""focus"",""15"",""118236""
""focus"",""16"",""152890""
","""event"",""trial"",""time""
""fullscreenenter"",""1"",""1075""
","
",,null,run_exp/static/audio/clip_8_break.m4a,null,"<p> After digging and traveling for a while, you’ll be able to take a break at home base. </p><p>The game will last 20 minutes no matter what.</p><p>You will visit home base every 5 minutes, so, you will visit home base three times during the game.</p><br><p><img src='run_exp/static/images/task_images/home_base.jpg' height='600' width='auto'></p>",,,,,,,,,,,,,,,,,,,,,,,
instruc_break,22,185136,0.0-9.0-1.0,"""event"",""trial"",""time""
""focus"",""0"",""0""
""blur"",""0"",""0""
""focus"",""0"",""0""
""fullscreenenter"",""1"",""1075""
""blur"",""2"",""8783""
""focus"",""3"",""15769""
""blur"",""3"",""27454""
""focus"",""4"",""29820""
""blur"",""6"",""32926""
""focus"",""7"",""45048""
""blur"",""9"",""48595""
""focus"",""10"",""65641""
""blur"",""12"",""79107""
""focus"",""12"",""85942""
""blur"",""12"",""93620""
""focus"",""12"",""99458""
""blur"",""14"",""115550""
""focus"",""15"",""118236""
""blur"",""15"",""138592""
""focus"",""16"",""152890""
","""event"",""trial"",""time""
""blur"",""0"",""0""
""blur"",""2"",""8783""
""blur"",""3"",""27454""
""blur"",""6"",""32926""
""blur"",""9"",""48595""
""blur"",""12"",""79107""
""blur"",""12"",""93620""
""blur"",""14"",""115550""
""blur"",""15"",""138592""
","""event"",""trial"",""time""
""focus"",""0"",""0""
""focus"",""0"",""0""
""focus"",""3"",""15769""
""focus"",""4"",""29820""
""focus"",""7"",""45048""
""focus"",""10"",""65641""
""focus"",""12"",""85942""
""focus"",""12"",""99458""
""focus"",""15"",""118236""
""focus"",""16"",""152890""
","""event"",""trial"",""time""
""fullscreenenter"",""1"",""1075""
","
",,1670.8,"<p> After digging and traveling for a while, you’ll be able to take a break at home base. </p><p>The game will last 20 minutes no matter what.</p><p>You will visit home base every 5 minutes, so, you will visit home base three times during the game.</p><br><p><img src='run_exp/static/images/task_images/home_base.jpg' height='600' width='auto'></p>",,,,,,,1,,,,,,,,,,,,,,,,,,
html-keyboard-response,23,185351,0.0-9.0-2.0,"""event"",""trial"",""time""
""focus"",""0"",""0""
""blur"",""0"",""0""
""focus"",""0"",""0""
""fullscreenenter"",""1"",""1075""
""blur"",""2"",""8783""
""focus"",""3"",""15769""
""blur"",""3"",""27454""
""focus"",""4"",""29820""
""blur"",""6"",""32926""
""focus"",""7"",""45048""
""blur"",""9"",""48595""
""focus"",""10"",""65641""
""blur"",""12"",""79107""
""focus"",""12"",""85942""
""blur"",""12"",""93620""
""focus"",""12"",""99458""
""blur"",""14"",""115550""
""focus"",""15"",""118236""
""blur"",""15"",""138592""
""focus"",""16"",""152890""
""blur"",""24"",""192771""
""focus"",""24"",""195382""
","""event"",""trial"",""time""
""blur"",""0"",""0""
""blur"",""2"",""8783""
""blur"",""3"",""27454""
""blur"",""6"",""32926""
""blur"",""9"",""48595""
""blur"",""12"",""79107""
""blur"",""12"",""93620""
""blur"",""14"",""115550""
""blur"",""15"",""138592""
""blur"",""24"",""192771""
","""event"",""trial"",""time""
""focus"",""0"",""0""
""focus"",""0"",""0""
""focus"",""3"",""15769""
""focus"",""4"",""29820""
""focus"",""7"",""45048""
""focus"",""10"",""65641""
""focus"",""12"",""85942""
""focus"",""12"",""99458""
""focus"",""15"",""118236""
""focus"",""16"",""152890""
""focus"",""24"",""195382""
","""event"",""trial"",""time""
""fullscreenenter"",""1"",""1075""
","
",,213,"<p> After digging and traveling for a while, you’ll be able to take a break at home base. </p><p>The game will last 20 minutes no matter what.</p><p>You will visit home base every 5 minutes, so, you will visit home base three times during the game.</p><br><p><img src='run_exp/static/images/task_images/home_base.jpg' height='600' width='auto'></p><button class=""jspsych-html-btn-unchosen""><img src=""run_exp/static/images/task_images/planet-01.jpg"" height=""50""></button><button class=""jspsych-html-btn-chosen""><img src=""run_exp/static/images/task_images/planet-02.jpg"" height=""50""></button><p><b>[press the space bar to lock in your answer]<b><br></p>",32,,,,,,,,,,,,,,,,,,,,,,,,
instruc_prac_game,24,195457,0.0-10.0-0.0,"""event"",""trial"",""time""
""focus"",""0"",""0""
""blur"",""0"",""0""
""focus"",""0"",""0""
""fullscreenenter"",""1"",""1075""
""blur"",""2"",""8783""
""focus"",""3"",""15769""
""blur"",""3"",""27454""
""focus"",""4"",""29820""
""blur"",""6"",""32926""
""focus"",""7"",""45048""
""blur"",""9"",""48595""
""focus"",""10"",""65641""
""blur"",""12"",""79107""
""focus"",""12"",""85942""
""blur"",""12"",""93620""
""focus"",""12"",""99458""
""blur"",""14"",""115550""
""focus"",""15"",""118236""
""blur"",""15"",""138592""
""focus"",""16"",""152890""
""blur"",""24"",""192771""
""focus"",""24"",""195382""
","""event"",""trial"",""time""
""blur"",""0"",""0""
""blur"",""2"",""8783""
""blur"",""3"",""27454""
""blur"",""6"",""32926""
""blur"",""9"",""48595""
""blur"",""12"",""79107""
""blur"",""12"",""93620""
""blur"",""14"",""115550""
""blur"",""15"",""138592""
""blur"",""24"",""192771""
","""event"",""trial"",""time""
""focus"",""0"",""0""
""focus"",""0"",""0""
""focus"",""3"",""15769""
""focus"",""4"",""29820""
""focus"",""7"",""45048""
""focus"",""10"",""65641""
""focus"",""12"",""85942""
""focus"",""12"",""99458""
""focus"",""15"",""118236""
""focus"",""16"",""152890""
""focus"",""24"",""195382""
","""event"",""trial"",""time""
""fullscreenenter"",""1"",""1075""
","
",,null,run_exp/static/audio/clip_9_practice.m4a,null,"<p> Are you ready to play a practice game? </p> <p>In this practice game, you'll be digging up barrels of gems. But, in the real game, you'll be digging up the gems themselves. </p>",,,,,,,,,,,,,,,,,,,,,,,
html-button-response,25,196369,0.0-10.0-1.0,"""event"",""trial"",""time""
""focus"",""0"",""0""
""blur"",""0"",""0""
""focus"",""0"",""0""
""fullscreenenter"",""1"",""1075""
""blur"",""2"",""8783""
""focus"",""3"",""15769""
""blur"",""3"",""27454""
""focus"",""4"",""29820""
""blur"",""6"",""32926""
""focus"",""7"",""45048""
""blur"",""9"",""48595""
""focus"",""10"",""65641""
""blur"",""12"",""79107""
""focus"",""12"",""85942""
""blur"",""12"",""93620""
""focus"",""12"",""99458""
""blur"",""14"",""115550""
""focus"",""15"",""118236""
""blur"",""15"",""138592""
""focus"",""16"",""152890""
""blur"",""24"",""192771""
""focus"",""24"",""195382""
","""event"",""trial"",""time""
""blur"",""0"",""0""
""blur"",""2"",""8783""
""blur"",""3"",""27454""
""blur"",""6"",""32926""
""blur"",""9"",""48595""
""blur"",""12"",""79107""
""blur"",""12"",""93620""
""blur"",""14"",""115550""
""blur"",""15"",""138592""
""blur"",""24"",""192771""
","""event"",""trial"",""time""
""focus"",""0"",""0""
""focus"",""0"",""0""
""focus"",""3"",""15769""
""focus"",""4"",""29820""
""focus"",""7"",""45048""
""focus"",""10"",""65641""
""focus"",""12"",""85942""
""focus"",""12"",""99458""
""focus"",""15"",""118236""
""focus"",""16"",""152890""
""focus"",""24"",""195382""
","""event"",""trial"",""time""
""fullscreenenter"",""1"",""1075""
","
",,893,"<p> Are you ready to play a practice game? </p> <p>In this practice game, you'll be digging up barrels of gems. But, in the real game, you'll be digging up the gems themselves. </p>",,,,,,,0,,,,,,,,,,,,,,,,,,
alien_welcome_prac,26,201376,0.0-11.0-0.0,"""event"",""trial"",""time""
""focus"",""0"",""0""
""blur"",""0"",""0""
""focus"",""0"",""0""
""fullscreenenter"",""1"",""1075""
""blur"",""2"",""8783""
""focus"",""3"",""15769""
""blur"",""3"",""27454""
""focus"",""4"",""29820""
""blur"",""6"",""32926""
""focus"",""7"",""45048""
""blur"",""9"",""48595""
""focus"",""10"",""65641""
""blur"",""12"",""79107""
""focus"",""12"",""85942""
""blur"",""12"",""93620""
""focus"",""12"",""99458""
""blur"",""14"",""115550""
""focus"",""15"",""118236""
""blur"",""15"",""138592""
""focus"",""16"",""152890""
""blur"",""24"",""192771""
""focus"",""24"",""195382""
","""event"",""trial"",""time""
""blur"",""0"",""0""
""blur"",""2"",""8783""
""blur"",""3"",""27454""
""blur"",""6"",""32926""
""blur"",""9"",""48595""
""blur"",""12"",""79107""
""blur"",""12"",""93620""
""blur"",""14"",""115550""
""blur"",""15"",""138592""
""blur"",""24"",""192771""
","""event"",""trial"",""time""
""focus"",""0"",""0""
""focus"",""0"",""0""
""focus"",""3"",""15769""
""focus"",""4"",""29820""
""focus"",""7"",""45048""
""focus"",""10"",""65641""
""focus"",""12"",""85942""
""focus"",""12"",""99458""
""focus"",""15"",""118236""
""focus"",""16"",""152890""
""focus"",""24"",""195382""
","""event"",""trial"",""time""
""fullscreenenter"",""1"",""1075""
","
",,null,run_exp/static/images/task_images/aliens/practice_aliens/planet/alien_planet-5.jpg,null,,,,,,,,,,,,,,,,,,,,,,,,
land_prac,27,201887,0.0-11.0-1.0,"""event"",""trial"",""time""
""focus"",""0"",""0""
""blur"",""0"",""0""
""focus"",""0"",""0""
""fullscreenenter"",""1"",""1075""
""blur"",""2"",""8783""
""focus"",""3"",""15769""
""blur"",""3"",""27454""
""focus"",""4"",""29820""
""blur"",""6"",""32926""
""focus"",""7"",""45048""
""blur"",""9"",""48595""
""focus"",""10"",""65641""
""blur"",""12"",""79107""
""focus"",""12"",""85942""
""blur"",""12"",""93620""
""focus"",""12"",""99458""
""blur"",""14"",""115550""
""focus"",""15"",""118236""
""blur"",""15"",""138592""
""focus"",""16"",""152890""
""blur"",""24"",""192771""
""focus"",""24"",""195382""
","""event"",""trial"",""time""
""blur"",""0"",""0""
""blur"",""2"",""8783""
""blur"",""3"",""27454""
""blur"",""6"",""32926""
""blur"",""9"",""48595""
""blur"",""12"",""79107""
""blur"",""12"",""93620""
""blur"",""14"",""115550""
""blur"",""15"",""138592""
""blur"",""24"",""192771""
","""event"",""trial"",""time""
""focus"",""0"",""0""
""focus"",""0"",""0""
""focus"",""3"",""15769""
""focus"",""4"",""29820""
""focus"",""7"",""45048""
""focus"",""10"",""65641""
""focus"",""12"",""85942""
""focus"",""12"",""99458""
""focus"",""15"",""118236""
""focus"",""16"",""152890""
""focus"",""24"",""195382""
","""event"",""trial"",""time""
""fullscreenenter"",""1"",""1075""
","
",,null,run_exp/static/images/task_images/land.jpg,null,,,,,,,95,,,0,,,,,,,,,,,,,,
dig_prac,28,203903,0.0-11.0-2.0,"""event"",""trial"",""time""
""focus"",""0"",""0""
""blur"",""0"",""0""
""focus"",""0"",""0""
""fullscreenenter"",""1"",""1075""
""blur"",""2"",""8783""
""focus"",""3"",""15769""
""blur"",""3"",""27454""
""focus"",""4"",""29820""
""blur"",""6"",""32926""
""focus"",""7"",""45048""
""blur"",""9"",""48595""
""focus"",""10"",""65641""
""blur"",""12"",""79107""
""focus"",""12"",""85942""
""blur"",""12"",""93620""
""focus"",""12"",""99458""
""blur"",""14"",""115550""
""focus"",""15"",""118236""
""blur"",""15"",""138592""
""focus"",""16"",""152890""
""blur"",""24"",""192771""
""focus"",""24"",""195382""
","""event"",""trial"",""time""
""blur"",""0"",""0""
""blur"",""2"",""8783""
""blur"",""3"",""27454""
""blur"",""6"",""32926""
""blur"",""9"",""48595""
""blur"",""12"",""79107""
""blur"",""12"",""93620""
""blur"",""14"",""115550""
""blur"",""15"",""138592""
""blur"",""24"",""192771""
","""event"",""trial"",""time""
""focus"",""0"",""0""
""focus"",""0"",""0""
""focus"",""3"",""15769""
""focus"",""4"",""29820""
""focus"",""7"",""45048""
""focus"",""10"",""65641""
""focus"",""12"",""85942""
""focus"",""12"",""99458""
""focus"",""15"",""118236""
""focus"",""16"",""152890""
""focus"",""24"",""195382""
","""event"",""trial"",""time""
""fullscreenenter"",""1"",""1075""
","
",,,,,,,,,,,,"[{""stimulus"":""run_exp/static/images/task_images/dig.jpg"",""time"":0.19999980926513672},{""stimulus"":""run_exp/static/images/task_images/land.jpg"",""time"":678.3999996185303},{""stimulus"":""run_exp/static/images/task_images/dig.jpg"",""time"":1342.5999999046326}]",[],,,,,,,,,,,,,,,
harvest_prac,29,204912,0.0-11.0-3.0,"""event"",""trial"",""time""
""focus"",""0"",""0""
""blur"",""0"",""0""
""focus"",""0"",""0""
""fullscreenenter"",""1"",""1075""
""blur"",""2"",""8783""
""focus"",""3"",""15769""
""blur"",""3"",""27454""
""focus"",""4"",""29820""
""blur"",""6"",""32926""
""focus"",""7"",""45048""
""blur"",""9"",""48595""
""focus"",""10"",""65641""
""blur"",""12"",""79107""
""focus"",""12"",""85942""
""blur"",""12"",""93620""
""focus"",""12"",""99458""
""blur"",""14"",""115550""
""focus"",""15"",""118236""
""blur"",""15"",""138592""
""focus"",""16"",""152890""
""blur"",""24"",""192771""
""focus"",""24"",""195382""
","""event"",""trial"",""time""
""blur"",""0"",""0""
""blur"",""2"",""8783""
""blur"",""3"",""27454""
""blur"",""6"",""32926""
""blur"",""9"",""48595""
""blur"",""12"",""79107""
""blur"",""12"",""93620""
""blur"",""14"",""115550""
""blur"",""15"",""138592""
""blur"",""24"",""192771""
","""event"",""trial"",""time""
""focus"",""0"",""0""
""focus"",""0"",""0""
""focus"",""3"",""15769""
""focus"",""4"",""29820""
""focus"",""7"",""45048""
""focus"",""10"",""65641""
""focus"",""12"",""85942""
""focus"",""12"",""99458""
""focus"",""15"",""118236""
""focus"",""16"",""152890""
""focus"",""24"",""195382""
","""event"",""trial"",""time""
""fullscreenenter"",""1"",""1075""
","
",,null,run_exp/static/images/task_images/barrel_text.jpg,null,,,,,,,,,,,,,,,,,,,,,,,,
decision_prac,30,206143,0.0-11.0-4.0,"""event"",""trial"",""time""
""focus"",""0"",""0""
""blur"",""0"",""0""
""focus"",""0"",""0""
""fullscreenenter"",""1"",""1075""
""blur"",""2"",""8783""
""focus"",""3"",""15769""
""blur"",""3"",""27454""
""focus"",""4"",""29820""
""blur"",""6"",""32926""
""focus"",""7"",""45048""
""blur"",""9"",""48595""
""focus"",""10"",""65641""
""blur"",""12"",""79107""
""focus"",""12"",""85942""
""blur"",""12"",""93620""
""focus"",""12"",""99458""
""blur"",""14"",""115550""
""focus"",""15"",""118236""
""blur"",""15"",""138592""
""focus"",""16"",""152890""
""blur"",""24"",""192771""
""focus"",""24"",""195382""
","""event"",""trial"",""time""
""blur"",""0"",""0""
""blur"",""2"",""8783""
""blur"",""3"",""27454""
""blur"",""6"",""32926""
""blur"",""9"",""48595""
""blur"",""12"",""79107""
""blur"",""12"",""93620""
""blur"",""14"",""115550""
""blur"",""15"",""138592""
""blur"",""24"",""192771""
","""event"",""trial"",""time""
""focus"",""0"",""0""
""focus"",""0"",""0""
""focus"",""3"",""15769""
""focus"",""4"",""29820""
""focus"",""7"",""45048""
""focus"",""10"",""65641""
""focus"",""12"",""85942""
""focus"",""12"",""99458""
""focus"",""15"",""118236""
""focus"",""16"",""152890""
""focus"",""24"",""195382""
","""event"",""trial"",""time""
""fullscreenenter"",""1"",""1075""
","
",,1230.2,run_exp/static/images/task_images/land.jpg,65,,,,,,,,,,,1,,,,,,,,,,,,,
dig_prac,31,208151,0.0-12.0-0.0,"""event"",""trial"",""time""
""focus"",""0"",""0""
""blur"",""0"",""0""
""focus"",""0"",""0""
""fullscreenenter"",""1"",""1075""
""blur"",""2"",""8783""
""focus"",""3"",""15769""
""blur"",""3"",""27454""
""focus"",""4"",""29820""
""blur"",""6"",""32926""
""focus"",""7"",""45048""
""blur"",""9"",""48595""
""focus"",""10"",""65641""
""blur"",""12"",""79107""
""focus"",""12"",""85942""
""blur"",""12"",""93620""
""focus"",""12"",""99458""
""blur"",""14"",""115550""
""focus"",""15"",""118236""
""blur"",""15"",""138592""
""focus"",""16"",""152890""
""blur"",""24"",""192771""
""focus"",""24"",""195382""
","""event"",""trial"",""time""
""blur"",""0"",""0""
""blur"",""2"",""8783""
""blur"",""3"",""27454""
""blur"",""6"",""32926""
""blur"",""9"",""48595""
""blur"",""12"",""79107""
""blur"",""12"",""93620""
""blur"",""14"",""115550""
""blur"",""15"",""138592""
""blur"",""24"",""192771""
","""event"",""trial"",""time""
""focus"",""0"",""0""
""focus"",""0"",""0""
""focus"",""3"",""15769""
""focus"",""4"",""29820""
""focus"",""7"",""45048""
""focus"",""10"",""65641""
""focus"",""12"",""85942""
""focus"",""12"",""99458""
""focus"",""15"",""118236""
""focus"",""16"",""152890""
""focus"",""24"",""195382""
","""event"",""trial"",""time""
""fullscreenenter"",""1"",""1075""
","
",,,,,,,,,,,,"[{""stimulus"":""run_exp/static/images/task_images/dig.jpg"",""time"":0.09999990463256836},{""stimulus"":""run_exp/static/images/task_images/land.jpg"",""time"":679.5999999046326},{""stimulus"":""run_exp/static/images/task_images/dig.jpg"",""time"":1335.9000000953674}]",[],,,,,,,,,,,,,,,
harvest_prac,32,209159,0.0-12.0-1.0,"""event"",""trial"",""time""
""focus"",""0"",""0""
""blur"",""0"",""0""
""focus"",""0"",""0""
""fullscreenenter"",""1"",""1075""
""blur"",""2"",""8783""
""focus"",""3"",""15769""
""blur"",""3"",""27454""
""focus"",""4"",""29820""
""blur"",""6"",""32926""
""focus"",""7"",""45048""
""blur"",""9"",""48595""
""focus"",""10"",""65641""
""blur"",""12"",""79107""
""focus"",""12"",""85942""
""blur"",""12"",""93620""
""focus"",""12"",""99458""
""blur"",""14"",""115550""
""focus"",""15"",""118236""
""blur"",""15"",""138592""
""focus"",""16"",""152890""
""blur"",""24"",""192771""
""focus"",""24"",""195382""
","""event"",""trial"",""time""
""blur"",""0"",""0""
""blur"",""2"",""8783""
""blur"",""3"",""27454""
""blur"",""6"",""32926""
""blur"",""9"",""48595""
""blur"",""12"",""79107""
""blur"",""12"",""93620""
""blur"",""14"",""115550""
""blur"",""15"",""138592""
""blur"",""24"",""192771""
","""event"",""trial"",""time""
""focus"",""0"",""0""
""focus"",""0"",""0""
""focus"",""3"",""15769""
""focus"",""4"",""29820""
""focus"",""7"",""45048""
""focus"",""10"",""65641""
""focus"",""12"",""85942""
""focus"",""12"",""99458""
""focus"",""15"",""118236""
""focus"",""16"",""152890""
""focus"",""24"",""195382""
","""event"",""trial"",""time""
""fullscreenenter"",""1"",""1075""
","
",,null,run_exp/static/images/task_images/barrel_text.jpg,null,,,,,,,,,,,,,,,,,,,,,,,,
decision_prac,33,209957,0.0-12.0-2.0,"""event"",""trial"",""time""
""focus"",""0"",""0""
""blur"",""0"",""0""
""focus"",""0"",""0""
""fullscreenenter"",""1"",""1075""
""blur"",""2"",""8783""
""focus"",""3"",""15769""
""blur"",""3"",""27454""
""focus"",""4"",""29820""
""blur"",""6"",""32926""
""focus"",""7"",""45048""
""blur"",""9"",""48595""
""focus"",""10"",""65641""
""blur"",""12"",""79107""
""focus"",""12"",""85942""
""blur"",""12"",""93620""
""focus"",""12"",""99458""
""blur"",""14"",""115550""
""focus"",""15"",""118236""
""blur"",""15"",""138592""
""focus"",""16"",""152890""
""blur"",""24"",""192771""
""focus"",""24"",""195382""
","""event"",""trial"",""time""
""blur"",""0"",""0""
""blur"",""2"",""8783""
""blur"",""3"",""27454""
""blur"",""6"",""32926""
""blur"",""9"",""48595""
""blur"",""12"",""79107""
""blur"",""12"",""93620""
""blur"",""14"",""115550""
""blur"",""15"",""138592""
""blur"",""24"",""192771""
","""event"",""trial"",""time""
""focus"",""0"",""0""
""focus"",""0"",""0""
""focus"",""3"",""15769""
""focus"",""4"",""29820""
""focus"",""7"",""45048""
""focus"",""10"",""65641""
""focus"",""12"",""85942""
""focus"",""12"",""99458""
""focus"",""15"",""118236""
""focus"",""16"",""152890""
""focus"",""24"",""195382""
","""event"",""trial"",""time""
""fullscreenenter"",""1"",""1075""
","
",,796.9000001,run_exp/static/images/task_images/land.jpg,65,,,,,,,,,,,2,,,,,,,,,,,,,
dig_prac,34,211967,0.0-13.0-0.0,"""event"",""trial"",""time""
""focus"",""0"",""0""
""blur"",""0"",""0""
""focus"",""0"",""0""
""fullscreenenter"",""1"",""1075""
""blur"",""2"",""8783""
""focus"",""3"",""15769""
""blur"",""3"",""27454""
""focus"",""4"",""29820""
""blur"",""6"",""32926""
""focus"",""7"",""45048""
""blur"",""9"",""48595""
""focus"",""10"",""65641""
""blur"",""12"",""79107""
""focus"",""12"",""85942""
""blur"",""12"",""93620""
""focus"",""12"",""99458""
""blur"",""14"",""115550""
""focus"",""15"",""118236""
""blur"",""15"",""138592""
""focus"",""16"",""152890""
""blur"",""24"",""192771""
""focus"",""24"",""195382""
","""event"",""trial"",""time""
""blur"",""0"",""0""
""blur"",""2"",""8783""
""blur"",""3"",""27454""
""blur"",""6"",""32926""
""blur"",""9"",""48595""
""blur"",""12"",""79107""
""blur"",""12"",""93620""
""blur"",""14"",""115550""
""blur"",""15"",""138592""
""blur"",""24"",""192771""
","""event"",""trial"",""time""
""focus"",""0"",""0""
""focus"",""0"",""0""
""focus"",""3"",""15769""
""focus"",""4"",""29820""
""focus"",""7"",""45048""
""focus"",""10"",""65641""
""focus"",""12"",""85942""
""focus"",""12"",""99458""
""focus"",""15"",""118236""
""focus"",""16"",""152890""
""focus"",""24"",""195382""
","""event"",""trial"",""time""
""fullscreenenter"",""1"",""1075""
","
",,,,,,,,,,,,"[{""stimulus"":""run_exp/static/images/task_images/dig.jpg"",""time"":0.09999990463256836},{""stimulus"":""run_exp/static/images/task_images/land.jpg"",""time"":672.6999998092651},{""stimulus"":""run_exp/static/images/task_images/dig.jpg"",""time"":1337.0999999046326}]",[],,,,,,,,,,,,,,,
harvest_prac,35,212976,0.0-13.0-1.0,"""event"",""trial"",""time""
""focus"",""0"",""0""
""blur"",""0"",""0""
""focus"",""0"",""0""
""fullscreenenter"",""1"",""1075""
""blur"",""2"",""8783""
""focus"",""3"",""15769""
""blur"",""3"",""27454""
""focus"",""4"",""29820""
""blur"",""6"",""32926""
""focus"",""7"",""45048""
""blur"",""9"",""48595""
""focus"",""10"",""65641""
""blur"",""12"",""79107""
""focus"",""12"",""85942""
""blur"",""12"",""93620""
""focus"",""12"",""99458""
""blur"",""14"",""115550""
""focus"",""15"",""118236""
""blur"",""15"",""138592""
""focus"",""16"",""152890""
""blur"",""24"",""192771""
""focus"",""24"",""195382""
","""event"",""trial"",""time""
""blur"",""0"",""0""
""blur"",""2"",""8783""
""blur"",""3"",""27454""
""blur"",""6"",""32926""
""blur"",""9"",""48595""
""blur"",""12"",""79107""
""blur"",""12"",""93620""
""blur"",""14"",""115550""
""blur"",""15"",""138592""
""blur"",""24"",""192771""
","""event"",""trial"",""time""
""focus"",""0"",""0""
""focus"",""0"",""0""
""focus"",""3"",""15769""
""focus"",""4"",""29820""
""focus"",""7"",""45048""
""focus"",""10"",""65641""
""focus"",""12"",""85942""
""focus"",""12"",""99458""
""focus"",""15"",""118236""
""focus"",""16"",""152890""
""focus"",""24"",""195382""
","""event"",""trial"",""time""
""fullscreenenter"",""1"",""1075""
","
",,null,run_exp/static/images/task_images/barrel_text.jpg,null,,,,,,,,,,,,,,,,,,,,,,,,
decision_prac,36,213281,0.0-13.0-2.0,"""event"",""trial"",""time""
""focus"",""0"",""0""
""blur"",""0"",""0""
""focus"",""0"",""0""
""fullscreenenter"",""1"",""1075""
""blur"",""2"",""8783""
""focus"",""3"",""15769""
""blur"",""3"",""27454""
""focus"",""4"",""29820""
""blur"",""6"",""32926""
""focus"",""7"",""45048""
""blur"",""9"",""48595""
""focus"",""10"",""65641""
""blur"",""12"",""79107""
""focus"",""12"",""85942""
""blur"",""12"",""93620""
""focus"",""12"",""99458""
""blur"",""14"",""115550""
""focus"",""15"",""118236""
""blur"",""15"",""138592""
""focus"",""16"",""152890""
""blur"",""24"",""192771""
""focus"",""24"",""195382""
","""event"",""trial"",""time""
""blur"",""0"",""0""
""blur"",""2"",""8783""
""blur"",""3"",""27454""
""blur"",""6"",""32926""
""blur"",""9"",""48595""
""blur"",""12"",""79107""
""blur"",""12"",""93620""
""blur"",""14"",""115550""
""blur"",""15"",""138592""
""blur"",""24"",""192771""
","""event"",""trial"",""time""
""focus"",""0"",""0""
""focus"",""0"",""0""
""focus"",""3"",""15769""
""focus"",""4"",""29820""
""focus"",""7"",""45048""
""focus"",""10"",""65641""
""focus"",""12"",""85942""
""focus"",""12"",""99458""
""focus"",""15"",""118236""
""focus"",""16"",""152890""
""focus"",""24"",""195382""
","""event"",""trial"",""time""
""fullscreenenter"",""1"",""1075""
","
",,303.0999999,run_exp/static/images/task_images/land.jpg,65,,,,,,,,,,,3,,,,,,,,,,,,,
dig_prac,37,215295,0.0-14.0-0.0,"""event"",""trial"",""time""
""focus"",""0"",""0""
""blur"",""0"",""0""
""focus"",""0"",""0""
""fullscreenenter"",""1"",""1075""
""blur"",""2"",""8783""
""focus"",""3"",""15769""
""blur"",""3"",""27454""
""focus"",""4"",""29820""
""blur"",""6"",""32926""
""focus"",""7"",""45048""
""blur"",""9"",""48595""
""focus"",""10"",""65641""
""blur"",""12"",""79107""
""focus"",""12"",""85942""
""blur"",""12"",""93620""
""focus"",""12"",""99458""
""blur"",""14"",""115550""
""focus"",""15"",""118236""
""blur"",""15"",""138592""
""focus"",""16"",""152890""
""blur"",""24"",""192771""
""focus"",""24"",""195382""
","""event"",""trial"",""time""
""blur"",""0"",""0""
""blur"",""2"",""8783""
""blur"",""3"",""27454""
""blur"",""6"",""32926""
""blur"",""9"",""48595""
""blur"",""12"",""79107""
""blur"",""12"",""93620""
""blur"",""14"",""115550""
""blur"",""15"",""138592""
""blur"",""24"",""192771""
","""event"",""trial"",""time""
""focus"",""0"",""0""
""focus"",""0"",""0""
""focus"",""3"",""15769""
""focus"",""4"",""29820""
""focus"",""7"",""45048""
""focus"",""10"",""65641""
""focus"",""12"",""85942""
""focus"",""12"",""99458""
""focus"",""15"",""118236""
""focus"",""16"",""152890""
""focus"",""24"",""195382""
","""event"",""trial"",""time""
""fullscreenenter"",""1"",""1075""
","
",,,,,,,,,,,,"[{""stimulus"":""run_exp/static/images/task_images/dig.jpg"",""time"":0.19999980926513672},{""stimulus"":""run_exp/static/images/task_images/land.jpg"",""time"":676.2999997138977},{""stimulus"":""run_exp/static/images/task_images/dig.jpg"",""time"":1341}]",[],,,,,,,,,,,,,,,
harvest_prac,38,216304,0.0-14.0-1.0,"""event"",""trial"",""time""
""focus"",""0"",""0""
""blur"",""0"",""0""
""focus"",""0"",""0""
""fullscreenenter"",""1"",""1075""
""blur"",""2"",""8783""
""focus"",""3"",""15769""
""blur"",""3"",""27454""
""focus"",""4"",""29820""
""blur"",""6"",""32926""
""focus"",""7"",""45048""
""blur"",""9"",""48595""
""focus"",""10"",""65641""
""blur"",""12"",""79107""
""focus"",""12"",""85942""
""blur"",""12"",""93620""
""focus"",""12"",""99458""
""blur"",""14"",""115550""
""focus"",""15"",""118236""
""blur"",""15"",""138592""
""focus"",""16"",""152890""
""blur"",""24"",""192771""
""focus"",""24"",""195382""
","""event"",""trial"",""time""
""blur"",""0"",""0""
""blur"",""2"",""8783""
""blur"",""3"",""27454""
""blur"",""6"",""32926""
""blur"",""9"",""48595""
""blur"",""12"",""79107""
""blur"",""12"",""93620""
""blur"",""14"",""115550""
""blur"",""15"",""138592""
""blur"",""24"",""192771""
","""event"",""trial"",""time""
""focus"",""0"",""0""
""focus"",""0"",""0""
""focus"",""3"",""15769""
""focus"",""4"",""29820""
""focus"",""7"",""45048""
""focus"",""10"",""65641""
""focus"",""12"",""85942""
""focus"",""12"",""99458""
""focus"",""15"",""118236""
""focus"",""16"",""152890""
""focus"",""24"",""195382""
","""event"",""trial"",""time""
""fullscreenenter"",""1"",""1075""
","
",,null,run_exp/static/images/task_images/barrel_text.jpg,null,,,,,,,,,,,,,,,,,,,,,,,,
decision_prac,39,216560,0.0-14.0-2.0,"""event"",""trial"",""time""
""focus"",""0"",""0""
""blur"",""0"",""0""
""focus"",""0"",""0""
""fullscreenenter"",""1"",""1075""
""blur"",""2"",""8783""
""focus"",""3"",""15769""
""blur"",""3"",""27454""
""focus"",""4"",""29820""
""blur"",""6"",""32926""
""focus"",""7"",""45048""
""blur"",""9"",""48595""
""focus"",""10"",""65641""
""blur"",""12"",""79107""
""focus"",""12"",""85942""
""blur"",""12"",""93620""
""focus"",""12"",""99458""
""blur"",""14"",""115550""
""focus"",""15"",""118236""
""blur"",""15"",""138592""
""focus"",""16"",""152890""
""blur"",""24"",""192771""
""focus"",""24"",""195382""
","""event"",""trial"",""time""
""blur"",""0"",""0""
""blur"",""2"",""8783""
""blur"",""3"",""27454""
""blur"",""6"",""32926""
""blur"",""9"",""48595""
""blur"",""12"",""79107""
""blur"",""12"",""93620""
""blur"",""14"",""115550""
""blur"",""15"",""138592""
""blur"",""24"",""192771""
","""event"",""trial"",""time""
""focus"",""0"",""0""
""focus"",""0"",""0""
""focus"",""3"",""15769""
""focus"",""4"",""29820""
""focus"",""7"",""45048""
""focus"",""10"",""65641""
""focus"",""12"",""85942""
""focus"",""12"",""99458""
""focus"",""15"",""118236""
""focus"",""16"",""152890""
""focus"",""24"",""195382""
","""event"",""trial"",""time""
""fullscreenenter"",""1"",""1075""
","
",,255.0999999,run_exp/static/images/task_images/land.jpg,65,,,,,,,,,,,4,,,,,,,,,,,,,
dig_prac,40,218576,0.0-15.0-0.0,"""event"",""trial"",""time""
""focus"",""0"",""0""
""blur"",""0"",""0""
""focus"",""0"",""0""
""fullscreenenter"",""1"",""1075""
""blur"",""2"",""8783""
""focus"",""3"",""15769""
""blur"",""3"",""27454""
""focus"",""4"",""29820""
""blur"",""6"",""32926""
""focus"",""7"",""45048""
""blur"",""9"",""48595""
""focus"",""10"",""65641""
""blur"",""12"",""79107""
""focus"",""12"",""85942""
""blur"",""12"",""93620""
""focus"",""12"",""99458""
""blur"",""14"",""115550""
""focus"",""15"",""118236""
""blur"",""15"",""138592""
""focus"",""16"",""152890""
""blur"",""24"",""192771""
""focus"",""24"",""195382""
","""event"",""trial"",""time""
""blur"",""0"",""0""
""blur"",""2"",""8783""
""blur"",""3"",""27454""
""blur"",""6"",""32926""
""blur"",""9"",""48595""
""blur"",""12"",""79107""
""blur"",""12"",""93620""
""blur"",""14"",""115550""
""blur"",""15"",""138592""
""blur"",""24"",""192771""
","""event"",""trial"",""time""
""focus"",""0"",""0""
""focus"",""0"",""0""
""focus"",""3"",""15769""
""focus"",""4"",""29820""
""focus"",""7"",""45048""
""focus"",""10"",""65641""
""focus"",""12"",""85942""
""focus"",""12"",""99458""
""focus"",""15"",""118236""
""focus"",""16"",""152890""
""focus"",""24"",""195382""
","""event"",""trial"",""time""
""fullscreenenter"",""1"",""1075""
","
",,,,,,,,,,,,"[{""stimulus"":""run_exp/static/images/task_images/dig.jpg"",""time"":0.09999990463256836},{""stimulus"":""run_exp/static/images/task_images/land.jpg"",""time"":677.1999998092651},{""stimulus"":""run_exp/static/images/task_images/dig.jpg"",""time"":1338.5}]",[],,,,,,,,,,,,,,,
harvest_prac,41,219580,0.0-15.0-1.0,"""event"",""trial"",""time""
""focus"",""0"",""0""
""blur"",""0"",""0""
""focus"",""0"",""0""
""fullscreenenter"",""1"",""1075""
""blur"",""2"",""8783""
""focus"",""3"",""15769""
""blur"",""3"",""27454""
""focus"",""4"",""29820""
""blur"",""6"",""32926""
""focus"",""7"",""45048""
""blur"",""9"",""48595""
""focus"",""10"",""65641""
""blur"",""12"",""79107""
""focus"",""12"",""85942""
""blur"",""12"",""93620""
""focus"",""12"",""99458""
""blur"",""14"",""115550""
""focus"",""15"",""118236""
""blur"",""15"",""138592""
""focus"",""16"",""152890""
""blur"",""24"",""192771""
""focus"",""24"",""195382""
","""event"",""trial"",""time""
""blur"",""0"",""0""
""blur"",""2"",""8783""
""blur"",""3"",""27454""
""blur"",""6"",""32926""
""blur"",""9"",""48595""
""blur"",""12"",""79107""
""blur"",""12"",""93620""
""blur"",""14"",""115550""
""blur"",""15"",""138592""
""blur"",""24"",""192771""
","""event"",""trial"",""time""
""focus"",""0"",""0""
""focus"",""0"",""0""
""focus"",""3"",""15769""
""focus"",""4"",""29820""
""focus"",""7"",""45048""
""focus"",""10"",""65641""
""focus"",""12"",""85942""
""focus"",""12"",""99458""
""focus"",""15"",""118236""
""focus"",""16"",""152890""
""focus"",""24"",""195382""
","""event"",""trial"",""time""
""fullscreenenter"",""1"",""1075""
","
",,null,run_exp/static/images/task_images/barrel_text.jpg,null,,,,,,,,,,,,,,,,,,,,,,,,
decision_prac,42,219959,0.0-15.0-2.0,"""event"",""trial"",""time""
""focus"",""0"",""0""
""blur"",""0"",""0""
""focus"",""0"",""0""
""fullscreenenter"",""1"",""1075""
""blur"",""2"",""8783""
""focus"",""3"",""15769""
""blur"",""3"",""27454""
""focus"",""4"",""29820""
""blur"",""6"",""32926""
""focus"",""7"",""45048""
""blur"",""9"",""48595""
""focus"",""10"",""65641""
""blur"",""12"",""79107""
""focus"",""12"",""85942""
""blur"",""12"",""93620""
""focus"",""12"",""99458""
""blur"",""14"",""115550""
""focus"",""15"",""118236""
""blur"",""15"",""138592""
""focus"",""16"",""152890""
""blur"",""24"",""192771""
""focus"",""24"",""195382""
","""event"",""trial"",""time""
""blur"",""0"",""0""
""blur"",""2"",""8783""
""blur"",""3"",""27454""
""blur"",""6"",""32926""
""blur"",""9"",""48595""
""blur"",""12"",""79107""
""blur"",""12"",""93620""
""blur"",""14"",""115550""
""blur"",""15"",""138592""
""blur"",""24"",""192771""
","""event"",""trial"",""time""
""focus"",""0"",""0""
""focus"",""0"",""0""
""focus"",""3"",""15769""
""focus"",""4"",""29820""
""focus"",""7"",""45048""
""focus"",""10"",""65641""
""focus"",""12"",""85942""
""focus"",""12"",""99458""
""focus"",""15"",""118236""
""focus"",""16"",""152890""
""focus"",""24"",""195382""
","""event"",""trial"",""time""
""fullscreenenter"",""1"",""1075""
","
",,378.4000001,run_exp/static/images/task_images/land.jpg,65,,,,,,,,,,,,1,,,,,,,,,,,,
quiz_instruc,43,221986,0.0-16.0-0.0,"""event"",""trial"",""time""
""focus"",""0"",""0""
""blur"",""0"",""0""
""focus"",""0"",""0""
""fullscreenenter"",""1"",""1075""
""blur"",""2"",""8783""
""focus"",""3"",""15769""
""blur"",""3"",""27454""
""focus"",""4"",""29820""
""blur"",""6"",""32926""
""focus"",""7"",""45048""
""blur"",""9"",""48595""
""focus"",""10"",""65641""
""blur"",""12"",""79107""
""focus"",""12"",""85942""
""blur"",""12"",""93620""
""focus"",""12"",""99458""
""blur"",""14"",""115550""
""focus"",""15"",""118236""
""blur"",""15"",""138592""
""focus"",""16"",""152890""
""blur"",""24"",""192771""
""focus"",""24"",""195382""
""blur"",""44"",""228350""
""focus"",""44"",""242908""
""blur"",""44"",""246941""
""focus"",""44"",""259194""
","""event"",""trial"",""time""
""blur"",""0"",""0""
""blur"",""2"",""8783""
""blur"",""3"",""27454""
""blur"",""6"",""32926""
""blur"",""9"",""48595""
""blur"",""12"",""79107""
""blur"",""12"",""93620""
""blur"",""14"",""115550""
""blur"",""15"",""138592""
""blur"",""24"",""192771""
""blur"",""44"",""228350""
""blur"",""44"",""246941""
","""event"",""trial"",""time""
""focus"",""0"",""0""
""focus"",""0"",""0""
""focus"",""3"",""15769""
""focus"",""4"",""29820""
""focus"",""7"",""45048""
""focus"",""10"",""65641""
""focus"",""12"",""85942""
""focus"",""12"",""99458""
""focus"",""15"",""118236""
""focus"",""16"",""152890""
""focus"",""24"",""195382""
""focus"",""44"",""242908""
""focus"",""44"",""259194""
","""event"",""trial"",""time""
""fullscreenenter"",""1"",""1075""
","
",,2025,run_exp/static/audio/clip_10_quiz.m4a,,,,,,,0,,,,,,,,,,,,,,,,,,
instruc_repeat,44,264748,0.0-16.0-1.0,"""event"",""trial"",""time""
""focus"",""0"",""0""
""blur"",""0"",""0""
""focus"",""0"",""0""
""fullscreenenter"",""1"",""1075""
""blur"",""2"",""8783""
""focus"",""3"",""15769""
""blur"",""3"",""27454""
""focus"",""4"",""29820""
""blur"",""6"",""32926""
""focus"",""7"",""45048""
""blur"",""9"",""48595""
""focus"",""10"",""65641""
""blur"",""12"",""79107""
""focus"",""12"",""85942""
""blur"",""12"",""93620""
""focus"",""12"",""99458""
""blur"",""14"",""115550""
""focus"",""15"",""118236""
""blur"",""15"",""138592""
""focus"",""16"",""152890""
""blur"",""24"",""192771""
""focus"",""24"",""195382""
""blur"",""44"",""228350""
""focus"",""44"",""242908""
""blur"",""44"",""246941""
""focus"",""44"",""259194""
","""event"",""trial"",""time""
""blur"",""0"",""0""
""blur"",""2"",""8783""
""blur"",""3"",""27454""
""blur"",""6"",""32926""
""blur"",""9"",""48595""
""blur"",""12"",""79107""
""blur"",""12"",""93620""
""blur"",""14"",""115550""
""blur"",""15"",""138592""
""blur"",""24"",""192771""
""blur"",""44"",""228350""
""blur"",""44"",""246941""
","""event"",""trial"",""time""
""focus"",""0"",""0""
""focus"",""0"",""0""
""focus"",""3"",""15769""
""focus"",""4"",""29820""
""focus"",""7"",""45048""
""focus"",""10"",""65641""
""focus"",""12"",""85942""
""focus"",""12"",""99458""
""focus"",""15"",""118236""
""focus"",""16"",""152890""
""focus"",""24"",""195382""
""focus"",""44"",""242908""
""focus"",""44"",""259194""
","""event"",""trial"",""time""
""fullscreenenter"",""1"",""1075""
","
",,null,"<p> Are you ready to play a practice game? </p> <p>In this practice game, you'll be digging up barrels of gems. But, in the real game, you'll be digging up the gems themselves. </p>",null,"<p>In this game, your goal is to collect as many gems as you can. That’s how you will win bonus money. </p> <p>The entire game will last 20 minutes no matter how many gems you collect or how many planets you visit. </p><p>To stay on a planet and dig again, press the letter A on your keyboard. To leave for a new planet, press the letter L.</p><p>The more you dig on a planet, the fewer gems you’ll get with each dig which is why you might consider leaving for a new planet. </p><p>When you arrive at a new planet, you’ll be greeted by an alien. What the alien looks like does not tell you anything about how much treasure is on the planet. </p>",,,,,,,,,,,,,,,,,,,,,,,
instruc_repeat_continue,45,266160,0.0-16.0-2.0,"""event"",""trial"",""time""
""focus"",""0"",""0""
""blur"",""0"",""0""
""focus"",""0"",""0""
""fullscreenenter"",""1"",""1075""
""blur"",""2"",""8783""
""focus"",""3"",""15769""
""blur"",""3"",""27454""
""focus"",""4"",""29820""
""blur"",""6"",""32926""
""focus"",""7"",""45048""
""blur"",""9"",""48595""
""focus"",""10"",""65641""
""blur"",""12"",""79107""
""focus"",""12"",""85942""
""blur"",""12"",""93620""
""focus"",""12"",""99458""
""blur"",""14"",""115550""
""focus"",""15"",""118236""
""blur"",""15"",""138592""
""focus"",""16"",""152890""
""blur"",""24"",""192771""
""focus"",""24"",""195382""
""blur"",""44"",""228350""
""focus"",""44"",""242908""
""blur"",""44"",""246941""
""focus"",""44"",""259194""
","""event"",""trial"",""time""
""blur"",""0"",""0""
""blur"",""2"",""8783""
""blur"",""3"",""27454""
""blur"",""6"",""32926""
""blur"",""9"",""48595""
""blur"",""12"",""79107""
""blur"",""12"",""93620""
""blur"",""14"",""115550""
""blur"",""15"",""138592""
""blur"",""24"",""192771""
""blur"",""44"",""228350""
""blur"",""44"",""246941""
","""event"",""trial"",""time""
""focus"",""0"",""0""
""focus"",""0"",""0""
""focus"",""3"",""15769""
""focus"",""4"",""29820""
""focus"",""7"",""45048""
""focus"",""10"",""65641""
""focus"",""12"",""85942""
""focus"",""12"",""99458""
""focus"",""15"",""118236""
""focus"",""16"",""152890""
""focus"",""24"",""195382""
""focus"",""44"",""242908""
""focus"",""44"",""259194""
","""event"",""trial"",""time""
""fullscreenenter"",""1"",""1075""
","
",,1386.6,"<p> Are you ready to play a practice game? </p> <p>In this practice game, you'll be digging up barrels of gems. But, in the real game, you'll be digging up the gems themselves. </p>",,,,,,,0,,,,,,,,,,,,,,,,,,
quiz_q_1_ask,46,268328,0.0-16.0-3.0,"""event"",""trial"",""time""
""focus"",""0"",""0""
""blur"",""0"",""0""
""focus"",""0"",""0""
""fullscreenenter"",""1"",""1075""
""blur"",""2"",""8783""
""focus"",""3"",""15769""
""blur"",""3"",""27454""
""focus"",""4"",""29820""
""blur"",""6"",""32926""
""focus"",""7"",""45048""
""blur"",""9"",""48595""
""focus"",""10"",""65641""
""blur"",""12"",""79107""
""focus"",""12"",""85942""
""blur"",""12"",""93620""
""focus"",""12"",""99458""
""blur"",""14"",""115550""
""focus"",""15"",""118236""
""blur"",""15"",""138592""
""focus"",""16"",""152890""
""blur"",""24"",""192771""
""focus"",""24"",""195382""
""blur"",""44"",""228350""
""focus"",""44"",""242908""
""blur"",""44"",""246941""
""focus"",""44"",""259194""
","""event"",""trial"",""time""
""blur"",""0"",""0""
""blur"",""2"",""8783""
""blur"",""3"",""27454""
""blur"",""6"",""32926""
""blur"",""9"",""48595""
""blur"",""12"",""79107""
""blur"",""12"",""93620""
""blur"",""14"",""115550""
""blur"",""15"",""138592""
""blur"",""24"",""192771""
""blur"",""44"",""228350""
""blur"",""44"",""246941""
","""event"",""trial"",""time""
""focus"",""0"",""0""
""focus"",""0"",""0""
""focus"",""3"",""15769""
""focus"",""4"",""29820""
""focus"",""7"",""45048""
""focus"",""10"",""65641""
""focus"",""12"",""85942""
""focus"",""12"",""99458""
""focus"",""15"",""118236""
""focus"",""16"",""152890""
""focus"",""24"",""195382""
""focus"",""44"",""242908""
""focus"",""44"",""259194""
","""event"",""trial"",""time""
""fullscreenenter"",""1"",""1075""
","
",,2167,run_exp/static/audio/clip_11_q1_ask.m4a,,,,,,,2,,,,,,,,,,,,,,,,,,
quiz_q_1_fb_correct,47,272172,0.0-17.0-0.0,"""event"",""trial"",""time""
""focus"",""0"",""0""
""blur"",""0"",""0""
""focus"",""0"",""0""
""fullscreenenter"",""1"",""1075""
""blur"",""2"",""8783""
""focus"",""3"",""15769""
""blur"",""3"",""27454""
""focus"",""4"",""29820""
""blur"",""6"",""32926""
""focus"",""7"",""45048""
""blur"",""9"",""48595""
""focus"",""10"",""65641""
""blur"",""12"",""79107""
""focus"",""12"",""85942""
""blur"",""12"",""93620""
""focus"",""12"",""99458""
""blur"",""14"",""115550""
""focus"",""15"",""118236""
""blur"",""15"",""138592""
""focus"",""16"",""152890""
""blur"",""24"",""192771""
""focus"",""24"",""195382""
""blur"",""44"",""228350""
""focus"",""44"",""242908""
""blur"",""44"",""246941""
""focus"",""44"",""259194""
","""event"",""trial"",""time""
""blur"",""0"",""0""
""blur"",""2"",""8783""
""blur"",""3"",""27454""
""blur"",""6"",""32926""
""blur"",""9"",""48595""
""blur"",""12"",""79107""
""blur"",""12"",""93620""
""blur"",""14"",""115550""
""blur"",""15"",""138592""
""blur"",""24"",""192771""
""blur"",""44"",""228350""
""blur"",""44"",""246941""
","""event"",""trial"",""time""
""focus"",""0"",""0""
""focus"",""0"",""0""
""focus"",""3"",""15769""
""focus"",""4"",""29820""
""focus"",""7"",""45048""
""focus"",""10"",""65641""
""focus"",""12"",""85942""
""focus"",""12"",""99458""
""focus"",""15"",""118236""
""focus"",""16"",""152890""
""focus"",""24"",""195382""
""focus"",""44"",""242908""
""focus"",""44"",""259194""
","""event"",""trial"",""time""
""fullscreenenter"",""1"",""1075""
","
",,null,run_exp/static/audio/clip_12_q1_correct.m4a,null,<p>That’s correct. You win extra money by collecting more gems.</p>,,,,,,,,,,,,,,,,,,,,,,,
quiz_q_2_ask,48,273977,0.0-17.0-1.0,"""event"",""trial"",""time""
""focus"",""0"",""0""
""blur"",""0"",""0""
""focus"",""0"",""0""
""fullscreenenter"",""1"",""1075""
""blur"",""2"",""8783""
""focus"",""3"",""15769""
""blur"",""3"",""27454""
""focus"",""4"",""29820""
""blur"",""6"",""32926""
""focus"",""7"",""45048""
""blur"",""9"",""48595""
""focus"",""10"",""65641""
""blur"",""12"",""79107""
""focus"",""12"",""85942""
""blur"",""12"",""93620""
""focus"",""12"",""99458""
""blur"",""14"",""115550""
""focus"",""15"",""118236""
""blur"",""15"",""138592""
""focus"",""16"",""152890""
""blur"",""24"",""192771""
""focus"",""24"",""195382""
""blur"",""44"",""228350""
""focus"",""44"",""242908""
""blur"",""44"",""246941""
""focus"",""44"",""259194""
","""event"",""trial"",""time""
""blur"",""0"",""0""
""blur"",""2"",""8783""
""blur"",""3"",""27454""
""blur"",""6"",""32926""
""blur"",""9"",""48595""
""blur"",""12"",""79107""
""blur"",""12"",""93620""
""blur"",""14"",""115550""
""blur"",""15"",""138592""
""blur"",""24"",""192771""
""blur"",""44"",""228350""
""blur"",""44"",""246941""
","""event"",""trial"",""time""
""focus"",""0"",""0""
""focus"",""0"",""0""
""focus"",""3"",""15769""
""focus"",""4"",""29820""
""focus"",""7"",""45048""
""focus"",""10"",""65641""
""focus"",""12"",""85942""
""focus"",""12"",""99458""
""focus"",""15"",""118236""
""focus"",""16"",""152890""
""focus"",""24"",""195382""
""focus"",""44"",""242908""
""focus"",""44"",""259194""
","""event"",""trial"",""time""
""fullscreenenter"",""1"",""1075""
","
",,1803.4,run_exp/static/audio/clip_14_q2_ask.m4a,,,,,,,1,,,,,,,,,,,,,,,,,,
quiz_q_2_fb_correct,49,277975,0.0-18.0-0.0,"""event"",""trial"",""time""
""focus"",""0"",""0""
""blur"",""0"",""0""
""focus"",""0"",""0""
""fullscreenenter"",""1"",""1075""
""blur"",""2"",""8783""
""focus"",""3"",""15769""
""blur"",""3"",""27454""
""focus"",""4"",""29820""
""blur"",""6"",""32926""
""focus"",""7"",""45048""
""blur"",""9"",""48595""
""focus"",""10"",""65641""
""blur"",""12"",""79107""
""focus"",""12"",""85942""
""blur"",""12"",""93620""
""focus"",""12"",""99458""
""blur"",""14"",""115550""
""focus"",""15"",""118236""
""blur"",""15"",""138592""
""focus"",""16"",""152890""
""blur"",""24"",""192771""
""focus"",""24"",""195382""
""blur"",""44"",""228350""
""focus"",""44"",""242908""
""blur"",""44"",""246941""
""focus"",""44"",""259194""
","""event"",""trial"",""time""
""blur"",""0"",""0""
""blur"",""2"",""8783""
""blur"",""3"",""27454""
""blur"",""6"",""32926""
""blur"",""9"",""48595""
""blur"",""12"",""79107""
""blur"",""12"",""93620""
""blur"",""14"",""115550""
""blur"",""15"",""138592""
""blur"",""24"",""192771""
""blur"",""44"",""228350""
""blur"",""44"",""246941""
","""event"",""trial"",""time""
""focus"",""0"",""0""
""focus"",""0"",""0""
""focus"",""3"",""15769""
""focus"",""4"",""29820""
""focus"",""7"",""45048""
""focus"",""10"",""65641""
""focus"",""12"",""85942""
""focus"",""12"",""99458""
""focus"",""15"",""118236""
""focus"",""16"",""152890""
""focus"",""24"",""195382""
""focus"",""44"",""242908""
""focus"",""44"",""259194""
","""event"",""trial"",""time""
""fullscreenenter"",""1"",""1075""
","
",,null,run_exp/static/audio/clip_15_q2_correct.m4a,null,<p>That’s correct. The experiment is 20 minutes no matter what.</p>,,,,,,,,,,,,,,,,,,,,,,,
quiz_q_3_ask,50,279636,0.0-18.0-1.0,"""event"",""trial"",""time""
""focus"",""0"",""0""
""blur"",""0"",""0""
""focus"",""0"",""0""
""fullscreenenter"",""1"",""1075""
""blur"",""2"",""8783""
""focus"",""3"",""15769""
""blur"",""3"",""27454""
""focus"",""4"",""29820""
""blur"",""6"",""32926""
""focus"",""7"",""45048""
""blur"",""9"",""48595""
""focus"",""10"",""65641""
""blur"",""12"",""79107""
""focus"",""12"",""85942""
""blur"",""12"",""93620""
""focus"",""12"",""99458""
""blur"",""14"",""115550""
""focus"",""15"",""118236""
""blur"",""15"",""138592""
""focus"",""16"",""152890""
""blur"",""24"",""192771""
""focus"",""24"",""195382""
""blur"",""44"",""228350""
""focus"",""44"",""242908""
""blur"",""44"",""246941""
""focus"",""44"",""259194""
","""event"",""trial"",""time""
""blur"",""0"",""0""
""blur"",""2"",""8783""
""blur"",""3"",""27454""
""blur"",""6"",""32926""
""blur"",""9"",""48595""
""blur"",""12"",""79107""
""blur"",""12"",""93620""
""blur"",""14"",""115550""
""blur"",""15"",""138592""
""blur"",""24"",""192771""
""blur"",""44"",""228350""
""blur"",""44"",""246941""
","""event"",""trial"",""time""
""focus"",""0"",""0""
""focus"",""0"",""0""
""focus"",""3"",""15769""
""focus"",""4"",""29820""
""focus"",""7"",""45048""
""focus"",""10"",""65641""
""focus"",""12"",""85942""
""focus"",""12"",""99458""
""focus"",""15"",""118236""
""focus"",""16"",""152890""
""focus"",""24"",""195382""
""focus"",""44"",""242908""
""focus"",""44"",""259194""
","""event"",""trial"",""time""
""fullscreenenter"",""1"",""1075""
","
",,1659.3,run_exp/static/audio/clip_17_q3_ask.m4a,,,,,,,1,,,,,,,,,,,,,,,,,,
quiz_q_3_fb_correct,51,283607,0.0-19.0-0.0,"""event"",""trial"",""time""
""focus"",""0"",""0""
""blur"",""0"",""0""
""focus"",""0"",""0""
""fullscreenenter"",""1"",""1075""
""blur"",""2"",""8783""
""focus"",""3"",""15769""
""blur"",""3"",""27454""
""focus"",""4"",""29820""
""blur"",""6"",""32926""
""focus"",""7"",""45048""
""blur"",""9"",""48595""
""focus"",""10"",""65641""
""blur"",""12"",""79107""
""focus"",""12"",""85942""
""blur"",""12"",""93620""
""focus"",""12"",""99458""
""blur"",""14"",""115550""
""focus"",""15"",""118236""
""blur"",""15"",""138592""
""focus"",""16"",""152890""
""blur"",""24"",""192771""
""focus"",""24"",""195382""
""blur"",""44"",""228350""
""focus"",""44"",""242908""
""blur"",""44"",""246941""
""focus"",""44"",""259194""
","""event"",""trial"",""time""
""blur"",""0"",""0""
""blur"",""2"",""8783""
""blur"",""3"",""27454""
""blur"",""6"",""32926""
""blur"",""9"",""48595""
""blur"",""12"",""79107""
""blur"",""12"",""93620""
""blur"",""14"",""115550""
""blur"",""15"",""138592""
""blur"",""24"",""192771""
""blur"",""44"",""228350""
""blur"",""44"",""246941""
","""event"",""trial"",""time""
""focus"",""0"",""0""
""focus"",""0"",""0""
""focus"",""3"",""15769""
""focus"",""4"",""29820""
""focus"",""7"",""45048""
""focus"",""10"",""65641""
""focus"",""12"",""85942""
""focus"",""12"",""99458""
""focus"",""15"",""118236""
""focus"",""16"",""152890""
""focus"",""24"",""195382""
""focus"",""44"",""242908""
""focus"",""44"",""259194""
","""event"",""trial"",""time""
""fullscreenenter"",""1"",""1075""
","
",,null,run_exp/static/audio/clip_18_q3_correct.m4a,null,<p> That’s correct. You press the letter L to travel to a new planet.</p>,,,,,,,,,,,,,,,,,,,,,,,
quiz_q_4_ask,52,291871,0.0-19.0-1.0,"""event"",""trial"",""time""
""focus"",""0"",""0""
""blur"",""0"",""0""
""focus"",""0"",""0""
""fullscreenenter"",""1"",""1075""
""blur"",""2"",""8783""
""focus"",""3"",""15769""
""blur"",""3"",""27454""
""focus"",""4"",""29820""
""blur"",""6"",""32926""
""focus"",""7"",""45048""
""blur"",""9"",""48595""
""focus"",""10"",""65641""
""blur"",""12"",""79107""
""focus"",""12"",""85942""
""blur"",""12"",""93620""
""focus"",""12"",""99458""
""blur"",""14"",""115550""
""focus"",""15"",""118236""
""blur"",""15"",""138592""
""focus"",""16"",""152890""
""blur"",""24"",""192771""
""focus"",""24"",""195382""
""blur"",""44"",""228350""
""focus"",""44"",""242908""
""blur"",""44"",""246941""
""focus"",""44"",""259194""
","""event"",""trial"",""time""
""blur"",""0"",""0""
""blur"",""2"",""8783""
""blur"",""3"",""27454""
""blur"",""6"",""32926""
""blur"",""9"",""48595""
""blur"",""12"",""79107""
""blur"",""12"",""93620""
""blur"",""14"",""115550""
""blur"",""15"",""138592""
""blur"",""24"",""192771""
""blur"",""44"",""228350""
""blur"",""44"",""246941""
","""event"",""trial"",""time""
""focus"",""0"",""0""
""focus"",""0"",""0""
""focus"",""3"",""15769""
""focus"",""4"",""29820""
""focus"",""7"",""45048""
""focus"",""10"",""65641""
""focus"",""12"",""85942""
""focus"",""12"",""99458""
""focus"",""15"",""118236""
""focus"",""16"",""152890""
""focus"",""24"",""195382""
""focus"",""44"",""242908""
""focus"",""44"",""259194""
","""event"",""trial"",""time""
""fullscreenenter"",""1"",""1075""
","
",,8262.3,run_exp/static/audio/clip_20_q4_ask.m4a,,,,,,,1,,,,,,,,,,,,,,,,,,
quiz_q_4_fb_incorrect,53,297708,0.0-20.0-0.0,"""event"",""trial"",""time""
""focus"",""0"",""0""
""blur"",""0"",""0""
""focus"",""0"",""0""
""fullscreenenter"",""1"",""1075""
""blur"",""2"",""8783""
""focus"",""3"",""15769""
""blur"",""3"",""27454""
""focus"",""4"",""29820""
""blur"",""6"",""32926""
""focus"",""7"",""45048""
""blur"",""9"",""48595""
""focus"",""10"",""65641""
""blur"",""12"",""79107""
""focus"",""12"",""85942""
""blur"",""12"",""93620""
""focus"",""12"",""99458""
""blur"",""14"",""115550""
""focus"",""15"",""118236""
""blur"",""15"",""138592""
""focus"",""16"",""152890""
""blur"",""24"",""192771""
""focus"",""24"",""195382""
""blur"",""44"",""228350""
""focus"",""44"",""242908""
""blur"",""44"",""246941""
""focus"",""44"",""259194""
","""event"",""trial"",""time""
""blur"",""0"",""0""
""blur"",""2"",""8783""
""blur"",""3"",""27454""
""blur"",""6"",""32926""
""blur"",""9"",""48595""
""blur"",""12"",""79107""
""blur"",""12"",""93620""
""blur"",""14"",""115550""
""blur"",""15"",""138592""
""blur"",""24"",""192771""
""blur"",""44"",""228350""
""blur"",""44"",""246941""
","""event"",""trial"",""time""
""focus"",""0"",""0""
""focus"",""0"",""0""
""focus"",""3"",""15769""
""focus"",""4"",""29820""
""focus"",""7"",""45048""
""focus"",""10"",""65641""
""focus"",""12"",""85942""
""focus"",""12"",""99458""
""focus"",""15"",""118236""
""focus"",""16"",""152890""
""focus"",""24"",""195382""
""focus"",""44"",""242908""
""focus"",""44"",""259194""
","""event"",""trial"",""time""
""fullscreenenter"",""1"",""1075""
","
",,null,run_exp/static/audio/clip_22_q4_incorrect.m4a,null,<p>That’s incorrect.  The more you dig on a planet the fewer gems you’ll get with each dig.</p>,,,,,,,,,,,,,,,,,,,,,,,
quiz_q_5_ask,54,300103,0.0-20.0-1.0,"""event"",""trial"",""time""
""focus"",""0"",""0""
""blur"",""0"",""0""
""focus"",""0"",""0""
""fullscreenenter"",""1"",""1075""
""blur"",""2"",""8783""
""focus"",""3"",""15769""
""blur"",""3"",""27454""
""focus"",""4"",""29820""
""blur"",""6"",""32926""
""focus"",""7"",""45048""
""blur"",""9"",""48595""
""focus"",""10"",""65641""
""blur"",""12"",""79107""
""focus"",""12"",""85942""
""blur"",""12"",""93620""
""focus"",""12"",""99458""
""blur"",""14"",""115550""
""focus"",""15"",""118236""
""blur"",""15"",""138592""
""focus"",""16"",""152890""
""blur"",""24"",""192771""
""focus"",""24"",""195382""
""blur"",""44"",""228350""
""focus"",""44"",""242908""
""blur"",""44"",""246941""
""focus"",""44"",""259194""
","""event"",""trial"",""time""
""blur"",""0"",""0""
""blur"",""2"",""8783""
""blur"",""3"",""27454""
""blur"",""6"",""32926""
""blur"",""9"",""48595""
""blur"",""12"",""79107""
""blur"",""12"",""93620""
""blur"",""14"",""115550""
""blur"",""15"",""138592""
""blur"",""24"",""192771""
""blur"",""44"",""228350""
""blur"",""44"",""246941""
","""event"",""trial"",""time""
""focus"",""0"",""0""
""focus"",""0"",""0""
""focus"",""3"",""15769""
""focus"",""4"",""29820""
""focus"",""7"",""45048""
""focus"",""10"",""65641""
""focus"",""12"",""85942""
""focus"",""12"",""99458""
""focus"",""15"",""118236""
""focus"",""16"",""152890""
""focus"",""24"",""195382""
""focus"",""44"",""242908""
""focus"",""44"",""259194""
","""event"",""trial"",""time""
""fullscreenenter"",""1"",""1075""
","
",,2392.9,run_exp/static/audio/clip_23_q5_ask.m4a,,,,,,,1,,,,,,,,,,,,,,,,,,
quiz_q_5_fb_correct,55,305089,0.0-21.0-0.0,"""event"",""trial"",""time""
""focus"",""0"",""0""
""blur"",""0"",""0""
""focus"",""0"",""0""
""fullscreenenter"",""1"",""1075""
""blur"",""2"",""8783""
""focus"",""3"",""15769""
""blur"",""3"",""27454""
""focus"",""4"",""29820""
""blur"",""6"",""32926""
""focus"",""7"",""45048""
""blur"",""9"",""48595""
""focus"",""10"",""65641""
""blur"",""12"",""79107""
""focus"",""12"",""85942""
""blur"",""12"",""93620""
""focus"",""12"",""99458""
""blur"",""14"",""115550""
""focus"",""15"",""118236""
""blur"",""15"",""138592""
""focus"",""16"",""152890""
""blur"",""24"",""192771""
""focus"",""24"",""195382""
""blur"",""44"",""228350""
""focus"",""44"",""242908""
""blur"",""44"",""246941""
""focus"",""44"",""259194""
","""event"",""trial"",""time""
""blur"",""0"",""0""
""blur"",""2"",""8783""
""blur"",""3"",""27454""
""blur"",""6"",""32926""
""blur"",""9"",""48595""
""blur"",""12"",""79107""
""blur"",""12"",""93620""
""blur"",""14"",""115550""
""blur"",""15"",""138592""
""blur"",""24"",""192771""
""blur"",""44"",""228350""
""blur"",""44"",""246941""
","""event"",""trial"",""time""
""focus"",""0"",""0""
""focus"",""0"",""0""
""focus"",""3"",""15769""
""focus"",""4"",""29820""
""focus"",""7"",""45048""
""focus"",""10"",""65641""
""focus"",""12"",""85942""
""focus"",""12"",""99458""
""focus"",""15"",""118236""
""focus"",""16"",""152890""
""focus"",""24"",""195382""
""focus"",""44"",""242908""
""focus"",""44"",""259194""
","""event"",""trial"",""time""
""fullscreenenter"",""1"",""1075""
","
",,null,run_exp/static/audio/clip_24_q5_correct.m4a,null,<p> That’s correct. The alien tells you nothing about how much treasure is on the planet.</p>,,,,,,,,,,,,,,,,,,,,,,,
quiz_incorrect,56,310636,0.0-22.0-0.0,"""event"",""trial"",""time""
""focus"",""0"",""0""
""blur"",""0"",""0""
""focus"",""0"",""0""
""fullscreenenter"",""1"",""1075""
""blur"",""2"",""8783""
""focus"",""3"",""15769""
""blur"",""3"",""27454""
""focus"",""4"",""29820""
""blur"",""6"",""32926""
""focus"",""7"",""45048""
""blur"",""9"",""48595""
""focus"",""10"",""65641""
""blur"",""12"",""79107""
""focus"",""12"",""85942""
""blur"",""12"",""93620""
""focus"",""12"",""99458""
""blur"",""14"",""115550""
""focus"",""15"",""118236""
""blur"",""15"",""138592""
""focus"",""16"",""152890""
""blur"",""24"",""192771""
""focus"",""24"",""195382""
""blur"",""44"",""228350""
""focus"",""44"",""242908""
""blur"",""44"",""246941""
""focus"",""44"",""259194""
","""event"",""trial"",""time""
""blur"",""0"",""0""
""blur"",""2"",""8783""
""blur"",""3"",""27454""
""blur"",""6"",""32926""
""blur"",""9"",""48595""
""blur"",""12"",""79107""
""blur"",""12"",""93620""
""blur"",""14"",""115550""
""blur"",""15"",""138592""
""blur"",""24"",""192771""
""blur"",""44"",""228350""
""blur"",""44"",""246941""
","""event"",""trial"",""time""
""focus"",""0"",""0""
""focus"",""0"",""0""
""focus"",""3"",""15769""
""focus"",""4"",""29820""
""focus"",""7"",""45048""
""focus"",""10"",""65641""
""focus"",""12"",""85942""
""focus"",""12"",""99458""
""focus"",""15"",""118236""
""focus"",""16"",""152890""
""focus"",""24"",""195382""
""focus"",""44"",""242908""
""focus"",""44"",""259194""
","""event"",""trial"",""time""
""fullscreenenter"",""1"",""1075""
","
",,null,run_exp/static/audio/clip_27_incorrect_quiz.m4a,null,,,,,,,,,,,,,,,,,,,,,,,,
quiz_incorrect_continue,57,311610,0.0-22.0-1.0,"""event"",""trial"",""time""
""focus"",""0"",""0""
""blur"",""0"",""0""
""focus"",""0"",""0""
""fullscreenenter"",""1"",""1075""
""blur"",""2"",""8783""
""focus"",""3"",""15769""
""blur"",""3"",""27454""
""focus"",""4"",""29820""
""blur"",""6"",""32926""
""focus"",""7"",""45048""
""blur"",""9"",""48595""
""focus"",""10"",""65641""
""blur"",""12"",""79107""
""focus"",""12"",""85942""
""blur"",""12"",""93620""
""focus"",""12"",""99458""
""blur"",""14"",""115550""
""focus"",""15"",""118236""
""blur"",""15"",""138592""
""focus"",""16"",""152890""
""blur"",""24"",""192771""
""focus"",""24"",""195382""
""blur"",""44"",""228350""
""focus"",""44"",""242908""
""blur"",""44"",""246941""
""focus"",""44"",""259194""
","""event"",""trial"",""time""
""blur"",""0"",""0""
""blur"",""2"",""8783""
""blur"",""3"",""27454""
""blur"",""6"",""32926""
""blur"",""9"",""48595""
""blur"",""12"",""79107""
""blur"",""12"",""93620""
""blur"",""14"",""115550""
""blur"",""15"",""138592""
""blur"",""24"",""192771""
""blur"",""44"",""228350""
""blur"",""44"",""246941""
","""event"",""trial"",""time""
""focus"",""0"",""0""
""focus"",""0"",""0""
""focus"",""3"",""15769""
""focus"",""4"",""29820""
""focus"",""7"",""45048""
""focus"",""10"",""65641""
""focus"",""12"",""85942""
""focus"",""12"",""99458""
""focus"",""15"",""118236""
""focus"",""16"",""152890""
""focus"",""24"",""195382""
""focus"",""44"",""242908""
""focus"",""44"",""259194""
","""event"",""trial"",""time""
""fullscreenenter"",""1"",""1075""
","
",,972.7999997,"<p>Oops, you missed some questions.</p><p>Now that you’ve heard the correct answers. Try the quiz again!</p>",,,,,,,0,,,,,,,,,,,,,,,,,,
quiz_q_1_ask,58,314114,0.0-22.0-2.0,"""event"",""trial"",""time""
""focus"",""0"",""0""
""blur"",""0"",""0""
""focus"",""0"",""0""
""fullscreenenter"",""1"",""1075""
""blur"",""2"",""8783""
""focus"",""3"",""15769""
""blur"",""3"",""27454""
""focus"",""4"",""29820""
""blur"",""6"",""32926""
""focus"",""7"",""45048""
""blur"",""9"",""48595""
""focus"",""10"",""65641""
""blur"",""12"",""79107""
""focus"",""12"",""85942""
""blur"",""12"",""93620""
""focus"",""12"",""99458""
""blur"",""14"",""115550""
""focus"",""15"",""118236""
""blur"",""15"",""138592""
""focus"",""16"",""152890""
""blur"",""24"",""192771""
""focus"",""24"",""195382""
""blur"",""44"",""228350""
""focus"",""44"",""242908""
""blur"",""44"",""246941""
""focus"",""44"",""259194""
","""event"",""trial"",""time""
""blur"",""0"",""0""
""blur"",""2"",""8783""
""blur"",""3"",""27454""
""blur"",""6"",""32926""
""blur"",""9"",""48595""
""blur"",""12"",""79107""
""blur"",""12"",""93620""
""blur"",""14"",""115550""
""blur"",""15"",""138592""
""blur"",""24"",""192771""
""blur"",""44"",""228350""
""blur"",""44"",""246941""
","""event"",""trial"",""time""
""focus"",""0"",""0""
""focus"",""0"",""0""
""focus"",""3"",""15769""
""focus"",""4"",""29820""
""focus"",""7"",""45048""
""focus"",""10"",""65641""
""focus"",""12"",""85942""
""focus"",""12"",""99458""
""focus"",""15"",""118236""
""focus"",""16"",""152890""
""focus"",""24"",""195382""
""focus"",""44"",""242908""
""focus"",""44"",""259194""
","""event"",""trial"",""time""
""fullscreenenter"",""1"",""1075""
","
",,2502.8,run_exp/static/audio/clip_11_q1_ask.m4a,,,,,,,2,,,,,,,,,,,,,,,,,,
quiz_q_1_fb_correct,59,317954,0.0-23.0-0.0,"""event"",""trial"",""time""
""focus"",""0"",""0""
""blur"",""0"",""0""
""focus"",""0"",""0""
""fullscreenenter"",""1"",""1075""
""blur"",""2"",""8783""
""focus"",""3"",""15769""
""blur"",""3"",""27454""
""focus"",""4"",""29820""
""blur"",""6"",""32926""
""focus"",""7"",""45048""
""blur"",""9"",""48595""
""focus"",""10"",""65641""
""blur"",""12"",""79107""
""focus"",""12"",""85942""
""blur"",""12"",""93620""
""focus"",""12"",""99458""
""blur"",""14"",""115550""
""focus"",""15"",""118236""
""blur"",""15"",""138592""
""focus"",""16"",""152890""
""blur"",""24"",""192771""
""focus"",""24"",""195382""
""blur"",""44"",""228350""
""focus"",""44"",""242908""
""blur"",""44"",""246941""
""focus"",""44"",""259194""
","""event"",""trial"",""time""
""blur"",""0"",""0""
""blur"",""2"",""8783""
""blur"",""3"",""27454""
""blur"",""6"",""32926""
""blur"",""9"",""48595""
""blur"",""12"",""79107""
""blur"",""12"",""93620""
""blur"",""14"",""115550""
""blur"",""15"",""138592""
""blur"",""24"",""192771""
""blur"",""44"",""228350""
""blur"",""44"",""246941""
","""event"",""trial"",""time""
""focus"",""0"",""0""
""focus"",""0"",""0""
""focus"",""3"",""15769""
""focus"",""4"",""29820""
""focus"",""7"",""45048""
""focus"",""10"",""65641""
""focus"",""12"",""85942""
""focus"",""12"",""99458""
""focus"",""15"",""118236""
""focus"",""16"",""152890""
""focus"",""24"",""195382""
""focus"",""44"",""242908""
""focus"",""44"",""259194""
","""event"",""trial"",""time""
""fullscreenenter"",""1"",""1075""
","
",,null,run_exp/static/audio/clip_12_q1_correct.m4a,null,<p>That’s correct. You win extra money by collecting more gems.</p>,,,,,,,,,,,,,,,,,,,,,,,
quiz_q_2_ask,60,319976,0.0-23.0-1.0,"""event"",""trial"",""time""
""focus"",""0"",""0""
""blur"",""0"",""0""
""focus"",""0"",""0""
""fullscreenenter"",""1"",""1075""
""blur"",""2"",""8783""
""focus"",""3"",""15769""
""blur"",""3"",""27454""
""focus"",""4"",""29820""
""blur"",""6"",""32926""
""focus"",""7"",""45048""
""blur"",""9"",""48595""
""focus"",""10"",""65641""
""blur"",""12"",""79107""
""focus"",""12"",""85942""
""blur"",""12"",""93620""
""focus"",""12"",""99458""
""blur"",""14"",""115550""
""focus"",""15"",""118236""
""blur"",""15"",""138592""
""focus"",""16"",""152890""
""blur"",""24"",""192771""
""focus"",""24"",""195382""
""blur"",""44"",""228350""
""focus"",""44"",""242908""
""blur"",""44"",""246941""
""focus"",""44"",""259194""
","""event"",""trial"",""time""
""blur"",""0"",""0""
""blur"",""2"",""8783""
""blur"",""3"",""27454""
""blur"",""6"",""32926""
""blur"",""9"",""48595""
""blur"",""12"",""79107""
""blur"",""12"",""93620""
""blur"",""14"",""115550""
""blur"",""15"",""138592""
""blur"",""24"",""192771""
""blur"",""44"",""228350""
""blur"",""44"",""246941""
","""event"",""trial"",""time""
""focus"",""0"",""0""
""focus"",""0"",""0""
""focus"",""3"",""15769""
""focus"",""4"",""29820""
""focus"",""7"",""45048""
""focus"",""10"",""65641""
""focus"",""12"",""85942""
""focus"",""12"",""99458""
""focus"",""15"",""118236""
""focus"",""16"",""152890""
""focus"",""24"",""195382""
""focus"",""44"",""242908""
""focus"",""44"",""259194""
","""event"",""trial"",""time""
""fullscreenenter"",""1"",""1075""
","
",,2021,run_exp/static/audio/clip_14_q2_ask.m4a,,,,,,,1,,,,,,,,,,,,,,,,,,
quiz_q_2_fb_correct,61,323970,0.0-24.0-0.0,"""event"",""trial"",""time""
""focus"",""0"",""0""
""blur"",""0"",""0""
""focus"",""0"",""0""
""fullscreenenter"",""1"",""1075""
""blur"",""2"",""8783""
""focus"",""3"",""15769""
""blur"",""3"",""27454""
""focus"",""4"",""29820""
""blur"",""6"",""32926""
""focus"",""7"",""45048""
""blur"",""9"",""48595""
""focus"",""10"",""65641""
""blur"",""12"",""79107""
""focus"",""12"",""85942""
""blur"",""12"",""93620""
""focus"",""12"",""99458""
""blur"",""14"",""115550""
""focus"",""15"",""118236""
""blur"",""15"",""138592""
""focus"",""16"",""152890""
""blur"",""24"",""192771""
""focus"",""24"",""195382""
""blur"",""44"",""228350""
""focus"",""44"",""242908""
""blur"",""44"",""246941""
""focus"",""44"",""259194""
","""event"",""trial"",""time""
""blur"",""0"",""0""
""blur"",""2"",""8783""
""blur"",""3"",""27454""
""blur"",""6"",""32926""
""blur"",""9"",""48595""
""blur"",""12"",""79107""
""blur"",""12"",""93620""
""blur"",""14"",""115550""
""blur"",""15"",""138592""
""blur"",""24"",""192771""
""blur"",""44"",""228350""
""blur"",""44"",""246941""
","""event"",""trial"",""time""
""focus"",""0"",""0""
""focus"",""0"",""0""
""focus"",""3"",""15769""
""focus"",""4"",""29820""
""focus"",""7"",""45048""
""focus"",""10"",""65641""
""focus"",""12"",""85942""
""focus"",""12"",""99458""
""focus"",""15"",""118236""
""focus"",""16"",""152890""
""focus"",""24"",""195382""
""focus"",""44"",""242908""
""focus"",""44"",""259194""
","""event"",""trial"",""time""
""fullscreenenter"",""1"",""1075""
","
",,null,run_exp/static/audio/clip_15_q2_correct.m4a,null,<p>That’s correct. The experiment is 20 minutes no matter what.</p>,,,,,,,,,,,,,,,,,,,,,,,
quiz_q_3_ask,62,327370,0.0-24.0-1.0,"""event"",""trial"",""time""
""focus"",""0"",""0""
""blur"",""0"",""0""
""focus"",""0"",""0""
""fullscreenenter"",""1"",""1075""
""blur"",""2"",""8783""
""focus"",""3"",""15769""
""blur"",""3"",""27454""
""focus"",""4"",""29820""
""blur"",""6"",""32926""
""focus"",""7"",""45048""
""blur"",""9"",""48595""
""focus"",""10"",""65641""
""blur"",""12"",""79107""
""focus"",""12"",""85942""
""blur"",""12"",""93620""
""focus"",""12"",""99458""
""blur"",""14"",""115550""
""focus"",""15"",""118236""
""blur"",""15"",""138592""
""focus"",""16"",""152890""
""blur"",""24"",""192771""
""focus"",""24"",""195382""
""blur"",""44"",""228350""
""focus"",""44"",""242908""
""blur"",""44"",""246941""
""focus"",""44"",""259194""
","""event"",""trial"",""time""
""blur"",""0"",""0""
""blur"",""2"",""8783""
""blur"",""3"",""27454""
""blur"",""6"",""32926""
""blur"",""9"",""48595""
""blur"",""12"",""79107""
""blur"",""12"",""93620""
""blur"",""14"",""115550""
""blur"",""15"",""138592""
""blur"",""24"",""192771""
""blur"",""44"",""228350""
""blur"",""44"",""246941""
","""event"",""trial"",""time""
""focus"",""0"",""0""
""focus"",""0"",""0""
""focus"",""3"",""15769""
""focus"",""4"",""29820""
""focus"",""7"",""45048""
""focus"",""10"",""65641""
""focus"",""12"",""85942""
""focus"",""12"",""99458""
""focus"",""15"",""118236""
""focus"",""16"",""152890""
""focus"",""24"",""195382""
""focus"",""44"",""242908""
""focus"",""44"",""259194""
","""event"",""trial"",""time""
""fullscreenenter"",""1"",""1075""
","
",,3397.2,run_exp/static/audio/clip_17_q3_ask.m4a,,,,,,,1,,,,,,,,,,,,,,,,,,
quiz_q_3_fb_correct,63,331352,0.0-25.0-0.0,"""event"",""trial"",""time""
""focus"",""0"",""0""
""blur"",""0"",""0""
""focus"",""0"",""0""
""fullscreenenter"",""1"",""1075""
""blur"",""2"",""8783""
""focus"",""3"",""15769""
""blur"",""3"",""27454""
""focus"",""4"",""29820""
""blur"",""6"",""32926""
""focus"",""7"",""45048""
""blur"",""9"",""48595""
""focus"",""10"",""65641""
""blur"",""12"",""79107""
""focus"",""12"",""85942""
""blur"",""12"",""93620""
""focus"",""12"",""99458""
""blur"",""14"",""115550""
""focus"",""15"",""118236""
""blur"",""15"",""138592""
""focus"",""16"",""152890""
""blur"",""24"",""192771""
""focus"",""24"",""195382""
""blur"",""44"",""228350""
""focus"",""44"",""242908""
""blur"",""44"",""246941""
""focus"",""44"",""259194""
","""event"",""trial"",""time""
""blur"",""0"",""0""
""blur"",""2"",""8783""
""blur"",""3"",""27454""
""blur"",""6"",""32926""
""blur"",""9"",""48595""
""blur"",""12"",""79107""
""blur"",""12"",""93620""
""blur"",""14"",""115550""
""blur"",""15"",""138592""
""blur"",""24"",""192771""
""blur"",""44"",""228350""
""blur"",""44"",""246941""
","""event"",""trial"",""time""
""focus"",""0"",""0""
""focus"",""0"",""0""
""focus"",""3"",""15769""
""focus"",""4"",""29820""
""focus"",""7"",""45048""
""focus"",""10"",""65641""
""focus"",""12"",""85942""
""focus"",""12"",""99458""
""focus"",""15"",""118236""
""focus"",""16"",""152890""
""focus"",""24"",""195382""
""focus"",""44"",""242908""
""focus"",""44"",""259194""
","""event"",""trial"",""time""
""fullscreenenter"",""1"",""1075""
","
",,null,run_exp/static/audio/clip_18_q3_correct.m4a,null,<p> That’s correct. You press the letter L to travel to a new planet.</p>,,,,,,,,,,,,,,,,,,,,,,,
quiz_q_4_ask,64,333287,0.0-25.0-1.0,"""event"",""trial"",""time""
""focus"",""0"",""0""
""blur"",""0"",""0""
""focus"",""0"",""0""
""fullscreenenter"",""1"",""1075""
""blur"",""2"",""8783""
""focus"",""3"",""15769""
""blur"",""3"",""27454""
""focus"",""4"",""29820""
""blur"",""6"",""32926""
""focus"",""7"",""45048""
""blur"",""9"",""48595""
""focus"",""10"",""65641""
""blur"",""12"",""79107""
""focus"",""12"",""85942""
""blur"",""12"",""93620""
""focus"",""12"",""99458""
""blur"",""14"",""115550""
""focus"",""15"",""118236""
""blur"",""15"",""138592""
""focus"",""16"",""152890""
""blur"",""24"",""192771""
""focus"",""24"",""195382""
""blur"",""44"",""228350""
""focus"",""44"",""242908""
""blur"",""44"",""246941""
""focus"",""44"",""259194""
","""event"",""trial"",""time""
""blur"",""0"",""0""
""blur"",""2"",""8783""
""blur"",""3"",""27454""
""blur"",""6"",""32926""
""blur"",""9"",""48595""
""blur"",""12"",""79107""
""blur"",""12"",""93620""
""blur"",""14"",""115550""
""blur"",""15"",""138592""
""blur"",""24"",""192771""
""blur"",""44"",""228350""
""blur"",""44"",""246941""
","""event"",""trial"",""time""
""focus"",""0"",""0""
""focus"",""0"",""0""
""focus"",""3"",""15769""
""focus"",""4"",""29820""
""focus"",""7"",""45048""
""focus"",""10"",""65641""
""focus"",""12"",""85942""
""focus"",""12"",""99458""
""focus"",""15"",""118236""
""focus"",""16"",""152890""
""focus"",""24"",""195382""
""focus"",""44"",""242908""
""focus"",""44"",""259194""
","""event"",""trial"",""time""
""fullscreenenter"",""1"",""1075""
","
",,1933.4,run_exp/static/audio/clip_20_q4_ask.m4a,,,,,,,0,,,,,,,,,,,,,,,,,,
quiz_q_4_fb_correct,65,338604,0.0-26.0-0.0,"""event"",""trial"",""time""
""focus"",""0"",""0""
""blur"",""0"",""0""
""focus"",""0"",""0""
""fullscreenenter"",""1"",""1075""
""blur"",""2"",""8783""
""focus"",""3"",""15769""
""blur"",""3"",""27454""
""focus"",""4"",""29820""
""blur"",""6"",""32926""
""focus"",""7"",""45048""
""blur"",""9"",""48595""
""focus"",""10"",""65641""
""blur"",""12"",""79107""
""focus"",""12"",""85942""
""blur"",""12"",""93620""
""focus"",""12"",""99458""
""blur"",""14"",""115550""
""focus"",""15"",""118236""
