trial_type,trial_index,time_elapsed,internal_node_id,success,rt,stimulus,key_press,prompt,subject_id,age,gender,button_pressed,next_reward,animation_sequence,responses,planet,curr_prac_trial,n_prac_rounds,alien,aliens,reward_received,decay_rate_actual,decay_rate_exp,time_in_block,block_num,prt,last_trial_on_planet,button_html,bonus,num_failures
pavlovia,0,3,0.0-0.0,,,,,,,,,,,,,,,,,,,,,,,,,,,
fullscreen,1,4824,0.0-1.0,TRUE,,,,,,,,,,,,,,,,,,,,,,,,,,
instruc_welcome,2,14529,0.0-2.0,,null,run_exp/static/audio/clip_1_welcome.m4a,null,"<p>Howdy! In this experiment, you’ll be an explorer traveling through space to collect space treasure.</p><p>Your mission is to collect as much treasure as possible.</p><br><br><p><img src='run_exp/static/images/task_images/opening_img-01.jpg' height='300' width='auto'></p>",K38qO4bEzOy6M8P_1Y3uCvx5VSxv8Zo_MLRP_07oZGQ1GYPcFCGW,14.48,male,,,,,,,,,,,,,,,,,,,
audio-keyboard-response,3,31104,0.0-3.0,,null,run_exp/static/audio/clip_2_move.m4a,null,,,,,,,,,,,,,,,,,,,,,,,
welcome_dec,4,35543,0.0-4.0,,4436.5,"<p>Howdy! In this experiment, you’ll be an explorer traveling through space to collect space treasure.</p><p>Your mission is to collect as much treasure as possible.</p><br><br><p><img src='run_exp/static/images/task_images/opening_img-01.jpg' height='300' width='auto'></p>",,,,,,1,,,,,,,,,,,,,,,,,,
html-keyboard-response,5,36085,0.0-5.0,,540.6000001,"<p>Howdy! In this experiment, you’ll be an explorer traveling through space to collect space treasure.</p><p>Your mission is to collect as much treasure as possible.</p><br><br><p><img src='run_exp/static/images/task_images/opening_img-01.jpg' height='300' width='auto'></p><button class=""jspsych-html-btn-unchosen""><img src=""run_exp/static/images/task_images/planet-01.jpg"" height=""50""></button><button class=""jspsych-html-btn-chosen""><img src=""run_exp/static/images/task_images/planet-02.jpg"" height=""50""></button><p><b>[press the space bar to lock in your answer]<b><br></p>",32,,,,,,,,,,,,,,,,,,,,,,,
instruc_goal,6,46123,0.0-6.0-0.0,,null,run_exp/static/audio/clip_3_goal.m4a,null,"<p> As a space explorer, you’ll visit different planets to dig for space treasure, these pink gems.</p> <p> The more treasure you dig up, the more bonus money you’ll win! </p><br><br><p><img src='run_exp/static/images/task_images/pink_gem.jpg' height='300' width='auto'></p>",,,,,,,,,,,,,,,,,,,,,,
instruc_goal,7,47698,0.0-6.0-1.0,,1573.1,"<p> As a space explorer, you’ll visit different planets to dig for space treasure, these pink gems.</p> <p> The more treasure you dig up, the more bonus money you’ll win! </p><br><br><p><img src='run_exp/static/images/task_images/pink_gem.jpg' height='300' width='auto'></p>",,,,,,1,,,,,,,,,,,,,,,,,,
html-keyboard-response,8,48159,0.0-6.0-2.0,,459.5999999,"<p> As a space explorer, you’ll visit different planets to dig for space treasure, these pink gems.</p> <p> The more treasure you dig up, the more bonus money you’ll win! </p><br><br><p><img src='run_exp/static/images/task_images/pink_gem.jpg' height='300' width='auto'></p><button class=""jspsych-html-btn-unchosen""><img src=""run_exp/static/images/task_images/planet-01.jpg"" height=""50""></button><button class=""jspsych-html-btn-chosen""><img src=""run_exp/static/images/task_images/planet-02.jpg"" height=""50""></button><p><b>[press the space bar to lock in your answer]<b><br></p>",32,,,,,,,,,,,,,,,,,,,,,,,
instruc_dig,9,64151,0.0-7.0-0.0,,null,run_exp/static/audio/clip_4_dig.m4a,null,,,,,,100,,,,,,,,,,,,,,,,,
instruc_dig_try,10,65021,0.0-7.0-1.0,,868.6000001,"<p> When you’ve arrived at a new planet, you will dig once. </p> <p>Then, you get to decide if you want to stay on the planet and dig again or travel to a new planet and dig there.</p> <p> To stay and dig, press the letter <strong>‘A’</strong> on your keyboard. Try pressing it now! </p><p><img src='run_exp/static/images/task_images/land.jpg'  height='700' width='auto'></p>",65,"<p> When you’ve arrived at a new planet, you will dig once. </p> <p>Then, you get to decide if you want to stay on the planet and dig again or travel to a new planet and dig there.</p> <p> To stay and dig, press the letter <strong>‘A’</strong> on your keyboard. Try pressing it now! </p><p><img src='run_exp/static/images/task_images/land.jpg'  height='700' width='auto'></p>",,,,,100,,,,,,,,,,,,,,,,,
dig_prac,11,67035,0.0-7.0-2.0,,,,,,,,,,,"[{""stimulus"":""run_exp/static/images/task_images/dig.jpg"",""time"":0.2999999523162842},{""stimulus"":""run_exp/static/images/task_images/land.jpg"",""time"":669.1999998092651},{""stimulus"":""run_exp/static/images/task_images/dig.jpg"",""time"":1341.6999998092651}]",[],,,,,,,,,,,,,,,
instruc_travel,12,103255,0.0-7.0-3.0,,null,run_exp/static/audio/clip_5_travel.m4a,null,"<p>Every time you dig up gems, there are less gems on the planet, so the more you dig on a planet the fewer gems you’ll get with each dig.</p><p>When gems are running low, you may want to travel to a new planet. </p> <p>  Planets are very far apart in this galaxy, so it will take some time to travel between them. </p> <br><p>There are lots and lots of planets for you to visit, so you won’t be able to return to any planets you’ve seen before. </p><br><p>To leave this planet and travel to a new one, press the letter <strong>‘L’</strong> on your keyboard. Try pressing it now! </p><p><img src='run_exp/static/images/task_images/rocket-01.jpg'  height='600' width='auto'></p>",,,,,,,,,,,,,,,,,,,,,,
instruc_travel_try,13,104410,0.0-7.0-4.0,,1154.1,"<p>Every time you dig up gems, there are less gems on the planet, so the more you dig on a planet the fewer gems you’ll get with each dig.</p><p>When gems are running low, you may want to travel to a new planet. </p> <p>  Planets are very far apart in this galaxy, so it will take some time to travel between them. </p> <br><p>There are lots and lots of planets for you to visit, so you won’t be able to return to any planets you’ve seen before. </p><br><p>To leave this planet and travel to a new one, press the letter <strong>‘L’</strong> on your keyboard. Try pressing it now! </p><p><img src='run_exp/static/images/task_images/rocket-01.jpg'  height='600' width='auto'></p>",76,"<p>Every time you dig up gems, there are less gems on the planet, so the more you dig on a planet the fewer gems you’ll get with each dig.</p><p>When gems are running low, you may want to travel to a new planet. </p> <p>  Planets are very far apart in this galaxy, so it will take some time to travel between them. </p> <br><p>There are lots and lots of planets for you to visit, so you won’t be able to return to any planets you’ve seen before. </p><br><p>To leave this planet and travel to a new one, press the letter <strong>‘L’</strong> on your keyboard. Try pressing it now! </p><p><img src='run_exp/static/images/task_images/rocket-01.jpg'  height='600' width='auto'></p>",,,,,,,,,,,,,,,,,,,,,,
travel_prac,14,114424,0.0-7.0-5.0,,,,,,,,,,,"[{""stimulus"":""run_exp/static/images/task_images/rocket-01.jpg"",""time"":0.2999999523162842},{""stimulus"":""run_exp/static/images/task_images/rocket-02.jpg"",""time"":1113.5999999046326},{""stimulus"":""run_exp/static/images/task_images/rocket-03.jpg"",""time"":2233.5999999046326},{""stimulus"":""run_exp/static/images/task_images/rocket-04.jpg"",""time"":3337.2000000476837},{""stimulus"":""run_exp/static/images/task_images/rocket-05.jpg"",""time"":4457.099999904633},{""stimulus"":""run_exp/static/images/task_images/rocket-06.jpg"",""time"":5560.400000095367},{""stimulus"":""run_exp/static/images/task_images/rocket-07.jpg"",""time"":6673},{""stimulus"":""run_exp/static/images/task_images/rocket-08.jpg"",""time"":7792.299999952316},{""stimulus"":""run_exp/static/images/task_images/rocket-09.jpg"",""time"":8893.900000095367}]",[],0,,,,,,,,,,,,,,
instruc_alien_greet,15,141601,0.0-7.0-6.0,,null,run_exp/static/audio/clip_6_alien.m4a,null,"<p>When you arrive at a new planet, the alien who owns the treasure mine on that planet will greet you!</p><p>The better an alien takes care of their mine the easier it is to dig for gems. Some aliens take better care of their mine than others. So, you won’t get exactly the same amount of gems on each planet.</p><p>What the alien looks like does not tell you anything about how many gems there are on the planet.</p><br><p><img src=""run_exp/static/images/task_images/aliens/instructions_aliens/planet/alien_planet-1.jpg""  height=""600"" width=""auto""></p>",,,,,,,,,,,,,,,,,,,,,,
instruc_alien_greet,16,144867,0.0-7.0-7.0,,3265,"<p>When you arrive at a new planet, the alien who owns the treasure mine on that planet will greet you!</p><p>The better an alien takes care of their mine the easier it is to dig for gems. Some aliens take better care of their mine than others. So, you won’t get exactly the same amount of gems on each planet.</p><p>What the alien looks like does not tell you anything about how many gems there are on the planet.</p><br><p><img src=""run_exp/static/images/task_images/aliens/instructions_aliens/planet/alien_planet-1.jpg""  height=""600"" width=""auto""></p>",,,,,,1,,,,,,,,,,,,,,,,,,
html-keyboard-response,17,145720,0.0-7.0-8.0,,851.6000001,"<p>When you arrive at a new planet, the alien who owns the treasure mine on that planet will greet you!</p><p>The better an alien takes care of their mine the easier it is to dig for gems. Some aliens take better care of their mine than others. So, you won’t get exactly the same amount of gems on each planet.</p><p>What the alien looks like does not tell you anything about how many gems there are on the planet.</p><br><p><img src=""run_exp/static/images/task_images/aliens/instructions_aliens/planet/alien_planet-1.jpg""  height=""600"" width=""auto""></p><button class=""jspsych-html-btn-unchosen""><img src=""run_exp/static/images/task_images/planet-01.jpg"" height=""50""></button><button class=""jspsych-html-btn-chosen""><img src=""run_exp/static/images/task_images/planet-02.jpg"" height=""50""></button><p><b>[press the space bar to lock in your answer]<b><br></p>",32,,,,,,,,,,,,,,,,,,,,,,,
time_out,18,156791,0.0-8.0-0.0,,null,run_exp/static/audio/clip_7_timeout.m4a,null,"<p>If you don't make your choice fast enough, you’ll have to wait a few seconds before you can make another one.</p><p>You can’t dig for more gems or travel to new planets. You just have to sit and wait.</p><br><p><img src='run_exp/static/images/task_images/time_out.jpg'  height='600' width='auto'></p>",,,,,,,,,,,,,,,,,,,,,,
time_out,19,159334,0.0-8.0-1.0,,2542.2,"<p>If you don't make your choice fast enough, you’ll have to wait a few seconds before you can make another one.</p><p>You can’t dig for more gems or travel to new planets. You just have to sit and wait.</p><br><p><img src='run_exp/static/images/task_images/time_out.jpg'  height='600' width='auto'></p>",,,,,,1,,,,,,,,,,,,,,,,,,
html-keyboard-response,20,159873,0.0-8.0-2.0,,538.3,"<p>If you don't make your choice fast enough, you’ll have to wait a few seconds before you can make another one.</p><p>You can’t dig for more gems or travel to new planets. You just have to sit and wait.</p><br><p><img src='run_exp/static/images/task_images/time_out.jpg'  height='600' width='auto'></p><button class=""jspsych-html-btn-unchosen""><img src=""run_exp/static/images/task_images/planet-01.jpg"" height=""50""></button><button class=""jspsych-html-btn-chosen""><img src=""run_exp/static/images/task_images/planet-02.jpg"" height=""50""></button><p><b>[press the space bar to lock in your answer]<b><br></p>",32,,,,,,,,,,,,,,,,,,,,,,,
instruc_break,21,175542,0.0-9.0-0.0,,null,run_exp/static/audio/clip_8_break.m4a,null,"<p> After digging and traveling for a while, you’ll be able to take a break at home base. </p><p>The game will last 20 minutes no matter what.</p><p>You will visit home base every 5 minutes, so, you will visit home base three times during the game.</p><br><p><img src='run_exp/static/images/task_images/home_base.jpg' height='600' width='auto'></p>",,,,,,,,,,,,,,,,,,,,,,
instruc_break,22,176986,0.0-9.0-1.0,,1443.3,"<p> After digging and traveling for a while, you’ll be able to take a break at home base. </p><p>The game will last 20 minutes no matter what.</p><p>You will visit home base every 5 minutes, so, you will visit home base three times during the game.</p><br><p><img src='run_exp/static/images/task_images/home_base.jpg' height='600' width='auto'></p>",,,,,,1,,,,,,,,,,,,,,,,,,
html-keyboard-response,23,177469,0.0-9.0-2.0,,481.7,"<p> After digging and traveling for a while, you’ll be able to take a break at home base. </p><p>The game will last 20 minutes no matter what.</p><p>You will visit home base every 5 minutes, so, you will visit home base three times during the game.</p><br><p><img src='run_exp/static/images/task_images/home_base.jpg' height='600' width='auto'></p><button class=""jspsych-html-btn-unchosen""><img src=""run_exp/static/images/task_images/planet-01.jpg"" height=""50""></button><button class=""jspsych-html-btn-chosen""><img src=""run_exp/static/images/task_images/planet-02.jpg"" height=""50""></button><p><b>[press the space bar to lock in your answer]<b><br></p>",32,,,,,,,,,,,,,,,,,,,,,,,
instruc_prac_game,24,187574,0.0-10.0-0.0,,null,run_exp/static/audio/clip_9_practice.m4a,null,"<p> Are you ready to play a practice game? </p> <p>In this practice game, you'll be digging up barrels of gems. But, in the real game, you'll be digging up the gems themselves. </p>",,,,,,,,,,,,,,,,,,,,,,
html-button-response,25,188847,0.0-10.0-1.0,,1271.7,"<p> Are you ready to play a practice game? </p> <p>In this practice game, you'll be digging up barrels of gems. But, in the real game, you'll be digging up the gems themselves. </p>",,,,,,0,,,,,,,,,,,,,,,,,,
alien_welcome_prac,26,193855,0.0-11.0-0.0,,null,run_exp/static/images/task_images/aliens/practice_aliens/planet/alien_planet-5.jpg,null,,,,,,,,,,,,,,,,,,,,,,,
land_prac,27,194368,0.0-11.0-1.0,,null,run_exp/static/images/task_images/land.jpg,null,,,,,,109,,,0,,,,,,,,,,,,,,
dig_prac,28,196372,0.0-11.0-2.0,,,,,,,,,,,"[{""stimulus"":""run_exp/static/images/task_images/dig.jpg"",""time"":0.20000004768371582},{""stimulus"":""run_exp/static/images/task_images/land.jpg"",""time"":681.5},{""stimulus"":""run_exp/static/images/task_images/dig.jpg"",""time"":1348.7999999523163}]",[],,,,,,,,,,,,,,,
harvest_prac,29,197379,0.0-11.0-3.0,,null,run_exp/static/images/task_images/barrel_text.jpg,null,,,,,,,,,,,,,,,,,,,,,,,
decision_prac,30,199223,0.0-11.0-4.0,,1844.1,run_exp/static/images/task_images/land.jpg,65,,,,,,,,,,1,,,,,,,,,,,,,
dig_prac,31,201233,0.0-12.0-0.0,,,,,,,,,,,"[{""stimulus"":""run_exp/static/images/task_images/dig.jpg"",""time"":0.10000014305114746},{""stimulus"":""run_exp/static/images/task_images/land.jpg"",""time"":682.6000001430511},{""stimulus"":""run_exp/static/images/task_images/dig.jpg"",""time"":1338.4000000953674}]",[],,,,,,,,,,,,,,,
harvest_prac,32,202245,0.0-12.0-1.0,,null,run_exp/static/images/task_images/barrel_text.jpg,null,,,,,,,,,,,,,,,,,,,,,,,
decision_prac,33,202739,0.0-12.0-2.0,,493,run_exp/static/images/task_images/land.jpg,76,,,,,,,,,,2,,,,,,,,,,,,,
travel,34,212255,0.0-13.0-0.0,,,,,,,,,,,"[{""stimulus"":""run_exp/static/images/task_images/rocket-01.jpg"",""time"":0.09999990463256836},{""stimulus"":""run_exp/static/images/task_images/rocket-02.jpg"",""time"":1061.2999999523163},{""stimulus"":""run_exp/static/images/task_images/rocket-03.jpg"",""time"":2120.0999999046326},{""stimulus"":""run_exp/static/images/task_images/rocket-04.jpg"",""time"":3177.7000000476837},{""stimulus"":""run_exp/static/images/task_images/rocket-05.jpg"",""time"":4225},{""stimulus"":""run_exp/static/images/task_images/rocket-06.jpg"",""time"":5289.099999904633},{""stimulus"":""run_exp/static/images/task_images/rocket-07.jpg"",""time"":6349.799999952316},{""stimulus"":""run_exp/static/images/task_images/rocket-08.jpg"",""time"":7403.399999856949},{""stimulus"":""run_exp/static/images/task_images/rocket-09.jpg"",""time"":8456.599999904633}]",[],0,,,,,,,,,,,,,,
alien_welcome_prac,35,217263,0.0-13.0-1.0,,null,run_exp/static/images/task_images/aliens/practice_aliens/planet/alien_planet-4.jpg,null,,,,,,,,,,,,,,,,,,,,,,,
land_prac,36,217777,0.0-13.0-2.0,,null,run_exp/static/images/task_images/land.jpg,null,,,,,,103,,,0,,,,,,,,,,,,,,
dig_prac,37,219794,0.0-13.0-3.0,,,,,,,,,,,"[{""stimulus"":""run_exp/static/images/task_images/dig.jpg"",""time"":0.2999999523162842},{""stimulus"":""run_exp/static/images/task_images/land.jpg"",""time"":679.6000001430511},{""stimulus"":""run_exp/static/images/task_images/dig.jpg"",""time"":1348.2999999523163}]",[],,,,,,,,,,,,,,,
harvest_prac,38,220808,0.0-13.0-4.0,,null,run_exp/static/images/task_images/barrel_text.jpg,null,,,,,,,,,,,,,,,,,,,,,,,
decision_prac,39,221049,0.0-13.0-5.0,,239.9000001,run_exp/static/images/task_images/land.jpg,65,,,,,,,,,,3,,,,,,,,,,,,,
dig_prac,40,223054,0.0-14.0-0.0,,,,,,,,,,,"[{""stimulus"":""run_exp/static/images/task_images/dig.jpg"",""time"":0.19999980926513672},{""stimulus"":""run_exp/static/images/task_images/land.jpg"",""time"":673.0999999046326},{""stimulus"":""run_exp/static/images/task_images/dig.jpg"",""time"":1338}]",[],,,,,,,,,,,,,,,
harvest_prac,41,224064,0.0-14.0-1.0,,null,run_exp/static/images/task_images/barrel_text.jpg,null,,,,,,,,,,,,,,,,,,,,,,,
decision_prac,42,225909,0.0-14.0-2.0,,1843.8,run_exp/static/images/task_images/land.jpg,65,,,,,,,,,,4,,,,,,,,,,,,,
dig_prac,43,227925,0.0-15.0-0.0,,,,,,,,,,,"[{""stimulus"":""run_exp/static/images/task_images/dig.jpg"",""time"":0.20000004768371582},{""stimulus"":""run_exp/static/images/task_images/land.jpg"",""time"":679.6000001430511},{""stimulus"":""run_exp/static/images/task_images/dig.jpg"",""time"":1345.1000001430511}]",[],,,,,,,,,,,,,,,
harvest_prac,44,228936,0.0-15.0-1.0,,null,run_exp/static/images/task_images/barrel_text.jpg,null,,,,,,,,,,,,,,,,,,,,,,,
decision_prac,45,231064,0.0-15.0-2.0,,2127.5,run_exp/static/images/task_images/land.jpg,76,,,,,,,,,,,1,,,,,,,,,,,,
quiz_instruc,46,234179,0.0-16.0-0.0,,3113.3,run_exp/static/audio/clip_10_quiz.m4a,,,,,,0,,,,,,,,,,,,,,,,,,
instruc_repeat,47,276929,0.0-16.0-1.0,,null,"<p> Are you ready to play a practice game? </p> <p>In this practice game, you'll be digging up barrels of gems. But, in the real game, you'll be digging up the gems themselves. </p>",null,"<p>In this game, your goal is to collect as many gems as you can. That’s how you will win bonus money. </p> <p>The entire game will last 20 minutes no matter how many gems you collect or how many planets you visit. </p><p>To stay on a planet and dig again, press the letter A on your keyboard. To leave for a new planet, press the letter L.</p><p>The more you dig on a planet, the fewer gems you’ll get with each dig which is why you might consider leaving for a new planet. </p><p>When you arrive at a new planet, you’ll be greeted by an alien. What the alien looks like does not tell you anything about how much treasure is on the planet. </p>",,,,,,,,,,,,,,,,,,,,,,
instruc_repeat_continue,48,278741,0.0-16.0-2.0,,1811.9,"<p> Are you ready to play a practice game? </p> <p>In this practice game, you'll be digging up barrels of gems. But, in the real game, you'll be digging up the gems themselves. </p>",,,,,,0,,,,,,,,,,,,,,,,,,
quiz_q_1_ask,49,282469,0.0-16.0-3.0,,3726.7,run_exp/static/audio/clip_11_q1_ask.m4a,,,,,,2,,,,,,,,,,,,,,,,,,
quiz_q_1_fb_correct,50,286316,0.0-17.0-0.0,,null,run_exp/static/audio/clip_12_q1_corrrect.m4a,null,<p>That’s correct. You win extra money by collecting more gems.</p>,,,,,,,,,,,,,,,,,,,,,,
quiz_q_2_ask,51,287721,0.0-17.0-1.0,,1403.7,run_exp/static/audio/clip_14_q2_ask.m4a,,,,,,1,,,,,,,,,,,,,,,,,,
quiz_q_2_fb_correct,52,291713,0.0-18.0-0.0,,null,run_exp/static/audio/clip_15_q2_correct.m4a,null,<p>That’s correct. The experiment is 20 minutes no matter what.</p>,,,,,,,,,,,,,,,,,,,,,,
quiz_q_3_ask,53,293101,0.0-18.0-1.0,,1387.6,run_exp/static/audio/clip_17_q3_ask.m4a,,,,,,1,,,,,,,,,,,,,,,,,,
quiz_q_3_fb_correct,54,297067,0.0-19.0-0.0,,null,run_exp/static/audio/clip_18_q3_correct.m4a,null,<p> That’s correct. You press the letter L to travel to a new planet.</p>,,,,,,,,,,,,,,,,,,,,,,
quiz_q_4_ask,55,299444,0.0-19.0-1.0,,2375.6,run_exp/static/audio/clip_20_q4_ask.m4a,,,,,,0,,,,,,,,,,,,,,,,,,
quiz_q_4_fb_correct,56,304748,0.0-20.0-0.0,,null,run_exp/static/audio/clip_21_q4_correct.m4a,null,<p> That’s correct. The more you dig on a planet the fewer gems you’ll get with each dig. </p>,,,,,,,,,,,,,,,,,,,,,,
quiz_q_5_ask,57,306191,0.0-20.0-1.0,,1441.8,run_exp/static/audio/clip_23_q5_ask.m4a,,,,,,1,,,,,,,,,,,,,,,,,,
quiz_q_5_fb_correct,58,311190,0.0-21.0-0.0,,null,run_exp/static/audio/clip_24_q5_correct.m4a,null,<p> That’s correct. The alien tells you nothing about how much treasure is on the planet.</p>,,,,,,,,,,,,,,,,,,,,,,
quiz_correct,59,314646,0.0-22.0-0.0,,null,run_exp/static/audio/clip_26_correct_quiz.m4a,null,,,,,,,,,,,,,,,,,,,,,,,
quiz_correct_continue,60,316362,0.0-22.0-1.0,,1715.9,<p>Good job! You're now ready to move on to the real game!</p>,,,,,,0,,,,,,,,,,,,,,,,,,
audio-keyboard-response,61,326464,0.0-22.0-2.0,,null,run_exp/static/audio/clip_28_real_game.m4a,null,,,,,,,,,,,,,,,,,,,,,,,
instruc_begin_exp_contine,62,327222,0.0-22.0-3.0,,756.3,"<p>Now that you know how  to dig for space treasure and travel to new planets,you can start exploring! </p><p>Do you want to go over the instructions again or get started with the real game?</p>",,,,,,1,,,,,,1,,,,,,,,,,,,
alien_welcome,63,332226,0.0-23.0-0.0,,null,run_exp/static/images/task_images/aliens/old_aliens/planet/alien_planet-56.jpg,null,,,,,,,,,,,,56,"56,9,47,33,65,40,22,1,13,30,58,50,39,46,21,35,52,28,20,45,77,75,29,44,73,15,70,5,2,7,6,66,4,36,61,23,41,72,54,34,37,57",,,,,,,,,,
land,64,332742,0.0-23.0-1.0,,null,run_exp/static/images/task_images/land.jpg,null,,,,,,103,,,1,,,,,,,,,,,,,,
dig,65,334751,0.0-23.0-2.0,,,,,,,,,,,"[{""stimulus"":""run_exp/static/images/task_images/dig.jpg"",""time"":0.20000004768371582},{""stimulus"":""run_exp/static/images/task_images/land.jpg"",""time"":683.9000000953674},{""stimulus"":""run_exp/static/images/task_images/dig.jpg"",""time"":1337.7000000476837}]",[],1,,,,,,,,,,,,,,
harvest,66,335756,0.0-23.0-3.0,,null,run_exp/static/images/task_images/gems/103.jpg,null,,,,,,13,,,1,,,,,103,0.129872671,0.126213592,,,,,,,
decision,67,336213,0.0-23.0-4.0,,456.0999999,run_exp/static/images/task_images/land.jpg,65,,,,,,13,,,1,,,,,,,,8990,1,0,FALSE,,,
dig,68,338769,0.0-24.0-0.0,,,,,,,,,,,"[{""stimulus"":""run_exp/static/images/task_images/dig.jpg"",""time"":0.09999990463256836},{""stimulus"":""run_exp/static/images/task_images/land.jpg"",""time"":859.5},{""stimulus"":""run_exp/static/images/task_images/dig.jpg"",""time"":1695.5999999046326}]",[],1,,,,,,,,,,,,,,
harvest,69,339783,0.0-24.0-1.0,,null,run_exp/static/images/task_images/gems/13.jpg,null,,,,,,2,,,1,,,,,13,0.167770377,0.153846154,,,,,,,
decision,70,340946,0.0-24.0-2.0,,1162.1,run_exp/static/images/task_images/land.jpg,76,,,,,,2,,,1,,,,,,,,13723,1,1,TRUE,,,
travel,71,349784,0.0-25.0-0.0,,,,,,,,,,,"[{""stimulus"":""run_exp/static/images/task_images/rocket-01.jpg"",""time"":0.10000014305114746},{""stimulus"":""run_exp/static/images/task_images/rocket-02.jpg"",""time"":994},{""stimulus"":""run_exp/static/images/task_images/rocket-03.jpg"",""time"":1971.9000000953674},{""stimulus"":""run_exp/static/images/task_images/rocket-04.jpg"",""time"":2950.100000143051},{""stimulus"":""run_exp/static/images/task_images/rocket-05.jpg"",""time"":3931.5},{""stimulus"":""run_exp/static/images/task_images/rocket-06.jpg"",""time"":4915.300000190735},{""stimulus"":""run_exp/static/images/task_images/rocket-07.jpg"",""time"":5895},{""stimulus"":""run_exp/static/images/task_images/rocket-08.jpg"",""time"":6876.400000095367},{""stimulus"":""run_exp/static/images/task_images/rocket-09.jpg"",""time"":7856.700000047684}]",[],1,,,,,,,,,,,,,,
alien_welcome,72,354788,0.0-25.0-1.0,,null,run_exp/static/images/task_images/aliens/old_aliens/planet/alien_planet-9.jpg,null,,,,,,,,,,,,9,"56,9,47,33,65,40,22,1,13,30,58,50,39,46,21,35,52,28,20,45,77,75,29,44,73,15,70,5,2,7,6,66,4,36,61,23,41,72,54,34,37,57",,,,,,,,,,
land,73,355304,0.0-25.0-2.0,,null,run_exp/static/images/task_images/land.jpg,null,,,,,,100,,,2,,,,,,,,,,,,,,
dig,74,357322,0.0-25.0-3.0,,,,,,,,,,,"[{""stimulus"":""run_exp/static/images/task_images/dig.jpg"",""time"":0.20000004768371582},{""stimulus"":""run_exp/static/images/task_images/land.jpg"",""time"":682.2000000476837},{""stimulus"":""run_exp/static/images/task_images/dig.jpg"",""time"":1348}]",[],2,,,,,,,,,,,,,,
harvest,75,358336,0.0-25.0-4.0,,null,run_exp/static/images/task_images/gems/100.jpg,null,,,,,,16,,,2,,,,,100,0.163763747,0.16,,,,,,,
decision,76,358799,0.0-25.0-5.0,,462,run_exp/static/images/task_images/land.jpg,65,,,,,,16,,,2,,,,,,,,31576,1,0,FALSE,,,
dig,77,361343,0.0-26.0-0.0,,,,,,,,,,,"[{""stimulus"":""run_exp/static/images/task_images/dig.jpg"",""time"":0.09999990463256836},{""stimulus"":""run_exp/static/images/task_images/land.jpg"",""time"":858},{""stimulus"":""run_exp/static/images/task_images/dig.jpg"",""time"":1698}]",[],2,,,,,,,,,,,,,,
harvest,78,362356,0.0-26.0-1.0,,null,run_exp/static/images/task_images/gems/16.jpg,null,,,,,,3,,,2,,,,,16,0.179734251,0.1875,,,,,,,
decision,79,362725,0.0-26.0-2.0,,367.4000001,run_exp/static/images/task_images/land.jpg,65,,,,,,3,,,2,,,,,,,,35502,1,1,FALSE,,,
dig,80,365367,0.0-27.0-0.0,,,,,,,,,,,"[{""stimulus"":""run_exp/static/images/task_images/dig.jpg"",""time"":0.09999990463256836},{""stimulus"":""run_exp/static/images/task_images/land.jpg"",""time"":885.5999999046326},{""stimulus"":""run_exp/static/images/task_images/dig.jpg"",""time"":1757.2000000476837}]",[],2,,,,,,,,,,,,,,
harvest,81,366381,0.0-27.0-1.0,,null,run_exp/static/images/task_images/gems/3.jpg,null,,,,,,0,,,2,,,,,3,0.137055692,0,,,,,,,
decision,82,366763,0.0-27.0-2.0,,380.5999999,run_exp/static/images/task_images/land.jpg,76,,,,,,0,,,2,,,,,,,,39540,1,2,TRUE,,,
travel,83,376381,0.0-28.0-0.0,,,,,,,,,,,"[{""stimulus"":""run_exp/static/images/task_images/rocket-01.jpg"",""time"":0},{""stimulus"":""run_exp/static/images/task_images/rocket-02.jpg"",""time"":1082.2000000476837},{""stimulus"":""run_exp/static/images/task_images/rocket-03.jpg"",""time"":2137.600000143051},{""stimulus"":""run_exp/static/images/task_images/rocket-04.jpg"",""time"":3208.5},{""stimulus"":""run_exp/static/images/task_images/rocket-05.jpg"",""time"":4281.100000143051},{""stimulus"":""run_exp/static/images/task_images/rocket-06.jpg"",""time"":5341.400000095367},{""stimulus"":""run_exp/static/images/task_images/rocket-07.jpg"",""time"":6411.600000143051},{""stimulus"":""run_exp/static/images/task_images/rocket-08.jpg"",""time"":7482.700000047684},{""stimulus"":""run_exp/static/images/task_images/rocket-09.jpg"",""time"":8554.700000047684}]",[],2,,,,,,,,,,,,,,
alien_welcome,84,381391,0.0-28.0-1.0,,null,run_exp/static/images/task_images/aliens/old_aliens/planet/alien_planet-47.jpg,null,,,,,,,,,,,,47,"56,9,47,33,65,40,22,1,13,30,58,50,39,46,21,35,52,28,20,45,77,75,29,44,73,15,70,5,2,7,6,66,4,36,61,23,41,72,54,34,37,57",,,,,,,,,,
land,85,381903,0.0-28.0-2.0,,null,run_exp/static/images/task_images/land.jpg,null,,,,,,99,,,3,,,,,,,,,,,,,,
dig,86,383923,0.0-28.0-3.0,,,,,,,,,,,"[{""stimulus"":""run_exp/static/images/task_images/dig.jpg"",""time"":0.09999990463256836},{""stimulus"":""run_exp/static/images/task_images/land.jpg"",""time"":683.2999999523163},{""stimulus"":""run_exp/static/images/task_images/dig.jpg"",""time"":1351.2000000476837}]",[],3,,,,,,,,,,,,,,
harvest,87,384940,0.0-28.0-4.0,,null,run_exp/static/images/task_images/gems/99.jpg,null,,,,,,48,,,3,,,,,99,0.48871684,0.484848485,,,,,,,
decision,88,385305,0.0-28.0-5.0,,364.1000001,run_exp/static/images/task_images/land.jpg,65,,,,,,48,,,3,,,,,,,,58082,1,0,FALSE,,,
dig,89,387955,0.0-29.0-0.0,,,,,,,,,,,"[{""stimulus"":""run_exp/static/images/task_images/dig.jpg"",""time"":0},{""stimulus"":""run_exp/static/images/task_images/land.jpg"",""time"":886.9000000953674},{""stimulus"":""run_exp/static/images/task_images/dig.jpg"",""time"":1759.9000000953674}]",[],3,,,,,,,,,,,,,,
harvest,90,388961,0.0-29.0-1.0,,null,run_exp/static/images/task_images/gems/48.jpg,null,,,,,,26,,,3,,,,,48,0.532039127,0.541666667,,,,,,,
decision,91,389525,0.0-29.0-2.0,,563.5,run_exp/static/images/task_images/land.jpg,65,,,,,,26,,,3,,,,,,,,62303,1,1,FALSE,,,
dig,92,391978,0.0-30.0-0.0,,,,,,,,,,,"[{""stimulus"":""run_exp/static/images/task_images/dig.jpg"",""time"":0},{""stimulus"":""run_exp/static/images/task_images/land.jpg"",""time"":820.0999999046326},{""stimulus"":""run_exp/static/images/task_images/dig.jpg"",""time"":1628.0999999046326}]",[],3,,,,,,,,,,,,,,
harvest,93,392993,0.0-30.0-1.0,,null,run_exp/static/images/task_images/gems/26.jpg,null,,,,,,11,,,3,,,,,26,0.410411528,0.423076923,,,,,,,
decision,94,393339,0.0-30.0-2.0,,345.0999999,run_exp/static/images/task_images/land.jpg,76,,,,,,11,,,3,,,,,,,,66116,1,2,TRUE,,,
travel,95,403006,0.0-31.0-0.0,,,,,,,,,,,"[{""stimulus"":""run_exp/static/images/task_images/rocket-01.jpg"",""time"":0.09999990463256836},{""stimulus"":""run_exp/static/images/task_images/rocket-02.jpg"",""time"":1078.7999999523163},{""stimulus"":""run_exp/static/images/task_images/rocket-03.jpg"",""time"":2148.7999999523163},{""stimulus"":""run_exp/static/images/task_images/rocket-04.jpg"",""time"":3222.2000000476837},{""stimulus"":""run_exp/static/images/task_images/rocket-05.jpg"",""time"":4297.599999904633},{""stimulus"":""run_exp/static/images/task_images/rocket-06.jpg"",""time"":5371.799999952316},{""stimulus"":""run_exp/static/images/task_images/rocket-07.jpg"",""time"":6444.099999904633},{""stimulus"":""run_exp/static/images/task_images/rocket-08.jpg"",""time"":7505.700000047684},{""stimulus"":""run_exp/static/images/task_images/rocket-09.jpg"",""time"":8592.900000095367}]",[],3,,,,,,,,,,,,,,
alien_welcome,96,408014,0.0-31.0-1.0,,null,run_exp/static/images/task_images/aliens/old_aliens/planet/alien_planet-33.jpg,null,,,,,,,,,,,,33,"56,9,47,33,65,40,22,1,13,30,58,50,39,46,21,35,52,28,20,45,77,75,29,44,73,15,70,5,2,7,6,66,4,36,61,23,41,72,54,34,37,57",,,,,,,,,,
land,97,408526,0.0-31.0-2.0,,null,run_exp/static/images/task_images/land.jpg,null,,,,,,101,,,4,,,,,,,,,,,,,,
dig,98,410531,0.0-31.0-3.0,,,,,,,,,,,"[{""stimulus"":""run_exp/static/images/task_images/dig.jpg"",""time"":0.20000004768371582},{""stimulus"":""run_exp/static/images/task_images/land.jpg"",""time"":669.4000000953674},{""stimulus"":""run_exp/static/images/task_images/dig.jpg"",""time"":1350.9000000953674}]",[],4,,,,,,,,,,,,,,
harvest,99,411533,0.0-31.0-4.0,,null,run_exp/static/images/task_images/gems/101.jpg,null,,,,,,49,,,4,,,,,101,0.483539715,0.485148515,,,,,,,
decision,100,411836,0.0-31.0-5.0,,301.5,run_exp/static/images/task_images/land.jpg,65,,,,,,49,,,4,,,,,,,,84613,1,0,FALSE,,,
dig,101,414537,0.0-32.0-0.0,,,,,,,,,,,"[{""stimulus"":""run_exp/static/images/task_images/dig.jpg"",""time"":0.09999990463256836},{""stimulus"":""run_exp/static/images/task_images/land.jpg"",""time"":907.2000000476837},{""stimulus"":""run_exp/static/images/task_images/dig.jpg"",""time"":1811.3999998569489}]",[],4,,,,,,,,,,,,,,
harvest,102,415541,0.0-32.0-1.0,,null,run_exp/static/images/task_images/gems/49.jpg,null,,,,,,22,,,4,,,,,49,0.45192393,0.448979592,,,,,,,
decision,103,415661,0.0-32.0-2.0,,118.8,run_exp/static/images/task_images/land.jpg,65,,,,,,22,,,4,,,,,,,,88438,1,1,FALSE,,,
dig,104,418554,0.0-33.0-0.0,,,,,,,,,,,"[{""stimulus"":""run_exp/static/images/task_images/dig.jpg"",""time"":0.20000004768371582},{""stimulus"":""run_exp/static/images/task_images/land.jpg"",""time"":963.4000000953674},{""stimulus"":""run_exp/static/images/task_images/dig.jpg"",""time"":1928.1000001430511}]",[],4,,,,,,,,,,,,,,
harvest,105,419569,0.0-33.0-1.0,,null,run_exp/static/images/task_images/gems/22.jpg,null,,,,,,10,,,4,,,,,22,0.44423313,0.454545455,,,,,,,
decision,106,419575,0.0-33.0-2.0,,4.900000095,run_exp/static/images/task_images/land.jpg,76,,,,,,10,,,4,,,,,,,,92352,1,2,TRUE,,,
travel,107,429571,0.0-34.0-0.0,,,,,,,,,,,"[{""stimulus"":""run_exp/static/images/task_images/rocket-01.jpg"",""time"":0.20000004768371582},{""stimulus"":""run_exp/static/images/task_images/rocket-02.jpg"",""time"":1114.7000000476837},{""stimulus"":""run_exp/static/images/task_images/rocket-03.jpg"",""time"":2235.5},{""stimulus"":""run_exp/static/images/task_images/rocket-04.jpg"",""time"":3340.300000190735},{""stimulus"":""run_exp/static/images/task_images/rocket-05.jpg"",""time"":4442.800000190735},{""stimulus"":""run_exp/static/images/task_images/rocket-06.jpg"",""time"":5562.800000190735},{""stimulus"":""run_exp/static/images/task_images/rocket-07.jpg"",""time"":6668},{""stimulus"":""run_exp/static/images/task_images/rocket-08.jpg"",""time"":7785.100000143051},{""stimulus"":""run_exp/static/images/task_images/rocket-09.jpg"",""time"":8890.200000047684}]",[],4,,,,,,,,,,,,,,
alien_welcome,108,434583,0.0-34.0-1.0,,null,run_exp/static/images/task_images/aliens/old_aliens/planet/alien_planet-65.jpg,null,,,,,,,,,,,,65,"56,9,47,33,65,40,22,1,13,30,58,50,39,46,21,35,52,28,20,45,77,75,29,44,73,15,70,5,2,7,6,66,4,36,61,23,41,72,54,34,37,57",,,,,,,,,,
land,109,435097,0.0-34.0-2.0,,null,run_exp/static/images/task_images/land.jpg,null,,,,,,100,,,5,,,,,,,,,,,,,,
dig,110,437104,0.0-34.0-3.0,,,,,,,,,,,"[{""stimulus"":""run_exp/static/images/task_images/dig.jpg"",""time"":0.20000004768371582},{""stimulus"":""run_exp/static/images/task_images/land.jpg"",""time"":683},{""stimulus"":""run_exp/static/images/task_images/dig.jpg"",""time"":1339.5}]",[],5,,,,,,,,,,,,,,
harvest,111,438113,0.0-34.0-4.0,,null,run_exp/static/images/task_images/gems/100.jpg,null,,,,,,55,,,5,,,,,100,0.553617749,0.55,,,,,,,
decision,112,438358,0.0-34.0-5.0,,243.0999999,run_exp/static/images/task_images/land.jpg,65,,,,,,55,,,5,,,,,,,,111135,1,0,FALSE,,,
dig,113,441118,0.0-35.0-0.0,,,,,,,,,,,"[{""stimulus"":""run_exp/static/images/task_images/dig.jpg"",""time"":0.09999990463256836},{""stimulus"":""run_exp/static/images/task_images/land.jpg"",""time"":923.7999999523163},{""stimulus"":""run_exp/static/images/task_images/dig.jpg"",""time"":1842}]",[],5,,,,,,,,,,,,,,
harvest,114,442131,0.0-35.0-1.0,,null,run_exp/static/images/task_images/gems/55.jpg,null,,,,,,27,,,5,,,,,55,0.488515277,0.490909091,,,,,,,
decision,115,442232,0.0-35.0-2.0,,99.80000019,run_exp/static/images/task_images/land.jpg,65,,,,,,27,,,5,,,,,,,,115009,1,1,FALSE,,,
dig,116,445141,0.0-36.0-0.0,,,,,,,,,,,"[{""stimulus"":""run_exp/static/images/task_images/dig.jpg"",""time"":0.10000014305114746},{""stimulus"":""run_exp/static/images/task_images/land.jpg"",""time"":976.8000001907349},{""stimulus"":""run_exp/static/images/task_images/dig.jpg"",""time"":1947.6000001430511}]",[],5,,,,,,,,,,,,,,
harvest,117,446156,0.0-36.0-1.0,,null,run_exp/static/images/task_images/gems/27.jpg,null,,,,,,13,,,5,,,,,27,0.477667438,0.481481481,,,,,,,
decision,118,446641,0.0-36.0-2.0,,484.1000001,run_exp/static/images/task_images/land.jpg,65,,,,,,13,,,5,,,,,,,,119418,1,2,FALSE,,,
dig,119,449173,0.0-37.0-0.0,,,,,,,,,,,"[{""stimulus"":""run_exp/static/images/task_images/dig.jpg"",""time"":0.10000014305114746},{""stimulus"":""run_exp/static/images/task_images/land.jpg"",""time"":849.7000000476837},{""stimulus"":""run_exp/static/images/task_images/dig.jpg"",""time"":1688.2999999523163}]",[],5,,,,,,,,,,,,,,
harvest,120,450180,0.0-37.0-1.0,,null,run_exp/static/images/task_images/gems/13.jpg,null,,,,,,6,,,5,,,,,13,0.492096107,0.461538462,,,,,,,
decision,121,450203,0.0-37.0-2.0,,21.0999999,run_exp/static/images/task_images/land.jpg,76,,,,,,6,,,5,,,,,,,,122980,1,3,TRUE,,,
travel,122,460178,0.0-38.0-0.0,,,,,,,,,,,"[{""stimulus"":""run_exp/static/images/task_images/rocket-01.jpg"",""time"":0},{""stimulus"":""run_exp/static/images/task_images/rocket-02.jpg"",""time"":1112.1999998092651},{""stimulus"":""run_exp/static/images/task_images/rocket-03.jpg"",""time"":2232.5999999046326},{""stimulus"":""run_exp/static/images/task_images/rocket-04.jpg"",""time"":3338},{""stimulus"":""run_exp/static/images/task_images/rocket-05.jpg"",""time"":4445.5},{""stimulus"":""run_exp/static/images/task_images/rocket-06.jpg"",""time"":5546.199999809265},{""stimulus"":""run_exp/static/images/task_images/rocket-07.jpg"",""time"":6654.099999904633},{""stimulus"":""run_exp/static/images/task_images/rocket-08.jpg"",""time"":7763.199999809265},{""stimulus"":""run_exp/static/images/task_images/rocket-09.jpg"",""time"":8869.299999952316}]",[],5,,,,,,,,,,,,,,
alien_welcome,123,465181,0.0-38.0-1.0,,null,run_exp/static/images/task_images/aliens/old_aliens/planet/alien_planet-40.jpg,null,,,,,,,,,,,,40,"56,9,47,33,65,40,22,1,13,30,58,50,39,46,21,35,52,28,20,45,77,75,29,44,73,15,70,5,2,7,6,66,4,36,61,23,41,72,54,34,37,57",,,,,,,,,,
land,124,465693,0.0-38.0-2.0,,null,run_exp/static/images/task_images/land.jpg,null,,,,,,103,,,6,,,,,,,,,,,,,,
dig,125,467700,0.0-38.0-3.0,,,,,,,,,,,"[{""stimulus"":""run_exp/static/images/task_images/dig.jpg"",""time"":0.20000004768371582},{""stimulus"":""run_exp/static/images/task_images/land.jpg"",""time"":683.1000001430511},{""stimulus"":""run_exp/static/images/task_images/dig.jpg"",""time"":1337.9000000953674}]",[],6,,,,,,,,,,,,,,
harvest,126,468711,0.0-38.0-4.0,,null,run_exp/static/images/task_images/gems/103.jpg,null,,,,,,92,,,6,,,,,103,0.892392977,0.893203883,,,,,,,
decision,127,468802,0.0-38.0-5.0,,90.0999999,run_exp/static/images/task_images/land.jpg,65,,,,,,92,,,6,,,,,,,,141579,1,0,FALSE,,,
dig,128,471715,0.0-39.0-0.0,,,,,,,,,,,"[{""stimulus"":""run_exp/static/images/task_images/dig.jpg"",""time"":0.10000014305114746},{""stimulus"":""run_exp/static/images/task_images/land.jpg"",""time"":981.6000001430511},{""stimulus"":""run_exp/static/images/task_images/dig.jpg"",""time"":1947}]",[],6,,,,,,,,,,,,,,
harvest,129,472726,0.0-39.0-1.0,,null,run_exp/static/images/task_images/gems/92.jpg,null,,,,,,80,,,6,,,,,92,0.86491169,0.869565217,,,,,,,
decision,130,472758,0.0-39.0-2.0,,32,run_exp/static/images/task_images/land.jpg,65,,,,,,80,,,6,,,,,,,,145535,1,1,FALSE,,,
dig,131,475738,0.0-40.0-0.0,,,,,,,,,,,"[{""stimulus"":""run_exp/static/images/task_images/dig.jpg"",""time"":0.10000014305114746},{""stimulus"":""run_exp/static/images/task_images/land.jpg"",""time"":990.5},{""stimulus"":""run_exp/static/images/task_images/dig.jpg"",""time"":1986.3000001907349}]",[],6,,,,,,,,,,,,,,
harvest,132,476749,0.0-40.0-1.0,,null,run_exp/static/images/task_images/gems/80.jpg,null,,,,,,67,,,6,,,,,80,0.835763365,0.8375,,,,,,,
decision,133,477068,0.0-40.0-2.0,,318.3000002,run_exp/static/images/task_images/land.jpg,65,,,,,,67,,,6,,,,,,,,149845,1,2,FALSE,,,
dig,134,479761,0.0-41.0-0.0,,,,,,,,,,,"[{""stimulus"":""run_exp/static/images/task_images/dig.jpg"",""time"":0.10000014305114746},{""stimulus"":""run_exp/static/images/task_images/land.jpg"",""time"":903.8000001907349},{""stimulus"":""run_exp/static/images/task_images/dig.jpg"",""time"":1791.7000000476837}]",[],6,,,,,,,,,,,,,,
harvest,135,480763,0.0-41.0-1.0,,null,run_exp/static/images/task_images/gems/67.jpg,null,,,,,,51,,,6,,,,,67,0.756533142,0.76119403,,,,,,,
decision,136,481017,0.0-41.0-2.0,,253.1000001,run_exp/static/images/task_images/land.jpg,65,,,,,,51,,,6,,,,,,,,153794,1,3,FALSE,,,
dig,137,483767,0.0-42.0-0.0,,,,,,,,,,,"[{""stimulus"":""run_exp/static/images/task_images/dig.jpg"",""time"":0.10000014305114746},{""stimulus"":""run_exp/static/images/task_images/land.jpg"",""time"":927.2000000476837},{""stimulus"":""run_exp/static/images/task_images/dig.jpg"",""time"":1830.9000000953674}]",[],6,,,,,,,,,,,,,,
harvest,138,484769,0.0-42.0-1.0,,null,run_exp/static/images/task_images/gems/51.jpg,null,,,,,,41,,,6,,,,,51,0.796532719,0.803921569,,,,,,,
decision,139,485135,0.0-42.0-2.0,,364.8000002,run_exp/static/images/task_images/land.jpg,65,,,,,,41,,,6,,,,,,,,157912,1,4,FALSE,,,
dig,140,487777,0.0-43.0-0.0,,,,,,,,,,,"[{""stimulus"":""run_exp/static/images/task_images/dig.jpg"",""time"":0.20000004768371582},{""stimulus"":""run_exp/static/images/task_images/land.jpg"",""time"":892.5},{""stimulus"":""run_exp/static/images/task_images/dig.jpg"",""time"":1767}]",[],6,,,,,,,,,,,,,,
harvest,141,488781,0.0-43.0-1.0,,null,run_exp/static/images/task_images/gems/41.jpg,null,,,,,,29,,,6,,,,,41,0.697045442,0.707317073,,,,,,,
decision,142,488922,0.0-43.0-2.0,,140.9000001,run_exp/static/images/task_images/land.jpg,65,,,,,,29,,,6,,,,,,,,161699,1,5,FALSE,,,
dig,143,491789,0.0-44.0-0.0,,,,,,,,,,,"[{""stimulus"":""run_exp/static/images/task_images/dig.jpg"",""time"":0.20000004768371582},{""stimulus"":""run_exp/static/images/task_images/land.jpg"",""time"":965},{""stimulus"":""run_exp/static/images/task_images/dig.jpg"",""time"":1915.7999999523163}]",[],6,,,,,,,,,,,,,,
harvest,144,492802,0.0-44.0-1.0,,null,run_exp/static/images/task_images/gems/29.jpg,null,,,,,,21,,,6,,,,,29,0.723573763,0.724137931,,,,,,,
decision,145,492802,0.0-44.0-2.0,,0,run_exp/static/images/task_images/land.jpg,76,,,,,,21,,,6,,,,,,,,165579,1,6,TRUE,,,
travel,146,502806,0.0-45.0-0.0,,,,,,,,,,,"[{""stimulus"":""run_exp/static/images/task_images/rocket-01.jpg"",""time"":0.09999990463256836},{""stimulus"":""run_exp/static/images/task_images/rocket-02.jpg"",""time"":1118.5999999046326},{""stimulus"":""run_exp/static/images/task_images/rocket-03.jpg"",""time"":2236.5},{""stimulus"":""run_exp/static/images/task_images/rocket-04.jpg"",""time"":3342.4000000953674},{""stimulus"":""run_exp/static/images/task_images/rocket-05.jpg"",""time"":4447.900000095367},{""stimulus"":""run_exp/static/images/task_images/rocket-06.jpg"",""time"":5566.200000047684},{""stimulus"":""run_exp/static/images/task_images/rocket-07.jpg"",""time"":6670.200000047684},{""stimulus"":""run_exp/static/images/task_images/rocket-08.jpg"",""time"":7789.299999952316},{""stimulus"":""run_exp/static/images/task_images/rocket-09.jpg"",""time"":8895.299999952316}]",[],6,,,,,,,,,,,,,,
alien_welcome,147,507811,0.0-45.0-1.0,,null,run_exp/static/images/task_images/aliens/old_aliens/planet/alien_planet-22.jpg,null,,,,,,,,,,,,22,"56,9,47,33,65,40,22,1,13,30,58,50,39,46,21,35,52,28,20,45,77,75,29,44,73,15,70,5,2,7,6,66,4,36,61,23,41,72,54,34,37,57",,,,,,,,,,
land,148,508323,0.0-45.0-2.0,,null,run_exp/static/images/task_images/land.jpg,null,,,,,,111,,,7,,,,,,,,,,,,,,
dig,149,510336,0.0-45.0-3.0,,,,,,,,,,,"[{""stimulus"":""run_exp/static/images/task_images/dig.jpg"",""time"":0.20000004768371582},{""stimulus"":""run_exp/static/images/task_images/land.jpg"",""time"":683.7000000476837},{""stimulus"":""run_exp/static/images/task_images/dig.jpg"",""time"":1339.2999999523163}]",[],7,,,,,,,,,,,,,,
harvest,150,511346,0.0-45.0-4.0,,null,run_exp/static/images/task_images/gems/111.jpg,null,,,,,,89,,,7,,,,,111,0.803654449,0.801801802,,,,,,,
decision,151,511904,0.0-45.0-5.0,,556.9000001,run_exp/static/images/task_images/land.jpg,65,,,,,,89,,,7,,,,,,,,184681,1,0,FALSE,,,
dig,152,514361,0.0-46.0-0.0,,,,,,,,,,,"[{""stimulus"":""run_exp/static/images/task_images/dig.jpg"",""time"":0.09999990463256836},{""stimulus"":""run_exp/static/images/task_images/land.jpg"",""time"":824.0999999046326},{""stimulus"":""run_exp/static/images/task_images/dig.jpg"",""time"":1633.6999998092651}]",[],7,,,,,,,,,,,,,,
harvest,153,515375,0.0-46.0-1.0,,null,run_exp/static/images/task_images/gems/89.jpg,null,,,,,,64,,,7,,,,,89,0.715518661,0.719101124,,,,,,,
decision,154,515534,0.0-46.0-2.0,,158.7,run_exp/static/images/task_images/land.jpg,65,,,,,,64,,,7,,,,,,,,188311,1,1,FALSE,,,
dig,155,518385,0.0-47.0-0.0,,,,,,,,,,,"[{""stimulus"":""run_exp/static/images/task_images/dig.jpg"",""time"":0.10000014305114746},{""stimulus"":""run_exp/static/images/task_images/land.jpg"",""time"":955.9000000953674},{""stimulus"":""run_exp/static/images/task_images/dig.jpg"",""time"":1902.6000001430511}]",[],7,,,,,,,,,,,,,,
harvest,156,519392,0.0-47.0-1.0,,null,run_exp/static/images/task_images/gems/64.jpg,null,,,,,,52,,,7,,,,,64,0.816157934,0.8125,,,,,,,
decision,157,519790,0.0-47.0-2.0,,397.5999999,run_exp/static/images/task_images/land.jpg,65,,,,,,52,,,7,,,,,,,,192567,1,2,FALSE,,,
dig,158,522408,0.0-48.0-0.0,,,,,,,,,,,"[{""stimulus"":""run_exp/static/images/task_images/dig.jpg"",""time"":0.09999990463256836},{""stimulus"":""run_exp/static/images/task_images/land.jpg"",""time"":874.2999999523163},{""stimulus"":""run_exp/static/images/task_images/dig.jpg"",""time"":1745.5999999046326}]",[],7,,,,,,,,,,,,,,
harvest,159,523417,0.0-48.0-1.0,,null,run_exp/static/images/task_images/gems/52.jpg,null,,,,,,40,,,7,,,,,52,0.760176716,0.769230769,,,,,,,
decision,160,523778,0.0-48.0-2.0,,359.8,run_exp/static/images/task_images/land.jpg,65,,,,,,40,,,7,,,,,,,,196555,1,3,FALSE,,,
dig,161,526421,0.0-49.0-0.0,,,,,,,,,,,"[{""stimulus"":""run_exp/static/images/task_images/dig.jpg"",""time"":0},{""stimulus"":""run_exp/static/images/task_images/land.jpg"",""time"":883.2999999523163},{""stimulus"":""run_exp/static/images/task_images/dig.jpg"",""time"":1770.6000001430511}]",[],7,,,,,,,,,,,,,,
harvest,162,527434,0.0-49.0-1.0,,null,run_exp/static/images/task_images/gems/40.jpg,null,,,,,,33,,,7,,,,,40,0.817577148,0.825,,,,,,,
decision,163,527664,0.0-49.0-2.0,,228.8,run_exp/static/images/task_images/land.jpg,65,,,,,,33,,,7,,,,,,,,200441,1,4,FALSE,,,
dig,164,530443,0.0-50.0-0.0,,,,,,,,,,,"[{""stimulus"":""run_exp/static/images/task_images/dig.jpg"",""time"":0},{""stimulus"":""run_exp/static/images/task_images/land.jpg"",""time"":931.5},{""stimulus"":""run_exp/static/images/task_images/dig.jpg"",""time"":1860.4000000953674}]",[],7,,,,,,,,,,,,,,
harvest,165,531455,0.0-50.0-1.0,,null,run_exp/static/images/task_images/gems/33.jpg,null,,,,,,30,,,7,,,,,33,0.907689818,0.909090909,,,,,,,
decision,166,531506,0.0-50.0-2.0,,50.5,run_exp/static/images/task_images/land.jpg,76,,,,,,30,,,7,,,,,,,,204283,1,5,TRUE,,,
travel,167,541456,0.0-51.0-0.0,,,,,,,,,,,"[{""stimulus"":""run_exp/static/images/task_images/rocket-01.jpg"",""time"":0.09999990463256836},{""stimulus"":""run_exp/static/images/task_images/rocket-02.jpg"",""time"":1112.4000000953674},{""stimulus"":""run_exp/static/images/task_images/rocket-03.jpg"",""time"":2216.5},{""stimulus"":""run_exp/static/images/task_images/rocket-04.jpg"",""time"":3321.2000000476837},{""stimulus"":""run_exp/static/images/task_images/rocket-05.jpg"",""time"":4424.299999952316},{""stimulus"":""run_exp/static/images/task_images/rocket-06.jpg"",""time"":5526.099999904633},{""stimulus"":""run_exp/static/images/task_images/rocket-07.jpg"",""time"":6632.900000095367},{""stimulus"":""run_exp/static/images/task_images/rocket-08.jpg"",""time"":7738.799999952316},{""stimulus"":""run_exp/static/images/task_images/rocket-09.jpg"",""time"":8856.700000047684}]",[],7,,,,,,,,,,,,,,
alien_welcome,168,546461,0.0-51.0-1.0,,null,run_exp/static/images/task_images/aliens/old_aliens/planet/alien_planet-1.jpg,null,,,,,,,,,,,,1,"56,9,47,33,65,40,22,1,13,30,58,50,39,46,21,35,52,28,20,45,77,75,29,44,73,15,70,5,2,7,6,66,4,36,61,23,41,72,54,34,37,57",,,,,,,,,,
land,169,546974,0.0-51.0-2.0,,null,run_exp/static/images/task_images/land.jpg,null,,,,,,96,,,8,,,,,,,,,,,,,,
dig,170,548979,0.0-51.0-3.0,,,,,,,,,,,"[{""stimulus"":""run_exp/static/images/task_images/dig.jpg"",""time"":0.09999990463256836},{""stimulus"":""run_exp/static/images/task_images/land.jpg"",""time"":679.7000000476837},{""stimulus"":""run_exp/static/images/task_images/dig.jpg"",""time"":1346.8999998569489}]",[],8,,,,,,,,,,,,,,
harvest,171,549992,0.0-51.0-4.0,,null,run_exp/static/images/task_images/gems/96.jpg,null,,,,,,82,,,8,,,,,96,0.851612554,0.854166667,,,,,,,
decision,172,550406,0.0-51.0-5.0,,413.1000001,run_exp/static/images/task_images/land.jpg,65,,,,,,82,,,8,,,,,,,,223184,1,0,FALSE,,,
dig,173,553000,0.0-52.0-0.0,,,,,,,,,,,"[{""stimulus"":""run_exp/static/images/task_images/dig.jpg"",""time"":0.20000004768371582},{""stimulus"":""run_exp/static/images/task_images/land.jpg"",""time"":873.4000000953674},{""stimulus"":""run_exp/static/images/task_images/dig.jpg"",""time"":1739.2999999523163}]",[],8,,,,,,,,,,,,,,
harvest,174,554010,0.0-52.0-1.0,,null,run_exp/static/images/task_images/gems/82.jpg,null,,,,,,68,,,8,,,,,82,0.82988323,0.829268293,,,,,,,
decision,175,554313,0.0-52.0-2.0,,301.3000002,run_exp/static/images/task_images/land.jpg,65,,,,,,68,,,8,,,,,,,,227090,1,1,FALSE,,,
dig,176,557026,0.0-53.0-0.0,,,,,,,,,,,"[{""stimulus"":""run_exp/static/images/task_images/dig.jpg"",""time"":0},{""stimulus"":""run_exp/static/images/task_images/land.jpg"",""time"":904},{""stimulus"":""run_exp/static/images/task_images/dig.jpg"",""time"":1809.2000000476837}]",[],8,,,,,,,,,,,,,,
harvest,177,558037,0.0-53.0-1.0,,null,run_exp/static/images/task_images/gems/68.jpg,null,,,,,,58,,,8,,,,,68,0.847846419,0.852941176,,,,,,,
decision,178,558079,0.0-53.0-2.0,,41.4000001,run_exp/static/images/task_images/land.jpg,65,,,,,,58,,,8,,,,,,,,230856,1,2,FALSE,,,
dig,179,561055,0.0-54.0-0.0,,,,,,,,,,,"[{""stimulus"":""run_exp/static/images/task_images/dig.jpg"",""time"":0},{""stimulus"":""run_exp/static/images/task_images/land.jpg"",""time"":996},{""stimulus"":""run_exp/static/images/task_images/dig.jpg"",""time"":1981.4000000953674}]",[],8,,,,,,,,,,,,,,
harvest,180,562068,0.0-54.0-1.0,,null,run_exp/static/images/task_images/gems/58.jpg,null,,,,,,45,,,8,,,,,58,0.769536176,0.775862069,,,,,,,
decision,181,562082,0.0-54.0-2.0,,12.5,run_exp/static/images/task_images/land.jpg,65,,,,,,45,,,8,,,,,,,,234859,1,3,FALSE,,,
dig,182,565070,0.0-55.0-0.0,,,,,,,,,,,"[{""stimulus"":""run_exp/static/images/task_images/dig.jpg"",""time"":0.09999990463256836},{""stimulus"":""run_exp/static/images/task_images/land.jpg"",""time"":1009.6999998092651},{""stimulus"":""run_exp/static/images/task_images/dig.jpg"",""time"":2006.1999998092651}]",[],8,,,,,,,,,,,,,,
harvest,183,566080,0.0-55.0-1.0,,null,run_exp/static/images/task_images/gems/45.jpg,null,,,,,,39,,,8,,,,,45,0.85683396,0.866666667,,,,,,,
decision,184,566581,0.0-55.0-2.0,,499.7,run_exp/static/images/task_images/land.jpg,76,,,,,,39,,,8,,,,,,,,239358,1,4,TRUE,,,
travel,185,576094,0.0-56.0-0.0,,,,,,,,,,,"[{""stimulus"":""run_exp/static/images/task_images/rocket-01.jpg"",""time"":0},{""stimulus"":""run_exp/static/images/task_images/rocket-02.jpg"",""time"":1056.2000000476837},{""stimulus"":""run_exp/static/images/task_images/rocket-03.jpg"",""time"":2114.4000000953674},{""stimulus"":""run_exp/static/images/task_images/rocket-04.jpg"",""time"":3167.7000000476837},{""stimulus"":""run_exp/static/images/task_images/rocket-05.jpg"",""time"":4221.900000095367},{""stimulus"":""run_exp/static/images/task_images/rocket-06.jpg"",""time"":5280.900000095367},{""stimulus"":""run_exp/static/images/task_images/rocket-07.jpg"",""time"":6338.5},{""stimulus"":""run_exp/static/images/task_images/rocket-08.jpg"",""time"":7394.300000190735},{""stimulus"":""run_exp/static/images/task_images/rocket-09.jpg"",""time"":8453.100000143051}]",[],8,,,,,,,,,,,,,,
alien_welcome,186,581097,0.0-56.0-1.0,,null,run_exp/static/images/task_images/aliens/old_aliens/planet/alien_planet-13.jpg,null,,,,,,,,,,,,13,"56,9,47,33,65,40,22,1,13,30,58,50,39,46,21,35,52,28,20,45,77,75,29,44,73,15,70,5,2,7,6,66,4,36,61,23,41,72,54,34,37,57",,,,,,,,,,
land,187,581609,0.0-56.0-2.0,,null,run_exp/static/images/task_images/land.jpg,null,,,,,,94,,,9,,,,,,,,,,,,,,
dig,188,583627,0.0-56.0-3.0,,,,,,,,,,,"[{""stimulus"":""run_exp/static/images/task_images/dig.jpg"",""time"":0.09999990463256836},{""stimulus"":""run_exp/static/images/task_images/land.jpg"",""time"":680.7000000476837},{""stimulus"":""run_exp/static/images/task_images/dig.jpg"",""time"":1348.5}]",[],9,,,,,,,,,,,,,,
harvest,189,584640,0.0-56.0-4.0,,null,run_exp/static/images/task_images/gems/94.jpg,null,,,,,,22,,,9,,,,,94,0.238140478,0.234042553,,,,,,,
decision,190,585016,0.0-56.0-5.0,,374.1000001,run_exp/static/images/task_images/land.jpg,65,,,,,,22,,,9,,,,,,,,257793,1,0,FALSE,,,
dig,191,587643,0.0-57.0-0.0,,,,,,,,,,,"[{""stimulus"":""run_exp/static/images/task_images/dig.jpg"",""time"":0.09999990463256836},{""stimulus"":""run_exp/static/images/task_images/land.jpg"",""time"":884.5999999046326},{""stimulus"":""run_exp/static/images/task_images/dig.jpg"",""time"":1757.9000000953674}]",[],9,,,,,,,,,,,,,,
harvest,192,588652,0.0-57.0-1.0,,null,run_exp/static/images/task_images/gems/22.jpg,null,,,,,,4,,,9,,,,,22,0.17267465,0.181818182,,,,,,,
decision,193,589328,0.0-57.0-2.0,,674.6000001,run_exp/static/images/task_images/land.jpg,76,,,,,,4,,,9,,,,,,,,262105,1,1,TRUE,,,
travel,194,598657,0.0-58.0-0.0,,,,,,,,,,,"[{""stimulus"":""run_exp/static/images/task_images/rocket-01.jpg"",""time"":0.20000004768371582},{""stimulus"":""run_exp/static/images/task_images/rocket-02.jpg"",""time"":1051},{""stimulus"":""run_exp/static/images/task_images/rocket-03.jpg"",""time"":2074.2999999523163},{""stimulus"":""run_exp/static/images/task_images/rocket-04.jpg"",""time"":3120.5},{""stimulus"":""run_exp/static/images/task_images/rocket-05.jpg"",""time"":4149.099999904633},{""stimulus"":""run_exp/static/images/task_images/rocket-06.jpg"",""time"":5189},{""stimulus"":""run_exp/static/images/task_images/rocket-07.jpg"",""time"":6227.5},{""stimulus"":""run_exp/static/images/task_images/rocket-08.jpg"",""time"":7253.399999856949},{""stimulus"":""run_exp/static/images/task_images/rocket-09.jpg"",""time"":8295}]",[],9,,,,,,,,,,,,,,
alien_welcome,195,603663,0.0-58.0-1.0,,null,run_exp/static/images/task_images/aliens/old_aliens/planet/alien_planet-30.jpg,null,,,,,,,,,,,,30,"56,9,47,33,65,40,22,1,13,30,58,50,39,46,21,35,52,28,20,45,77,75,29,44,73,15,70,5,2,7,6,66,4,36,61,23,41,72,54,34,37,57",,,,,,,,,,
land,196,604176,0.0-58.0-2.0,,null,run_exp/static/images/task_images/land.jpg,null,,,,,,98,,,10,,,,,,,,,,,,,,
dig,197,606186,0.0-58.0-3.0,,,,,,,,,,,"[{""stimulus"":""run_exp/static/images/task_images/dig.jpg"",""time"":0.3000001907348633},{""stimulus"":""run_exp/static/images/task_images/land.jpg"",""time"":683.2000000476837},{""stimulus"":""run_exp/static/images/task_images/dig.jpg"",""time"":1339.1000001430511}]",[],10,,,,,,,,,,,,,,
harvest,198,607203,0.0-58.0-4.0,,null,run_exp/static/images/task_images/gems/98.jpg,null,,,,,,21,,,10,,,,,98,0.216494137,0.214285714,,,,,,,
decision,199,607563,0.0-58.0-5.0,,358.2,run_exp/static/images/task_images/land.jpg,65,,,,,,21,,,10,,,,,,,,280340,1,0,FALSE,,,
dig,200,610219,0.0-59.0-0.0,,,,,,,,,,,"[{""stimulus"":""run_exp/static/images/task_images/dig.jpg"",""time"":0.09999990463256836},{""stimulus"":""run_exp/static/images/task_images/land.jpg"",""time"":895.7999999523163},{""stimulus"":""run_exp/static/images/task_images/dig.jpg"",""time"":1768.5999999046326}]",[],10,,,,,,,,,,,,,,
harvest,201,611235,0.0-59.0-1.0,,null,run_exp/static/images/task_images/gems/21.jpg,null,,,,,,7,,,10,,,,,21,0.321566069,0.333333333,,,,,,,
decision,202,611511,0.0-59.0-2.0,,274.8999999,run_exp/static/images/task_images/land.jpg,65,,,,,,7,,,10,,,,,,,,284288,1,1,FALSE,,,
dig,203,614245,0.0-60.0-0.0,,,,,,,,,,,"[{""stimulus"":""run_exp/static/images/task_images/dig.jpg"",""time"":0.10000014305114746},{""stimulus"":""run_exp/static/images/task_images/land.jpg"",""time"":923.6000001430511},{""stimulus"":""run_exp/static/images/task_images/dig.jpg"",""time"":1818.2000000476837}]",[],10,,,,,,,,,,,,,,
harvest,204,615258,0.0-60.0-1.0,,null,run_exp/static/images/task_images/gems/7.jpg,null,,,,,,1,,,10,,,,,7,0.150108401,0.142857143,,,,,,,
decision,205,615373,0.0-60.0-2.0,,113.8,run_exp/static/images/task_images/land.jpg,76,,,,,,1,,,10,,,,,,,,288150,1,2,TRUE,,,
travel,206,625258,0.0-61.0-0.0,,,,,,,,,,,"[{""stimulus"":""run_exp/static/images/task_images/rocket-01.jpg"",""time"":0.10000014305114746},{""stimulus"":""run_exp/static/images/task_images/rocket-02.jpg"",""time"":1104},{""stimulus"":""run_exp/static/images/task_images/rocket-03.jpg"",""time"":2204.2000000476837},{""stimulus"":""run_exp/static/images/task_images/rocket-04.jpg"",""time"":3308.4000000953674},{""stimulus"":""run_exp/static/images/task_images/rocket-05.jpg"",""time"":4393.900000095367},{""stimulus"":""run_exp/static/images/task_images/rocket-06.jpg"",""time"":5498.100000143051},{""stimulus"":""run_exp/static/images/task_images/rocket-07.jpg"",""time"":6597.800000190735},{""stimulus"":""run_exp/static/images/task_images/rocket-08.jpg"",""time"":7689.700000047684},{""stimulus"":""run_exp/static/images/task_images/rocket-09.jpg"",""time"":8797.400000095367}]",[],10,,,,,,,,,,,,,,
alien_welcome,207,630271,0.0-61.0-1.0,,null,run_exp/static/images/task_images/aliens/old_aliens/planet/alien_planet-58.jpg,null,,,,,,,,,,,,58,"56,9,47,33,65,40,22,1,13,30,58,50,39,46,21,35,52,28,20,45,77,75,29,44,73,15,70,5,2,7,6,66,4,36,61,23,41,72,54,34,37,57",,,,,,,,,,
land,208,630783,0.0-61.0-2.0,,null,run_exp/static/images/task_images/land.jpg,null,,,,,,103,,,11,,,,,,,,,,,,,,
dig,209,632793,0.0-61.0-3.0,,,,,,,,,,,"[{""stimulus"":""run_exp/static/images/task_images/dig.jpg"",""time"":0.19999980926513672},{""stimulus"":""run_exp/static/images/task_images/land.jpg"",""time"":672.0999999046326},{""stimulus"":""run_exp/static/images/task_images/dig.jpg"",""time"":1341.3999998569489}]",[],11,,,,,,,,,,,,,,
harvest,210,633806,0.0-61.0-4.0,,null,run_exp/static/images/task_images/gems/103.jpg,null,,,,,,23,,,11,,,,,103,0.224127619,0.223300971,,,,,,,
decision,211,634528,0.0-61.0-5.0,,721.5,run_exp/static/images/task_images/land.jpg,65,,,,,,23,,,11,,,,,,,,307305,1,0,TRUE,,,
end_of_block_continue,212,640016,0.0-62.0-0.0,,5485.4,run_exp/static/audio/clip_32_block_end.m4a,,,,,,0,,,,,,,,,,,,,,,,,,
alien_welcome,213,645024,0.0-63.0-0.0,,null,run_exp/static/images/task_images/aliens/old_aliens/planet/alien_planet-50.jpg,null,,,,,,,,,,,,50,"56,9,47,33,65,40,22,1,13,30,58,50,39,46,21,35,52,28,20,45,77,75,29,44,73,15,70,5,2,7,6,66,4,36,61,23,41,72,54,34,37,57",,,,,,,,,,
land,214,645538,0.0-63.0-1.0,,null,run_exp/static/images/task_images/land.jpg,null,,,,,,93,,,12,,,,,,,,,,,,,,
dig,215,647546,0.0-63.0-2.0,,,,,,,,,,,"[{""stimulus"":""run_exp/static/images/task_images/dig.jpg"",""time"":0.09999990463256836},{""stimulus"":""run_exp/static/images/task_images/land.jpg"",""time"":682.8999998569489},{""stimulus"":""run_exp/static/images/task_images/dig.jpg"",""time"":1338.2000000476837}]",[],12,,,,,,,,,,,,,,
harvest,216,648552,0.0-63.0-3.0,,null,run_exp/static/images/task_images/gems/93.jpg,null,,,,,,15,,,12,,,,,93,0.157268222,0.161290323,,,,,,,
decision,217,648899,0.0-63.0-4.0,,345.4000001,run_exp/static/images/task_images/land.jpg,65,,,,,,15,,,12,,,,,,,,8882,2,0,FALSE,,,
dig,218,651555,0.0-64.0-0.0,,,,,,,,,,,"[{""stimulus"":""run_exp/static/images/task_images/dig.jpg"",""time"":0.10000014305114746},{""stimulus"":""run_exp/static/images/task_images/land.jpg"",""time"":896},{""stimulus"":""run_exp/static/images/task_images/dig.jpg"",""time"":1782.4000000953674}]",[],12,,,,,,,,,,,,,,
harvest,219,652569,0.0-64.0-1.0,,null,run_exp/static/images/task_images/gems/15.jpg,null,,,,,,3,,,12,,,,,15,0.185354048,0.2,,,,,,,
decision,220,652933,0.0-64.0-2.0,,362.9000001,run_exp/static/images/task_images/land.jpg,65,,,,,,3,,,12,,,,,,,,12916,2,1,FALSE,,,
dig,221,655575,0.0-65.0-0.0,,,,,,,,,,,"[{""stimulus"":""run_exp/static/images/task_images/dig.jpg"",""time"":0.09999990463256836},{""stimulus"":""run_exp/static/images/task_images/land.jpg"",""time"":882.0999999046326},{""stimulus"":""run_exp/static/images/task_images/dig.jpg"",""time"":1771.5999999046326}]",[],12,,,,,,,,,,,,,,
harvest,222,656588,0.0-65.0-1.0,,null,run_exp/static/images/task_images/gems/3.jpg,null,,,,,,1,,,12,,,,,3,0.211956727,0.333333333,,,,,,,
decision,223,656934,0.0-65.0-2.0,,345.5999999,run_exp/static/images/task_images/land.jpg,76,,,,,,1,,,12,,,,,,,,16917,2,2,TRUE,,,
travel,224,666593,0.0-66.0-0.0,,,,,,,,,,,"[{""stimulus"":""run_exp/static/images/task_images/rocket-01.jpg"",""time"":0.10000014305114746},{""stimulus"":""run_exp/static/images/task_images/rocket-02.jpg"",""time"":1084.9000000953674},{""stimulus"":""run_exp/static/images/task_images/rocket-03.jpg"",""time"":2157.600000143051},{""stimulus"":""run_exp/static/images/task_images/rocket-04.jpg"",""time"":3218.9000000953674},{""stimulus"":""run_exp/static/images/task_images/rocket-05.jpg"",""time"":4291},{""stimulus"":""run_exp/static/images/task_images/rocket-06.jpg"",""time"":5374.799999952316},{""stimulus"":""run_exp/static/images/task_images/rocket-07.jpg"",""time"":6433.700000047684},{""stimulus"":""run_exp/static/images/task_images/rocket-08.jpg"",""time"":7510.799999952316},{""stimulus"":""run_exp/static/images/task_images/rocket-09.jpg"",""time"":8583.900000095367}]",[],12,,,,,,,,,,,,,,
alien_welcome,225,671603,0.0-66.0-1.0,,null,run_exp/static/images/task_images/aliens/old_aliens/planet/alien_planet-39.jpg,null,,,,,,,,,,,,39,"56,9,47,33,65,40,22,1,13,30,58,50,39,46,21,35,52,28,20,45,77,75,29,44,73,15,70,5,2,7,6,66,4,36,61,23,41,72,54,34,37,57",,,,,,,,,,
land,226,672118,0.0-66.0-2.0,,null,run_exp/static/images/task_images/land.jpg,null,,,,,,98,,,13,,,,,,,,,,,,,,
dig,227,674126,0.0-66.0-3.0,,,,,,,,,,,"[{""stimulus"":""run_exp/static/images/task_images/dig.jpg"",""time"":0.10000014305114746},{""stimulus"":""run_exp/static/images/task_images/land.jpg"",""time"":682.2999999523163},{""stimulus"":""run_exp/static/images/task_images/dig.jpg"",""time"":1338}]",[],13,,,,,,,,,,,,,,
harvest,228,675140,0.0-66.0-4.0,,null,run_exp/static/images/task_images/gems/98.jpg,null,,,,,,19,,,13,,,,,98,0.189768624,0.193877551,,,,,,,
decision,229,676363,0.0-66.0-5.0,,1221.5,run_exp/static/images/task_images/land.jpg,65,,,,,,19,,,13,,,,,,,,36346,2,0,FALSE,,,
dig,230,678143,0.0-67.0-0.0,,,,,,,,,,,"[{""stimulus"":""run_exp/static/images/task_images/dig.jpg"",""time"":0},{""stimulus"":""run_exp/static/images/task_images/land.jpg"",""time"":594.9000000953674},{""stimulus"":""run_exp/static/images/task_images/dig.jpg"",""time"":1186.7999999523163}]",[],13,,,,,,,,,,,,,,
harvest,231,679156,0.0-67.0-1.0,,null,run_exp/static/images/task_images/gems/19.jpg,null,,,,,,4,,,13,,,,,19,0.230102591,0.210526316,,,,,,,
decision,232,679420,0.0-67.0-2.0,,263.3,run_exp/static/images/task_images/land.jpg,65,,,,,,4,,,13,,,,,,,,39403,2,1,FALSE,,,
dig,233,682175,0.0-68.0-0.0,,,,,,,,,,,"[{""stimulus"":""run_exp/static/images/task_images/dig.jpg"",""time"":0},{""stimulus"":""run_exp/static/images/task_images/land.jpg"",""time"":914},{""stimulus"":""run_exp/static/images/task_images/dig.jpg"",""time"":1833}]",[],13,,,,,,,,,,,,,,
harvest,234,683186,0.0-68.0-1.0,,null,run_exp/static/images/task_images/gems/4.jpg,null,,,,,,1,,,13,,,,,4,0.227787787,0.25,,,,,,,
decision,235,683279,0.0-68.0-2.0,,91.0999999,run_exp/static/images/task_images/land.jpg,76,,,,,,1,,,13,,,,,,,,43262,2,2,TRUE,,,
travel,236,693192,0.0-69.0-0.0,,,,,,,,,,,"[{""stimulus"":""run_exp/static/images/task_images/rocket-01.jpg"",""time"":0.09999990463256836},{""stimulus"":""run_exp/static/images/task_images/rocket-02.jpg"",""time"":1105.8999998569489},{""stimulus"":""run_exp/static/images/task_images/rocket-03.jpg"",""time"":2209.7999999523163},{""stimulus"":""run_exp/static/images/task_images/rocket-04.jpg"",""time"":3313.399999856949},{""stimulus"":""run_exp/static/images/task_images/rocket-05.jpg"",""time"":4416.199999809265},{""stimulus"":""run_exp/static/images/task_images/rocket-06.jpg"",""time"":5508.399999856949},{""stimulus"":""run_exp/static/images/task_images/rocket-07.jpg"",""time"":6615.299999952316},{""stimulus"":""run_exp/static/images/task_images/rocket-08.jpg"",""time"":7701.699999809265},{""stimulus"":""run_exp/static/images/task_images/rocket-09.jpg"",""time"":8805.399999856949}]",[],13,,,,,,,,,,,,,,
alien_welcome,237,698194,0.0-69.0-1.0,,null,run_exp/static/images/task_images/aliens/old_aliens/planet/alien_planet-46.jpg,null,,,,,,,,,,,,46,"56,9,47,33,65,40,22,1,13,30,58,50,39,46,21,35,52,28,20,45,77,75,29,44,73,15,70,5,2,7,6,66,4,36,61,23,41,72,54,34,37,57",,,,,,,,,,
land,238,698709,0.0-69.0-2.0,,null,run_exp/static/images/task_images/land.jpg,null,,,,,,97,,,14,,,,,,,,,,,,,,
dig,239,700715,0.0-69.0-3.0,,,,,,,,,,,"[{""stimulus"":""run_exp/static/images/task_images/dig.jpg"",""time"":0.2999999523162842},{""stimulus"":""run_exp/static/images/task_images/land.jpg"",""time"":681.5},{""stimulus"":""run_exp/static/images/task_images/dig.jpg"",""time"":1335.2999999523163}]",[],14,,,,,,,,,,,,,,
harvest,240,701731,0.0-69.0-4.0,,null,run_exp/static/images/task_images/gems/97.jpg,null,,,,,,25,,,14,,,,,97,0.254665546,0.257731959,,,,,,,
decision,241,702219,0.0-69.0-5.0,,486.5,run_exp/static/images/task_images/land.jpg,65,,,,,,25,,,14,,,,,,,,62202,2,0,FALSE,,,
dig,242,704733,0.0-70.0-0.0,,,,,,,,,,,"[{""stimulus"":""run_exp/static/images/task_images/dig.jpg"",""time"":0},{""stimulus"":""run_exp/static/images/task_images/land.jpg"",""time"":846.1999998092651},{""stimulus"":""run_exp/static/images/task_images/dig.jpg"",""time"":1687.8999998569489}]",[],14,,,,,,,,,,,,,,
harvest,243,705748,0.0-70.0-1.0,,null,run_exp/static/images/task_images/gems/25.jpg,null,,,,,,3,,,14,,,,,25,0.137280461,0.12,,,,,,,
decision,244,706538,0.0-70.0-2.0,,788.5,run_exp/static/images/task_images/land.jpg,65,,,,,,3,,,14,,,,,,,,66521,2,1,FALSE,,,
dig,245,708763,0.0-71.0-0.0,,,,,,,,,,,"[{""stimulus"":""run_exp/static/images/task_images/dig.jpg"",""time"":0.09999990463256836},{""stimulus"":""run_exp/static/images/task_images/land.jpg"",""time"":743.9000000953674},{""stimulus"":""run_exp/static/images/task_images/dig.jpg"",""time"":1490.5999999046326}]",[],14,,,,,,,,,,,,,,
harvest,246,709777,0.0-71.0-1.0,,null,run_exp/static/images/task_images/gems/3.jpg,null,,,,,,0,,,14,,,,,3,0.10670936,0,,,,,,,
decision,247,709794,0.0-71.0-2.0,,16.4000001,run_exp/static/images/task_images/land.jpg,76,,,,,,0,,,14,,,,,,,,69777,2,2,TRUE,,,
travel,248,719783,0.0-72.0-0.0,,,,,,,,,,,"[{""stimulus"":""run_exp/static/images/task_images/rocket-01.jpg"",""time"":0.09999990463256836},{""stimulus"":""run_exp/static/images/task_images/rocket-02.jpg"",""time"":1113.5},{""stimulus"":""run_exp/static/images/task_images/rocket-03.jpg"",""time"":2221.2000000476837},{""stimulus"":""run_exp/static/images/task_images/rocket-04.jpg"",""time"":3343},{""stimulus"":""run_exp/static/images/task_images/rocket-05.jpg"",""time"":4448.799999952316},{""stimulus"":""run_exp/static/images/task_images/rocket-06.jpg"",""time"":5556.700000047684},{""stimulus"":""run_exp/static/images/task_images/rocket-07.jpg"",""time"":6661},{""stimulus"":""run_exp/static/images/task_images/rocket-08.jpg"",""time"":7766.099999904633},{""stimulus"":""run_exp/static/images/task_images/rocket-09.jpg"",""time"":8886.099999904633}]",[],14,,,,,,,,,,,,,,
alien_welcome,249,724792,0.0-72.0-1.0,,null,run_exp/static/images/task_images/aliens/old_aliens/planet/alien_planet-21.jpg,null,,,,,,,,,,,,21,"56,9,47,33,65,40,22,1,13,30,58,50,39,46,21,35,52,28,20,45,77,75,29,44,73,15,70,5,2,7,6,66,4,36,61,23,41,72,54,34,37,57",,,,,,,,,,
land,250,725309,0.0-72.0-2.0,,null,run_exp/static/images/task_images/land.jpg,null,,,,,,97,,,15,,,,,,,,,,,,,,
dig,251,727318,0.0-72.0-3.0,,,,,,,,,,,"[{""stimulus"":""run_exp/static/images/task_images/dig.jpg"",""time"":0.20000004768371582},{""stimulus"":""run_exp/static/images/task_images/land.jpg"",""time"":683.4000000953674},{""stimulus"":""run_exp/static/images/task_images/dig.jpg"",""time"":1336.9000000953674}]",[],15,,,,,,,,,,,,,,
harvest,252,728329,0.0-72.0-4.0,,null,run_exp/static/images/task_images/gems/97.jpg,null,,,,,,74,,,15,,,,,97,0.76310018,0.762886598,,,,,,,
decision,253,728576,0.0-72.0-5.0,,246.0999999,run_exp/static/images/task_images/land.jpg,65,,,,,,74,,,15,,,,,,,,88560,2,0,FALSE,,,
dig,254,731333,0.0-73.0-0.0,,,,,,,,,,,"[{""stimulus"":""run_exp/static/images/task_images/dig.jpg"",""time"":0},{""stimulus"":""run_exp/static/images/task_images/land.jpg"",""time"":931.9000000953674},{""stimulus"":""run_exp/static/images/task_images/dig.jpg"",""time"":1850}]",[],15,,,,,,,,,,,,,,
harvest,255,732335,0.0-73.0-1.0,,null,run_exp/static/images/task_images/gems/74.jpg,null,,,,,,64,,,15,,,,,74,0.858293221,0.864864865,,,,,,,
decision,256,732698,0.0-73.0-2.0,,362,run_exp/static/images/task_images/land.jpg,65,,,,,,64,,,15,,,,,,,,92681,2,1,FALSE,,,
dig,257,735337,0.0-74.0-0.0,,,,,,,,,,,"[{""stimulus"":""run_exp/static/images/task_images/dig.jpg"",""time"":0.09999990463256836},{""stimulus"":""run_exp/static/images/task_images/land.jpg"",""time"":895.3999998569489},{""stimulus"":""run_exp/static/images/task_images/dig.jpg"",""time"":1764.8999998569489}]",[],15,,,,,,,,,,,,,,
harvest,258,736347,0.0-74.0-1.0,,null,run_exp/static/images/task_images/gems/64.jpg,null,,,,,,55,,,15,,,,,64,0.861055912,0.859375,,,,,,,
decision,259,736777,0.0-74.0-2.0,,429.5999999,run_exp/static/images/task_images/land.jpg,65,,,,,,55,,,15,,,,,,,,96760,2,2,FALSE,,,
dig,260,739355,0.0-75.0-0.0,,,,,,,,,,,"[{""stimulus"":""run_exp/static/images/task_images/dig.jpg"",""time"":0.19999980926513672},{""stimulus"":""run_exp/static/images/task_images/land.jpg"",""time"":866.5},{""stimulus"":""run_exp/static/images/task_images/dig.jpg"",""time"":1720.3999998569489}]",[],15,,,,,,,,,,,,,,
harvest,261,740367,0.0-75.0-1.0,,null,run_exp/static/images/task_images/gems/55.jpg,null,,,,,,48,,,15,,,,,55,0.864063783,0.872727273,,,,,,,
decision,262,740499,0.0-75.0-2.0,,131.3999999,run_exp/static/images/task_images/land.jpg,65,,,,,,48,,,15,,,,,,,,100483,2,3,FALSE,,,
dig,263,743382,0.0-76.0-0.0,,,,,,,,,,,"[{""stimulus"":""run_exp/static/images/task_images/dig.jpg"",""time"":0.10000014305114746},{""stimulus"":""run_exp/static/images/task_images/land.jpg"",""time"":969.6000001430511},{""stimulus"":""run_exp/static/images/task_images/dig.jpg"",""time"":1916.4000000953674}]",[],15,,,,,,,,,,,,,,
harvest,264,744389,0.0-76.0-1.0,,null,run_exp/static/images/task_images/gems/48.jpg,null,,,,,,40,,,15,,,,,48,0.823531603,0.833333333,,,,,,,
decision,265,744683,0.0-76.0-2.0,,292.5,run_exp/static/images/task_images/land.jpg,65,,,,,,40,,,15,,,,,,,,104666,2,4,FALSE,,,
dig,266,747393,0.0-77.0-0.0,,,,,,,,,,,"[{""stimulus"":""run_exp/static/images/task_images/dig.jpg"",""time"":0.09999990463256836},{""stimulus"":""run_exp/static/images/task_images/land.jpg"",""time"":918.5999999046326},{""stimulus"":""run_exp/static/images/task_images/dig.jpg"",""time"":1805.5999999046326}]",[],15,,,,,,,,,,,,,,
harvest,267,748404,0.0-77.0-1.0,,null,run_exp/static/images/task_images/gems/40.jpg,null,,,,,,34,,,15,,,,,40,0.843473317,0.85,,,,,,,
decision,268,748713,0.0-77.0-2.0,,307.5,run_exp/static/images/task_images/land.jpg,76,,,,,,34,,,15,,,,,,,,108696,2,5,TRUE,,,
travel,269,758416,0.0-78.0-0.0,,,,,,,,,,,"[{""stimulus"":""run_exp/static/images/task_images/rocket-01.jpg"",""time"":0.10000014305114746},{""stimulus"":""run_exp/static/images/task_images/rocket-02.jpg"",""time"":1086.7999999523163},{""stimulus"":""run_exp/static/images/task_images/rocket-03.jpg"",""time"":2158.4000000953674},{""stimulus"":""run_exp/static/images/task_images/rocket-04.jpg"",""time"":3231.9000000953674},{""stimulus"":""run_exp/static/images/task_images/rocket-05.jpg"",""time"":4316.299999952316},{""stimulus"":""run_exp/static/images/task_images/rocket-06.jpg"",""time"":5387.900000095367},{""stimulus"":""run_exp/static/images/task_images/rocket-07.jpg"",""time"":6461},{""stimulus"":""run_exp/static/images/task_images/rocket-08.jpg"",""time"":7535.100000143051},{""stimulus"":""run_exp/static/images/task_images/rocket-09.jpg"",""time"":8610.600000143051}]",[],15,,,,,,,,,,,,,,
alien_welcome,270,763420,0.0-78.0-1.0,,null,run_exp/static/images/task_images/aliens/old_aliens/planet/alien_planet-35.jpg,null,,,,,,,,,,,,35,"56,9,47,33,65,40,22,1,13,30,58,50,39,46,21,35,52,28,20,45,77,75,29,44,73,15,70,5,2,7,6,66,4,36,61,23,41,72,54,34,37,57",,,,,,,,,,
land,271,763934,0.0-78.0-2.0,,null,run_exp/static/images/task_images/land.jpg,null,,,,,,95,,,16,,,,,,,,,,,,,,
dig,272,765946,0.0-78.0-3.0,,,,,,,,,,,"[{""stimulus"":""run_exp/static/images/task_images/dig.jpg"",""time"":0.09999990463256836},{""stimulus"":""run_exp/static/images/task_images/land.jpg"",""time"":668.5999999046326},{""stimulus"":""run_exp/static/images/task_images/dig.jpg"",""time"":1338.7999999523163}]",[],16,,,,,,,,,,,,,,
harvest,273,766959,0.0-78.0-4.0,,null,run_exp/static/images/task_images/gems/95.jpg,null,,,,,,79,,,16,,,,,95,0.835512248,0.831578947,,,,,,,
decision,274,767323,0.0-78.0-5.0,,362.8,run_exp/static/images/task_images/land.jpg,65,,,,,,79,,,16,,,,,,,,127306,2,0,FALSE,,,
dig,275,769970,0.0-79.0-0.0,,,,,,,,,,,"[{""stimulus"":""run_exp/static/images/task_images/dig.jpg"",""time"":0.10000014305114746},{""stimulus"":""run_exp/static/images/task_images/land.jpg"",""time"":890.1000001430511},{""stimulus"":""run_exp/static/images/task_images/dig.jpg"",""time"":1761.3000001907349}]",[],16,,,,,,,,,,,,,,
harvest,276,770985,0.0-79.0-1.0,,null,run_exp/static/images/task_images/gems/79.jpg,null,,,,,,70,,,16,,,,,79,0.885680572,0.886075949,,,,,,,
decision,277,771044,0.0-79.0-2.0,,57.9000001,run_exp/static/images/task_images/land.jpg,65,,,,,,70,,,16,,,,,,,,131027,2,1,FALSE,,,
dig,278,773998,0.0-80.0-0.0,,,,,,,,,,,"[{""stimulus"":""run_exp/static/images/task_images/dig.jpg"",""time"":0.09999990463256836},{""stimulus"":""run_exp/static/images/task_images/land.jpg"",""time"":993.3999998569489},{""stimulus"":""run_exp/static/images/task_images/dig.jpg"",""time"":1974.2999999523163}]",[],16,,,,,,,,,,,,,,
harvest,279,775015,0.0-80.0-1.0,,null,run_exp/static/images/task_images/gems/70.jpg,null,,,,,,56,,,16,,,,,70,0.797714623,0.8,,,,,,,
decision,280,775350,0.0-80.0-2.0,,334,run_exp/static/images/task_images/land.jpg,65,,,,,,56,,,16,,,,,,,,135333,2,2,FALSE,,,
dig,281,778020,0.0-81.0-0.0,,,,,,,,,,,"[{""stimulus"":""run_exp/static/images/task_images/dig.jpg"",""time"":0.09999990463256836},{""stimulus"":""run_exp/static/images/task_images/land.jpg"",""time"":894.5},{""stimulus"":""run_exp/static/images/task_images/dig.jpg"",""time"":1779}]",[],16,,,,,,,,,,,,,,
harvest,282,779036,0.0-81.0-1.0,,null,run_exp/static/images/task_images/gems/56.jpg,null,,,,,,44,,,16,,,,,56,0.784848044,0.785714286,,,,,,,
decision,283,779395,0.0-81.0-2.0,,358.4000001,run_exp/static/images/task_images/land.jpg,65,,,,,,44,,,16,,,,,,,,139378,2,3,FALSE,,,
dig,284,782038,0.0-82.0-0.0,,,,,,,,,,,"[{""stimulus"":""run_exp/static/images/task_images/dig.jpg"",""time"":0},{""stimulus"":""run_exp/static/images/task_images/land.jpg"",""time"":882.7999999523163},{""stimulus"":""run_exp/static/images/task_images/dig.jpg"",""time"":1769.2999999523163}]",[],16,,,,,,,,,,,,,,
harvest,285,783047,0.0-82.0-1.0,,null,run_exp/static/images/task_images/gems/44.jpg,null,,,,,,34,,,16,,,,,44,0.782213678,0.772727273,,,,,,,
decision,286,783236,0.0-82.0-2.0,,188.3,run_exp/static/images/task_images/land.jpg,65,,,,,,34,,,16,,,,,,,,143219,2,4,FALSE,,,
dig,287,786062,0.0-83.0-0.0,,,,,,,,,,,"[{""stimulus"":""run_exp/static/images/task_images/dig.jpg"",""time"":0},{""stimulus"":""run_exp/static/images/task_images/land.jpg"",""time"":945.6000001430511},{""stimulus"":""run_exp/static/images/task_images/dig.jpg"",""time"":1877.7000000476837}]",[],16,,,,,,,,,,,,,,
harvest,288,787077,0.0-83.0-1.0,,null,run_exp/static/images/task_images/gems/34.jpg,null,,,,,,25,,,16,,,,,34,0.722643484,0.735294118,,,,,,,
decision,289,787173,0.0-83.0-2.0,,94.70000005,run_exp/static/images/task_images/land.jpg,76,,,,,,25,,,16,,,,,,,,147156,2,5,TRUE,,,
travel,290,797091,0.0-84.0-0.0,,,,,,,,,,,"[{""stimulus"":""run_exp/static/images/task_images/rocket-01.jpg"",""time"":0.10000014305114746},{""stimulus"":""run_exp/static/images/task_images/rocket-02.jpg"",""time"":1113.5},{""stimulus"":""run_exp/static/images/task_images/rocket-03.jpg"",""time"":2201.7000000476837},{""stimulus"":""run_exp/static/images/task_images/rocket-04.jpg"",""time"":3307.600000143051},{""stimulus"":""run_exp/static/images/task_images/rocket-05.jpg"",""time"":4411.400000095367},{""stimulus"":""run_exp/static/images/task_images/rocket-06.jpg"",""time"":5514.400000095367},{""stimulus"":""run_exp/static/images/task_images/rocket-07.jpg"",""time"":6604},{""stimulus"":""run_exp/static/images/task_images/rocket-08.jpg"",""time"":7703.299999952316},{""stimulus"":""run_exp/static/images/task_images/rocket-09.jpg"",""time"":8808.200000047684}]",[],16,,,,,,,,,,,,,,
alien_welcome,291,802102,0.0-84.0-1.0,,null,run_exp/static/images/task_images/aliens/old_aliens/planet/alien_planet-52.jpg,null,,,,,,,,,,,,52,"56,9,47,33,65,40,22,1,13,30,58,50,39,46,21,35,52,28,20,45,77,75,29,44,73,15,70,5,2,7,6,66,4,36,61,23,41,72,54,34,37,57",,,,,,,,,,
land,292,802619,0.0-84.0-2.0,,null,run_exp/static/images/task_images/land.jpg,null,,,,,,95,,,17,,,,,,,,,,,,,,
dig,293,804628,0.0-84.0-3.0,,,,,,,,,,,"[{""stimulus"":""run_exp/static/images/task_images/dig.jpg"",""time"":0.19999980926513672},{""stimulus"":""run_exp/static/images/task_images/land.jpg"",""time"":669.7999999523163},{""stimulus"":""run_exp/static/images/task_images/dig.jpg"",""time"":1337.1999998092651}]",[],17,,,,,,,,,,,,,,
harvest,294,805638,0.0-84.0-4.0,,null,run_exp/static/images/task_images/gems/95.jpg,null,,,,,,75,,,17,,,,,95,0.793418114,0.789473684,,,,,,,
decision,295,805785,0.0-84.0-5.0,,145.4000001,run_exp/static/images/task_images/land.jpg,65,,,,,,75,,,17,,,,,,,,165768,2,0,FALSE,,,
dig,296,808650,0.0-85.0-0.0,,,,,,,,,,,"[{""stimulus"":""run_exp/static/images/task_images/dig.jpg"",""time"":0.10000014305114746},{""stimulus"":""run_exp/static/images/task_images/land.jpg"",""time"":967},{""stimulus"":""run_exp/static/images/task_images/dig.jpg"",""time"":1913.8000001907349}]",[],17,,,,,,,,,,,,,,
harvest,297,809660,0.0-85.0-1.0,,null,run_exp/static/images/task_images/gems/75.jpg,null,,,,,,58,,,17,,,,,75,0.768725167,0.773333333,,,,,,,
decision,298,809786,0.0-85.0-2.0,,125,run_exp/static/images/task_images/land.jpg,65,,,,,,58,,,17,,,,,,,,169769,2,1,FALSE,,,
dig,299,812674,0.0-86.0-0.0,,,,,,,,,,,"[{""stimulus"":""run_exp/static/images/task_images/dig.jpg"",""time"":0},{""stimulus"":""run_exp/static/images/task_images/land.jpg"",""time"":973.1999998092651},{""stimulus"":""run_exp/static/images/task_images/dig.jpg"",""time"":1924.8999998569489}]",[],17,,,,,,,,,,,,,,
harvest,300,813687,0.0-86.0-1.0,,null,run_exp/static/images/task_images/gems/58.jpg,null,,,,,,46,,,17,,,,,58,0.793904438,0.793103448,,,,,,,
decision,301,813898,0.0-86.0-2.0,,210.5,run_exp/static/images/task_images/land.jpg,65,,,,,,46,,,17,,,,,,,,173881,2,2,FALSE,,,
dig,302,816702,0.0-87.0-0.0,,,,,,,,,,,"[{""stimulus"":""run_exp/static/images/task_images/dig.jpg"",""time"":0.09999990463256836},{""stimulus"":""run_exp/static/images/task_images/land.jpg"",""time"":935.2999999523163},{""stimulus"":""run_exp/static/images/task_images/dig.jpg"",""time"":1865.7000000476837}]",[],17,,,,,,,,,,,,,,
harvest,303,817707,0.0-87.0-1.0,,null,run_exp/static/images/task_images/gems/46.jpg,null,,,,,,37,,,17,,,,,46,0.80117507,0.804347826,,,,,,,
decision,304,817783,0.0-87.0-2.0,,75.70000005,run_exp/static/images/task_images/land.jpg,65,,,,,,37,,,17,,,,,,,,177766,2,3,FALSE,,,
dig,305,820718,0.0-88.0-0.0,,,,,,,,,,,"[{""stimulus"":""run_exp/static/images/task_images/dig.jpg"",""time"":0},{""stimulus"":""run_exp/static/images/task_images/land.jpg"",""time"":978},{""stimulus"":""run_exp/static/images/task_images/dig.jpg"",""time"":1955.2000000476837}]",[],17,,,,,,,,,,,,,,
harvest,306,821726,0.0-88.0-1.0,,null,run_exp/static/images/task_images/gems/37.jpg,null,,,,,,29,,,17,,,,,37,0.791067311,0.783783784,,,,,,,
decision,307,822089,0.0-88.0-2.0,,362.2,run_exp/static/images/task_images/land.jpg,76,,,,,,29,,,17,,,,,,,,182072,2,4,TRUE,,,
travel,308,831732,0.0-89.0-0.0,,,,,,,,,,,"[{""stimulus"":""run_exp/static/images/task_images/rocket-01.jpg"",""time"":0.10000014305114746},{""stimulus"":""run_exp/static/images/task_images/rocket-02.jpg"",""time"":1082.9000000953674},{""stimulus"":""run_exp/static/images/task_images/rocket-03.jpg"",""time"":2152.4000000953674},{""stimulus"":""run_exp/static/images/task_images/rocket-04.jpg"",""time"":3212},{""stimulus"":""run_exp/static/images/task_images/rocket-05.jpg"",""time"":4288.900000095367},{""stimulus"":""run_exp/static/images/task_images/rocket-06.jpg"",""time"":5364.600000143051},{""stimulus"":""run_exp/static/images/task_images/rocket-07.jpg"",""time"":6435.5},{""stimulus"":""run_exp/static/images/task_images/rocket-08.jpg"",""time"":7492.400000095367},{""stimulus"":""run_exp/static/images/task_images/rocket-09.jpg"",""time"":8571.200000047684}]",[],17,,,,,,,,,,,,,,
alien_welcome,309,836736,0.0-89.0-1.0,,null,run_exp/static/images/task_images/aliens/old_aliens/planet/alien_planet-28.jpg,null,,,,,,,,,,,,28,"56,9,47,33,65,40,22,1,13,30,58,50,39,46,21,35,52,28,20,45,77,75,29,44,73,15,70,5,2,7,6,66,4,36,61,23,41,72,54,34,37,57",,,,,,,,,,
land,310,837250,0.0-89.0-2.0,,null,run_exp/static/images/task_images/land.jpg,null,,,,,,101,,,18,,,,,,,,,,,,,,
dig,311,839257,0.0-89.0-3.0,,,,,,,,,,,"[{""stimulus"":""run_exp/static/images/task_images/dig.jpg"",""time"":0.20000004768371582},{""stimulus"":""run_exp/static/images/task_images/land.jpg"",""time"":682.9000000953674},{""stimulus"":""run_exp/static/images/task_images/dig.jpg"",""time"":1337.7000000476837}]",[],18,,,,,,,,,,,,,,
harvest,312,840268,0.0-89.0-4.0,,null,run_exp/static/images/task_images/gems/101.jpg,null,,,,,,85,,,18,,,,,101,0.843108518,0.841584158,,,,,,,
decision,313,840555,0.0-89.0-5.0,,285.3,run_exp/static/images/task_images/land.jpg,65,,,,,,85,,,18,,,,,,,,200538,2,0,FALSE,,,
dig,314,843279,0.0-90.0-0.0,,,,,,,,,,,"[{""stimulus"":""run_exp/static/images/task_images/dig.jpg"",""time"":0},{""stimulus"":""run_exp/static/images/task_images/land.jpg"",""time"":920.2999999523163},{""stimulus"":""run_exp/static/images/task_images/dig.jpg"",""time"":1819.3999998569489}]",[],18,,,,,,,,,,,,,,
harvest,315,844281,0.0-90.0-1.0,,null,run_exp/static/images/task_images/gems/85.jpg,null,,,,,,74,,,18,,,,,85,0.869839885,0.870588235,,,,,,,
decision,316,844549,0.0-90.0-2.0,,267.3,run_exp/static/images/task_images/land.jpg,65,,,,,,74,,,18,,,,,,,,204532,2,1,FALSE,,,
dig,317,847293,0.0-91.0-0.0,,,,,,,,,,,"[{""stimulus"":""run_exp/static/images/task_images/dig.jpg"",""time"":0.09999990463256836},{""stimulus"":""run_exp/static/images/task_images/land.jpg"",""time"":922.0999999046326},{""stimulus"":""run_exp/static/images/task_images/dig.jpg"",""time"":1822.6999998092651}]",[],18,,,,,,,,,,,,,,
harvest,318,848302,0.0-91.0-1.0,,null,run_exp/static/images/task_images/gems/74.jpg,null,,,,,,54,,,18,,,,,74,0.731589232,0.72972973,,,,,,,
decision,319,848524,0.0-91.0-2.0,,221.4000001,run_exp/static/images/task_images/land.jpg,65,,,,,,54,,,18,,,,,,,,208507,2,2,FALSE,,,
dig,320,851316,0.0-92.0-0.0,,,,,,,,,,,"[{""stimulus"":""run_exp/static/images/task_images/dig.jpg"",""time"":0.09999990463256836},{""stimulus"":""run_exp/static/images/task_images/land.jpg"",""time"":940},{""stimulus"":""run_exp/static/images/task_images/dig.jpg"",""time"":1857.7000000476837}]",[],18,,,,,,,,,,,,,,
harvest,321,852327,0.0-92.0-1.0,,null,run_exp/static/images/task_images/gems/54.jpg,null,,,,,,47,,,18,,,,,54,0.875174327,0.87037037,,,,,,,
decision,322,852672,0.0-92.0-2.0,,344.0999999,run_exp/static/images/task_images/land.jpg,65,,,,,,47,,,18,,,,,,,,212655,2,3,FALSE,,,
dig,323,855342,0.0-93.0-0.0,,,,,,,,,,,"[{""stimulus"":""run_exp/static/images/task_images/dig.jpg"",""time"":0.09999990463256836},{""stimulus"":""run_exp/static/images/task_images/land.jpg"",""time"":896.5999999046326},{""stimulus"":""run_exp/static/images/task_images/dig.jpg"",""time"":1783.8999998569489}]",[],18,,,,,,,,,,,,,,
harvest,324,856353,0.0-93.0-1.0,,null,run_exp/static/images/task_images/gems/47.jpg,null,,,,,,36,,,18,,,,,47,0.763948461,0.765957447,,,,,,,
decision,325,856354,0.0-93.0-2.0,,0,run_exp/static/images/task_images/land.jpg,65,,,,,,36,,,18,,,,,,,,216337,2,4,FALSE,,,
dig,326,859357,0.0-94.0-0.0,,,,,,,,,,,"[{""stimulus"":""run_exp/static/images/task_images/dig.jpg"",""time"":0.19999980926513672},{""stimulus"":""run_exp/static/images/task_images/land.jpg"",""time"":1008.0999999046326},{""stimulus"":""run_exp/static/images/task_images/dig.jpg"",""time"":2003.7999999523163}]",[],18,,,,,,,,,,,,,,
harvest,327,860371,0.0-94.0-1.0,,null,run_exp/static/images/task_images/gems/36.jpg,null,,,,,,31,,,18,,,,,36,0.873271933,0.861111111,,,,,,,
decision,328,860483,0.0-94.0-2.0,,111.5999999,run_exp/static/images/task_images/land.jpg,76,,,,,,31,,,18,,,,,,,,220467,2,5,TRUE,,,
travel,329,870371,0.0-95.0-0.0,,,,,,,,,,,"[{""stimulus"":""run_exp/static/images/task_images/rocket-01.jpg"",""time"":0.10000014305114746},{""stimulus"":""run_exp/static/images/task_images/rocket-02.jpg"",""time"":1108.7999999523163},{""stimulus"":""run_exp/static/images/task_images/rocket-03.jpg"",""time"":2199.5},{""stimulus"":""run_exp/static/images/task_images/rocket-04.jpg"",""time"":3299.600000143051},{""stimulus"":""run_exp/static/images/task_images/rocket-05.jpg"",""time"":4405.700000047684},{""stimulus"":""run_exp/static/images/task_images/rocket-06.jpg"",""time"":5495.700000047684},{""stimulus"":""run_exp/static/images/task_images/rocket-07.jpg"",""time"":6601.700000047684},{""stimulus"":""run_exp/static/images/task_images/rocket-08.jpg"",""time"":7690.900000095367},{""stimulus"":""run_exp/static/images/task_images/rocket-09.jpg"",""time"":8796.700000047684}]",[],18,,,,,,,,,,,,,,
alien_welcome,330,875379,0.0-95.0-1.0,,null,run_exp/static/images/task_images/aliens/old_aliens/planet/alien_planet-20.jpg,null,,,,,,,,,,,,20,"56,9,47,33,65,40,22,1,13,30,58,50,39,46,21,35,52,28,20,45,77,75,29,44,73,15,70,5,2,7,6,66,4,36,61,23,41,72,54,34,37,57",,,,,,,,,,
land,331,875893,0.0-95.0-2.0,,null,run_exp/static/images/task_images/land.jpg,null,,,,,,99,,,19,,,,,,,,,,,,,,
dig,332,877903,0.0-95.0-3.0,,,,,,,,,,,"[{""stimulus"":""run_exp/static/images/task_images/dig.jpg"",""time"":0.20000004768371582},{""stimulus"":""run_exp/static/images/task_images/land.jpg"",""time"":668.6000001430511},{""stimulus"":""run_exp/static/images/task_images/dig.jpg"",""time"":1337.7999999523163}]",[],19,,,,,,,,,,,,,,
harvest,333,878913,0.0-95.0-4.0,,null,run_exp/static/images/task_images/gems/99.jpg,null,,,,,,88,,,19,,,,,99,0.893156714,0.888888889,,,,,,,
decision,334,879039,0.0-95.0-5.0,,124.3,run_exp/static/images/task_images/land.jpg,65,,,,,,88,,,19,,,,,,,,239022,2,0,FALSE,,,
dig,335,881920,0.0-96.0-0.0,,,,,,,,,,,"[{""stimulus"":""run_exp/static/images/task_images/dig.jpg"",""time"":0.10000014305114746},{""stimulus"":""run_exp/static/images/task_images/land.jpg"",""time"":970.6000001430511},{""stimulus"":""run_exp/static/images/task_images/dig.jpg"",""time"":1918.3000001907349}]",[],19,,,,,,,,,,,,,,
harvest,336,882927,0.0-96.0-1.0,,null,run_exp/static/images/task_images/gems/88.jpg,null,,,,,,66,,,19,,,,,88,0.753594383,0.75,,,,,,,
decision,337,882974,0.0-96.0-2.0,,46,run_exp/static/images/task_images/land.jpg,65,,,,,,66,,,19,,,,,,,,242957,2,1,FALSE,,,
dig,338,885945,0.0-97.0-0.0,,,,,,,,,,,"[{""stimulus"":""run_exp/static/images/task_images/dig.jpg"",""time"":0},{""stimulus"":""run_exp/static/images/task_images/land.jpg"",""time"":989.5999999046326},{""stimulus"":""run_exp/static/images/task_images/dig.jpg"",""time"":1973.0999999046326}]",[],19,,,,,,,,,,,,,,
harvest,339,886961,0.0-97.0-1.0,,null,run_exp/static/images/task_images/gems/66.jpg,null,,,,,,56,,,19,,,,,66,0.847583022,0.848484848,,,,,,,
decision,340,887154,0.0-97.0-2.0,,191.7,run_exp/static/images/task_images/land.jpg,65,,,,,,56,,,19,,,,,,,,247137,2,2,FALSE,,,
dig,341,889976,0.0-98.0-0.0,,,,,,,,,,,"[{""stimulus"":""run_exp/static/images/task_images/dig.jpg"",""time"":0.09999990463256836},{""stimulus"":""run_exp/static/images/task_images/land.jpg"",""time"":941.0999999046326},{""stimulus"":""run_exp/static/images/task_images/dig.jpg"",""time"":1887.2999999523163}]",[],19,,,,,,,,,,,,,,
harvest,342,890983,0.0-98.0-1.0,,null,run_exp/static/images/task_images/gems/56.jpg,null,,,,,,47,,,19,,,,,56,0.845160165,0.839285714,,,,,,,
decision,343,891328,0.0-98.0-2.0,,344.4000001,run_exp/static/images/task_images/land.jpg,65,,,,,,47,,,19,,,,,,,,251311,2,3,FALSE,,,
dig,344,894000,0.0-99.0-0.0,,,,,,,,,,,"[{""stimulus"":""run_exp/static/images/task_images/dig.jpg"",""time"":0.09999990463256836},{""stimulus"":""run_exp/static/images/task_images/land.jpg"",""time"":885.5},{""stimulus"":""run_exp/static/images/task_images/dig.jpg"",""time"":1771.8999998569489}]",[],19,,,,,,,,,,,,,,
harvest,345,895013,0.0-99.0-1.0,,null,run_exp/static/images/task_images/gems/47.jpg,null,,,,,,36,,,19,,,,,47,0.764438691,0.765957447,,,,,,,
decision,346,895248,0.0-99.0-2.0,,234.4000001,run_exp/static/images/task_images/land.jpg,65,,,,,,36,,,19,,,,,,,,255231,2,4,FALSE,,,
dig,347,898028,0.0-100.0-0.0,,,,,,,,,,,"[{""stimulus"":""run_exp/static/images/task_images/dig.jpg"",""time"":0.09999990463256836},{""stimulus"":""run_exp/static/images/task_images/land.jpg"",""time"":930},{""stimulus"":""run_exp/static/images/task_images/dig.jpg"",""time"":1843.7000000476837}]",[],19,,,,,,,,,,,,,,
harvest,348,899037,0.0-100.0-1.0,,null,run_exp/static/images/task_images/gems/36.jpg,null,,,,,,28,,,19,,,,,36,0.769108562,0.777777778,,,,,,,
decision,349,899076,0.0-100.0-2.0,,37.89999986,run_exp/static/images/task_images/land.jpg,76,,,,,,28,,,19,,,,,,,,259059,2,5,TRUE,,,
travel,350,909041,0.0-101.0-0.0,,,,,,,,,,,"[{""stimulus"":""run_exp/static/images/task_images/rocket-01.jpg"",""time"":0.10000014305114746},{""stimulus"":""run_exp/static/images/task_images/rocket-02.jpg"",""time"":1111.7000000476837},{""stimulus"":""run_exp/static/images/task_images/rocket-03.jpg"",""time"":2213.9000000953674},{""stimulus"":""run_exp/static/images/task_images/rocket-04.jpg"",""time"":3334},{""stimulus"":""run_exp/static/images/task_images/rocket-05.jpg"",""time"":4438.600000143051},{""stimulus"":""run_exp/static/images/task_images/rocket-06.jpg"",""time"":5541.100000143051},{""stimulus"":""run_exp/static/images/task_images/rocket-07.jpg"",""time"":6647.400000095367},{""stimulus"":""run_exp/static/images/task_images/rocket-08.jpg"",""time"":7753.600000143051},{""stimulus"":""run_exp/static/images/task_images/rocket-09.jpg"",""time"":8857.800000190735}]",[],19,,,,,,,,,,,,,,
alien_welcome,351,914053,0.0-101.0-1.0,,null,run_exp/static/images/task_images/aliens/old_aliens/planet/alien_planet-45.jpg,null,,,,,,,,,,,,45,"56,9,47,33,65,40,22,1,13,30,58,50,39,46,21,35,52,28,20,45,77,75,29,44,73,15,70,5,2,7,6,66,4,36,61,23,41,72,54,34,37,57",,,,,,,,,,
land,352,914570,0.0-101.0-2.0,,null,run_exp/static/images/task_images/land.jpg,null,,,,,,99,,,20,,,,,,,,,,,,,,
dig,353,916577,0.0-101.0-3.0,,,,,,,,,,,"[{""stimulus"":""run_exp/static/images/task_images/dig.jpg"",""time"":0.2999999523162842},{""stimulus"":""run_exp/static/images/task_images/land.jpg"",""time"":682.7999999523163},{""stimulus"":""run_exp/static/images/task_images/dig.jpg"",""time"":1337.4000000953674}]",[],20,,,,,,,,,,,,,,
harvest,354,917586,0.0-101.0-4.0,,null,run_exp/static/images/task_images/gems/99.jpg,null,,,,,,53,,,20,,,,,99,0.53595728,0.535353535,,,,,,,
decision,355,917906,0.0-101.0-5.0,,318.1000001,run_exp/static/images/task_images/land.jpg,65,,,,,,53,,,20,,,,,,,,277889,2,0,FALSE,,,
dig,356,920597,0.0-102.0-0.0,,,,,,,,,,,"[{""stimulus"":""run_exp/static/images/task_images/dig.jpg"",""time"":0.10000014305114746},{""stimulus"":""run_exp/static/images/task_images/land.jpg"",""time"":899.4000000953674},{""stimulus"":""run_exp/static/images/task_images/dig.jpg"",""time"":1800.1000001430511}]",[],20,,,,,,,,,,,,,,
harvest,357,921610,0.0-102.0-1.0,,null,run_exp/static/images/task_images/gems/53.jpg,null,,,,,,31,,,20,,,,,53,0.580526992,0.58490566,,,,,,,
decision,358,921890,0.0-102.0-2.0,,279.2,run_exp/static/images/task_images/land.jpg,65,,,,,,31,,,20,,,,,,,,281873,2,1,FALSE,,,
dig,359,924622,0.0-103.0-0.0,,,,,,,,,,,"[{""stimulus"":""run_exp/static/images/task_images/dig.jpg"",""time"":0.10000014305114746},{""stimulus"":""run_exp/static/images/task_images/land.jpg"",""time"":911.4000000953674},{""stimulus"":""run_exp/static/images/task_images/dig.jpg"",""time"":1826.5}]",[],20,,,,,,,,,,,,,,
harvest,360,925635,0.0-103.0-1.0,,null,run_exp/static/images/task_images/gems/31.jpg,null,,,,,,16,,,20,,,,,31,0.503179329,0.516129032,,,,,,,
decision,361,925685,0.0-103.0-2.0,,48.19999981,run_exp/static/images/task_images/land.jpg,76,,,,,,16,,,20,,,,,,,,285668,2,2,TRUE,,,
travel,362,935641,0.0-104.0-0.0,,,,,,,,,,,"[{""stimulus"":""run_exp/static/images/task_images/rocket-01.jpg"",""time"":0.09999990463256836},{""stimulus"":""run_exp/static/images/task_images/rocket-02.jpg"",""time"":1116.7999999523163},{""stimulus"":""run_exp/static/images/task_images/rocket-03.jpg"",""time"":2220.4000000953674},{""stimulus"":""run_exp/static/images/task_images/rocket-04.jpg"",""time"":3323.9000000953674},{""stimulus"":""run_exp/static/images/task_images/rocket-05.jpg"",""time"":4427.700000047684},{""stimulus"":""run_exp/static/images/task_images/rocket-06.jpg"",""time"":5536.400000095367},{""stimulus"":""run_exp/static/images/task_images/rocket-07.jpg"",""time"":6636.5},{""stimulus"":""run_exp/static/images/task_images/rocket-08.jpg"",""time"":7742.799999952316},{""stimulus"":""run_exp/static/images/task_images/rocket-09.jpg"",""time"":8848}]",[],20,,,,,,,,,,,,,,
alien_welcome,363,940648,0.0-104.0-1.0,,null,run_exp/static/images/task_images/aliens/old_aliens/planet/alien_planet-77.jpg,null,,,,,,,,,,,,77,"56,9,47,33,65,40,22,1,13,30,58,50,39,46,21,35,52,28,20,45,77,75,29,44,73,15,70,5,2,7,6,66,4,36,61,23,41,72,54,34,37,57",,,,,,,,,,
land,364,941161,0.0-104.0-2.0,,null,run_exp/static/images/task_images/land.jpg,null,,,,,,94,,,21,,,,,,,,,,,,,,
dig,365,943168,0.0-104.0-3.0,,,,,,,,,,,"[{""stimulus"":""run_exp/static/images/task_images/dig.jpg"",""time"":0.09999990463256836},{""stimulus"":""run_exp/static/images/task_images/land.jpg"",""time"":683.2999999523163},{""stimulus"":""run_exp/static/images/task_images/dig.jpg"",""time"":1338.4000000953674}]",[],21,,,,,,,,,,,,,,
harvest,366,944183,0.0-104.0-4.0,,null,run_exp/static/images/task_images/gems/94.jpg,null,,,,,,73,,,21,,,,,94,0.778946497,0.776595745,,,,,,,
decision,367,944339,0.0-104.0-5.0,,155.8,run_exp/static/images/task_images/land.jpg,65,,,,,,73,,,21,,,,,,,,304322,2,0,TRUE,,,
end_of_block_continue,368,947449,0.0-105.0-0.0,,3107.5,run_exp/static/audio/clip_32_block_end.m4a,,,,,,0,,,,,,,,,,,,,,,,,,
alien_welcome,369,952462,0.0-106.0-0.0,,null,run_exp/static/images/task_images/aliens/old_aliens/planet/alien_planet-75.jpg,null,,,,,,,,,,,,75,"56,9,47,33,65,40,22,1,13,30,58,50,39,46,21,35,52,28,20,45,77,75,29,44,73,15,70,5,2,7,6,66,4,36,61,23,41,72,54,34,37,57",,,,,,,,,,
land,370,952975,0.0-106.0-1.0,,null,run_exp/static/images/task_images/land.jpg,null,,,,,,101,,,22,,,,,,,,,,,,,,
dig,371,954981,0.0-106.0-2.0,,,,,,,,,,,"[{""stimulus"":""run_exp/static/images/task_images/dig.jpg"",""time"":0.20000004768371582},{""stimulus"":""run_exp/static/images/task_images/land.jpg"",""time"":683.4000000953674},{""stimulus"":""run_exp/static/images/task_images/dig.jpg"",""time"":1350.5999999046326}]",[],22,,,,,,,,,,,,,,
harvest,372,955991,0.0-106.0-3.0,,null,run_exp/static/images/task_images/gems/101.jpg,null,,,,,,49,,,22,,,,,101,0.482713083,0.485148515,,,,,,,
decision,373,956287,0.0-106.0-4.0,,295.5,run_exp/static/images/task_images/land.jpg,65,,,,,,49,,,22,,,,,,,,8837,3,0,FALSE,,,
dig,374,959009,0.0-107.0-0.0,,,,,,,,,,,"[{""stimulus"":""run_exp/static/images/task_images/dig.jpg"",""time"":0.10000014305114746},{""stimulus"":""run_exp/static/images/task_images/land.jpg"",""time"":901.7000000476837},{""stimulus"":""run_exp/static/images/task_images/dig.jpg"",""time"":1817.9000000953674}]",[],22,,,,,,,,,,,,,,
harvest,375,960018,0.0-107.0-1.0,,null,run_exp/static/images/task_images/gems/49.jpg,null,,,,,,27,,,22,,,,,49,0.547039238,0.551020408,,,,,,,
decision,376,960259,0.0-107.0-2.0,,240.4000001,run_exp/static/images/task_images/land.jpg,65,,,,,,27,,,22,,,,,,,,12809,3,1,FALSE,,,
dig,377,963034,0.0-108.0-0.0,,,,,,,,,,,"[{""stimulus"":""run_exp/static/images/task_images/dig.jpg"",""time"":0.09999990463256836},{""stimulus"":""run_exp/static/images/task_images/land.jpg"",""time"":925.2000000476837},{""stimulus"":""run_exp/static/images/task_images/dig.jpg"",""time"":1840}]",[],22,,,,,,,,,,,,,,
harvest,378,964049,0.0-108.0-1.0,,null,run_exp/static/images/task_images/gems/27.jpg,null,,,,,,15,,,22,,,,,27,0.538458054,0.555555556,,,,,,,
decision,379,964199,0.0-108.0-2.0,,148.8999999,run_exp/static/images/task_images/land.jpg,76,,,,,,15,,,22,,,,,,,,16749,3,2,TRUE,,,
travel,380,974061,0.0-109.0-0.0,,,,,,,,,,,"[{""stimulus"":""run_exp/static/images/task_images/rocket-01.jpg"",""time"":0.09999990463256836},{""stimulus"":""run_exp/static/images/task_images/rocket-02.jpg"",""time"":1107.0999999046326},{""stimulus"":""run_exp/static/images/task_images/rocket-03.jpg"",""time"":2197.699999809265},{""stimulus"":""run_exp/static/images/task_images/rocket-04.jpg"",""time"":3284.5999999046326},{""stimulus"":""run_exp/static/images/task_images/rocket-05.jpg"",""time"":4389.699999809265},{""stimulus"":""run_exp/static/images/task_images/rocket-06.jpg"",""time"":5480.099999904633},{""stimulus"":""run_exp/static/images/task_images/rocket-07.jpg"",""time"":6566.899999856949},{""stimulus"":""run_exp/static/images/task_images/rocket-08.jpg"",""time"":7669.199999809265},{""stimulus"":""run_exp/static/images/task_images/rocket-09.jpg"",""time"":8758.599999904633}]",[],22,,,,,,,,,,,,,,
alien_welcome,381,979068,0.0-109.0-1.0,,null,run_exp/static/images/task_images/aliens/old_aliens/planet/alien_planet-29.jpg,null,,,,,,,,,,,,29,"56,9,47,33,65,40,22,1,13,30,58,50,39,46,21,35,52,28,20,45,77,75,29,44,73,15,70,5,2,7,6,66,4,36,61,23,41,72,54,34,37,57",,,,,,,,,,
land,382,979576,0.0-109.0-2.0,,null,run_exp/static/images/task_images/land.jpg,null,,,,,,99,,,23,,,,,,,,,,,,,,
dig,383,981580,0.0-109.0-3.0,,,,,,,,,,,"[{""stimulus"":""run_exp/static/images/task_images/dig.jpg"",""time"":0.20000004768371582},{""stimulus"":""run_exp/static/images/task_images/land.jpg"",""time"":669},{""stimulus"":""run_exp/static/images/task_images/dig.jpg"",""time"":1337.3000001907349}]",[],23,,,,,,,,,,,,,,
harvest,384,982590,0.0-109.0-4.0,,null,run_exp/static/images/task_images/gems/99.jpg,null,,,,,,75,,,23,,,,,99,0.752793794,0.757575758,,,,,,,
decision,385,982667,0.0-109.0-5.0,,75.70000005,run_exp/static/images/task_images/land.jpg,65,,,,,,75,,,23,,,,,,,,35217,3,0,FALSE,,,
dig,386,985605,0.0-110.0-0.0,,,,,,,,,,,"[{""stimulus"":""run_exp/static/images/task_images/dig.jpg"",""time"":0.10000014305114746},{""stimulus"":""run_exp/static/images/task_images/land.jpg"",""time"":978.6000001430511},{""stimulus"":""run_exp/static/images/task_images/dig.jpg"",""time"":1955.4000000953674}]",[],23,,,,,,,,,,,,,,
harvest,387,986615,0.0-110.0-1.0,,null,run_exp/static/images/task_images/gems/75.jpg,null,,,,,,58,,,23,,,,,75,0.779179621,0.773333333,,,,,,,
decision,388,986653,0.0-110.0-2.0,,36.89999986,run_exp/static/images/task_images/land.jpg,65,,,,,,58,,,23,,,,,,,,39203,3,1,FALSE,,,
dig,389,989628,0.0-111.0-0.0,,,,,,,,,,,"[{""stimulus"":""run_exp/static/images/task_images/dig.jpg"",""time"":0.10000014305114746},{""stimulus"":""run_exp/static/images/task_images/land.jpg"",""time"":999.2000000476837},{""stimulus"":""run_exp/static/images/task_images/dig.jpg"",""time"":1977.5}]",[],23,,,,,,,,,,,,,,
harvest,390,990635,0.0-111.0-1.0,,null,run_exp/static/images/task_images/gems/58.jpg,null,,,,,,45,,,23,,,,,58,0.767470681,0.775862069,,,,,,,
decision,391,990702,0.0-111.0-2.0,,65.89999986,run_exp/static/images/task_images/land.jpg,65,,,,,,45,,,23,,,,,,,,43252,3,2,FALSE,,,
dig,392,993650,0.0-112.0-0.0,,,,,,,,,,,"[{""stimulus"":""run_exp/static/images/task_images/dig.jpg"",""time"":0},{""stimulus"":""run_exp/static/images/task_images/land.jpg"",""time"":987.6000001430511},{""stimulus"":""run_exp/static/images/task_images/dig.jpg"",""time"":1968.5}]",[],23,,,,,,,,,,,,,,
harvest,393,994660,0.0-112.0-1.0,,null,run_exp/static/images/task_images/gems/45.jpg,null,,,,,,35,,,23,,,,,45,0.772765452,0.777777778,,,,,,,
