trial_type,trial_index,time_elapsed,internal_node_id,interactions,blur_events,focus_events,fullscreenenter_events,fullscreenexit_events,success,rt,stimulus,key_press,prompt,subject_id,participant_id,age,gender,button_pressed,next_reward,animation_sequence,responses,planet,curr_prac_trial,n_prac_rounds,alien,aliens,reward_received,decay_rate_actual,decay_rate_exp,time_in_block,block_num,prt,last_trial_on_planet,button_html,bonus,num_failures
pavlovia,0,3,0.0-0.0,"""event"",""trial"",""time""
""fullscreenenter"",""1"",""7036""
","
","
","""event"",""trial"",""time""
""fullscreenenter"",""1"",""7036""
","
",,,,,,,,,,,,,,,,,,,,,,,,,,,,
fullscreen,1,8027,0.0-1.0,"""event"",""trial"",""time""
""fullscreenenter"",""1"",""7036""
","
","
","""event"",""trial"",""time""
""fullscreenenter"",""1"",""7036""
","
",TRUE,,,,,,,,,,,,,,,,,,,,,,,,,,,
instruc_welcome,2,18112,0.0-2.0,"""event"",""trial"",""time""
""fullscreenenter"",""1"",""7036""
","
","
","""event"",""trial"",""time""
""fullscreenenter"",""1"",""7036""
","
",,null,run_exp/static/audio/clip_1_welcome.m4a,null,"<p>Howdy! In this experiment, you’ll be an explorer traveling through space to collect space treasure.</p><p>Your mission is to collect as much treasure as possible.</p><br><br><p><img src='run_exp/static/images/task_images/opening_img-01.jpg' height='300' width='auto'></p>",8918,3992,22.83,Male,,,,,,,,,,,,,,,,,,,
audio-keyboard-response,3,34712,0.0-3.0,"""event"",""trial"",""time""
""fullscreenenter"",""1"",""7036""
","
","
","""event"",""trial"",""time""
""fullscreenenter"",""1"",""7036""
","
",,null,run_exp/static/audio/clip_2_move.m4a,null,,,,,,,,,,,,,,,,,,,,,,,,
welcome_dec,4,38892,0.0-4.0,"""event"",""trial"",""time""
""fullscreenenter"",""1"",""7036""
","
","
","""event"",""trial"",""time""
""fullscreenenter"",""1"",""7036""
","
",,4177.1,"<p>Howdy! In this experiment, you’ll be an explorer traveling through space to collect space treasure.</p><p>Your mission is to collect as much treasure as possible.</p><br><br><p><img src='run_exp/static/images/task_images/opening_img-01.jpg' height='300' width='auto'></p>",,,,,,,1,,,,,,,,,,,,,,,,,,
html-keyboard-response,5,40285,0.0-5.0,"""event"",""trial"",""time""
""fullscreenenter"",""1"",""7036""
","
","
","""event"",""trial"",""time""
""fullscreenenter"",""1"",""7036""
","
",,1391.5,"<p>Howdy! In this experiment, you’ll be an explorer traveling through space to collect space treasure.</p><p>Your mission is to collect as much treasure as possible.</p><br><br><p><img src='run_exp/static/images/task_images/opening_img-01.jpg' height='300' width='auto'></p><button class=""jspsych-html-btn-unchosen""><img src=""run_exp/static/images/task_images/planet-01.jpg"" height=""50""></button><button class=""jspsych-html-btn-chosen""><img src=""run_exp/static/images/task_images/planet-02.jpg"" height=""50""></button><p><b>[press the space bar to lock in your answer]<b><br></p>",32,,,,,,,,,,,,,,,,,,,,,,,,
instruc_goal,6,50351,0.0-6.0-0.0,"""event"",""trial"",""time""
""fullscreenenter"",""1"",""7036""
","
","
","""event"",""trial"",""time""
""fullscreenenter"",""1"",""7036""
","
",,null,run_exp/static/audio/clip_3_goal.m4a,null,"<p> As a space explorer, you’ll visit different planets to dig for space treasure, these pink gems.</p> <p> The more treasure you dig up, the more bonus money you’ll win! </p><br><br><p><img src='run_exp/static/images/task_images/pink_gem.jpg' height='300' width='auto'></p>",,,,,,,,,,,,,,,,,,,,,,,
instruc_goal,7,51821,0.0-6.0-1.0,"""event"",""trial"",""time""
""fullscreenenter"",""1"",""7036""
","
","
","""event"",""trial"",""time""
""fullscreenenter"",""1"",""7036""
","
",,1466.6,"<p> As a space explorer, you’ll visit different planets to dig for space treasure, these pink gems.</p> <p> The more treasure you dig up, the more bonus money you’ll win! </p><br><br><p><img src='run_exp/static/images/task_images/pink_gem.jpg' height='300' width='auto'></p>",,,,,,,1,,,,,,,,,,,,,,,,,,
html-keyboard-response,8,52220,0.0-6.0-2.0,"""event"",""trial"",""time""
""fullscreenenter"",""1"",""7036""
","
","
","""event"",""trial"",""time""
""fullscreenenter"",""1"",""7036""
","
",,398,"<p> As a space explorer, you’ll visit different planets to dig for space treasure, these pink gems.</p> <p> The more treasure you dig up, the more bonus money you’ll win! </p><br><br><p><img src='run_exp/static/images/task_images/pink_gem.jpg' height='300' width='auto'></p><button class=""jspsych-html-btn-unchosen""><img src=""run_exp/static/images/task_images/planet-01.jpg"" height=""50""></button><button class=""jspsych-html-btn-chosen""><img src=""run_exp/static/images/task_images/planet-02.jpg"" height=""50""></button><p><b>[press the space bar to lock in your answer]<b><br></p>",32,,,,,,,,,,,,,,,,,,,,,,,,
instruc_dig,9,68231,0.0-7.0-0.0,"""event"",""trial"",""time""
""fullscreenenter"",""1"",""7036""
","
","
","""event"",""trial"",""time""
""fullscreenenter"",""1"",""7036""
","
",,null,run_exp/static/audio/clip_4_dig.m4a,null,,,,,,,100,,,,,,,,,,,,,,,,,
instruc_dig_try,10,69101,0.0-7.0-1.0,"""event"",""trial"",""time""
""fullscreenenter"",""1"",""7036""
","
","
","""event"",""trial"",""time""
""fullscreenenter"",""1"",""7036""
","
",,867.8,"<p> When you’ve arrived at a new planet, you will dig once. </p> <p>Then, you get to decide if you want to stay on the planet and dig again or travel to a new planet and dig there.</p> <p> To stay and dig, press the letter <strong>‘A’</strong> on your keyboard. Try pressing it now! </p><p><img src='run_exp/static/images/task_images/land.jpg'  height='700' width='auto'></p>",65,"<p> When you’ve arrived at a new planet, you will dig once. </p> <p>Then, you get to decide if you want to stay on the planet and dig again or travel to a new planet and dig there.</p> <p> To stay and dig, press the letter <strong>‘A’</strong> on your keyboard. Try pressing it now! </p><p><img src='run_exp/static/images/task_images/land.jpg'  height='700' width='auto'></p>",,,,,,100,,,,,,,,,,,,,,,,,
dig_prac,11,71112,0.0-7.0-2.0,"""event"",""trial"",""time""
""fullscreenenter"",""1"",""7036""
","
","
","""event"",""trial"",""time""
""fullscreenenter"",""1"",""7036""
","
",,,,,,,,,,,,"[{""stimulus"":""run_exp/static/images/task_images/dig.jpg"",""time"":0.40000009536743164},{""stimulus"":""run_exp/static/images/task_images/land.jpg"",""time"":679.5},{""stimulus"":""run_exp/static/images/task_images/dig.jpg"",""time"":1336.1000001430511}]",[],,,,,,,,,,,,,,,
instruc_travel,12,107352,0.0-7.0-3.0,"""event"",""trial"",""time""
""fullscreenenter"",""1"",""7036""
","
","
","""event"",""trial"",""time""
""fullscreenenter"",""1"",""7036""
","
",,null,run_exp/static/audio/clip_5_travel.m4a,null,"<p>Every time you dig up gems, there are less gems on the planet, so the more you dig on a planet the fewer gems you’ll get with each dig.</p><p>When gems are running low, you may want to travel to a new planet. </p> <p>  Planets are very far apart in this galaxy, so it will take some time to travel between them. </p> <br><p>There are lots and lots of planets for you to visit, so you won’t be able to return to any planets you’ve seen before. </p><br><p>To leave this planet and travel to a new one, press the letter <strong>‘L’</strong> on your keyboard. Try pressing it now! </p><p><img src='run_exp/static/images/task_images/rocket-01.jpg'  height='600' width='auto'></p>",,,,,,,,,,,,,,,,,,,,,,,
instruc_travel_try,13,108012,0.0-7.0-4.0,"""event"",""trial"",""time""
""fullscreenenter"",""1"",""7036""
","
","
","""event"",""trial"",""time""
""fullscreenenter"",""1"",""7036""
","
",,659.8,"<p>Every time you dig up gems, there are less gems on the planet, so the more you dig on a planet the fewer gems you’ll get with each dig.</p><p>When gems are running low, you may want to travel to a new planet. </p> <p>  Planets are very far apart in this galaxy, so it will take some time to travel between them. </p> <br><p>There are lots and lots of planets for you to visit, so you won’t be able to return to any planets you’ve seen before. </p><br><p>To leave this planet and travel to a new one, press the letter <strong>‘L’</strong> on your keyboard. Try pressing it now! </p><p><img src='run_exp/static/images/task_images/rocket-01.jpg'  height='600' width='auto'></p>",76,"<p>Every time you dig up gems, there are less gems on the planet, so the more you dig on a planet the fewer gems you’ll get with each dig.</p><p>When gems are running low, you may want to travel to a new planet. </p> <p>  Planets are very far apart in this galaxy, so it will take some time to travel between them. </p> <br><p>There are lots and lots of planets for you to visit, so you won’t be able to return to any planets you’ve seen before. </p><br><p>To leave this planet and travel to a new one, press the letter <strong>‘L’</strong> on your keyboard. Try pressing it now! </p><p><img src='run_exp/static/images/task_images/rocket-01.jpg'  height='600' width='auto'></p>",,,,,,,,,,,,,,,,,,,,,,,
travel_prac,14,118021,0.0-7.0-5.0,"""event"",""trial"",""time""
""fullscreenenter"",""1"",""7036""
","
","
","""event"",""trial"",""time""
""fullscreenenter"",""1"",""7036""
","
",,,,,,,,,,,,"[{""stimulus"":""run_exp/static/images/task_images/rocket-01.jpg"",""time"":0.39999985694885254},{""stimulus"":""run_exp/static/images/task_images/rocket-02.jpg"",""time"":1127.7000000476837},{""stimulus"":""run_exp/static/images/task_images/rocket-03.jpg"",""time"":2226.5},{""stimulus"":""run_exp/static/images/task_images/rocket-04.jpg"",""time"":3341},{""stimulus"":""run_exp/static/images/task_images/rocket-05.jpg"",""time"":4461.299999952316},{""stimulus"":""run_exp/static/images/task_images/rocket-06.jpg"",""time"":5562.5},{""stimulus"":""run_exp/static/images/task_images/rocket-07.jpg"",""time"":6671.799999952316},{""stimulus"":""run_exp/static/images/task_images/rocket-08.jpg"",""time"":7783},{""stimulus"":""run_exp/static/images/task_images/rocket-09.jpg"",""time"":8892.399999856949}]",[],0,,,,,,,,,,,,,,
instruc_alien_greet,15,145200,0.0-7.0-6.0,"""event"",""trial"",""time""
""fullscreenenter"",""1"",""7036""
","
","
","""event"",""trial"",""time""
""fullscreenenter"",""1"",""7036""
","
",,null,run_exp/static/audio/clip_6_alien.m4a,null,"<p>When you arrive at a new planet, the alien who owns the treasure mine on that planet will greet you!</p><p>The better an alien takes care of their mine the easier it is to dig for gems. Some aliens take better care of their mine than others. So, you won’t get exactly the same amount of gems on each planet.</p><p>What the alien looks like does not tell you anything about how many gems there are on the planet.</p><br><p><img src=""run_exp/static/images/task_images/aliens/instructions_aliens/planet/alien_planet-1.jpg""  height=""600"" width=""auto""></p>",,,,,,,,,,,,,,,,,,,,,,,
instruc_alien_greet,16,147609,0.0-7.0-7.0,"""event"",""trial"",""time""
""fullscreenenter"",""1"",""7036""
","
","
","""event"",""trial"",""time""
""fullscreenenter"",""1"",""7036""
","
",,2407.1,"<p>When you arrive at a new planet, the alien who owns the treasure mine on that planet will greet you!</p><p>The better an alien takes care of their mine the easier it is to dig for gems. Some aliens take better care of their mine than others. So, you won’t get exactly the same amount of gems on each planet.</p><p>What the alien looks like does not tell you anything about how many gems there are on the planet.</p><br><p><img src=""run_exp/static/images/task_images/aliens/instructions_aliens/planet/alien_planet-1.jpg""  height=""600"" width=""auto""></p>",,,,,,,1,,,,,,,,,,,,,,,,,,
html-keyboard-response,17,148170,0.0-7.0-8.0,"""event"",""trial"",""time""
""fullscreenenter"",""1"",""7036""
","
","
","""event"",""trial"",""time""
""fullscreenenter"",""1"",""7036""
","
",,560.6000001,"<p>When you arrive at a new planet, the alien who owns the treasure mine on that planet will greet you!</p><p>The better an alien takes care of their mine the easier it is to dig for gems. Some aliens take better care of their mine than others. So, you won’t get exactly the same amount of gems on each planet.</p><p>What the alien looks like does not tell you anything about how many gems there are on the planet.</p><br><p><img src=""run_exp/static/images/task_images/aliens/instructions_aliens/planet/alien_planet-1.jpg""  height=""600"" width=""auto""></p><button class=""jspsych-html-btn-unchosen""><img src=""run_exp/static/images/task_images/planet-01.jpg"" height=""50""></button><button class=""jspsych-html-btn-chosen""><img src=""run_exp/static/images/task_images/planet-02.jpg"" height=""50""></button><p><b>[press the space bar to lock in your answer]<b><br></p>",32,,,,,,,,,,,,,,,,,,,,,,,,
time_out,18,159260,0.0-8.0-0.0,"""event"",""trial"",""time""
""fullscreenenter"",""1"",""7036""
","
","
","""event"",""trial"",""time""
""fullscreenenter"",""1"",""7036""
","
",,null,run_exp/static/audio/clip_7_timeout.m4a,null,"<p>If you don't make your choice fast enough, you’ll have to wait a few seconds before you can make another one.</p><p>You can’t dig for more gems or travel to new planets. You just have to sit and wait.</p><br><p><img src='run_exp/static/images/task_images/time_out.jpg'  height='600' width='auto'></p>",,,,,,,,,,,,,,,,,,,,,,,
time_out,19,161006,0.0-8.0-1.0,"""event"",""trial"",""time""
""fullscreenenter"",""1"",""7036""
","
","
","""event"",""trial"",""time""
""fullscreenenter"",""1"",""7036""
","
",,1743.5,"<p>If you don't make your choice fast enough, you’ll have to wait a few seconds before you can make another one.</p><p>You can’t dig for more gems or travel to new planets. You just have to sit and wait.</p><br><p><img src='run_exp/static/images/task_images/time_out.jpg'  height='600' width='auto'></p>",,,,,,,1,,,,,,,,,,,,,,,,,,
html-keyboard-response,20,161403,0.0-8.0-2.0,"""event"",""trial"",""time""
""fullscreenenter"",""1"",""7036""
","
","
","""event"",""trial"",""time""
""fullscreenenter"",""1"",""7036""
","
",,396.0999999,"<p>If you don't make your choice fast enough, you’ll have to wait a few seconds before you can make another one.</p><p>You can’t dig for more gems or travel to new planets. You just have to sit and wait.</p><br><p><img src='run_exp/static/images/task_images/time_out.jpg'  height='600' width='auto'></p><button class=""jspsych-html-btn-unchosen""><img src=""run_exp/static/images/task_images/planet-01.jpg"" height=""50""></button><button class=""jspsych-html-btn-chosen""><img src=""run_exp/static/images/task_images/planet-02.jpg"" height=""50""></button><p><b>[press the space bar to lock in your answer]<b><br></p>",32,,,,,,,,,,,,,,,,,,,,,,,,
instruc_break,21,177080,0.0-9.0-0.0,"""event"",""trial"",""time""
""fullscreenenter"",""1"",""7036""
","
","
","""event"",""trial"",""time""
""fullscreenenter"",""1"",""7036""
","
",,null,run_exp/static/audio/clip_8_break.m4a,null,"<p> After digging and traveling for a while, you’ll be able to take a break at home base. </p><p>The game will last 20 minutes no matter what.</p><p>You will visit home base every 5 minutes, so, you will visit home base three times during the game.</p><br><p><img src='run_exp/static/images/task_images/home_base.jpg' height='600' width='auto'></p>",,,,,,,,,,,,,,,,,,,,,,,
instruc_break,22,178543,0.0-9.0-1.0,"""event"",""trial"",""time""
""fullscreenenter"",""1"",""7036""
","
","
","""event"",""trial"",""time""
""fullscreenenter"",""1"",""7036""
","
",,1461.6,"<p> After digging and traveling for a while, you’ll be able to take a break at home base. </p><p>The game will last 20 minutes no matter what.</p><p>You will visit home base every 5 minutes, so, you will visit home base three times during the game.</p><br><p><img src='run_exp/static/images/task_images/home_base.jpg' height='600' width='auto'></p>",,,,,,,1,,,,,,,,,,,,,,,,,,
html-keyboard-response,23,179458,0.0-9.0-2.0,"""event"",""trial"",""time""
""fullscreenenter"",""1"",""7036""
","
","
","""event"",""trial"",""time""
""fullscreenenter"",""1"",""7036""
","
",,914.9000001,"<p> After digging and traveling for a while, you’ll be able to take a break at home base. </p><p>The game will last 20 minutes no matter what.</p><p>You will visit home base every 5 minutes, so, you will visit home base three times during the game.</p><br><p><img src='run_exp/static/images/task_images/home_base.jpg' height='600' width='auto'></p><button class=""jspsych-html-btn-unchosen""><img src=""run_exp/static/images/task_images/planet-01.jpg"" height=""50""></button><button class=""jspsych-html-btn-chosen""><img src=""run_exp/static/images/task_images/planet-02.jpg"" height=""50""></button><p><b>[press the space bar to lock in your answer]<b><br></p>",32,,,,,,,,,,,,,,,,,,,,,,,,
instruc_prac_game,24,189581,0.0-10.0-0.0,"""event"",""trial"",""time""
""fullscreenenter"",""1"",""7036""
","
","
","""event"",""trial"",""time""
""fullscreenenter"",""1"",""7036""
","
",,null,run_exp/static/audio/clip_9_practice.m4a,null,"<p> Are you ready to play a practice game? </p> <p>In this practice game, you'll be digging up barrels of gems. But, in the real game, you'll be digging up the gems themselves. </p>",,,,,,,,,,,,,,,,,,,,,,,
html-button-response,25,190491,0.0-10.0-1.0,"""event"",""trial"",""time""
""fullscreenenter"",""1"",""7036""
","
","
","""event"",""trial"",""time""
""fullscreenenter"",""1"",""7036""
","
",,908.6000001,"<p> Are you ready to play a practice game? </p> <p>In this practice game, you'll be digging up barrels of gems. But, in the real game, you'll be digging up the gems themselves. </p>",,,,,,,0,,,,,,,,,,,,,,,,,,
alien_welcome_prac,26,195501,0.0-11.0-0.0,"""event"",""trial"",""time""
""fullscreenenter"",""1"",""7036""
","
","
","""event"",""trial"",""time""
""fullscreenenter"",""1"",""7036""
","
",,null,run_exp/static/images/task_images/aliens/practice_aliens/planet/alien_planet-5.jpg,null,,,,,,,,,,,,,,,,,,,,,,,,
land_prac,27,196017,0.0-11.0-1.0,"""event"",""trial"",""time""
""fullscreenenter"",""1"",""7036""
","
","
","""event"",""trial"",""time""
""fullscreenenter"",""1"",""7036""
","
",,null,run_exp/static/images/task_images/land.jpg,null,,,,,,,92,,,0,,,,,,,,,,,,,,
dig_prac,28,198021,0.0-11.0-2.0,"""event"",""trial"",""time""
""fullscreenenter"",""1"",""7036""
","
","
","""event"",""trial"",""time""
""fullscreenenter"",""1"",""7036""
","
",,,,,,,,,,,,"[{""stimulus"":""run_exp/static/images/task_images/dig.jpg"",""time"":0.10000014305114746},{""stimulus"":""run_exp/static/images/task_images/land.jpg"",""time"":675.4000000953674},{""stimulus"":""run_exp/static/images/task_images/dig.jpg"",""time"":1343.8000001907349}]",[],,,,,,,,,,,,,,,
harvest_prac,29,199037,0.0-11.0-3.0,"""event"",""trial"",""time""
""fullscreenenter"",""1"",""7036""
","
","
","""event"",""trial"",""time""
""fullscreenenter"",""1"",""7036""
","
",,null,run_exp/static/images/task_images/barrel_text.jpg,null,,,,,,,,,,,,,,,,,,,,,,,,
decision_prac,30,200804,0.0-11.0-4.0,"""event"",""trial"",""time""
""fullscreenenter"",""1"",""7036""
","
","
","""event"",""trial"",""time""
""fullscreenenter"",""1"",""7036""
","
",,1765.3,run_exp/static/images/task_images/land.jpg,65,,,,,,,,,,,1,,,,,,,,,,,,,
dig_prac,31,202809,0.0-12.0-0.0,"""event"",""trial"",""time""
""fullscreenenter"",""1"",""7036""
","
","
","""event"",""trial"",""time""
""fullscreenenter"",""1"",""7036""
","
",,,,,,,,,,,,"[{""stimulus"":""run_exp/static/images/task_images/dig.jpg"",""time"":0.09999990463256836},{""stimulus"":""run_exp/static/images/task_images/land.jpg"",""time"":672.5},{""stimulus"":""run_exp/static/images/task_images/dig.jpg"",""time"":1335.0999999046326}]",[],,,,,,,,,,,,,,,
harvest_prac,32,203813,0.0-12.0-1.0,"""event"",""trial"",""time""
""fullscreenenter"",""1"",""7036""
","
","
","""event"",""trial"",""time""
""fullscreenenter"",""1"",""7036""
","
",,null,run_exp/static/images/task_images/barrel_text.jpg,null,,,,,,,,,,,,,,,,,,,,,,,,
decision_prac,33,204939,0.0-12.0-2.0,"""event"",""trial"",""time""
""fullscreenenter"",""1"",""7036""
","
","
","""event"",""trial"",""time""
""fullscreenenter"",""1"",""7036""
","
",,1124.8,run_exp/static/images/task_images/land.jpg,65,,,,,,,,,,,2,,,,,,,,,,,,,
dig_prac,34,206958,0.0-13.0-0.0,"""event"",""trial"",""time""
""fullscreenenter"",""1"",""7036""
","
","
","""event"",""trial"",""time""
""fullscreenenter"",""1"",""7036""
","
",,,,,,,,,,,,"[{""stimulus"":""run_exp/static/images/task_images/dig.jpg"",""time"":0.20000004768371582},{""stimulus"":""run_exp/static/images/task_images/land.jpg"",""time"":676.9000000953674},{""stimulus"":""run_exp/static/images/task_images/dig.jpg"",""time"":1337.4000000953674}]",[],,,,,,,,,,,,,,,
harvest_prac,35,207961,0.0-13.0-1.0,"""event"",""trial"",""time""
""fullscreenenter"",""1"",""7036""
","
","
","""event"",""trial"",""time""
""fullscreenenter"",""1"",""7036""
","
",,null,run_exp/static/images/task_images/barrel_text.jpg,null,,,,,,,,,,,,,,,,,,,,,,,,
decision_prac,36,208605,0.0-13.0-2.0,"""event"",""trial"",""time""
""fullscreenenter"",""1"",""7036""
","
","
","""event"",""trial"",""time""
""fullscreenenter"",""1"",""7036""
","
",,642.9000001,run_exp/static/images/task_images/land.jpg,65,,,,,,,,,,,3,,,,,,,,,,,,,
dig_prac,37,210612,0.0-14.0-0.0,"""event"",""trial"",""time""
""fullscreenenter"",""1"",""7036""
","
","
","""event"",""trial"",""time""
""fullscreenenter"",""1"",""7036""
","
",,,,,,,,,,,,"[{""stimulus"":""run_exp/static/images/task_images/dig.jpg"",""time"":0.09999990463256836},{""stimulus"":""run_exp/static/images/task_images/land.jpg"",""time"":682.5},{""stimulus"":""run_exp/static/images/task_images/dig.jpg"",""time"":1344.2999999523163}]",[],,,,,,,,,,,,,,,
harvest_prac,38,211628,0.0-14.0-1.0,"""event"",""trial"",""time""
""fullscreenenter"",""1"",""7036""
","
","
","""event"",""trial"",""time""
""fullscreenenter"",""1"",""7036""
","
",,null,run_exp/static/images/task_images/barrel_text.jpg,null,,,,,,,,,,,,,,,,,,,,,,,,
decision_prac,39,212109,0.0-14.0-2.0,"""event"",""trial"",""time""
""fullscreenenter"",""1"",""7036""
","
","
","""event"",""trial"",""time""
""fullscreenenter"",""1"",""7036""
","
",,479.8999999,run_exp/static/images/task_images/land.jpg,65,,,,,,,,,,,4,,,,,,,,,,,,,
dig_prac,40,214122,0.0-15.0-0.0,"""event"",""trial"",""time""
""fullscreenenter"",""1"",""7036""
","
","
","""event"",""trial"",""time""
""fullscreenenter"",""1"",""7036""
","
",,,,,,,,,,,,"[{""stimulus"":""run_exp/static/images/task_images/dig.jpg"",""time"":0.2999999523162842},{""stimulus"":""run_exp/static/images/task_images/land.jpg"",""time"":680.3999998569489},{""stimulus"":""run_exp/static/images/task_images/dig.jpg"",""time"":1340.8999998569489}]",[],,,,,,,,,,,,,,,
harvest_prac,41,215132,0.0-15.0-1.0,"""event"",""trial"",""time""
""fullscreenenter"",""1"",""7036""
","
","
","""event"",""trial"",""time""
""fullscreenenter"",""1"",""7036""
","
",,null,run_exp/static/images/task_images/barrel_text.jpg,null,,,,,,,,,,,,,,,,,,,,,,,,
decision_prac,42,215485,0.0-15.0-2.0,"""event"",""trial"",""time""
""fullscreenenter"",""1"",""7036""
","
","
","""event"",""trial"",""time""
""fullscreenenter"",""1"",""7036""
","
",,351.1000001,run_exp/static/images/task_images/land.jpg,65,,,,,,,,,,,,1,,,,,,,,,,,,
quiz_instruc,43,218429,0.0-16.0-0.0,"""event"",""trial"",""time""
""fullscreenenter"",""1"",""7036""
","
","
","""event"",""trial"",""time""
""fullscreenenter"",""1"",""7036""
","
",,2940.7,run_exp/static/audio/clip_10_quiz.m4a,,,,,,,0,,,,,,,,,,,,,,,,,,
instruc_repeat,44,261202,0.0-16.0-1.0,"""event"",""trial"",""time""
""fullscreenenter"",""1"",""7036""
","
","
","""event"",""trial"",""time""
""fullscreenenter"",""1"",""7036""
","
",,null,"<p> Are you ready to play a practice game? </p> <p>In this practice game, you'll be digging up barrels of gems. But, in the real game, you'll be digging up the gems themselves. </p>",null,"<p>In this game, your goal is to collect as many gems as you can. That’s how you will win bonus money. </p> <p>The entire game will last 20 minutes no matter how many gems you collect or how many planets you visit. </p><p>To stay on a planet and dig again, press the letter A on your keyboard. To leave for a new planet, press the letter L.</p><p>The more you dig on a planet, the fewer gems you’ll get with each dig which is why you might consider leaving for a new planet. </p><p>When you arrive at a new planet, you’ll be greeted by an alien. What the alien looks like does not tell you anything about how much treasure is on the planet. </p>",,,,,,,,,,,,,,,,,,,,,,,
instruc_repeat_continue,45,261947,0.0-16.0-2.0,"""event"",""trial"",""time""
""fullscreenenter"",""1"",""7036""
","
","
","""event"",""trial"",""time""
""fullscreenenter"",""1"",""7036""
","
",,743,"<p> Are you ready to play a practice game? </p> <p>In this practice game, you'll be digging up barrels of gems. But, in the real game, you'll be digging up the gems themselves. </p>",,,,,,,0,,,,,,,,,,,,,,,,,,
quiz_q_1_ask,46,265251,0.0-16.0-3.0,"""event"",""trial"",""time""
""fullscreenenter"",""1"",""7036""
","
","
","""event"",""trial"",""time""
""fullscreenenter"",""1"",""7036""
","
",,3303.1,run_exp/static/audio/clip_11_q1_ask.m4a,,,,,,,2,,,,,,,,,,,,,,,,,,
quiz_q_1_fb_correct,47,269102,0.0-17.0-0.0,"""event"",""trial"",""time""
""fullscreenenter"",""1"",""7036""
","
","
","""event"",""trial"",""time""
""fullscreenenter"",""1"",""7036""
","
",,null,run_exp/static/audio/clip_12_q1_correct.m4a,null,<p>That’s correct. You win extra money by collecting more gems.</p>,,,,,,,,,,,,,,,,,,,,,,,
quiz_q_2_ask,48,272701,0.0-17.0-1.0,"""event"",""trial"",""time""
""fullscreenenter"",""1"",""7036""
","
","
","""event"",""trial"",""time""
""fullscreenenter"",""1"",""7036""
","
",,3597.4,run_exp/static/audio/clip_14_q2_ask.m4a,,,,,,,1,,,,,,,,,,,,,,,,,,
quiz_q_2_fb_correct,49,276702,0.0-18.0-0.0,"""event"",""trial"",""time""
""fullscreenenter"",""1"",""7036""
","
","
","""event"",""trial"",""time""
""fullscreenenter"",""1"",""7036""
","
",,null,run_exp/static/audio/clip_15_q2_correct.m4a,null,<p>That’s correct. The experiment is 20 minutes no matter what.</p>,,,,,,,,,,,,,,,,,,,,,,,
quiz_q_3_ask,50,280740,0.0-18.0-1.0,"""event"",""trial"",""time""
""fullscreenenter"",""1"",""7036""
","
","
","""event"",""trial"",""time""
""fullscreenenter"",""1"",""7036""
","
",,4036,run_exp/static/audio/clip_17_q3_ask.m4a,,,,,,,1,,,,,,,,,,,,,,,,,,
quiz_q_3_fb_correct,51,284722,0.0-19.0-0.0,"""event"",""trial"",""time""
""fullscreenenter"",""1"",""7036""
","
","
","""event"",""trial"",""time""
""fullscreenenter"",""1"",""7036""
","
",,null,run_exp/static/audio/clip_18_q3_correct.m4a,null,<p> That’s correct. You press the letter L to travel to a new planet.</p>,,,,,,,,,,,,,,,,,,,,,,,
quiz_q_4_ask,52,287625,0.0-19.0-1.0,"""event"",""trial"",""time""
""fullscreenenter"",""1"",""7036""
","
","
","""event"",""trial"",""time""
""fullscreenenter"",""1"",""7036""
","
",,2901.6,run_exp/static/audio/clip_20_q4_ask.m4a,,,,,,,0,,,,,,,,,,,,,,,,,,
quiz_q_4_fb_correct,53,292942,0.0-20.0-0.0,"""event"",""trial"",""time""
""fullscreenenter"",""1"",""7036""
","
","
","""event"",""trial"",""time""
""fullscreenenter"",""1"",""7036""
","
",,null,run_exp/static/audio/clip_21_q4_correct.m4a,null,<p> That’s correct. The more you dig on a planet the fewer gems you’ll get with each dig. </p>,,,,,,,,,,,,,,,,,,,,,,,
quiz_q_5_ask,54,294631,0.0-20.0-1.0,"""event"",""trial"",""time""
""fullscreenenter"",""1"",""7036""
","
","
","""event"",""trial"",""time""
""fullscreenenter"",""1"",""7036""
","
",,1687.3,run_exp/static/audio/clip_23_q5_ask.m4a,,,,,,,1,,,,,,,,,,,,,,,,,,
quiz_q_5_fb_correct,55,299642,0.0-21.0-0.0,"""event"",""trial"",""time""
""fullscreenenter"",""1"",""7036""
","
","
","""event"",""trial"",""time""
""fullscreenenter"",""1"",""7036""
","
",,null,run_exp/static/audio/clip_24_q5_correct.m4a,null,<p> That’s correct. The alien tells you nothing about how much treasure is on the planet.</p>,,,,,,,,,,,,,,,,,,,,,,,
quiz_correct,56,303102,0.0-22.0-0.0,"""event"",""trial"",""time""
""fullscreenenter"",""1"",""7036""
","
","
","""event"",""trial"",""time""
""fullscreenenter"",""1"",""7036""
","
",,null,run_exp/static/audio/clip_26_correct_quiz.m4a,null,,,,,,,,,,,,,,,,,,,,,,,,
quiz_correct_continue,57,303811,0.0-22.0-1.0,"""event"",""trial"",""time""
""fullscreenenter"",""1"",""7036""
","
","
","""event"",""trial"",""time""
""fullscreenenter"",""1"",""7036""
","
",,708.0999999,<p>Good job! You're now ready to move on to the real game!</p>,,,,,,,0,,,,,,,,,,,,,,,,,,
audio-keyboard-response,58,313942,0.0-22.0-2.0,"""event"",""trial"",""time""
""fullscreenenter"",""1"",""7036""
","
","
","""event"",""trial"",""time""
""fullscreenenter"",""1"",""7036""
","
",,null,run_exp/static/audio/clip_28_real_game.m4a,null,,,,,,,,,,,,,,,,,,,,,,,,
instruc_begin_exp_contine,59,315269,0.0-22.0-3.0,"""event"",""trial"",""time""
""fullscreenenter"",""1"",""7036""
","
","
","""event"",""trial"",""time""
""fullscreenenter"",""1"",""7036""
","
",,1325.5,"<p>Now that you know how  to dig for space treasure and travel to new planets,you can start exploring! </p><p>Do you want to go over the instructions again or get started with the real game?</p>",,,,,,,1,,,,,,1,,,,,,,,,,,,
alien_welcome,60,320285,0.0-23.0-0.0,"""event"",""trial"",""time""
""fullscreenenter"",""1"",""7036""
","
","
","""event"",""trial"",""time""
""fullscreenenter"",""1"",""7036""
","
",,null,run_exp/static/images/task_images/aliens/old_aliens/planet/alien_planet-15.jpg,null,,,,,,,,,,,,,15,"15,3,70,1,64,25,78,46,73,33,36,37,53,52,74,47,8,45,51,50,65,57,61,13,28,35,30,19,6,4,12,71,22,10,27,26,38,14",,,,,,,,,,
land,61,320786,0.0-23.0-1.0,"""event"",""trial"",""time""
""fullscreenenter"",""1"",""7036""
","
","
","""event"",""trial"",""time""
""fullscreenenter"",""1"",""7036""
","
",,null,run_exp/static/images/task_images/land.jpg,null,,,,,,,106,,,1,,,,,,,,,,,,,,
dig,62,322790,0.0-23.0-2.0,"""event"",""trial"",""time""
""fullscreenenter"",""1"",""7036""
","
","
","""event"",""trial"",""time""
""fullscreenenter"",""1"",""7036""
","
",,,,,,,,,,,,"[{""stimulus"":""run_exp/static/images/task_images/dig.jpg"",""time"":0.20000004768371582},{""stimulus"":""run_exp/static/images/task_images/land.jpg"",""time"":668.9000000953674},{""stimulus"":""run_exp/static/images/task_images/dig.jpg"",""time"":1350.2999999523163}]",[],1,,,,,,,,,,,,,,
harvest,63,323799,0.0-23.0-3.0,"""event"",""trial"",""time""
""fullscreenenter"",""1"",""7036""
","
","
","""event"",""trial"",""time""
""fullscreenenter"",""1"",""7036""
","
",,null,run_exp/static/images/task_images/gems/106.jpg,null,,,,,,,19,,,1,,,,,106,0.183254419,0.179245283,,,,,,,
decision,64,324244,0.0-23.0-4.0,"""event"",""trial"",""time""
""fullscreenenter"",""1"",""7036""
","
","
","""event"",""trial"",""time""
""fullscreenenter"",""1"",""7036""
","
",,443.7,run_exp/static/images/task_images/land.jpg,65,,,,,,,19,,,1,,,,,,,,8974,1,0,FALSE,,,
dig,65,326815,0.0-24.0-0.0,"""event"",""trial"",""time""
""fullscreenenter"",""1"",""7036""
","
","
","""event"",""trial"",""time""
""fullscreenenter"",""1"",""7036""
","
",,,,,,,,,,,,"[{""stimulus"":""run_exp/static/images/task_images/dig.jpg"",""time"":0.10000014305114746},{""stimulus"":""run_exp/static/images/task_images/land.jpg"",""time"":862.3000001907349},{""stimulus"":""run_exp/static/images/task_images/dig.jpg"",""time"":1706}]",[],1,,,,,,,,,,,,,,
harvest,66,327892,0.0-24.0-1.0,"""event"",""trial"",""time""
""fullscreenenter"",""1"",""7036""
","
","
","""event"",""trial"",""time""
""fullscreenenter"",""1"",""7036""
","
",,null,run_exp/static/images/task_images/gems/19.jpg,null,,,,,,,4,,,1,,,,,19,0.22573295,0.210526316,,,,,,,
decision,67,327973,0.0-24.0-2.0,"""event"",""trial"",""time""
""fullscreenenter"",""1"",""7036""
","
","
","""event"",""trial"",""time""
""fullscreenenter"",""1"",""7036""
","
",,79.20000005,run_exp/static/images/task_images/land.jpg,65,,,,,,,4,,,1,,,,,,,,12703,1,1,FALSE,,,
dig,68,330910,0.0-25.0-0.0,"""event"",""trial"",""time""
""fullscreenenter"",""1"",""7036""
","
","
","""event"",""trial"",""time""
""fullscreenenter"",""1"",""7036""
","
",,,,,,,,,,,,"[{""stimulus"":""run_exp/static/images/task_images/dig.jpg"",""time"":0.5},{""stimulus"":""run_exp/static/images/task_images/land.jpg"",""time"":975.5},{""stimulus"":""run_exp/static/images/task_images/dig.jpg"",""time"":1959.4000000953674}]",[],1,,,,,,,,,,,,,,
harvest,69,331918,0.0-25.0-1.0,"""event"",""trial"",""time""
""fullscreenenter"",""1"",""7036""
","
","
","""event"",""trial"",""time""
""fullscreenenter"",""1"",""7036""
","
",,null,run_exp/static/images/task_images/gems/4.jpg,null,,,,,,,1,,,1,,,,,4,0.247731736,0.25,,,,,,,
decision,70,332164,0.0-25.0-2.0,"""event"",""trial"",""time""
""fullscreenenter"",""1"",""7036""
","
","
","""event"",""trial"",""time""
""fullscreenenter"",""1"",""7036""
","
",,245.2,run_exp/static/images/task_images/land.jpg,76,,,,,,,1,,,1,,,,,,,,16894,1,2,TRUE,,,
travel,71,341922,0.0-26.0-0.0,"""event"",""trial"",""time""
""fullscreenenter"",""1"",""7036""
","
","
","""event"",""trial"",""time""
""fullscreenenter"",""1"",""7036""
","
",,,,,,,,,,,,"[{""stimulus"":""run_exp/static/images/task_images/rocket-01.jpg"",""time"":0.19999980926513672},{""stimulus"":""run_exp/static/images/task_images/rocket-02.jpg"",""time"":1094.3999998569489},{""stimulus"":""run_exp/static/images/task_images/rocket-03.jpg"",""time"":2177},{""stimulus"":""run_exp/static/images/task_images/rocket-04.jpg"",""time"":3258.0999999046326},{""stimulus"":""run_exp/static/images/task_images/rocket-05.jpg"",""time"":4344.199999809265},{""stimulus"":""run_exp/static/images/task_images/rocket-06.jpg"",""time"":5429.799999952316},{""stimulus"":""run_exp/static/images/task_images/rocket-07.jpg"",""time"":6504.099999904633},{""stimulus"":""run_exp/static/images/task_images/rocket-08.jpg"",""time"":7595.599999904633},{""stimulus"":""run_exp/static/images/task_images/rocket-09.jpg"",""time"":8674.5}]",[],1,,,,,,,,,,,,,,
alien_welcome,72,346924,0.0-26.0-1.0,"""event"",""trial"",""time""
""fullscreenenter"",""1"",""7036""
","
","
","""event"",""trial"",""time""
""fullscreenenter"",""1"",""7036""
","
",,null,run_exp/static/images/task_images/aliens/old_aliens/planet/alien_planet-3.jpg,null,,,,,,,,,,,,,3,"15,3,70,1,64,25,78,46,73,33,36,37,53,52,74,47,8,45,51,50,65,57,61,13,28,35,30,19,6,4,12,71,22,10,27,26,38,14",,,,,,,,,,
land,73,347436,0.0-26.0-2.0,"""event"",""trial"",""time""
""fullscreenenter"",""1"",""7036""
","
","
","""event"",""trial"",""time""
""fullscreenenter"",""1"",""7036""
","
",,null,run_exp/static/images/task_images/land.jpg,null,,,,,,,99,,,2,,,,,,,,,,,,,,
dig,74,349444,0.0-26.0-3.0,"""event"",""trial"",""time""
""fullscreenenter"",""1"",""7036""
","
","
","""event"",""trial"",""time""
""fullscreenenter"",""1"",""7036""
","
",,,,,,,,,,,,"[{""stimulus"":""run_exp/static/images/task_images/dig.jpg"",""time"":0.40000009536743164},{""stimulus"":""run_exp/static/images/task_images/land.jpg"",""time"":670.5},{""stimulus"":""run_exp/static/images/task_images/dig.jpg"",""time"":1336.0999999046326}]",[],2,,,,,,,,,,,,,,
harvest,75,350450,0.0-26.0-4.0,"""event"",""trial"",""time""
""fullscreenenter"",""1"",""7036""
","
","
","""event"",""trial"",""time""
""fullscreenenter"",""1"",""7036""
","
",,null,run_exp/static/images/task_images/gems/99.jpg,null,,,,,,,25,,,2,,,,,99,0.254792616,0.252525253,,,,,,,
decision,76,350997,0.0-26.0-5.0,"""event"",""trial"",""time""
""fullscreenenter"",""1"",""7036""
","
","
","""event"",""trial"",""time""
""fullscreenenter"",""1"",""7036""
","
",,545.1000001,run_exp/static/images/task_images/land.jpg,65,,,,,,,25,,,2,,,,,,,,35727,1,0,FALSE,,,
dig,77,353470,0.0-27.0-0.0,"""event"",""trial"",""time""
""fullscreenenter"",""1"",""7036""
","
","
","""event"",""trial"",""time""
""fullscreenenter"",""1"",""7036""
","
",,,,,,,,,,,,"[{""stimulus"":""run_exp/static/images/task_images/dig.jpg"",""time"":0.20000004768371582},{""stimulus"":""run_exp/static/images/task_images/land.jpg"",""time"":833.2999999523163},{""stimulus"":""run_exp/static/images/task_images/dig.jpg"",""time"":1642.4000000953674}]",[],2,,,,,,,,,,,,,,
harvest,78,354482,0.0-27.0-1.0,"""event"",""trial"",""time""
""fullscreenenter"",""1"",""7036""
","
","
","""event"",""trial"",""time""
""fullscreenenter"",""1"",""7036""
","
",,null,run_exp/static/images/task_images/gems/25.jpg,null,,,,,,,4,,,2,,,,,25,0.159770247,0.16,,,,,,,
decision,79,354788,0.0-27.0-2.0,"""event"",""trial"",""time""
""fullscreenenter"",""1"",""7036""
","
","
","""event"",""trial"",""time""
""fullscreenenter"",""1"",""7036""
","
",,304.3999999,run_exp/static/images/task_images/land.jpg,65,,,,,,,4,,,2,,,,,,,,39518,1,1,FALSE,,,
dig,80,357499,0.0-28.0-0.0,"""event"",""trial"",""time""
""fullscreenenter"",""1"",""7036""
","
","
","""event"",""trial"",""time""
""fullscreenenter"",""1"",""7036""
","
",,,,,,,,,,,,"[{""stimulus"":""run_exp/static/images/task_images/dig.jpg"",""time"":0},{""stimulus"":""run_exp/static/images/task_images/land.jpg"",""time"":902.5999999046326},{""stimulus"":""run_exp/static/images/task_images/dig.jpg"",""time"":1811.7000000476837}]",[],2,,,,,,,,,,,,,,
harvest,81,358506,0.0-28.0-1.0,"""event"",""trial"",""time""
""fullscreenenter"",""1"",""7036""
","
","
","""event"",""trial"",""time""
""fullscreenenter"",""1"",""7036""
","
",,null,run_exp/static/images/task_images/gems/4.jpg,null,,,,,,,1,,,2,,,,,4,0.213994567,0.25,,,,,,,
decision,82,358845,0.0-28.0-2.0,"""event"",""trial"",""time""
""fullscreenenter"",""1"",""7036""
","
","
","""event"",""trial"",""time""
""fullscreenenter"",""1"",""7036""
","
",,338.3000002,run_exp/static/images/task_images/land.jpg,76,,,,,,,1,,,2,,,,,,,,43575,1,2,TRUE,,,
travel,83,368510,0.0-29.0-0.0,"""event"",""trial"",""time""
""fullscreenenter"",""1"",""7036""
","
","
","""event"",""trial"",""time""
""fullscreenenter"",""1"",""7036""
","
",,,,,,,,,,,,"[{""stimulus"":""run_exp/static/images/task_images/rocket-01.jpg"",""time"":0.20000004768371582},{""stimulus"":""run_exp/static/images/task_images/rocket-02.jpg"",""time"":1081.7000000476837},{""stimulus"":""run_exp/static/images/task_images/rocket-03.jpg"",""time"":2160.4000000953674},{""stimulus"":""run_exp/static/images/task_images/rocket-04.jpg"",""time"":3226.2000000476837},{""stimulus"":""run_exp/static/images/task_images/rocket-05.jpg"",""time"":4308.5},{""stimulus"":""run_exp/static/images/task_images/rocket-06.jpg"",""time"":5381.200000047684},{""stimulus"":""run_exp/static/images/task_images/rocket-07.jpg"",""time"":6446.299999952316},{""stimulus"":""run_exp/static/images/task_images/rocket-08.jpg"",""time"":7527.799999952316},{""stimulus"":""run_exp/static/images/task_images/rocket-09.jpg"",""time"":8593.5}]",[],2,,,,,,,,,,,,,,
alien_welcome,84,373515,0.0-29.0-1.0,"""event"",""trial"",""time""
""fullscreenenter"",""1"",""7036""
","
","
","""event"",""trial"",""time""
""fullscreenenter"",""1"",""7036""
","
",,null,run_exp/static/images/task_images/aliens/old_aliens/planet/alien_planet-70.jpg,null,,,,,,,,,,,,,70,"15,3,70,1,64,25,78,46,73,33,36,37,53,52,74,47,8,45,51,50,65,57,61,13,28,35,30,19,6,4,12,71,22,10,27,26,38,14",,,,,,,,,,
land,85,374016,0.0-29.0-2.0,"""event"",""trial"",""time""
""fullscreenenter"",""1"",""7036""
","
","
","""event"",""trial"",""time""
""fullscreenenter"",""1"",""7036""
","
",,null,run_exp/static/images/task_images/land.jpg,null,,,,,,,98,,,3,,,,,,,,,,,,,,
dig,86,376028,0.0-29.0-3.0,"""event"",""trial"",""time""
""fullscreenenter"",""1"",""7036""
","
","
","""event"",""trial"",""time""
""fullscreenenter"",""1"",""7036""
","
",,,,,,,,,,,,"[{""stimulus"":""run_exp/static/images/task_images/dig.jpg"",""time"":0.2999999523162842},{""stimulus"":""run_exp/static/images/task_images/land.jpg"",""time"":676.7000000476837},{""stimulus"":""run_exp/static/images/task_images/dig.jpg"",""time"":1341.2999999523163}]",[],3,,,,,,,,,,,,,,
harvest,87,377032,0.0-29.0-4.0,"""event"",""trial"",""time""
""fullscreenenter"",""1"",""7036""
","
","
","""event"",""trial"",""time""
""fullscreenenter"",""1"",""7036""
","
",,null,run_exp/static/images/task_images/gems/98.jpg,null,,,,,,,46,,,3,,,,,98,0.467453939,0.469387755,,,,,,,
decision,88,377589,0.0-29.0-5.0,"""event"",""trial"",""time""
""fullscreenenter"",""1"",""7036""
","
","
","""event"",""trial"",""time""
""fullscreenenter"",""1"",""7036""
","
",,555,run_exp/static/images/task_images/land.jpg,65,,,,,,,46,,,3,,,,,,,,62319,1,0,FALSE,,,
dig,89,380038,0.0-30.0-0.0,"""event"",""trial"",""time""
""fullscreenenter"",""1"",""7036""
","
","
","""event"",""trial"",""time""
""fullscreenenter"",""1"",""7036""
","
",,,,,,,,,,,,"[{""stimulus"":""run_exp/static/images/task_images/dig.jpg"",""time"":0.20000004768371582},{""stimulus"":""run_exp/static/images/task_images/land.jpg"",""time"":824},{""stimulus"":""run_exp/static/images/task_images/dig.jpg"",""time"":1632}]",[],3,,,,,,,,,,,,,,
harvest,90,381051,0.0-30.0-1.0,"""event"",""trial"",""time""
""fullscreenenter"",""1"",""7036""
","
","
","""event"",""trial"",""time""
""fullscreenenter"",""1"",""7036""
","
",,null,run_exp/static/images/task_images/gems/46.jpg,null,,,,,,,23,,,3,,,,,46,0.490019661,0.5,,,,,,,
decision,91,381452,0.0-30.0-2.0,"""event"",""trial"",""time""
""fullscreenenter"",""1"",""7036""
","
","
","""event"",""trial"",""time""
""fullscreenenter"",""1"",""7036""
","
",,400.0999999,run_exp/static/images/task_images/land.jpg,65,,,,,,,23,,,3,,,,,,,,66182,1,1,FALSE,,,
dig,92,384066,0.0-31.0-0.0,"""event"",""trial"",""time""
""fullscreenenter"",""1"",""7036""
","
","
","""event"",""trial"",""time""
""fullscreenenter"",""1"",""7036""
","
",,,,,,,,,,,,"[{""stimulus"":""run_exp/static/images/task_images/dig.jpg"",""time"":0.2999999523162842},{""stimulus"":""run_exp/static/images/task_images/land.jpg"",""time"":872.1000001430511},{""stimulus"":""run_exp/static/images/task_images/dig.jpg"",""time"":1734.9000000953674}]",[],3,,,,,,,,,,,,,,
harvest,93,385084,0.0-31.0-1.0,"""event"",""trial"",""time""
""fullscreenenter"",""1"",""7036""
","
","
","""event"",""trial"",""time""
""fullscreenenter"",""1"",""7036""
","
",,null,run_exp/static/images/task_images/gems/23.jpg,null,,,,,,,11,,,3,,,,,23,0.494155273,0.47826087,,,,,,,
decision,94,385637,0.0-31.0-2.0,"""event"",""trial"",""time""
""fullscreenenter"",""1"",""7036""
","
","
","""event"",""trial"",""time""
""fullscreenenter"",""1"",""7036""
","
",,551.5,run_exp/static/images/task_images/land.jpg,65,,,,,,,11,,,3,,,,,,,,70367,1,2,FALSE,,,
dig,95,388102,0.0-32.0-0.0,"""event"",""trial"",""time""
""fullscreenenter"",""1"",""7036""
","
","
","""event"",""trial"",""time""
""fullscreenenter"",""1"",""7036""
","
",,,,,,,,,,,,"[{""stimulus"":""run_exp/static/images/task_images/dig.jpg"",""time"":0.09999990463256836},{""stimulus"":""run_exp/static/images/task_images/land.jpg"",""time"":822.2999999523163},{""stimulus"":""run_exp/static/images/task_images/dig.jpg"",""time"":1634.2000000476837}]",[],3,,,,,,,,,,,,,,
harvest,96,389118,0.0-32.0-1.0,"""event"",""trial"",""time""
""fullscreenenter"",""1"",""7036""
","
","
","""event"",""trial"",""time""
""fullscreenenter"",""1"",""7036""
","
",,null,run_exp/static/images/task_images/gems/11.jpg,null,,,,,,,6,,,3,,,,,11,0.511057037,0.545454545,,,,,,,
decision,97,389564,0.0-32.0-2.0,"""event"",""trial"",""time""
""fullscreenenter"",""1"",""7036""
","
","
","""event"",""trial"",""time""
""fullscreenenter"",""1"",""7036""
","
",,444.7,run_exp/static/images/task_images/land.jpg,76,,,,,,,6,,,3,,,,,,,,74294,1,3,TRUE,,,
travel,98,399126,0.0-33.0-0.0,"""event"",""trial"",""time""
""fullscreenenter"",""1"",""7036""
","
","
","""event"",""trial"",""time""
""fullscreenenter"",""1"",""7036""
","
",,,,,,,,,,,,"[{""stimulus"":""run_exp/static/images/task_images/rocket-01.jpg"",""time"":0},{""stimulus"":""run_exp/static/images/task_images/rocket-02.jpg"",""time"":1067},{""stimulus"":""run_exp/static/images/task_images/rocket-03.jpg"",""time"":2126.5},{""stimulus"":""run_exp/static/images/task_images/rocket-04.jpg"",""time"":3195.4000000953674},{""stimulus"":""run_exp/static/images/task_images/rocket-05.jpg"",""time"":4256.299999952316},{""stimulus"":""run_exp/static/images/task_images/rocket-06.jpg"",""time"":5320.799999952316},{""stimulus"":""run_exp/static/images/task_images/rocket-07.jpg"",""time"":6377.200000047684},{""stimulus"":""run_exp/static/images/task_images/rocket-08.jpg"",""time"":7442.799999952316},{""stimulus"":""run_exp/static/images/task_images/rocket-09.jpg"",""time"":8491.200000047684}]",[],3,,,,,,,,,,,,,,
alien_welcome,99,404133,0.0-33.0-1.0,"""event"",""trial"",""time""
""fullscreenenter"",""1"",""7036""
","
","
","""event"",""trial"",""time""
""fullscreenenter"",""1"",""7036""
","
",,null,run_exp/static/images/task_images/aliens/old_aliens/planet/alien_planet-1.jpg,null,,,,,,,,,,,,,1,"15,3,70,1,64,25,78,46,73,33,36,37,53,52,74,47,8,45,51,50,65,57,61,13,28,35,30,19,6,4,12,71,22,10,27,26,38,14",,,,,,,,,,
land,100,404650,0.0-33.0-2.0,"""event"",""trial"",""time""
""fullscreenenter"",""1"",""7036""
","
","
","""event"",""trial"",""time""
""fullscreenenter"",""1"",""7036""
","
",,null,run_exp/static/images/task_images/land.jpg,null,,,,,,,93,,,4,,,,,,,,,,,,,,
dig,101,406658,0.0-33.0-3.0,"""event"",""trial"",""time""
""fullscreenenter"",""1"",""7036""
","
","
","""event"",""trial"",""time""
""fullscreenenter"",""1"",""7036""
","
",,,,,,,,,,,,"[{""stimulus"":""run_exp/static/images/task_images/dig.jpg"",""time"":0.3000001907348633},{""stimulus"":""run_exp/static/images/task_images/land.jpg"",""time"":674.9000000953674},{""stimulus"":""run_exp/static/images/task_images/dig.jpg"",""time"":1342.7000000476837}]",[],4,,,,,,,,,,,,,,
harvest,102,407666,0.0-33.0-4.0,"""event"",""trial"",""time""
""fullscreenenter"",""1"",""7036""
","
","
","""event"",""trial"",""time""
""fullscreenenter"",""1"",""7036""
","
",,null,run_exp/static/images/task_images/gems/93.jpg,null,,,,,,,49,,,4,,,,,93,0.526150037,0.52688172,,,,,,,
decision,103,408092,0.0-33.0-5.0,"""event"",""trial"",""time""
""fullscreenenter"",""1"",""7036""
","
","
","""event"",""trial"",""time""
""fullscreenenter"",""1"",""7036""
","
",,424.2,run_exp/static/images/task_images/land.jpg,65,,,,,,,49,,,4,,,,,,,,92822,1,0,FALSE,,,
dig,104,410670,0.0-34.0-0.0,"""event"",""trial"",""time""
""fullscreenenter"",""1"",""7036""
","
","
","""event"",""trial"",""time""
""fullscreenenter"",""1"",""7036""
","
",,,,,,,,,,,,"[{""stimulus"":""run_exp/static/images/task_images/dig.jpg"",""time"":0.20000004768371582},{""stimulus"":""run_exp/static/images/task_images/land.jpg"",""time"":872.2000000476837},{""stimulus"":""run_exp/static/images/task_images/dig.jpg"",""time"":1726.7999999523163}]",[],4,,,,,,,,,,,,,,
harvest,105,411685,0.0-34.0-1.0,"""event"",""trial"",""time""
""fullscreenenter"",""1"",""7036""
","
","
","""event"",""trial"",""time""
""fullscreenenter"",""1"",""7036""
","
",,null,run_exp/static/images/task_images/gems/49.jpg,null,,,,,,,25,,,4,,,,,49,0.517048171,0.510204082,,,,,,,
decision,106,411996,0.0-34.0-2.0,"""event"",""trial"",""time""
""fullscreenenter"",""1"",""7036""
","
","
","""event"",""trial"",""time""
""fullscreenenter"",""1"",""7036""
","
",,310.2,run_exp/static/images/task_images/land.jpg,65,,,,,,,25,,,4,,,,,,,,96726,1,1,FALSE,,,
dig,107,414698,0.0-35.0-0.0,"""event"",""trial"",""time""
""fullscreenenter"",""1"",""7036""
","
","
","""event"",""trial"",""time""
""fullscreenenter"",""1"",""7036""
","
",,,,,,,,,,,,"[{""stimulus"":""run_exp/static/images/task_images/dig.jpg"",""time"":0.20000004768371582},{""stimulus"":""run_exp/static/images/task_images/land.jpg"",""time"":906.3000001907349},{""stimulus"":""run_exp/static/images/task_images/dig.jpg"",""time"":1798.1000001430511}]",[],4,,,,,,,,,,,,,,
harvest,108,415710,0.0-35.0-1.0,"""event"",""trial"",""time""
""fullscreenenter"",""1"",""7036""
","
","
","""event"",""trial"",""time""
""fullscreenenter"",""1"",""7036""
","
",,null,run_exp/static/images/task_images/gems/25.jpg,null,,,,,,,13,,,4,,,,,25,0.523614515,0.52,,,,,,,
decision,109,415965,0.0-35.0-2.0,"""event"",""trial"",""time""
""fullscreenenter"",""1"",""7036""
","
","
","""event"",""trial"",""time""
""fullscreenenter"",""1"",""7036""
","
",,253.3999999,run_exp/static/images/task_images/land.jpg,65,,,,,,,13,,,4,,,,,,,,100695,1,2,FALSE,,,
dig,110,418727,0.0-36.0-0.0,"""event"",""trial"",""time""
""fullscreenenter"",""1"",""7036""
","
","
","""event"",""trial"",""time""
""fullscreenenter"",""1"",""7036""
","
",,,,,,,,,,,,"[{""stimulus"":""run_exp/static/images/task_images/dig.jpg"",""time"":0.2999999523162842},{""stimulus"":""run_exp/static/images/task_images/land.jpg"",""time"":916.2000000476837},{""stimulus"":""run_exp/static/images/task_images/dig.jpg"",""time"":1842.5}]",[],4,,,,,,,,,,,,,,
harvest,111,419732,0.0-36.0-1.0,"""event"",""trial"",""time""
""fullscreenenter"",""1"",""7036""
","
","
","""event"",""trial"",""time""
""fullscreenenter"",""1"",""7036""
","
",,null,run_exp/static/images/task_images/gems/13.jpg,null,,,,,,,6,,,4,,,,,13,0.489577284,0.461538462,,,,,,,
decision,112,420059,0.0-36.0-2.0,"""event"",""trial"",""time""
""fullscreenenter"",""1"",""7036""
","
","
","""event"",""trial"",""time""
""fullscreenenter"",""1"",""7036""
","
",,326.3000002,run_exp/static/images/task_images/land.jpg,65,,,,,,,6,,,4,,,,,,,,104789,1,3,FALSE,,,
dig,113,422746,0.0-37.0-0.0,"""event"",""trial"",""time""
""fullscreenenter"",""1"",""7036""
","
","
","""event"",""trial"",""time""
""fullscreenenter"",""1"",""7036""
","
",,,,,,,,,,,,"[{""stimulus"":""run_exp/static/images/task_images/dig.jpg"",""time"":0.19999980926513672},{""stimulus"":""run_exp/static/images/task_images/land.jpg"",""time"":901.1999998092651},{""stimulus"":""run_exp/static/images/task_images/dig.jpg"",""time"":1786.7999999523163}]",[],4,,,,,,,,,,,,,,
harvest,114,423751,0.0-37.0-1.0,"""event"",""trial"",""time""
""fullscreenenter"",""1"",""7036""
","
","
","""event"",""trial"",""time""
""fullscreenenter"",""1"",""7036""
","
",,null,run_exp/static/images/task_images/gems/6.jpg,null,,,,,,,3,,,4,,,,,6,0.508678072,0.5,,,,,,,
decision,115,424020,0.0-37.0-2.0,"""event"",""trial"",""time""
""fullscreenenter"",""1"",""7036""
","
","
","""event"",""trial"",""time""
""fullscreenenter"",""1"",""7036""
","
",,267.3,run_exp/static/images/task_images/land.jpg,76,,,,,,,3,,,4,,,,,,,,108750,1,4,TRUE,,,
travel,116,433758,0.0-38.0-0.0,"""event"",""trial"",""time""
""fullscreenenter"",""1"",""7036""
","
","
","""event"",""trial"",""time""
""fullscreenenter"",""1"",""7036""
","
",,,,,,,,,,,,"[{""stimulus"":""run_exp/static/images/task_images/rocket-01.jpg"",""time"":0},{""stimulus"":""run_exp/static/images/task_images/rocket-02.jpg"",""time"":1092.3999998569489},{""stimulus"":""run_exp/static/images/task_images/rocket-03.jpg"",""time"":2170.7999999523163},{""stimulus"":""run_exp/static/images/task_images/rocket-04.jpg"",""time"":3258.899999856949},{""stimulus"":""run_exp/static/images/task_images/rocket-05.jpg"",""time"":4332.5},{""stimulus"":""run_exp/static/images/task_images/rocket-06.jpg"",""time"":5414.5},{""stimulus"":""run_exp/static/images/task_images/rocket-07.jpg"",""time"":6499},{""stimulus"":""run_exp/static/images/task_images/rocket-08.jpg"",""time"":7583.899999856949},{""stimulus"":""run_exp/static/images/task_images/rocket-09.jpg"",""time"":8657.299999952316}]",[],4,,,,,,,,,,,,,,
alien_welcome,117,438773,0.0-38.0-1.0,"""event"",""trial"",""time""
""fullscreenenter"",""1"",""7036""
","
","
","""event"",""trial"",""time""
""fullscreenenter"",""1"",""7036""
","
",,null,run_exp/static/images/task_images/aliens/old_aliens/planet/alien_planet-64.jpg,null,,,,,,,,,,,,,64,"15,3,70,1,64,25,78,46,73,33,36,37,53,52,74,47,8,45,51,50,65,57,61,13,28,35,30,19,6,4,12,71,22,10,27,26,38,14",,,,,,,,,,
land,118,439285,0.0-38.0-2.0,"""event"",""trial"",""time""
""fullscreenenter"",""1"",""7036""
","
","
","""event"",""trial"",""time""
""fullscreenenter"",""1"",""7036""
","
",,null,run_exp/static/images/task_images/land.jpg,null,,,,,,,100,,,5,,,,,,,,,,,,,,
dig,119,441292,0.0-38.0-3.0,"""event"",""trial"",""time""
""fullscreenenter"",""1"",""7036""
","
","
","""event"",""trial"",""time""
""fullscreenenter"",""1"",""7036""
","
",,,,,,,,,,,,"[{""stimulus"":""run_exp/static/images/task_images/dig.jpg"",""time"":0.2999999523162842},{""stimulus"":""run_exp/static/images/task_images/land.jpg"",""time"":674.9000000953674},{""stimulus"":""run_exp/static/images/task_images/dig.jpg"",""time"":1341.4000000953674}]",[],5,,,,,,,,,,,,,,
harvest,120,442300,0.0-38.0-4.0,"""event"",""trial"",""time""
""fullscreenenter"",""1"",""7036""
","
","
","""event"",""trial"",""time""
""fullscreenenter"",""1"",""7036""
","
",,null,run_exp/static/images/task_images/gems/100.jpg,null,,,,,,,43,,,5,,,,,100,0.432328559,0.43,,,,,,,
decision,121,442652,0.0-38.0-5.0,"""event"",""trial"",""time""
""fullscreenenter"",""1"",""7036""
","
","
","""event"",""trial"",""time""
""fullscreenenter"",""1"",""7036""
","
",,351.6000001,run_exp/static/images/task_images/land.jpg,65,,,,,,,43,,,5,,,,,,,,127382,1,0,FALSE,,,
dig,122,445302,0.0-39.0-0.0,"""event"",""trial"",""time""
""fullscreenenter"",""1"",""7036""
","
","
","""event"",""trial"",""time""
""fullscreenenter"",""1"",""7036""
","
",,,,,,,,,,,,"[{""stimulus"":""run_exp/static/images/task_images/dig.jpg"",""time"":0.09999990463256836},{""stimulus"":""run_exp/static/images/task_images/land.jpg"",""time"":894.4000000953674},{""stimulus"":""run_exp/static/images/task_images/dig.jpg"",""time"":1779}]",[],5,,,,,,,,,,,,,,
harvest,123,446318,0.0-39.0-1.0,"""event"",""trial"",""time""
""fullscreenenter"",""1"",""7036""
","
","
","""event"",""trial"",""time""
""fullscreenenter"",""1"",""7036""
","
",,null,run_exp/static/images/task_images/gems/43.jpg,null,,,,,,,18,,,5,,,,,43,0.416417046,0.418604651,,,,,,,
decision,124,446892,0.0-39.0-2.0,"""event"",""trial"",""time""
""fullscreenenter"",""1"",""7036""
","
","
","""event"",""trial"",""time""
""fullscreenenter"",""1"",""7036""
","
",,573,run_exp/static/images/task_images/land.jpg,65,,,,,,,18,,,5,,,,,,,,131622,1,1,FALSE,,,
dig,125,449337,0.0-40.0-0.0,"""event"",""trial"",""time""
""fullscreenenter"",""1"",""7036""
","
","
","""event"",""trial"",""time""
""fullscreenenter"",""1"",""7036""
","
",,,,,,,,,,,,"[{""stimulus"":""run_exp/static/images/task_images/dig.jpg"",""time"":0.09999990463256836},{""stimulus"":""run_exp/static/images/task_images/land.jpg"",""time"":816.7999999523163},{""stimulus"":""run_exp/static/images/task_images/dig.jpg"",""time"":1631.2000000476837}]",[],5,,,,,,,,,,,,,,
harvest,126,450352,0.0-40.0-1.0,"""event"",""trial"",""time""
""fullscreenenter"",""1"",""7036""
","
","
","""event"",""trial"",""time""
""fullscreenenter"",""1"",""7036""
","
",,null,run_exp/static/images/task_images/gems/18.jpg,null,,,,,,,10,,,5,,,,,18,0.548684267,0.555555556,,,,,,,
decision,127,450661,0.0-40.0-2.0,"""event"",""trial"",""time""
""fullscreenenter"",""1"",""7036""
","
","
","""event"",""trial"",""time""
""fullscreenenter"",""1"",""7036""
","
",,308.1000001,run_exp/static/images/task_images/land.jpg,65,,,,,,,10,,,5,,,,,,,,135391,1,2,FALSE,,,
dig,128,453369,0.0-41.0-0.0,"""event"",""trial"",""time""
""fullscreenenter"",""1"",""7036""
","
","
","""event"",""trial"",""time""
""fullscreenenter"",""1"",""7036""
","
",,,,,,,,,,,,"[{""stimulus"":""run_exp/static/images/task_images/dig.jpg"",""time"":0.20000004768371582},{""stimulus"":""run_exp/static/images/task_images/land.jpg"",""time"":911.2999999523163},{""stimulus"":""run_exp/static/images/task_images/dig.jpg"",""time"":1806}]",[],5,,,,,,,,,,,,,,
harvest,129,454382,0.0-41.0-1.0,"""event"",""trial"",""time""
""fullscreenenter"",""1"",""7036""
","
","
","""event"",""trial"",""time""
""fullscreenenter"",""1"",""7036""
","
",,null,run_exp/static/images/task_images/gems/10.jpg,null,,,,,,,6,,,5,,,,,10,0.571080068,0.6,,,,,,,
decision,130,454660,0.0-41.0-2.0,"""event"",""trial"",""time""
""fullscreenenter"",""1"",""7036""
","
","
","""event"",""trial"",""time""
""fullscreenenter"",""1"",""7036""
","
",,276.5,run_exp/static/images/task_images/land.jpg,76,,,,,,,6,,,5,,,,,,,,139390,1,3,TRUE,,,
travel,131,464389,0.0-42.0-0.0,"""event"",""trial"",""time""
""fullscreenenter"",""1"",""7036""
","
","
","""event"",""trial"",""time""
""fullscreenenter"",""1"",""7036""
","
",,,,,,,,,,,,"[{""stimulus"":""run_exp/static/images/task_images/rocket-01.jpg"",""time"":0.09999990463256836},{""stimulus"":""run_exp/static/images/task_images/rocket-02.jpg"",""time"":1083.0999999046326},{""stimulus"":""run_exp/static/images/task_images/rocket-03.jpg"",""time"":2168.5999999046326},{""stimulus"":""run_exp/static/images/task_images/rocket-04.jpg"",""time"":3252.5},{""stimulus"":""run_exp/static/images/task_images/rocket-05.jpg"",""time"":4320.799999952316},{""stimulus"":""run_exp/static/images/task_images/rocket-06.jpg"",""time"":5416.200000047684},{""stimulus"":""run_exp/static/images/task_images/rocket-07.jpg"",""time"":6490.200000047684},{""stimulus"":""run_exp/static/images/task_images/rocket-08.jpg"",""time"":7569.099999904633},{""stimulus"":""run_exp/static/images/task_images/rocket-09.jpg"",""time"":8648.200000047684}]",[],5,,,,,,,,,,,,,,
alien_welcome,132,469407,0.0-42.0-1.0,"""event"",""trial"",""time""
""fullscreenenter"",""1"",""7036""
","
","
","""event"",""trial"",""time""
""fullscreenenter"",""1"",""7036""
","
",,null,run_exp/static/images/task_images/aliens/old_aliens/planet/alien_planet-25.jpg,null,,,,,,,,,,,,,25,"15,3,70,1,64,25,78,46,73,33,36,37,53,52,74,47,8,45,51,50,65,57,61,13,28,35,30,19,6,4,12,71,22,10,27,26,38,14",,,,,,,,,,
land,133,469915,0.0-42.0-2.0,"""event"",""trial"",""time""
""fullscreenenter"",""1"",""7036""
","
","
","""event"",""trial"",""time""
""fullscreenenter"",""1"",""7036""
","
",,null,run_exp/static/images/task_images/land.jpg,null,,,,,,,97,,,6,,,,,,,,,,,,,,
dig,134,471926,0.0-42.0-3.0,"""event"",""trial"",""time""
""fullscreenenter"",""1"",""7036""
","
","
","""event"",""trial"",""time""
""fullscreenenter"",""1"",""7036""
","
",,,,,,,,,,,,"[{""stimulus"":""run_exp/static/images/task_images/dig.jpg"",""time"":0.20000004768371582},{""stimulus"":""run_exp/static/images/task_images/land.jpg"",""time"":678.4000000953674},{""stimulus"":""run_exp/static/images/task_images/dig.jpg"",""time"":1346.3000001907349}]",[],6,,,,,,,,,,,,,,
harvest,135,472932,0.0-42.0-4.0,"""event"",""trial"",""time""
""fullscreenenter"",""1"",""7036""
","
","
","""event"",""trial"",""time""
""fullscreenenter"",""1"",""7036""
","
",,null,run_exp/static/images/task_images/gems/97.jpg,null,,,,,,,81,,,6,,,,,97,0.831497896,0.835051546,,,,,,,
decision,136,473260,0.0-42.0-5.0,"""event"",""trial"",""time""
""fullscreenenter"",""1"",""7036""
","
","
","""event"",""trial"",""time""
""fullscreenenter"",""1"",""7036""
","
",,327.0999999,run_exp/static/images/task_images/land.jpg,65,,,,,,,81,,,6,,,,,,,,157991,1,0,FALSE,,,
dig,137,475941,0.0-43.0-0.0,"""event"",""trial"",""time""
""fullscreenenter"",""1"",""7036""
","
","
","""event"",""trial"",""time""
""fullscreenenter"",""1"",""7036""
","
",,,,,,,,,,,,"[{""stimulus"":""run_exp/static/images/task_images/dig.jpg"",""time"":0.2999999523162842},{""stimulus"":""run_exp/static/images/task_images/land.jpg"",""time"":899.2999999523163},{""stimulus"":""run_exp/static/images/task_images/dig.jpg"",""time"":1788.2999999523163}]",[],6,,,,,,,,,,,,,,
harvest,138,476958,0.0-43.0-1.0,"""event"",""trial"",""time""
""fullscreenenter"",""1"",""7036""
","
","
","""event"",""trial"",""time""
""fullscreenenter"",""1"",""7036""
","
",,null,run_exp/static/images/task_images/gems/81.jpg,null,,,,,,,60,,,6,,,,,81,0.739396343,0.740740741,,,,,,,
decision,139,477181,0.0-43.0-2.0,"""event"",""trial"",""time""
""fullscreenenter"",""1"",""7036""
","
","
","""event"",""trial"",""time""
""fullscreenenter"",""1"",""7036""
","
",,221.7,run_exp/static/images/task_images/land.jpg,65,,,,,,,60,,,6,,,,,,,,161911,1,1,FALSE,,,
dig,140,479968,0.0-44.0-0.0,"""event"",""trial"",""time""
""fullscreenenter"",""1"",""7036""
","
","
","""event"",""trial"",""time""
""fullscreenenter"",""1"",""7036""
","
",,,,,,,,,,,,"[{""stimulus"":""run_exp/static/images/task_images/dig.jpg"",""time"":0.2999999523162842},{""stimulus"":""run_exp/static/images/task_images/land.jpg"",""time"":932},{""stimulus"":""run_exp/static/images/task_images/dig.jpg"",""time"":1862.5999999046326}]",[],6,,,,,,,,,,,,,,
harvest,141,480974,0.0-44.0-1.0,"""event"",""trial"",""time""
""fullscreenenter"",""1"",""7036""
","
","
","""event"",""trial"",""time""
""fullscreenenter"",""1"",""7036""
","
",,null,run_exp/static/images/task_images/gems/60.jpg,null,,,,,,,44,,,6,,,,,60,0.736470505,0.733333333,,,,,,,
decision,142,481237,0.0-44.0-2.0,"""event"",""trial"",""time""
""fullscreenenter"",""1"",""7036""
","
","
","""event"",""trial"",""time""
""fullscreenenter"",""1"",""7036""
","
",,261.6000001,run_exp/static/images/task_images/land.jpg,65,,,,,,,44,,,6,,,,,,,,165967,1,2,FALSE,,,
dig,143,483982,0.0-45.0-0.0,"""event"",""trial"",""time""
""fullscreenenter"",""1"",""7036""
","
","
","""event"",""trial"",""time""
""fullscreenenter"",""1"",""7036""
","
",,,,,,,,,,,,"[{""stimulus"":""run_exp/static/images/task_images/dig.jpg"",""time"":0.20000004768371582},{""stimulus"":""run_exp/static/images/task_images/land.jpg"",""time"":926.0999999046326},{""stimulus"":""run_exp/static/images/task_images/dig.jpg"",""time"":1839.7999999523163}]",[],6,,,,,,,,,,,,,,
harvest,144,484990,0.0-45.0-1.0,"""event"",""trial"",""time""
""fullscreenenter"",""1"",""7036""
","
","
","""event"",""trial"",""time""
""fullscreenenter"",""1"",""7036""
","
",,null,run_exp/static/images/task_images/gems/44.jpg,null,,,,,,,35,,,6,,,,,44,0.799309664,0.795454545,,,,,,,
decision,145,485501,0.0-45.0-2.0,"""event"",""trial"",""time""
""fullscreenenter"",""1"",""7036""
","
","
","""event"",""trial"",""time""
""fullscreenenter"",""1"",""7036""
","
",,509.3999999,run_exp/static/images/task_images/land.jpg,65,,,,,,,35,,,6,,,,,,,,170231,1,3,FALSE,,,
dig,146,488004,0.0-46.0-0.0,"""event"",""trial"",""time""
""fullscreenenter"",""1"",""7036""
","
","
","""event"",""trial"",""time""
""fullscreenenter"",""1"",""7036""
","
",,,,,,,,,,,,"[{""stimulus"":""run_exp/static/images/task_images/dig.jpg"",""time"":0.2999999523162842},{""stimulus"":""run_exp/static/images/task_images/land.jpg"",""time"":836.5999999046326},{""stimulus"":""run_exp/static/images/task_images/dig.jpg"",""time"":1672.6999998092651}]",[],6,,,,,,,,,,,,,,
harvest,147,489016,0.0-46.0-1.0,"""event"",""trial"",""time""
""fullscreenenter"",""1"",""7036""
","
","
","""event"",""trial"",""time""
""fullscreenenter"",""1"",""7036""
","
",,null,run_exp/static/images/task_images/gems/35.jpg,null,,,,,,,31,,,6,,,,,35,0.897323662,0.885714286,,,,,,,
decision,148,489588,0.0-46.0-2.0,"""event"",""trial"",""time""
""fullscreenenter"",""1"",""7036""
","
","
","""event"",""trial"",""time""
""fullscreenenter"",""1"",""7036""
","
",,571.4000001,run_exp/static/images/task_images/land.jpg,65,,,,,,,31,,,6,,,,,,,,174318,1,4,FALSE,,,
dig,149,492020,0.0-47.0-0.0,"""event"",""trial"",""time""
""fullscreenenter"",""1"",""7036""
","
","
","""event"",""trial"",""time""
""fullscreenenter"",""1"",""7036""
","
",,,,,,,,,,,,"[{""stimulus"":""run_exp/static/images/task_images/dig.jpg"",""time"":0.19999980926513672},{""stimulus"":""run_exp/static/images/task_images/land.jpg"",""time"":823.1999998092651},{""stimulus"":""run_exp/static/images/task_images/dig.jpg"",""time"":1635.0999999046326}]",[],6,,,,,,,,,,,,,,
harvest,150,493032,0.0-47.0-1.0,"""event"",""trial"",""time""
""fullscreenenter"",""1"",""7036""
","
","
","""event"",""trial"",""time""
""fullscreenenter"",""1"",""7036""
","
",,null,run_exp/static/images/task_images/gems/31.jpg,null,,,,,,,25,,,6,,,,,31,0.820646985,0.806451613,,,,,,,
decision,151,493349,0.0-47.0-2.0,"""event"",""trial"",""time""
""fullscreenenter"",""1"",""7036""
","
","
","""event"",""trial"",""time""
""fullscreenenter"",""1"",""7036""
","
",,316.0999999,run_exp/static/images/task_images/land.jpg,65,,,,,,,25,,,6,,,,,,,,178079,1,5,FALSE,,,
dig,152,496048,0.0-48.0-0.0,"""event"",""trial"",""time""
""fullscreenenter"",""1"",""7036""
","
","
","""event"",""trial"",""time""
""fullscreenenter"",""1"",""7036""
","
",,,,,,,,,,,,"[{""stimulus"":""run_exp/static/images/task_images/dig.jpg"",""time"":0.2999999523162842},{""stimulus"":""run_exp/static/images/task_images/land.jpg"",""time"":904},{""stimulus"":""run_exp/static/images/task_images/dig.jpg"",""time"":1798.0999999046326}]",[],6,,,,,,,,,,,,,,
harvest,153,497062,0.0-48.0-1.0,"""event"",""trial"",""time""
""fullscreenenter"",""1"",""7036""
","
","
","""event"",""trial"",""time""
""fullscreenenter"",""1"",""7036""
","
",,null,run_exp/static/images/task_images/gems/25.jpg,null,,,,,,,19,,,6,,,,,25,0.745636744,0.76,,,,,,,
decision,154,497325,0.0-48.0-2.0,"""event"",""trial"",""time""
""fullscreenenter"",""1"",""7036""
","
","
","""event"",""trial"",""time""
""fullscreenenter"",""1"",""7036""
","
",,262.0999999,run_exp/static/images/task_images/land.jpg,65,,,,,,,19,,,6,,,,,,,,182055,1,6,FALSE,,,
dig,155,500066,0.0-49.0-0.0,"""event"",""trial"",""time""
""fullscreenenter"",""1"",""7036""
","
","
","""event"",""trial"",""time""
""fullscreenenter"",""1"",""7036""
","
",,,,,,,,,,,,"[{""stimulus"":""run_exp/static/images/task_images/dig.jpg"",""time"":0.20000004768371582},{""stimulus"":""run_exp/static/images/task_images/land.jpg"",""time"":922.8999998569489},{""stimulus"":""run_exp/static/images/task_images/dig.jpg"",""time"":1837.5}]",[],6,,,,,,,,,,,,,,
harvest,156,501078,0.0-49.0-1.0,"""event"",""trial"",""time""
""fullscreenenter"",""1"",""7036""
","
","
","""event"",""trial"",""time""
""fullscreenenter"",""1"",""7036""
","
",,null,run_exp/static/images/task_images/gems/19.jpg,null,,,,,,,16,,,6,,,,,19,0.862792677,0.842105263,,,,,,,
decision,157,501301,0.0-49.0-2.0,"""event"",""trial"",""time""
""fullscreenenter"",""1"",""7036""
","
","
","""event"",""trial"",""time""
""fullscreenenter"",""1"",""7036""
","
",,221.2,run_exp/static/images/task_images/land.jpg,76,,,,,,,16,,,6,,,,,,,,186031,1,7,TRUE,,,
travel,158,511090,0.0-50.0-0.0,"""event"",""trial"",""time""
""fullscreenenter"",""1"",""7036""
","
","
","""event"",""trial"",""time""
""fullscreenenter"",""1"",""7036""
","
",,,,,,,,,,,,"[{""stimulus"":""run_exp/static/images/task_images/rocket-01.jpg"",""time"":0},{""stimulus"":""run_exp/static/images/task_images/rocket-02.jpg"",""time"":1096.5},{""stimulus"":""run_exp/static/images/task_images/rocket-03.jpg"",""time"":2186.2999999523163},{""stimulus"":""run_exp/static/images/task_images/rocket-04.jpg"",""time"":3262.5},{""stimulus"":""run_exp/static/images/task_images/rocket-05.jpg"",""time"":4352.099999904633},{""stimulus"":""run_exp/static/images/task_images/rocket-06.jpg"",""time"":5434.099999904633},{""stimulus"":""run_exp/static/images/task_images/rocket-07.jpg"",""time"":6520},{""stimulus"":""run_exp/static/images/task_images/rocket-08.jpg"",""time"":7604.099999904633},{""stimulus"":""run_exp/static/images/task_images/rocket-09.jpg"",""time"":8704.399999856949}]",[],6,,,,,,,,,,,,,,
alien_welcome,159,516105,0.0-50.0-1.0,"""event"",""trial"",""time""
""fullscreenenter"",""1"",""7036""
","
","
","""event"",""trial"",""time""
""fullscreenenter"",""1"",""7036""
","
",,null,run_exp/static/images/task_images/aliens/old_aliens/planet/alien_planet-78.jpg,null,,,,,,,,,,,,,78,"15,3,70,1,64,25,78,46,73,33,36,37,53,52,74,47,8,45,51,50,65,57,61,13,28,35,30,19,6,4,12,71,22,10,27,26,38,14",,,,,,,,,,
land,160,516617,0.0-50.0-2.0,"""event"",""trial"",""time""
""fullscreenenter"",""1"",""7036""
","
","
","""event"",""trial"",""time""
""fullscreenenter"",""1"",""7036""
","
",,null,run_exp/static/images/task_images/land.jpg,null,,,,,,,95,,,7,,,,,,,,,,,,,,
dig,161,518625,0.0-50.0-3.0,"""event"",""trial"",""time""
""fullscreenenter"",""1"",""7036""
","
","
","""event"",""trial"",""time""
""fullscreenenter"",""1"",""7036""
","
",,,,,,,,,,,,"[{""stimulus"":""run_exp/static/images/task_images/dig.jpg"",""time"":0.39999985694885254},{""stimulus"":""run_exp/static/images/task_images/land.jpg"",""time"":673.2999999523163},{""stimulus"":""run_exp/static/images/task_images/dig.jpg"",""time"":1335.3999998569489}]",[],7,,,,,,,,,,,,,,
harvest,162,519631,0.0-50.0-4.0,"""event"",""trial"",""time""
""fullscreenenter"",""1"",""7036""
","
","
","""event"",""trial"",""time""
""fullscreenenter"",""1"",""7036""
","
",,null,run_exp/static/images/task_images/gems/95.jpg,null,,,,,,,67,,,7,,,,,95,0.710365392,0.705263158,,,,,,,
decision,163,520900,0.0-50.0-5.0,"""event"",""trial"",""time""
""fullscreenenter"",""1"",""7036""
","
","
","""event"",""trial"",""time""
""fullscreenenter"",""1"",""7036""
","
",,1267.3,run_exp/static/images/task_images/land.jpg,65,,,,,,,67,,,7,,,,,,,,205630,1,0,FALSE,,,
dig,164,522639,0.0-51.0-0.0,"""event"",""trial"",""time""
""fullscreenenter"",""1"",""7036""
","
","
","""event"",""trial"",""time""
""fullscreenenter"",""1"",""7036""
","
",,,,,,,,,,,,"[{""stimulus"":""run_exp/static/images/task_images/dig.jpg"",""time"":0.09999990463256836},{""stimulus"":""run_exp/static/images/task_images/land.jpg"",""time"":581},{""stimulus"":""run_exp/static/images/task_images/dig.jpg"",""time"":1161.7000000476837}]",[],7,,,,,,,,,,,,,,
harvest,165,523652,0.0-51.0-1.0,"""event"",""trial"",""time""
""fullscreenenter"",""1"",""7036""
","
","
","""event"",""trial"",""time""
""fullscreenenter"",""1"",""7036""
","
",,null,run_exp/static/images/task_images/gems/67.jpg,null,,,,,,,55,,,7,,,,,67,0.818000256,0.820895522,,,,,,,
decision,166,523900,0.0-51.0-2.0,"""event"",""trial"",""time""
""fullscreenenter"",""1"",""7036""
","
","
","""event"",""trial"",""time""
""fullscreenenter"",""1"",""7036""
","
",,246.8999999,run_exp/static/images/task_images/land.jpg,65,,,,,,,55,,,7,,,,,,,,208631,1,1,FALSE,,,
dig,167,526664,0.0-52.0-0.0,"""event"",""trial"",""time""
""fullscreenenter"",""1"",""7036""
","
","
","""event"",""trial"",""time""
""fullscreenenter"",""1"",""7036""
","
",,,,,,,,,,,,"[{""stimulus"":""run_exp/static/images/task_images/dig.jpg"",""time"":0.10000014305114746},{""stimulus"":""run_exp/static/images/task_images/land.jpg"",""time"":924.5},{""stimulus"":""run_exp/static/images/task_images/dig.jpg"",""time"":1846.2000000476837}]",[],7,,,,,,,,,,,,,,
harvest,168,527666,0.0-52.0-1.0,"""event"",""trial"",""time""
""fullscreenenter"",""1"",""7036""
","
","
","""event"",""trial"",""time""
""fullscreenenter"",""1"",""7036""
","
",,null,run_exp/static/images/task_images/gems/55.jpg,null,,,,,,,46,,,7,,,,,55,0.834786169,0.836363636,,,,,,,
decision,169,529005,0.0-52.0-2.0,"""event"",""trial"",""time""
""fullscreenenter"",""1"",""7036""
","
","
","""event"",""trial"",""time""
""fullscreenenter"",""1"",""7036""
","
",,1337.3,run_exp/static/images/task_images/land.jpg,65,,,,,,,46,,,7,,,,,,,,213735,1,2,FALSE,,,
dig,170,530675,0.0-53.0-0.0,"""event"",""trial"",""time""
""fullscreenenter"",""1"",""7036""
","
","
","""event"",""trial"",""time""
""fullscreenenter"",""1"",""7036""
","
",,,,,,,,,,,,"[{""stimulus"":""run_exp/static/images/task_images/dig.jpg"",""time"":0.09999990463256836},{""stimulus"":""run_exp/static/images/task_images/land.jpg"",""time"":555.6999998092651},{""stimulus"":""run_exp/static/images/task_images/dig.jpg"",""time"":1111.8999998569489}]",[],7,,,,,,,,,,,,,,
harvest,171,531690,0.0-53.0-1.0,"""event"",""trial"",""time""
""fullscreenenter"",""1"",""7036""
","
","
","""event"",""trial"",""time""
""fullscreenenter"",""1"",""7036""
","
",,null,run_exp/static/images/task_images/gems/46.jpg,null,,,,,,,39,,,7,,,,,46,0.855127653,0.847826087,,,,,,,
decision,172,532204,0.0-53.0-2.0,"""event"",""trial"",""time""
""fullscreenenter"",""1"",""7036""
","
","
","""event"",""trial"",""time""
""fullscreenenter"",""1"",""7036""
","
",,512.7,run_exp/static/images/task_images/land.jpg,65,,,,,,,39,,,7,,,,,,,,216934,1,3,FALSE,,,
dig,173,534704,0.0-54.0-0.0,"""event"",""trial"",""time""
""fullscreenenter"",""1"",""7036""
","
","
","""event"",""trial"",""time""
""fullscreenenter"",""1"",""7036""
","
",,,,,,,,,,,,"[{""stimulus"":""run_exp/static/images/task_images/dig.jpg"",""time"":0.10000014305114746},{""stimulus"":""run_exp/static/images/task_images/land.jpg"",""time"":844.2999999523163},{""stimulus"":""run_exp/static/images/task_images/dig.jpg"",""time"":1668.2000000476837}]",[],7,,,,,,,,,,,,,,
harvest,174,535717,0.0-54.0-1.0,"""event"",""trial"",""time""
""fullscreenenter"",""1"",""7036""
","
","
","""event"",""trial"",""time""
""fullscreenenter"",""1"",""7036""
","
",,null,run_exp/static/images/task_images/gems/39.jpg,null,,,,,,,31,,,7,,,,,39,0.806975436,0.794871795,,,,,,,
decision,175,536027,0.0-54.0-2.0,"""event"",""trial"",""time""
""fullscreenenter"",""1"",""7036""
","
","
","""event"",""trial"",""time""
""fullscreenenter"",""1"",""7036""
","
",,308.7,run_exp/static/images/task_images/land.jpg,65,,,,,,,31,,,7,,,,,,,,220757,1,4,FALSE,,,
dig,176,538735,0.0-55.0-0.0,"""event"",""trial"",""time""
""fullscreenenter"",""1"",""7036""
","
","
","""event"",""trial"",""time""
""fullscreenenter"",""1"",""7036""
","
",,,,,,,,,,,,"[{""stimulus"":""run_exp/static/images/task_images/dig.jpg"",""time"":0},{""stimulus"":""run_exp/static/images/task_images/land.jpg"",""time"":912.5},{""stimulus"":""run_exp/static/images/task_images/dig.jpg"",""time"":1805}]",[],7,,,,,,,,,,,,,,
harvest,177,539743,0.0-55.0-1.0,"""event"",""trial"",""time""
""fullscreenenter"",""1"",""7036""
","
","
","""event"",""trial"",""time""
""fullscreenenter"",""1"",""7036""
","
",,null,run_exp/static/images/task_images/gems/31.jpg,null,,,,,,,26,,,7,,,,,31,0.825825708,0.838709677,,,,,,,
decision,178,539749,0.0-55.0-2.0,"""event"",""trial"",""time""
""fullscreenenter"",""1"",""7036""
","
","
","""event"",""trial"",""time""
""fullscreenenter"",""1"",""7036""
","
",,5.400000095,run_exp/static/images/task_images/land.jpg,65,,,,,,,26,,,7,,,,,,,,224479,1,5,FALSE,,,
dig,179,542760,0.0-56.0-0.0,"""event"",""trial"",""time""
""fullscreenenter"",""1"",""7036""
","
","
","""event"",""trial"",""time""
""fullscreenenter"",""1"",""7036""
","
",,,,,,,,,,,,"[{""stimulus"":""run_exp/static/images/task_images/dig.jpg"",""time"":0.20000004768371582},{""stimulus"":""run_exp/static/images/task_images/land.jpg"",""time"":1009.0999999046326},{""stimulus"":""run_exp/static/images/task_images/dig.jpg"",""time"":2007.5999999046326}]",[],7,,,,,,,,,,,,,,
harvest,180,543767,0.0-56.0-1.0,"""event"",""trial"",""time""
""fullscreenenter"",""1"",""7036""
","
","
","""event"",""trial"",""time""
""fullscreenenter"",""1"",""7036""
","
",,null,run_exp/static/images/task_images/gems/26.jpg,null,,,,,,,21,,,7,,,,,26,0.798322177,0.807692308,,,,,,,
decision,181,543980,0.0-56.0-2.0,"""event"",""trial"",""time""
""fullscreenenter"",""1"",""7036""
","
","
","""event"",""trial"",""time""
""fullscreenenter"",""1"",""7036""
","
",,211.4000001,run_exp/static/images/task_images/land.jpg,76,,,,,,,21,,,7,,,,,,,,228710,1,6,TRUE,,,
travel,182,553774,0.0-57.0-0.0,"""event"",""trial"",""time""
""fullscreenenter"",""1"",""7036""
","
","
","""event"",""trial"",""time""
""fullscreenenter"",""1"",""7036""
","
",,,,,,,,,,,,"[{""stimulus"":""run_exp/static/images/task_images/rocket-01.jpg"",""time"":0.2999999523162842},{""stimulus"":""run_exp/static/images/task_images/rocket-02.jpg"",""time"":1096},{""stimulus"":""run_exp/static/images/task_images/rocket-03.jpg"",""time"":2189.5999999046326},{""stimulus"":""run_exp/static/images/task_images/rocket-04.jpg"",""time"":3277.2999999523163},{""stimulus"":""run_exp/static/images/task_images/rocket-05.jpg"",""time"":4357.599999904633},{""stimulus"":""run_exp/static/images/task_images/rocket-06.jpg"",""time"":5449.700000047684},{""stimulus"":""run_exp/static/images/task_images/rocket-07.jpg"",""time"":6532.299999952316},{""stimulus"":""run_exp/static/images/task_images/rocket-08.jpg"",""time"":7613.599999904633},{""stimulus"":""run_exp/static/images/task_images/rocket-09.jpg"",""time"":8707.599999904633}]",[],7,,,,,,,,,,,,,,
alien_welcome,183,558787,0.0-57.0-1.0,"""event"",""trial"",""time""
""fullscreenenter"",""1"",""7036""
","
","
","""event"",""trial"",""time""
""fullscreenenter"",""1"",""7036""
","
",,null,run_exp/static/images/task_images/aliens/old_aliens/planet/alien_planet-46.jpg,null,,,,,,,,,,,,,46,"15,3,70,1,64,25,78,46,73,33,36,37,53,52,74,47,8,45,51,50,65,57,61,13,28,35,30,19,6,4,12,71,22,10,27,26,38,14",,,,,,,,,,
land,184,559302,0.0-57.0-2.0,"""event"",""trial"",""time""
""fullscreenenter"",""1"",""7036""
","
","
","""event"",""trial"",""time""
""fullscreenenter"",""1"",""7036""
","
",,null,run_exp/static/images/task_images/land.jpg,null,,,,,,,106,,,8,,,,,,,,,,,,,,
dig,185,561311,0.0-57.0-3.0,"""event"",""trial"",""time""
""fullscreenenter"",""1"",""7036""
","
","
","""event"",""trial"",""time""
""fullscreenenter"",""1"",""7036""
","
",,,,,,,,,,,,"[{""stimulus"":""run_exp/static/images/task_images/dig.jpg"",""time"":0.3000001907348633},{""stimulus"":""run_exp/static/images/task_images/land.jpg"",""time"":672.6000001430511},{""stimulus"":""run_exp/static/images/task_images/dig.jpg"",""time"":1340.1000001430511}]",[],8,,,,,,,,,,,,,,
harvest,186,562327,0.0-57.0-4.0,"""event"",""trial"",""time""
""fullscreenenter"",""1"",""7036""
","
","
","""event"",""trial"",""time""
""fullscreenenter"",""1"",""7036""
","
",,null,run_exp/static/images/task_images/gems/106.jpg,null,,,,,,,82,,,8,,,,,106,0.77443646,0.773584906,,,,,,,
decision,187,563252,0.0-57.0-5.0,"""event"",""trial"",""time""
""fullscreenenter"",""1"",""7036""
","
","
","""event"",""trial"",""time""
""fullscreenenter"",""1"",""7036""
","
",,923.3000002,run_exp/static/images/task_images/land.jpg,65,,,,,,,82,,,8,,,,,,,,247982,1,0,FALSE,,,
dig,188,565342,0.0-58.0-0.0,"""event"",""trial"",""time""
""fullscreenenter"",""1"",""7036""
","
","
","""event"",""trial"",""time""
""fullscreenenter"",""1"",""7036""
","
",,,,,,,,,,,,"[{""stimulus"":""run_exp/static/images/task_images/dig.jpg"",""time"":0.2999999523162842},{""stimulus"":""run_exp/static/images/task_images/land.jpg"",""time"":705.7999999523163},{""stimulus"":""run_exp/static/images/task_images/dig.jpg"",""time"":1396.2999999523163}]",[],8,,,,,,,,,,,,,,
harvest,189,566350,0.0-58.0-1.0,"""event"",""trial"",""time""
""fullscreenenter"",""1"",""7036""
","
","
","""event"",""trial"",""time""
""fullscreenenter"",""1"",""7036""
","
",,null,run_exp/static/images/task_images/gems/82.jpg,null,,,,,,,60,,,8,,,,,82,0.735830422,0.731707317,,,,,,,
decision,190,566941,0.0-58.0-2.0,"""event"",""trial"",""time""
""fullscreenenter"",""1"",""7036""
","
","
","""event"",""trial"",""time""
""fullscreenenter"",""1"",""7036""
","
",,589.3,run_exp/static/images/task_images/land.jpg,65,,,,,,,60,,,8,,,,,,,,251671,1,1,FALSE,,,
dig,191,569356,0.0-59.0-0.0,"""event"",""trial"",""time""
""fullscreenenter"",""1"",""7036""
","
","
","""event"",""trial"",""time""
""fullscreenenter"",""1"",""7036""
","
",,,,,,,,,,,,"[{""stimulus"":""run_exp/static/images/task_images/dig.jpg"",""time"":0.10000014305114746},{""stimulus"":""run_exp/static/images/task_images/land.jpg"",""time"":807.5},{""stimulus"":""run_exp/static/images/task_images/dig.jpg"",""time"":1616.2999999523163}]",[],8,,,,,,,,,,,,,,
harvest,192,570373,0.0-59.0-1.0,"""event"",""trial"",""time""
""fullscreenenter"",""1"",""7036""
","
","
","""event"",""trial"",""time""
""fullscreenenter"",""1"",""7036""
","
",,null,run_exp/static/images/task_images/gems/60.jpg,null,,,,,,,52,,,8,,,,,60,0.8588051,0.866666667,,,,,,,
decision,193,570540,0.0-59.0-2.0,"""event"",""trial"",""time""
""fullscreenenter"",""1"",""7036""
","
","
","""event"",""trial"",""time""
""fullscreenenter"",""1"",""7036""
","
",,166.5999999,run_exp/static/images/task_images/land.jpg,65,,,,,,,52,,,8,,,,,,,,255270,1,2,FALSE,,,
dig,194,573382,0.0-60.0-0.0,"""event"",""trial"",""time""
""fullscreenenter"",""1"",""7036""
","
","
","""event"",""trial"",""time""
""fullscreenenter"",""1"",""7036""
","
",,,,,,,,,,,,"[{""stimulus"":""run_exp/static/images/task_images/dig.jpg"",""time"":0.09999990463256836},{""stimulus"":""run_exp/static/images/task_images/land.jpg"",""time"":956.6999998092651},{""stimulus"":""run_exp/static/images/task_images/dig.jpg"",""time"":1889.2999999523163}]",[],8,,,,,,,,,,,,,,
harvest,195,574385,0.0-60.0-1.0,"""event"",""trial"",""time""
""fullscreenenter"",""1"",""7036""
","
","
","""event"",""trial"",""time""
""fullscreenenter"",""1"",""7036""
","
",,null,run_exp/static/images/task_images/gems/52.jpg,null,,,,,,,40,,,8,,,,,52,0.770457335,0.769230769,,,,,,,
decision,196,574661,0.0-60.0-2.0,"""event"",""trial"",""time""
""fullscreenenter"",""1"",""7036""
","
","
","""event"",""trial"",""time""
""fullscreenenter"",""1"",""7036""
","
",,275,run_exp/static/images/task_images/land.jpg,65,,,,,,,40,,,8,,,,,,,,259391,1,3,FALSE,,,
dig,197,577400,0.0-61.0-0.0,"""event"",""trial"",""time""
""fullscreenenter"",""1"",""7036""
","
","
","""event"",""trial"",""time""
""fullscreenenter"",""1"",""7036""
","
",,,,,,,,,,,,"[{""stimulus"":""run_exp/static/images/task_images/dig.jpg"",""time"":0.2999999523162842},{""stimulus"":""run_exp/static/images/task_images/land.jpg"",""time"":912.2999999523163},{""stimulus"":""run_exp/static/images/task_images/dig.jpg"",""time"":1819.5999999046326}]",[],8,,,,,,,,,,,,,,
harvest,198,578414,0.0-61.0-1.0,"""event"",""trial"",""time""
""fullscreenenter"",""1"",""7036""
","
","
","""event"",""trial"",""time""
""fullscreenenter"",""1"",""7036""
","
",,null,run_exp/static/images/task_images/gems/40.jpg,null,,,,,,,32,,,8,,,,,40,0.791168017,0.8,,,,,,,
decision,199,578692,0.0-61.0-2.0,"""event"",""trial"",""time""
""fullscreenenter"",""1"",""7036""
","
","
","""event"",""trial"",""time""
""fullscreenenter"",""1"",""7036""
","
",,277.5,run_exp/static/images/task_images/land.jpg,65,,,,,,,32,,,8,,,,,,,,263423,1,4,FALSE,,,
dig,200,581433,0.0-62.0-0.0,"""event"",""trial"",""time""
""fullscreenenter"",""1"",""7036""
","
","
","""event"",""trial"",""time""
""fullscreenenter"",""1"",""7036""
","
",,,,,,,,,,,,"[{""stimulus"":""run_exp/static/images/task_images/dig.jpg"",""time"":0.09999990463256836},{""stimulus"":""run_exp/static/images/task_images/land.jpg"",""time"":916.5999999046326},{""stimulus"":""run_exp/static/images/task_images/dig.jpg"",""time"":1819.2999999523163}]",[],8,,,,,,,,,,,,,,
harvest,201,582435,0.0-62.0-1.0,"""event"",""trial"",""time""
""fullscreenenter"",""1"",""7036""
","
","
","""event"",""trial"",""time""
""fullscreenenter"",""1"",""7036""
","
",,null,run_exp/static/images/task_images/gems/32.jpg,null,,,,,,,24,,,8,,,,,32,0.761010327,0.75,,,,,,,
decision,202,582885,0.0-62.0-2.0,"""event"",""trial"",""time""
""fullscreenenter"",""1"",""7036""
","
","
","""event"",""trial"",""time""
""fullscreenenter"",""1"",""7036""
","
",,449,run_exp/static/images/task_images/land.jpg,65,,,,,,,24,,,8,,,,,,,,267615,1,5,FALSE,,,
dig,203,585451,0.0-63.0-0.0,"""event"",""trial"",""time""
""fullscreenenter"",""1"",""7036""
","
","
","""event"",""trial"",""time""
""fullscreenenter"",""1"",""7036""
","
",,,,,,,,,,,,"[{""stimulus"":""run_exp/static/images/task_images/dig.jpg"",""time"":0.3000001907348633},{""stimulus"":""run_exp/static/images/task_images/land.jpg"",""time"":852},{""stimulus"":""run_exp/static/images/task_images/dig.jpg"",""time"":1716.2000000476837}]",[],8,,,,,,,,,,,,,,
harvest,204,586454,0.0-63.0-1.0,"""event"",""trial"",""time""
""fullscreenenter"",""1"",""7036""
","
","
","""event"",""trial"",""time""
""fullscreenenter"",""1"",""7036""
","
",,null,run_exp/static/images/task_images/gems/24.jpg,null,,,,,,,21,,,8,,,,,24,0.87070526,0.875,,,,,,,
decision,205,586677,0.0-63.0-2.0,"""event"",""trial"",""time""
""fullscreenenter"",""1"",""7036""
","
","
","""event"",""trial"",""time""
""fullscreenenter"",""1"",""7036""
","
",,222.0999999,run_exp/static/images/task_images/land.jpg,76,,,,,,,21,,,8,,,,,,,,271407,1,6,TRUE,,,
travel,206,596459,0.0-64.0-0.0,"""event"",""trial"",""time""
""fullscreenenter"",""1"",""7036""
","
","
","""event"",""trial"",""time""
""fullscreenenter"",""1"",""7036""
","
",,,,,,,,,,,,"[{""stimulus"":""run_exp/static/images/task_images/rocket-01.jpg"",""time"":0.20000004768371582},{""stimulus"":""run_exp/static/images/task_images/rocket-02.jpg"",""time"":1086.7999999523163},{""stimulus"":""run_exp/static/images/task_images/rocket-03.jpg"",""time"":2179.7000000476837},{""stimulus"":""run_exp/static/images/task_images/rocket-04.jpg"",""time"":3262.9000000953674},{""stimulus"":""run_exp/static/images/task_images/rocket-05.jpg"",""time"":4345.799999952316},{""stimulus"":""run_exp/static/images/task_images/rocket-06.jpg"",""time"":5433.5},{""stimulus"":""run_exp/static/images/task_images/rocket-07.jpg"",""time"":6527.200000047684},{""stimulus"":""run_exp/static/images/task_images/rocket-08.jpg"",""time"":7614.900000095367},{""stimulus"":""run_exp/static/images/task_images/rocket-09.jpg"",""time"":8693.700000047684}]",[],8,,,,,,,,,,,,,,
alien_welcome,207,601473,0.0-64.0-1.0,"""event"",""trial"",""time""
""fullscreenenter"",""1"",""7036""
","
","
","""event"",""trial"",""time""
""fullscreenenter"",""1"",""7036""
","
",,null,run_exp/static/images/task_images/aliens/old_aliens/planet/alien_planet-73.jpg,null,,,,,,,,,,,,,73,"15,3,70,1,64,25,78,46,73,33,36,37,53,52,74,47,8,45,51,50,65,57,61,13,28,35,30,19,6,4,12,71,22,10,27,26,38,14",,,,,,,,,,
land,208,601985,0.0-64.0-2.0,"""event"",""trial"",""time""
""fullscreenenter"",""1"",""7036""
","
","
","""event"",""trial"",""time""
""fullscreenenter"",""1"",""7036""
","
",,null,run_exp/static/images/task_images/land.jpg,null,,,,,,,96,,,9,,,,,,,,,,,,,,
dig,209,603993,0.0-64.0-3.0,"""event"",""trial"",""time""
""fullscreenenter"",""1"",""7036""
","
","
","""event"",""trial"",""time""
""fullscreenenter"",""1"",""7036""
","
",,,,,,,,,,,,"[{""stimulus"":""run_exp/static/images/task_images/dig.jpg"",""time"":0.40000009536743164},{""stimulus"":""run_exp/static/images/task_images/land.jpg"",""time"":674.7000000476837},{""stimulus"":""run_exp/static/images/task_images/dig.jpg"",""time"":1340.2999999523163}]",[],9,,,,,,,,,,,,,,
harvest,210,605002,0.0-64.0-4.0,"""event"",""trial"",""time""
""fullscreenenter"",""1"",""7036""
","
","
","""event"",""trial"",""time""
""fullscreenenter"",""1"",""7036""
","
",,null,run_exp/static/images/task_images/gems/96.jpg,null,,,,,,,17,,,9,,,,,96,0.173142553,0.177083333,,,,,,,
decision,211,605493,0.0-64.0-5.0,"""event"",""trial"",""time""
""fullscreenenter"",""1"",""7036""
","
","
","""event"",""trial"",""time""
""fullscreenenter"",""1"",""7036""
","
",,490,run_exp/static/images/task_images/land.jpg,65,,,,,,,17,,,9,,,,,,,,290224,1,0,FALSE,,,
dig,212,608020,0.0-65.0-0.0,"""event"",""trial"",""time""
""fullscreenenter"",""1"",""7036""
","
","
","""event"",""trial"",""time""
""fullscreenenter"",""1"",""7036""
","
",,,,,,,,,,,,"[{""stimulus"":""run_exp/static/images/task_images/dig.jpg"",""time"":0.20000004768371582},{""stimulus"":""run_exp/static/images/task_images/land.jpg"",""time"":836.8999998569489},{""stimulus"":""run_exp/static/images/task_images/dig.jpg"",""time"":1689.5}]",[],9,,,,,,,,,,,,,,
harvest,213,609032,0.0-65.0-1.0,"""event"",""trial"",""time""
""fullscreenenter"",""1"",""7036""
","
","
","""event"",""trial"",""time""
""fullscreenenter"",""1"",""7036""
","
",,null,run_exp/static/images/task_images/gems/17.jpg,null,,,,,,,4,,,9,,,,,17,0.208584302,0.235294118,,,,,,,
decision,214,610037,0.0-65.0-2.0,"""event"",""trial"",""time""
""fullscreenenter"",""1"",""7036""
","
","
","""event"",""trial"",""time""
""fullscreenenter"",""1"",""7036""
","
",,1004,run_exp/static/images/task_images/land.jpg,76,,,,,,,4,,,9,,,,,,,,294767,1,1,TRUE,,,
travel,215,619043,0.0-66.0-0.0,"""event"",""trial"",""time""
""fullscreenenter"",""1"",""7036""
","
","
","""event"",""trial"",""time""
""fullscreenenter"",""1"",""7036""
","
",,,,,,,,,,,,"[{""stimulus"":""run_exp/static/images/task_images/rocket-01.jpg"",""time"":0.10000014305114746},{""stimulus"":""run_exp/static/images/task_images/rocket-02.jpg"",""time"":1010.2999999523163},{""stimulus"":""run_exp/static/images/task_images/rocket-03.jpg"",""time"":2006.4000000953674},{""stimulus"":""run_exp/static/images/task_images/rocket-04.jpg"",""time"":3003.7000000476837},{""stimulus"":""run_exp/static/images/task_images/rocket-05.jpg"",""time"":4003.7000000476837},{""stimulus"":""run_exp/static/images/task_images/rocket-06.jpg"",""time"":5003.900000095367},{""stimulus"":""run_exp/static/images/task_images/rocket-07.jpg"",""time"":6008},{""stimulus"":""run_exp/static/images/task_images/rocket-08.jpg"",""time"":7003.600000143051},{""stimulus"":""run_exp/static/images/task_images/rocket-09.jpg"",""time"":8003.299999952316}]",[],9,,,,,,,,,,,,,,
alien_welcome,216,624051,0.0-66.0-1.0,"""event"",""trial"",""time""
""fullscreenenter"",""1"",""7036""
","
","
","""event"",""trial"",""time""
""fullscreenenter"",""1"",""7036""
","
",,null,run_exp/static/images/task_images/aliens/old_aliens/planet/alien_planet-33.jpg,null,,,,,,,,,,,,,33,"15,3,70,1,64,25,78,46,73,33,36,37,53,52,74,47,8,45,51,50,65,57,61,13,28,35,30,19,6,4,12,71,22,10,27,26,38,14",,,,,,,,,,
land,217,624569,0.0-66.0-2.0,"""event"",""trial"",""time""
""fullscreenenter"",""1"",""7036""
","
","
","""event"",""trial"",""time""
""fullscreenenter"",""1"",""7036""
","
",,null,run_exp/static/images/task_images/land.jpg,null,,,,,,,95,,,10,,,,,,,,,,,,,,
dig,218,626577,0.0-66.0-3.0,"""event"",""trial"",""time""
""fullscreenenter"",""1"",""7036""
","
","
","""event"",""trial"",""time""
""fullscreenenter"",""1"",""7036""
","
",,,,,,,,,,,,"[{""stimulus"":""run_exp/static/images/task_images/dig.jpg"",""time"":0.2999999523162842},{""stimulus"":""run_exp/static/images/task_images/land.jpg"",""time"":672.2999999523163},{""stimulus"":""run_exp/static/images/task_images/dig.jpg"",""time"":1338}]",[],10,,,,,,,,,,,,,,
harvest,219,627590,0.0-66.0-4.0,"""event"",""trial"",""time""
""fullscreenenter"",""1"",""7036""
","
","
","""event"",""trial"",""time""
""fullscreenenter"",""1"",""7036""
","
",,null,run_exp/static/images/task_images/gems/95.jpg,null,,,,,,,24,,,10,,,,,95,0.256591414,0.252631579,,,,,,,
decision,220,628101,0.0-66.0-5.0,"""event"",""trial"",""time""
""fullscreenenter"",""1"",""7036""
","
","
","""event"",""trial"",""time""
""fullscreenenter"",""1"",""7036""
","
",,509.2,run_exp/static/images/task_images/land.jpg,65,,,,,,,24,,,10,,,,,,,,312831,1,0,TRUE,,,
end_of_block_continue,221,636952,0.0-67.0-0.0,"""event"",""trial"",""time""
""fullscreenenter"",""1"",""7036""
","
","
","""event"",""trial"",""time""
""fullscreenenter"",""1"",""7036""
","
",,null,run_exp/static/audio/clip_32_block_end.m4a,,,,,,,null,,,,,,,,,,,,,,,,,,
alien_welcome,222,641960,0.0-68.0-0.0,"""event"",""trial"",""time""
""fullscreenenter"",""1"",""7036""
","
","
","""event"",""trial"",""time""
""fullscreenenter"",""1"",""7036""
","
",,null,run_exp/static/images/task_images/aliens/old_aliens/planet/alien_planet-36.jpg,null,,,,,,,,,,,,,36,"15,3,70,1,64,25,78,46,73,33,36,37,53,52,74,47,8,45,51,50,65,57,61,13,28,35,30,19,6,4,12,71,22,10,27,26,38,14",,,,,,,,,,
land,223,642468,0.0-68.0-1.0,"""event"",""trial"",""time""
""fullscreenenter"",""1"",""7036""
","
","
","""event"",""trial"",""time""
""fullscreenenter"",""1"",""7036""
","
",,null,run_exp/static/images/task_images/land.jpg,null,,,,,,,104,,,11,,,,,,,,,,,,,,
dig,224,644478,0.0-68.0-2.0,"""event"",""trial"",""time""
""fullscreenenter"",""1"",""7036""
","
","
","""event"",""trial"",""time""
""fullscreenenter"",""1"",""7036""
","
",,,,,,,,,,,,"[{""stimulus"":""run_exp/static/images/task_images/dig.jpg"",""time"":0.39999985694885254},{""stimulus"":""run_exp/static/images/task_images/land.jpg"",""time"":672.0999999046326},{""stimulus"":""run_exp/static/images/task_images/dig.jpg"",""time"":1340.8999998569489}]",[],11,,,,,,,,,,,,,,
harvest,225,645484,0.0-68.0-3.0,"""event"",""trial"",""time""
""fullscreenenter"",""1"",""7036""
","
","
","""event"",""trial"",""time""
""fullscreenenter"",""1"",""7036""
","
",,null,run_exp/static/images/task_images/gems/104.jpg,null,,,,,,,20,,,11,,,,,104,0.191988954,0.192307692,,,,,,,
decision,226,648229,0.0-68.0-4.0,"""event"",""trial"",""time""
""fullscreenenter"",""1"",""7036""
","
","
","""event"",""trial"",""time""
""fullscreenenter"",""1"",""7036""
","
",,2743.8,run_exp/static/images/task_images/land.jpg,65,,,,,,,20,,,11,,,,,,,,11274,2,0,FALSE,,,
dig,227,648502,0.0-69.0-0.0,"""event"",""trial"",""time""
""fullscreenenter"",""1"",""7036""
","
","
","""event"",""trial"",""time""
""fullscreenenter"",""1"",""7036""
","
",,,,,,,,,,,,"[{""stimulus"":""run_exp/static/images/task_images/dig.jpg"",""time"":0.09999990463256836},{""stimulus"":""run_exp/static/images/task_images/land.jpg"",""time"":100.39999985694885},{""stimulus"":""run_exp/static/images/task_images/dig.jpg"",""time"":185.39999985694885}]",[],11,,,,,,,,,,,,,,
harvest,228,649504,0.0-69.0-1.0,"""event"",""trial"",""time""
""fullscreenenter"",""1"",""7036""
","
","
","""event"",""trial"",""time""
""fullscreenenter"",""1"",""7036""
","
",,null,run_exp/static/images/task_images/gems/20.jpg,null,,,,,,,4,,,11,,,,,20,0.214586006,0.2,,,,,,,
decision,229,650141,0.0-69.0-2.0,"""event"",""trial"",""time""
""fullscreenenter"",""1"",""7036""
","
","
","""event"",""trial"",""time""
""fullscreenenter"",""1"",""7036""
","
",,635.7,run_exp/static/images/task_images/land.jpg,65,,,,,,,4,,,11,,,,,,,,13186,2,1,FALSE,,,
dig,230,652522,0.0-70.0-0.0,"""event"",""trial"",""time""
""fullscreenenter"",""1"",""7036""
","
","
","""event"",""trial"",""time""
""fullscreenenter"",""1"",""7036""
","
",,,,,,,,,,,,"[{""stimulus"":""run_exp/static/images/task_images/dig.jpg"",""time"":0.20000004768371582},{""stimulus"":""run_exp/static/images/task_images/land.jpg"",""time"":792.2000000476837},{""stimulus"":""run_exp/static/images/task_images/dig.jpg"",""time"":1579.7000000476837}]",[],11,,,,,,,,,,,,,,
harvest,231,653527,0.0-70.0-1.0,"""event"",""trial"",""time""
""fullscreenenter"",""1"",""7036""
","
","
","""event"",""trial"",""time""
""fullscreenenter"",""1"",""7036""
","
",,null,run_exp/static/images/task_images/gems/4.jpg,null,,,,,,,1,,,11,,,,,4,0.175976628,0.25,,,,,,,
decision,232,653901,0.0-70.0-2.0,"""event"",""trial"",""time""
""fullscreenenter"",""1"",""7036""
","
","
","""event"",""trial"",""time""
""fullscreenenter"",""1"",""7036""
","
",,372.6000001,run_exp/static/images/task_images/land.jpg,76,,,,,,,1,,,11,,,,,,,,16946,2,2,TRUE,,,
travel,233,663542,0.0-71.0-0.0,"""event"",""trial"",""time""
""fullscreenenter"",""1"",""7036""
","
","
","""event"",""trial"",""time""
""fullscreenenter"",""1"",""7036""
","
",,,,,,,,,,,,"[{""stimulus"":""run_exp/static/images/task_images/rocket-01.jpg"",""time"":0.19999980926513672},{""stimulus"":""run_exp/static/images/task_images/rocket-02.jpg"",""time"":1076},{""stimulus"":""run_exp/static/images/task_images/rocket-03.jpg"",""time"":2139.699999809265},{""stimulus"":""run_exp/static/images/task_images/rocket-04.jpg"",""time"":3212.199999809265},{""stimulus"":""run_exp/static/images/task_images/rocket-05.jpg"",""time"":4284.699999809265},{""stimulus"":""run_exp/static/images/task_images/rocket-06.jpg"",""time"":5353.299999952316},{""stimulus"":""run_exp/static/images/task_images/rocket-07.jpg"",""time"":6416},{""stimulus"":""run_exp/static/images/task_images/rocket-08.jpg"",""time"":7489.199999809265},{""stimulus"":""run_exp/static/images/task_images/rocket-09.jpg"",""time"":8555.799999952316}]",[],11,,,,,,,,,,,,,,
alien_welcome,234,668546,0.0-71.0-1.0,"""event"",""trial"",""time""
""fullscreenenter"",""1"",""7036""
","
","
","""event"",""trial"",""time""
""fullscreenenter"",""1"",""7036""
","
",,null,run_exp/static/images/task_images/aliens/old_aliens/planet/alien_planet-37.jpg,null,,,,,,,,,,,,,37,"15,3,70,1,64,25,78,46,73,33,36,37,53,52,74,47,8,45,51,50,65,57,61,13,28,35,30,19,6,4,12,71,22,10,27,26,38,14",,,,,,,,,,
land,235,669050,0.0-71.0-2.0,"""event"",""trial"",""time""
""fullscreenenter"",""1"",""7036""
","
","
","""event"",""trial"",""time""
""fullscreenenter"",""1"",""7036""
","
",,null,run_exp/static/images/task_images/land.jpg,null,,,,,,,102,,,12,,,,,,,,,,,,,,
dig,236,671060,0.0-71.0-3.0,"""event"",""trial"",""time""
""fullscreenenter"",""1"",""7036""
","
","
","""event"",""trial"",""time""
""fullscreenenter"",""1"",""7036""
","
",,,,,,,,,,,,"[{""stimulus"":""run_exp/static/images/task_images/dig.jpg"",""time"":0.3000001907348633},{""stimulus"":""run_exp/static/images/task_images/land.jpg"",""time"":675.1000001430511},{""stimulus"":""run_exp/static/images/task_images/dig.jpg"",""time"":1350.8000001907349}]",[],12,,,,,,,,,,,,,,
harvest,237,672078,0.0-71.0-4.0,"""event"",""trial"",""time""
""fullscreenenter"",""1"",""7036""
","
","
","""event"",""trial"",""time""
""fullscreenenter"",""1"",""7036""
","
",,null,run_exp/static/images/task_images/gems/102.jpg,null,,,,,,,27,,,12,,,,,102,0.259925855,0.264705882,,,,,,,
decision,238,672413,0.0-71.0-5.0,"""event"",""trial"",""time""
""fullscreenenter"",""1"",""7036""
","
","
","""event"",""trial"",""time""
""fullscreenenter"",""1"",""7036""
","
",,333.1000001,run_exp/static/images/task_images/land.jpg,65,,,,,,,27,,,12,,,,,,,,35458,2,0,FALSE,,,
dig,239,675098,0.0-72.0-0.0,"""event"",""trial"",""time""
""fullscreenenter"",""1"",""7036""
","
","
","""event"",""trial"",""time""
""fullscreenenter"",""1"",""7036""
","
",,,,,,,,,,,,"[{""stimulus"":""run_exp/static/images/task_images/dig.jpg"",""time"":0.20000004768371582},{""stimulus"":""run_exp/static/images/task_images/land.jpg"",""time"":899.9000000953674},{""stimulus"":""run_exp/static/images/task_images/dig.jpg"",""time"":1782}]",[],12,,,,,,,,,,,,,,
harvest,240,676102,0.0-72.0-1.0,"""event"",""trial"",""time""
""fullscreenenter"",""1"",""7036""
","
","
","""event"",""trial"",""time""
""fullscreenenter"",""1"",""7036""
","
",,null,run_exp/static/images/task_images/gems/27.jpg,null,,,,,,,5,,,12,,,,,27,0.195133922,0.185185185,,,,,,,
decision,241,676429,0.0-72.0-2.0,"""event"",""trial"",""time""
""fullscreenenter"",""1"",""7036""
","
","
","""event"",""trial"",""time""
""fullscreenenter"",""1"",""7036""
","
",,325.5,run_exp/static/images/task_images/land.jpg,76,,,,,,,5,,,12,,,,,,,,39474,2,1,TRUE,,,
travel,242,686106,0.0-73.0-0.0,"""event"",""trial"",""time""
""fullscreenenter"",""1"",""7036""
","
","
","""event"",""trial"",""time""
""fullscreenenter"",""1"",""7036""
","
",,,,,,,,,,,,"[{""stimulus"":""run_exp/static/images/task_images/rocket-01.jpg"",""time"":0},{""stimulus"":""run_exp/static/images/task_images/rocket-02.jpg"",""time"":1084.8999998569489},{""stimulus"":""run_exp/static/images/task_images/rocket-03.jpg"",""time"":2158.5999999046326},{""stimulus"":""run_exp/static/images/task_images/rocket-04.jpg"",""time"":3235.5},{""stimulus"":""run_exp/static/images/task_images/rocket-05.jpg"",""time"":4306.799999952316},{""stimulus"":""run_exp/static/images/task_images/rocket-06.jpg"",""time"":5375.899999856949},{""stimulus"":""run_exp/static/images/task_images/rocket-07.jpg"",""time"":6458.899999856949},{""stimulus"":""run_exp/static/images/task_images/rocket-08.jpg"",""time"":7526.200000047684},{""stimulus"":""run_exp/static/images/task_images/rocket-09.jpg"",""time"":8592.599999904633}]",[],12,,,,,,,,,,,,,,
alien_welcome,243,691111,0.0-73.0-1.0,"""event"",""trial"",""time""
""fullscreenenter"",""1"",""7036""
","
","
","""event"",""trial"",""time""
""fullscreenenter"",""1"",""7036""
","
",,null,run_exp/static/images/task_images/aliens/old_aliens/planet/alien_planet-53.jpg,null,,,,,,,,,,,,,53,"15,3,70,1,64,25,78,46,73,33,36,37,53,52,74,47,8,45,51,50,65,57,61,13,28,35,30,19,6,4,12,71,22,10,27,26,38,14",,,,,,,,,,
land,244,691617,0.0-73.0-2.0,"""event"",""trial"",""time""
""fullscreenenter"",""1"",""7036""
","
","
","""event"",""trial"",""time""
""fullscreenenter"",""1"",""7036""
","
",,null,run_exp/static/images/task_images/land.jpg,null,,,,,,,102,,,13,,,,,,,,,,,,,,
dig,245,693628,0.0-73.0-3.0,"""event"",""trial"",""time""
""fullscreenenter"",""1"",""7036""
","
","
","""event"",""trial"",""time""
""fullscreenenter"",""1"",""7036""
","
