trial_type,trial_index,time_elapsed,internal_node_id,interactions,blur_events,focus_events,fullscreenenter_events,fullscreenexit_events,success,rt,stimulus,key_press,prompt,subject_id,participant_id,age,gender,button_pressed,next_reward,animation_sequence,responses,planet,curr_prac_trial,n_prac_rounds,alien,aliens,reward_received,decay_rate_actual,decay_rate_exp,time_in_block,block_num,prt,last_trial_on_planet,button_html,bonus,num_failures
pavlovia,0,3,0.0-0.0,"""event"",""trial"",""time""
""fullscreenenter"",""1"",""1711""
","
","
","""event"",""trial"",""time""
""fullscreenenter"",""1"",""1711""
","
",,,,,,,,,,,,,,,,,,,,,,,,,,,,
fullscreen,1,2708,0.0-1.0,"""event"",""trial"",""time""
""fullscreenenter"",""1"",""1711""
","
","
","""event"",""trial"",""time""
""fullscreenenter"",""1"",""1711""
","
",TRUE,,,,,,,,,,,,,,,,,,,,,,,,,,,
instruc_welcome,2,12438,0.0-2.0,"""event"",""trial"",""time""
""fullscreenenter"",""1"",""1711""
","
","
","""event"",""trial"",""time""
""fullscreenenter"",""1"",""1711""
","
",,null,run_exp/static/audio/clip_1_welcome.m4a,null,"<p>Howdy! In this experiment, you’ll be an explorer traveling through space to collect space treasure.</p><p>Your mission is to collect as much treasure as possible.</p><br><br><p><img src='run_exp/static/images/task_images/opening_img-01.jpg' height='300' width='auto'></p>",7939,3041,19.84,Female,,,,,,,,,,,,,,,,,,,
audio-keyboard-response,3,29018,0.0-3.0,"""event"",""trial"",""time""
""fullscreenenter"",""1"",""1711""
","
","
","""event"",""trial"",""time""
""fullscreenenter"",""1"",""1711""
","
",,null,run_exp/static/audio/clip_2_move.m4a,null,,,,,,,,,,,,,,,,,,,,,,,,
welcome_dec,4,31280,0.0-4.0,"""event"",""trial"",""time""
""fullscreenenter"",""1"",""1711""
","
","
","""event"",""trial"",""time""
""fullscreenenter"",""1"",""1711""
","
",,2259.3,"<p>Howdy! In this experiment, you’ll be an explorer traveling through space to collect space treasure.</p><p>Your mission is to collect as much treasure as possible.</p><br><br><p><img src='run_exp/static/images/task_images/opening_img-01.jpg' height='300' width='auto'></p>",,,,,,,1,,,,,,,,,,,,,,,,,,
html-keyboard-response,5,32359,0.0-5.0,"""event"",""trial"",""time""
""fullscreenenter"",""1"",""1711""
","
","
","""event"",""trial"",""time""
""fullscreenenter"",""1"",""1711""
","
",,1077.5,"<p>Howdy! In this experiment, you’ll be an explorer traveling through space to collect space treasure.</p><p>Your mission is to collect as much treasure as possible.</p><br><br><p><img src='run_exp/static/images/task_images/opening_img-01.jpg' height='300' width='auto'></p><button class=""jspsych-html-btn-unchosen""><img src=""run_exp/static/images/task_images/planet-01.jpg"" height=""50""></button><button class=""jspsych-html-btn-chosen""><img src=""run_exp/static/images/task_images/planet-02.jpg"" height=""50""></button><p><b>[press the space bar to lock in your answer]<b><br></p>",32,,,,,,,,,,,,,,,,,,,,,,,,
instruc_goal,6,42417,0.0-6.0-0.0,"""event"",""trial"",""time""
""fullscreenenter"",""1"",""1711""
","
","
","""event"",""trial"",""time""
""fullscreenenter"",""1"",""1711""
","
",,null,run_exp/static/audio/clip_3_goal.m4a,null,"<p> As a space explorer, you’ll visit different planets to dig for space treasure, these pink gems.</p> <p> The more treasure you dig up, the more bonus money you’ll win! </p><br><br><p><img src='run_exp/static/images/task_images/pink_gem.jpg' height='300' width='auto'></p>",,,,,,,,,,,,,,,,,,,,,,,
instruc_goal,7,44247,0.0-6.0-1.0,"""event"",""trial"",""time""
""fullscreenenter"",""1"",""1711""
","
","
","""event"",""trial"",""time""
""fullscreenenter"",""1"",""1711""
","
",,1828.5,"<p> As a space explorer, you’ll visit different planets to dig for space treasure, these pink gems.</p> <p> The more treasure you dig up, the more bonus money you’ll win! </p><br><br><p><img src='run_exp/static/images/task_images/pink_gem.jpg' height='300' width='auto'></p>",,,,,,,1,,,,,,,,,,,,,,,,,,
html-keyboard-response,8,44562,0.0-6.0-2.0,"""event"",""trial"",""time""
""fullscreenenter"",""1"",""1711""
","
","
","""event"",""trial"",""time""
""fullscreenenter"",""1"",""1711""
","
",,314.7,"<p> As a space explorer, you’ll visit different planets to dig for space treasure, these pink gems.</p> <p> The more treasure you dig up, the more bonus money you’ll win! </p><br><br><p><img src='run_exp/static/images/task_images/pink_gem.jpg' height='300' width='auto'></p><button class=""jspsych-html-btn-unchosen""><img src=""run_exp/static/images/task_images/planet-01.jpg"" height=""50""></button><button class=""jspsych-html-btn-chosen""><img src=""run_exp/static/images/task_images/planet-02.jpg"" height=""50""></button><p><b>[press the space bar to lock in your answer]<b><br></p>",32,,,,,,,,,,,,,,,,,,,,,,,,
instruc_dig,9,60557,0.0-7.0-0.0,"""event"",""trial"",""time""
""fullscreenenter"",""1"",""1711""
","
","
","""event"",""trial"",""time""
""fullscreenenter"",""1"",""1711""
","
",,null,run_exp/static/audio/clip_4_dig.m4a,null,,,,,,,100,,,,,,,,,,,,,,,,,
instruc_dig_try,10,60863,0.0-7.0-1.0,"""event"",""trial"",""time""
""fullscreenenter"",""1"",""1711""
","
","
","""event"",""trial"",""time""
""fullscreenenter"",""1"",""1711""
","
",,303.8999999,"<p> When you’ve arrived at a new planet, you will dig once. </p> <p>Then, you get to decide if you want to stay on the planet and dig again or travel to a new planet and dig there.</p> <p> To stay and dig, press the letter <strong>‘A’</strong> on your keyboard. Try pressing it now! </p><p><img src='run_exp/static/images/task_images/land.jpg'  height='700' width='auto'></p>",65,"<p> When you’ve arrived at a new planet, you will dig once. </p> <p>Then, you get to decide if you want to stay on the planet and dig again or travel to a new planet and dig there.</p> <p> To stay and dig, press the letter <strong>‘A’</strong> on your keyboard. Try pressing it now! </p><p><img src='run_exp/static/images/task_images/land.jpg'  height='700' width='auto'></p>",,,,,,100,,,,,,,,,,,,,,,,,
dig_prac,11,62878,0.0-7.0-2.0,"""event"",""trial"",""time""
""fullscreenenter"",""1"",""1711""
","
","
","""event"",""trial"",""time""
""fullscreenenter"",""1"",""1711""
","
",,,,,,,,,,,,"[{""stimulus"":""run_exp/static/images/task_images/dig.jpg"",""time"":0.2999999523162842},{""stimulus"":""run_exp/static/images/task_images/land.jpg"",""time"":687.2999999523163},{""stimulus"":""run_exp/static/images/task_images/dig.jpg"",""time"":1346.8999998569489}]",[],,,,,,,,,,,,,,,
instruc_travel,12,99118,0.0-7.0-3.0,"""event"",""trial"",""time""
""fullscreenenter"",""1"",""1711""
","
","
","""event"",""trial"",""time""
""fullscreenenter"",""1"",""1711""
","
",,null,run_exp/static/audio/clip_5_travel.m4a,null,"<p>Every time you dig up gems, there are less gems on the planet, so the more you dig on a planet the fewer gems you’ll get with each dig.</p><p>When gems are running low, you may want to travel to a new planet. </p> <p>  Planets are very far apart in this galaxy, so it will take some time to travel between them. </p> <br><p>There are lots and lots of planets for you to visit, so you won’t be able to return to any planets you’ve seen before. </p><br><p>To leave this planet and travel to a new one, press the letter <strong>‘L’</strong> on your keyboard. Try pressing it now! </p><p><img src='run_exp/static/images/task_images/rocket-01.jpg'  height='600' width='auto'></p>",,,,,,,,,,,,,,,,,,,,,,,
instruc_travel_try,13,102562,0.0-7.0-4.0,"""event"",""trial"",""time""
""fullscreenenter"",""1"",""1711""
","
","
","""event"",""trial"",""time""
""fullscreenenter"",""1"",""1711""
","
",,3442.1,"<p>Every time you dig up gems, there are less gems on the planet, so the more you dig on a planet the fewer gems you’ll get with each dig.</p><p>When gems are running low, you may want to travel to a new planet. </p> <p>  Planets are very far apart in this galaxy, so it will take some time to travel between them. </p> <br><p>There are lots and lots of planets for you to visit, so you won’t be able to return to any planets you’ve seen before. </p><br><p>To leave this planet and travel to a new one, press the letter <strong>‘L’</strong> on your keyboard. Try pressing it now! </p><p><img src='run_exp/static/images/task_images/rocket-01.jpg'  height='600' width='auto'></p>",76,"<p>Every time you dig up gems, there are less gems on the planet, so the more you dig on a planet the fewer gems you’ll get with each dig.</p><p>When gems are running low, you may want to travel to a new planet. </p> <p>  Planets are very far apart in this galaxy, so it will take some time to travel between them. </p> <br><p>There are lots and lots of planets for you to visit, so you won’t be able to return to any planets you’ve seen before. </p><br><p>To leave this planet and travel to a new one, press the letter <strong>‘L’</strong> on your keyboard. Try pressing it now! </p><p><img src='run_exp/static/images/task_images/rocket-01.jpg'  height='600' width='auto'></p>",,,,,,,,,,,,,,,,,,,,,,,
travel_prac,14,112586,0.0-7.0-5.0,"""event"",""trial"",""time""
""fullscreenenter"",""1"",""1711""
","
","
","""event"",""trial"",""time""
""fullscreenenter"",""1"",""1711""
","
",,,,,,,,,,,,"[{""stimulus"":""run_exp/static/images/task_images/rocket-01.jpg"",""time"":0.5},{""stimulus"":""run_exp/static/images/task_images/rocket-02.jpg"",""time"":1132},{""stimulus"":""run_exp/static/images/task_images/rocket-03.jpg"",""time"":2232.5},{""stimulus"":""run_exp/static/images/task_images/rocket-04.jpg"",""time"":3340.9000000953674},{""stimulus"":""run_exp/static/images/task_images/rocket-05.jpg"",""time"":4461.799999952316},{""stimulus"":""run_exp/static/images/task_images/rocket-06.jpg"",""time"":5571.900000095367},{""stimulus"":""run_exp/static/images/task_images/rocket-07.jpg"",""time"":6672},{""stimulus"":""run_exp/static/images/task_images/rocket-08.jpg"",""time"":7792},{""stimulus"":""run_exp/static/images/task_images/rocket-09.jpg"",""time"":8902}]",[],0,,,,,,,,,,,,,,
instruc_alien_greet,15,139768,0.0-7.0-6.0,"""event"",""trial"",""time""
""fullscreenenter"",""1"",""1711""
","
","
","""event"",""trial"",""time""
""fullscreenenter"",""1"",""1711""
","
",,null,run_exp/static/audio/clip_6_alien.m4a,null,"<p>When you arrive at a new planet, the alien who owns the treasure mine on that planet will greet you!</p><p>The better an alien takes care of their mine the easier it is to dig for gems. Some aliens take better care of their mine than others. So, you won’t get exactly the same amount of gems on each planet.</p><p>What the alien looks like does not tell you anything about how many gems there are on the planet.</p><br><p><img src=""run_exp/static/images/task_images/aliens/instructions_aliens/planet/alien_planet-1.jpg""  height=""600"" width=""auto""></p>",,,,,,,,,,,,,,,,,,,,,,,
instruc_alien_greet,16,142826,0.0-7.0-7.0,"""event"",""trial"",""time""
""fullscreenenter"",""1"",""1711""
","
","
","""event"",""trial"",""time""
""fullscreenenter"",""1"",""1711""
","
",,3053.6,"<p>When you arrive at a new planet, the alien who owns the treasure mine on that planet will greet you!</p><p>The better an alien takes care of their mine the easier it is to dig for gems. Some aliens take better care of their mine than others. So, you won’t get exactly the same amount of gems on each planet.</p><p>What the alien looks like does not tell you anything about how many gems there are on the planet.</p><br><p><img src=""run_exp/static/images/task_images/aliens/instructions_aliens/planet/alien_planet-1.jpg""  height=""600"" width=""auto""></p>",,,,,,,1,,,,,,,,,,,,,,,,,,
html-keyboard-response,17,144606,0.0-7.0-8.0,"""event"",""trial"",""time""
""fullscreenenter"",""1"",""1711""
","
","
","""event"",""trial"",""time""
""fullscreenenter"",""1"",""1711""
","
",,1776.5,"<p>When you arrive at a new planet, the alien who owns the treasure mine on that planet will greet you!</p><p>The better an alien takes care of their mine the easier it is to dig for gems. Some aliens take better care of their mine than others. So, you won’t get exactly the same amount of gems on each planet.</p><p>What the alien looks like does not tell you anything about how many gems there are on the planet.</p><br><p><img src=""run_exp/static/images/task_images/aliens/instructions_aliens/planet/alien_planet-1.jpg""  height=""600"" width=""auto""></p><button class=""jspsych-html-btn-unchosen""><img src=""run_exp/static/images/task_images/planet-01.jpg"" height=""50""></button><button class=""jspsych-html-btn-chosen""><img src=""run_exp/static/images/task_images/planet-02.jpg"" height=""50""></button><p><b>[press the space bar to lock in your answer]<b><br></p>",32,,,,,,,,,,,,,,,,,,,,,,,,
time_out,18,155689,0.0-8.0-0.0,"""event"",""trial"",""time""
""fullscreenenter"",""1"",""1711""
","
","
","""event"",""trial"",""time""
""fullscreenenter"",""1"",""1711""
","
",,null,run_exp/static/audio/clip_7_timeout.m4a,null,"<p>If you don't make your choice fast enough, you’ll have to wait a few seconds before you can make another one.</p><p>You can’t dig for more gems or travel to new planets. You just have to sit and wait.</p><br><p><img src='run_exp/static/images/task_images/time_out.jpg'  height='600' width='auto'></p>",,,,,,,,,,,,,,,,,,,,,,,
time_out,19,157057,0.0-8.0-1.0,"""event"",""trial"",""time""
""fullscreenenter"",""1"",""1711""
","
","
","""event"",""trial"",""time""
""fullscreenenter"",""1"",""1711""
","
",,1364.1,"<p>If you don't make your choice fast enough, you’ll have to wait a few seconds before you can make another one.</p><p>You can’t dig for more gems or travel to new planets. You just have to sit and wait.</p><br><p><img src='run_exp/static/images/task_images/time_out.jpg'  height='600' width='auto'></p>",,,,,,,1,,,,,,,,,,,,,,,,,,
html-keyboard-response,20,158699,0.0-8.0-2.0,"""event"",""trial"",""time""
""fullscreenenter"",""1"",""1711""
","
","
","""event"",""trial"",""time""
""fullscreenenter"",""1"",""1711""
","
",,1638.5,"<p>If you don't make your choice fast enough, you’ll have to wait a few seconds before you can make another one.</p><p>You can’t dig for more gems or travel to new planets. You just have to sit and wait.</p><br><p><img src='run_exp/static/images/task_images/time_out.jpg'  height='600' width='auto'></p><button class=""jspsych-html-btn-unchosen""><img src=""run_exp/static/images/task_images/planet-01.jpg"" height=""50""></button><button class=""jspsych-html-btn-chosen""><img src=""run_exp/static/images/task_images/planet-02.jpg"" height=""50""></button><p><b>[press the space bar to lock in your answer]<b><br></p>",32,,,,,,,,,,,,,,,,,,,,,,,,
instruc_break,21,174368,0.0-9.0-0.0,"""event"",""trial"",""time""
""fullscreenenter"",""1"",""1711""
","
","
","""event"",""trial"",""time""
""fullscreenenter"",""1"",""1711""
","
",,null,run_exp/static/audio/clip_8_break.m4a,null,"<p> After digging and traveling for a while, you’ll be able to take a break at home base. </p><p>The game will last 20 minutes no matter what.</p><p>You will visit home base every 5 minutes, so, you will visit home base three times during the game.</p><br><p><img src='run_exp/static/images/task_images/home_base.jpg' height='600' width='auto'></p>",,,,,,,,,,,,,,,,,,,,,,,
instruc_break,22,176309,0.0-9.0-1.0,"""event"",""trial"",""time""
""fullscreenenter"",""1"",""1711""
","
","
","""event"",""trial"",""time""
""fullscreenenter"",""1"",""1711""
","
",,1938.3,"<p> After digging and traveling for a while, you’ll be able to take a break at home base. </p><p>The game will last 20 minutes no matter what.</p><p>You will visit home base every 5 minutes, so, you will visit home base three times during the game.</p><br><p><img src='run_exp/static/images/task_images/home_base.jpg' height='600' width='auto'></p>",,,,,,,1,,,,,,,,,,,,,,,,,,
html-keyboard-response,23,176751,0.0-9.0-2.0,"""event"",""trial"",""time""
""fullscreenenter"",""1"",""1711""
","
","
","""event"",""trial"",""time""
""fullscreenenter"",""1"",""1711""
","
",,440.0999999,"<p> After digging and traveling for a while, you’ll be able to take a break at home base. </p><p>The game will last 20 minutes no matter what.</p><p>You will visit home base every 5 minutes, so, you will visit home base three times during the game.</p><br><p><img src='run_exp/static/images/task_images/home_base.jpg' height='600' width='auto'></p><button class=""jspsych-html-btn-unchosen""><img src=""run_exp/static/images/task_images/planet-01.jpg"" height=""50""></button><button class=""jspsych-html-btn-chosen""><img src=""run_exp/static/images/task_images/planet-02.jpg"" height=""50""></button><p><b>[press the space bar to lock in your answer]<b><br></p>",32,,,,,,,,,,,,,,,,,,,,,,,,
instruc_prac_game,24,186868,0.0-10.0-0.0,"""event"",""trial"",""time""
""fullscreenenter"",""1"",""1711""
","
","
","""event"",""trial"",""time""
""fullscreenenter"",""1"",""1711""
","
",,null,run_exp/static/audio/clip_9_practice.m4a,null,"<p> Are you ready to play a practice game? </p> <p>In this practice game, you'll be digging up barrels of gems. But, in the real game, you'll be digging up the gems themselves. </p>",,,,,,,,,,,,,,,,,,,,,,,
html-button-response,25,188249,0.0-10.0-1.0,"""event"",""trial"",""time""
""fullscreenenter"",""1"",""1711""
","
","
","""event"",""trial"",""time""
""fullscreenenter"",""1"",""1711""
","
",,1378.6,"<p> Are you ready to play a practice game? </p> <p>In this practice game, you'll be digging up barrels of gems. But, in the real game, you'll be digging up the gems themselves. </p>",,,,,,,0,,,,,,,,,,,,,,,,,,
alien_welcome_prac,26,193274,0.0-11.0-0.0,"""event"",""trial"",""time""
""fullscreenenter"",""1"",""1711""
","
","
","""event"",""trial"",""time""
""fullscreenenter"",""1"",""1711""
","
",,null,run_exp/static/images/task_images/aliens/practice_aliens/planet/alien_planet-5.jpg,null,,,,,,,,,,,,,,,,,,,,,,,,
land_prac,27,193786,0.0-11.0-1.0,"""event"",""trial"",""time""
""fullscreenenter"",""1"",""1711""
","
","
","""event"",""trial"",""time""
""fullscreenenter"",""1"",""1711""
","
",,null,run_exp/static/images/task_images/land.jpg,null,,,,,,,101,,,0,,,,,,,,,,,,,,
dig_prac,28,195806,0.0-11.0-2.0,"""event"",""trial"",""time""
""fullscreenenter"",""1"",""1711""
","
","
","""event"",""trial"",""time""
""fullscreenenter"",""1"",""1711""
","
",,,,,,,,,,,,"[{""stimulus"":""run_exp/static/images/task_images/dig.jpg"",""time"":0.5},{""stimulus"":""run_exp/static/images/task_images/land.jpg"",""time"":678.2000000476837},{""stimulus"":""run_exp/static/images/task_images/dig.jpg"",""time"":1350}]",[],,,,,,,,,,,,,,,
harvest_prac,29,196816,0.0-11.0-3.0,"""event"",""trial"",""time""
""fullscreenenter"",""1"",""1711""
","
","
","""event"",""trial"",""time""
""fullscreenenter"",""1"",""1711""
","
",,null,run_exp/static/images/task_images/barrel_text.jpg,null,,,,,,,,,,,,,,,,,,,,,,,,
decision_prac,30,199113,0.0-11.0-4.0,"""event"",""trial"",""time""
""fullscreenenter"",""1"",""1711""
","
","
","""event"",""trial"",""time""
""fullscreenenter"",""1"",""1711""
","
",,2295.1,run_exp/static/images/task_images/land.jpg,65,,,,,,,,,,,1,,,,,,,,,,,,,
dig_prac,31,201136,0.0-12.0-0.0,"""event"",""trial"",""time""
""fullscreenenter"",""1"",""1711""
","
","
","""event"",""trial"",""time""
""fullscreenenter"",""1"",""1711""
","
",,,,,,,,,,,,"[{""stimulus"":""run_exp/static/images/task_images/dig.jpg"",""time"":0.20000004768371582},{""stimulus"":""run_exp/static/images/task_images/land.jpg"",""time"":669.5},{""stimulus"":""run_exp/static/images/task_images/dig.jpg"",""time"":1350.7999999523163}]",[],,,,,,,,,,,,,,,
harvest_prac,32,202141,0.0-12.0-1.0,"""event"",""trial"",""time""
""fullscreenenter"",""1"",""1711""
","
","
","""event"",""trial"",""time""
""fullscreenenter"",""1"",""1711""
","
",,null,run_exp/static/images/task_images/barrel_text.jpg,null,,,,,,,,,,,,,,,,,,,,,,,,
decision_prac,33,203306,0.0-12.0-2.0,"""event"",""trial"",""time""
""fullscreenenter"",""1"",""1711""
","
","
","""event"",""trial"",""time""
""fullscreenenter"",""1"",""1711""
","
",,1163.6,run_exp/static/images/task_images/land.jpg,65,,,,,,,,,,,2,,,,,,,,,,,,,
dig_prac,34,205326,0.0-13.0-0.0,"""event"",""trial"",""time""
""fullscreenenter"",""1"",""1711""
","
","
","""event"",""trial"",""time""
""fullscreenenter"",""1"",""1711""
","
",,,,,,,,,,,,"[{""stimulus"":""run_exp/static/images/task_images/dig.jpg"",""time"":0.2999999523162842},{""stimulus"":""run_exp/static/images/task_images/land.jpg"",""time"":685.2999999523163},{""stimulus"":""run_exp/static/images/task_images/dig.jpg"",""time"":1343.2999999523163}]",[],,,,,,,,,,,,,,,
harvest_prac,35,206347,0.0-13.0-1.0,"""event"",""trial"",""time""
""fullscreenenter"",""1"",""1711""
","
","
","""event"",""trial"",""time""
""fullscreenenter"",""1"",""1711""
","
",,null,run_exp/static/images/task_images/barrel_text.jpg,null,,,,,,,,,,,,,,,,,,,,,,,,
decision_prac,36,206938,0.0-13.0-2.0,"""event"",""trial"",""time""
""fullscreenenter"",""1"",""1711""
","
","
","""event"",""trial"",""time""
""fullscreenenter"",""1"",""1711""
","
",,589.6000001,run_exp/static/images/task_images/land.jpg,65,,,,,,,,,,,3,,,,,,,,,,,,,
dig_prac,37,208946,0.0-14.0-0.0,"""event"",""trial"",""time""
""fullscreenenter"",""1"",""1711""
","
","
","""event"",""trial"",""time""
""fullscreenenter"",""1"",""1711""
","
",,,,,,,,,,,,"[{""stimulus"":""run_exp/static/images/task_images/dig.jpg"",""time"":0.39999985694885254},{""stimulus"":""run_exp/static/images/task_images/land.jpg"",""time"":684.0999999046326},{""stimulus"":""run_exp/static/images/task_images/dig.jpg"",""time"":1349}]",[],,,,,,,,,,,,,,,
harvest_prac,38,209966,0.0-14.0-1.0,"""event"",""trial"",""time""
""fullscreenenter"",""1"",""1711""
","
","
","""event"",""trial"",""time""
""fullscreenenter"",""1"",""1711""
","
",,null,run_exp/static/images/task_images/barrel_text.jpg,null,,,,,,,,,,,,,,,,,,,,,,,,
decision_prac,39,210295,0.0-14.0-2.0,"""event"",""trial"",""time""
""fullscreenenter"",""1"",""1711""
","
","
","""event"",""trial"",""time""
""fullscreenenter"",""1"",""1711""
","
",,326.5,run_exp/static/images/task_images/land.jpg,65,,,,,,,,,,,4,,,,,,,,,,,,,
dig_prac,40,212316,0.0-15.0-0.0,"""event"",""trial"",""time""
""fullscreenenter"",""1"",""1711""
","
","
","""event"",""trial"",""time""
""fullscreenenter"",""1"",""1711""
","
",,,,,,,,,,,,"[{""stimulus"":""run_exp/static/images/task_images/dig.jpg"",""time"":0.09999990463256836},{""stimulus"":""run_exp/static/images/task_images/land.jpg"",""time"":672.1999998092651},{""stimulus"":""run_exp/static/images/task_images/dig.jpg"",""time"":1338}]",[],,,,,,,,,,,,,,,
harvest_prac,41,213326,0.0-15.0-1.0,"""event"",""trial"",""time""
""fullscreenenter"",""1"",""1711""
","
","
","""event"",""trial"",""time""
""fullscreenenter"",""1"",""1711""
","
",,null,run_exp/static/images/task_images/barrel_text.jpg,null,,,,,,,,,,,,,,,,,,,,,,,,
decision_prac,42,214025,0.0-15.0-2.0,"""event"",""trial"",""time""
""fullscreenenter"",""1"",""1711""
","
","
","""event"",""trial"",""time""
""fullscreenenter"",""1"",""1711""
","
",,696.3,run_exp/static/images/task_images/land.jpg,65,,,,,,,,,,,,1,,,,,,,,,,,,
quiz_instruc,43,216639,0.0-16.0-0.0,"""event"",""trial"",""time""
""fullscreenenter"",""1"",""1711""
","
","
","""event"",""trial"",""time""
""fullscreenenter"",""1"",""1711""
","
",,2608.4,run_exp/static/audio/clip_10_quiz.m4a,,,,,,,0,,,,,,,,,,,,,,,,,,
instruc_repeat,44,259409,0.0-16.0-1.0,"""event"",""trial"",""time""
""fullscreenenter"",""1"",""1711""
","
","
","""event"",""trial"",""time""
""fullscreenenter"",""1"",""1711""
","
",,null,"<p> Are you ready to play a practice game? </p> <p>In this practice game, you'll be digging up barrels of gems. But, in the real game, you'll be digging up the gems themselves. </p>",null,"<p>In this game, your goal is to collect as many gems as you can. That’s how you will win bonus money. </p> <p>The entire game will last 20 minutes no matter how many gems you collect or how many planets you visit. </p><p>To stay on a planet and dig again, press the letter A on your keyboard. To leave for a new planet, press the letter L.</p><p>The more you dig on a planet, the fewer gems you’ll get with each dig which is why you might consider leaving for a new planet. </p><p>When you arrive at a new planet, you’ll be greeted by an alien. What the alien looks like does not tell you anything about how much treasure is on the planet. </p>",,,,,,,,,,,,,,,,,,,,,,,
instruc_repeat_continue,45,261259,0.0-16.0-2.0,"""event"",""trial"",""time""
""fullscreenenter"",""1"",""1711""
","
","
","""event"",""trial"",""time""
""fullscreenenter"",""1"",""1711""
","
",,1847.7,"<p> Are you ready to play a practice game? </p> <p>In this practice game, you'll be digging up barrels of gems. But, in the real game, you'll be digging up the gems themselves. </p>",,,,,,,0,,,,,,,,,,,,,,,,,,
quiz_q_1_ask,46,264259,0.0-16.0-3.0,"""event"",""trial"",""time""
""fullscreenenter"",""1"",""1711""
","
","
","""event"",""trial"",""time""
""fullscreenenter"",""1"",""1711""
","
",,2997.3,run_exp/static/audio/clip_11_q1_ask.m4a,,,,,,,2,,,,,,,,,,,,,,,,,,
quiz_q_1_fb_correct,47,268109,0.0-17.0-0.0,"""event"",""trial"",""time""
""fullscreenenter"",""1"",""1711""
","
","
","""event"",""trial"",""time""
""fullscreenenter"",""1"",""1711""
","
",,null,run_exp/static/audio/clip_12_q1_correct.m4a,null,<p>That’s correct. You win extra money by collecting more gems.</p>,,,,,,,,,,,,,,,,,,,,,,,
quiz_q_2_ask,48,270240,0.0-17.0-1.0,"""event"",""trial"",""time""
""fullscreenenter"",""1"",""1711""
","
","
","""event"",""trial"",""time""
""fullscreenenter"",""1"",""1711""
","
",,2127.7,run_exp/static/audio/clip_14_q2_ask.m4a,,,,,,,1,,,,,,,,,,,,,,,,,,
quiz_q_2_fb_correct,49,274249,0.0-18.0-0.0,"""event"",""trial"",""time""
""fullscreenenter"",""1"",""1711""
","
","
","""event"",""trial"",""time""
""fullscreenenter"",""1"",""1711""
","
",,null,run_exp/static/audio/clip_15_q2_correct.m4a,null,<p>That’s correct. The experiment is 20 minutes no matter what.</p>,,,,,,,,,,,,,,,,,,,,,,,
quiz_q_3_ask,50,276879,0.0-18.0-1.0,"""event"",""trial"",""time""
""fullscreenenter"",""1"",""1711""
","
","
","""event"",""trial"",""time""
""fullscreenenter"",""1"",""1711""
","
",,2627.5,run_exp/static/audio/clip_17_q3_ask.m4a,,,,,,,1,,,,,,,,,,,,,,,,,,
quiz_q_3_fb_correct,51,280869,0.0-19.0-0.0,"""event"",""trial"",""time""
""fullscreenenter"",""1"",""1711""
","
","
","""event"",""trial"",""time""
""fullscreenenter"",""1"",""1711""
","
",,null,run_exp/static/audio/clip_18_q3_correct.m4a,null,<p> That’s correct. You press the letter L to travel to a new planet.</p>,,,,,,,,,,,,,,,,,,,,,,,
quiz_q_4_ask,52,283649,0.0-19.0-1.0,"""event"",""trial"",""time""
""fullscreenenter"",""1"",""1711""
","
","
","""event"",""trial"",""time""
""fullscreenenter"",""1"",""1711""
","
",,2777.8,run_exp/static/audio/clip_20_q4_ask.m4a,,,,,,,0,,,,,,,,,,,,,,,,,,
quiz_q_4_fb_correct,53,288969,0.0-20.0-0.0,"""event"",""trial"",""time""
""fullscreenenter"",""1"",""1711""
","
","
","""event"",""trial"",""time""
""fullscreenenter"",""1"",""1711""
","
",,null,run_exp/static/audio/clip_21_q4_correct.m4a,null,<p> That’s correct. The more you dig on a planet the fewer gems you’ll get with each dig. </p>,,,,,,,,,,,,,,,,,,,,,,,
quiz_q_5_ask,54,291179,0.0-20.0-1.0,"""event"",""trial"",""time""
""fullscreenenter"",""1"",""1711""
","
","
","""event"",""trial"",""time""
""fullscreenenter"",""1"",""1711""
","
",,2207.1,run_exp/static/audio/clip_23_q5_ask.m4a,,,,,,,1,,,,,,,,,,,,,,,,,,
quiz_q_5_fb_correct,55,296189,0.0-21.0-0.0,"""event"",""trial"",""time""
""fullscreenenter"",""1"",""1711""
","
","
","""event"",""trial"",""time""
""fullscreenenter"",""1"",""1711""
","
",,null,run_exp/static/audio/clip_24_q5_correct.m4a,null,<p> That’s correct. The alien tells you nothing about how much treasure is on the planet.</p>,,,,,,,,,,,,,,,,,,,,,,,
quiz_correct,56,299649,0.0-22.0-0.0,"""event"",""trial"",""time""
""fullscreenenter"",""1"",""1711""
","
","
","""event"",""trial"",""time""
""fullscreenenter"",""1"",""1711""
","
",,null,run_exp/static/audio/clip_26_correct_quiz.m4a,null,,,,,,,,,,,,,,,,,,,,,,,,
quiz_correct_continue,57,301240,0.0-22.0-1.0,"""event"",""trial"",""time""
""fullscreenenter"",""1"",""1711""
","
","
","""event"",""trial"",""time""
""fullscreenenter"",""1"",""1711""
","
",,1588.6,<p>Good job! You're now ready to move on to the real game!</p>,,,,,,,0,,,,,,,,,,,,,,,,,,
audio-keyboard-response,58,311369,0.0-22.0-2.0,"""event"",""trial"",""time""
""fullscreenenter"",""1"",""1711""
","
","
","""event"",""trial"",""time""
""fullscreenenter"",""1"",""1711""
","
",,null,run_exp/static/audio/clip_28_real_game.m4a,null,,,,,,,,,,,,,,,,,,,,,,,,
instruc_begin_exp_contine,59,312920,0.0-22.0-3.0,"""event"",""trial"",""time""
""fullscreenenter"",""1"",""1711""
","
","
","""event"",""trial"",""time""
""fullscreenenter"",""1"",""1711""
","
",,1547.7,"<p>Now that you know how  to dig for space treasure and travel to new planets,you can start exploring! </p><p>Do you want to go over the instructions again or get started with the real game?</p>",,,,,,,1,,,,,,1,,,,,,,,,,,,
alien_welcome,60,317937,0.0-23.0-0.0,"""event"",""trial"",""time""
""fullscreenenter"",""1"",""1711""
","
","
","""event"",""trial"",""time""
""fullscreenenter"",""1"",""1711""
","
",,null,run_exp/static/images/task_images/aliens/old_aliens/planet/alien_planet-71.jpg,null,,,,,,,,,,,,,71,"71,11,68,48,28,12,5,26,14,72,42,6,56,8,52,63,34,49,79,80,27,23,29,67,47,10,58,37,35,60,70,50,30,77,31,64,57,25,45,32,74,4,24,2,73,1,13,76,21,38,41,22,33,59,36,20",,,,,,,,,,
land,61,318445,0.0-23.0-1.0,"""event"",""trial"",""time""
""fullscreenenter"",""1"",""1711""
","
","
","""event"",""trial"",""time""
""fullscreenenter"",""1"",""1711""
","
",,null,run_exp/static/images/task_images/land.jpg,null,,,,,,,97,,,1,,,,,,,,,,,,,,
dig,62,320467,0.0-23.0-2.0,"""event"",""trial"",""time""
""fullscreenenter"",""1"",""1711""
","
","
","""event"",""trial"",""time""
""fullscreenenter"",""1"",""1711""
","
",,,,,,,,,,,,"[{""stimulus"":""run_exp/static/images/task_images/dig.jpg"",""time"":0.2999999523162842},{""stimulus"":""run_exp/static/images/task_images/land.jpg"",""time"":679.2999999523163},{""stimulus"":""run_exp/static/images/task_images/dig.jpg"",""time"":1336.9000000953674}]",[],1,,,,,,,,,,,,,,
harvest,63,321487,0.0-23.0-3.0,"""event"",""trial"",""time""
""fullscreenenter"",""1"",""1711""
","
","
","""event"",""trial"",""time""
""fullscreenenter"",""1"",""1711""
","
",,null,run_exp/static/images/task_images/gems/97.jpg,null,,,,,,,19,,,1,,,,,97,0.197223733,0.195876289,,,,,,,
decision,64,322036,0.0-23.0-4.0,"""event"",""trial"",""time""
""fullscreenenter"",""1"",""1711""
","
","
","""event"",""trial"",""time""
""fullscreenenter"",""1"",""1711""
","
",,546.8000002,run_exp/static/images/task_images/land.jpg,65,,,,,,,19,,,1,,,,,,,,9112,1,0,FALSE,,,
dig,65,324496,0.0-24.0-0.0,"""event"",""trial"",""time""
""fullscreenenter"",""1"",""1711""
","
","
","""event"",""trial"",""time""
""fullscreenenter"",""1"",""1711""
","
",,,,,,,,,,,,"[{""stimulus"":""run_exp/static/images/task_images/dig.jpg"",""time"":0.39999985694885254},{""stimulus"":""run_exp/static/images/task_images/land.jpg"",""time"":821.7000000476837},{""stimulus"":""run_exp/static/images/task_images/dig.jpg"",""time"":1654.7999999523163}]",[],1,,,,,,,,,,,,,,
harvest,66,325512,0.0-24.0-1.0,"""event"",""trial"",""time""
""fullscreenenter"",""1"",""1711""
","
","
","""event"",""trial"",""time""
""fullscreenenter"",""1"",""1711""
","
",,null,run_exp/static/images/task_images/gems/19.jpg,null,,,,,,,4,,,1,,,,,19,0.184639175,0.210526316,,,,,,,
decision,67,326590,0.0-24.0-2.0,"""event"",""trial"",""time""
""fullscreenenter"",""1"",""1711""
","
","
","""event"",""trial"",""time""
""fullscreenenter"",""1"",""1711""
","
",,1076.2,run_exp/static/images/task_images/land.jpg,65,,,,,,,4,,,1,,,,,,,,13665,1,1,FALSE,,,
dig,68,328537,0.0-25.0-0.0,"""event"",""trial"",""time""
""fullscreenenter"",""1"",""1711""
","
","
","""event"",""trial"",""time""
""fullscreenenter"",""1"",""1711""
","
",,,,,,,,,,,,"[{""stimulus"":""run_exp/static/images/task_images/dig.jpg"",""time"":0.3000001907348633},{""stimulus"":""run_exp/static/images/task_images/land.jpg"",""time"":660.6000001430511},{""stimulus"":""run_exp/static/images/task_images/dig.jpg"",""time"":1297.4000000953674}]",[],1,,,,,,,,,,,,,,
harvest,69,329557,0.0-25.0-1.0,"""event"",""trial"",""time""
""fullscreenenter"",""1"",""1711""
","
","
","""event"",""trial"",""time""
""fullscreenenter"",""1"",""1711""
","
",,null,run_exp/static/images/task_images/gems/4.jpg,null,,,,,,,1,,,1,,,,,4,0.293175716,0.25,,,,,,,
decision,70,330805,0.0-25.0-2.0,"""event"",""trial"",""time""
""fullscreenenter"",""1"",""1711""
","
","
","""event"",""trial"",""time""
""fullscreenenter"",""1"",""1711""
","
",,1245.6,run_exp/static/images/task_images/land.jpg,76,,,,,,,1,,,1,,,,,,,,17880,1,2,TRUE,,,
travel,71,339577,0.0-26.0-0.0,"""event"",""trial"",""time""
""fullscreenenter"",""1"",""1711""
","
","
","""event"",""trial"",""time""
""fullscreenenter"",""1"",""1711""
","
",,,,,,,,,,,,"[{""stimulus"":""run_exp/static/images/task_images/rocket-01.jpg"",""time"":0.2999999523162842},{""stimulus"":""run_exp/static/images/task_images/rocket-02.jpg"",""time"":986.7999999523163},{""stimulus"":""run_exp/static/images/task_images/rocket-03.jpg"",""time"":1946.5},{""stimulus"":""run_exp/static/images/task_images/rocket-04.jpg"",""time"":2926.9000000953674},{""stimulus"":""run_exp/static/images/task_images/rocket-05.jpg"",""time"":3906.7000000476837},{""stimulus"":""run_exp/static/images/task_images/rocket-06.jpg"",""time"":4866.700000047684},{""stimulus"":""run_exp/static/images/task_images/rocket-07.jpg"",""time"":5836.400000095367},{""stimulus"":""run_exp/static/images/task_images/rocket-08.jpg"",""time"":6816.600000143051},{""stimulus"":""run_exp/static/images/task_images/rocket-09.jpg"",""time"":7787}]",[],1,,,,,,,,,,,,,,
alien_welcome,72,344587,0.0-26.0-1.0,"""event"",""trial"",""time""
""fullscreenenter"",""1"",""1711""
","
","
","""event"",""trial"",""time""
""fullscreenenter"",""1"",""1711""
","
",,null,run_exp/static/images/task_images/aliens/old_aliens/planet/alien_planet-11.jpg,null,,,,,,,,,,,,,11,"71,11,68,48,28,12,5,26,14,72,42,6,56,8,52,63,34,49,79,80,27,23,29,67,47,10,58,37,35,60,70,50,30,77,31,64,57,25,45,32,74,4,24,2,73,1,13,76,21,38,41,22,33,59,36,20",,,,,,,,,,
land,73,345107,0.0-26.0-2.0,"""event"",""trial"",""time""
""fullscreenenter"",""1"",""1711""
","
","
","""event"",""trial"",""time""
""fullscreenenter"",""1"",""1711""
","
",,null,run_exp/static/images/task_images/land.jpg,null,,,,,,,98,,,2,,,,,,,,,,,,,,
dig,74,347117,0.0-26.0-3.0,"""event"",""trial"",""time""
""fullscreenenter"",""1"",""1711""
","
","
","""event"",""trial"",""time""
""fullscreenenter"",""1"",""1711""
","
",,,,,,,,,,,,"[{""stimulus"":""run_exp/static/images/task_images/dig.jpg"",""time"":0.5999999046325684},{""stimulus"":""run_exp/static/images/task_images/land.jpg"",""time"":676.3999998569489},{""stimulus"":""run_exp/static/images/task_images/dig.jpg"",""time"":1346.5999999046326}]",[],2,,,,,,,,,,,,,,
harvest,75,348137,0.0-26.0-4.0,"""event"",""trial"",""time""
""fullscreenenter"",""1"",""1711""
","
","
","""event"",""trial"",""time""
""fullscreenenter"",""1"",""1711""
","
",,null,run_exp/static/images/task_images/gems/98.jpg,null,,,,,,,18,,,2,,,,,98,0.182981697,0.183673469,,,,,,,
decision,76,348966,0.0-26.0-5.0,"""event"",""trial"",""time""
""fullscreenenter"",""1"",""1711""
","
","
","""event"",""trial"",""time""
""fullscreenenter"",""1"",""1711""
","
",,827.0999999,run_exp/static/images/task_images/land.jpg,65,,,,,,,18,,,2,,,,,,,,36041,1,0,FALSE,,,
dig,77,351146,0.0-27.0-0.0,"""event"",""trial"",""time""
""fullscreenenter"",""1"",""1711""
","
","
","""event"",""trial"",""time""
""fullscreenenter"",""1"",""1711""
","
",,,,,,,,,,,,"[{""stimulus"":""run_exp/static/images/task_images/dig.jpg"",""time"":0.2999999523162842},{""stimulus"":""run_exp/static/images/task_images/land.jpg"",""time"":735.0999999046326},{""stimulus"":""run_exp/static/images/task_images/dig.jpg"",""time"":1464.9000000953674}]",[],2,,,,,,,,,,,,,,
harvest,78,352166,0.0-27.0-1.0,"""event"",""trial"",""time""
""fullscreenenter"",""1"",""1711""
","
","
","""event"",""trial"",""time""
""fullscreenenter"",""1"",""1711""
","
",,null,run_exp/static/images/task_images/gems/18.jpg,null,,,,,,,4,,,2,,,,,18,0.246226203,0.222222222,,,,,,,
decision,79,352903,0.0-27.0-2.0,"""event"",""trial"",""time""
""fullscreenenter"",""1"",""1711""
","
","
","""event"",""trial"",""time""
""fullscreenenter"",""1"",""1711""
","
",,733.8,run_exp/static/images/task_images/land.jpg,65,,,,,,,4,,,2,,,,,,,,39978,1,1,FALSE,,,
dig,80,355186,0.0-28.0-0.0,"""event"",""trial"",""time""
""fullscreenenter"",""1"",""1711""
","
","
","""event"",""trial"",""time""
""fullscreenenter"",""1"",""1711""
","
",,,,,,,,,,,,"[{""stimulus"":""run_exp/static/images/task_images/dig.jpg"",""time"":0.39999985694885254},{""stimulus"":""run_exp/static/images/task_images/land.jpg"",""time"":769.3999998569489},{""stimulus"":""run_exp/static/images/task_images/dig.jpg"",""time"":1519}]",[],2,,,,,,,,,,,,,,
harvest,81,356197,0.0-28.0-1.0,"""event"",""trial"",""time""
""fullscreenenter"",""1"",""1711""
","
","
","""event"",""trial"",""time""
""fullscreenenter"",""1"",""1711""
","
",,null,run_exp/static/images/task_images/gems/4.jpg,null,,,,,,,1,,,2,,,,,4,0.214062998,0.25,,,,,,,
decision,82,356896,0.0-28.0-2.0,"""event"",""trial"",""time""
""fullscreenenter"",""1"",""1711""
","
","
","""event"",""trial"",""time""
""fullscreenenter"",""1"",""1711""
","
",,696.9000001,run_exp/static/images/task_images/land.jpg,76,,,,,,,1,,,2,,,,,,,,43971,1,2,TRUE,,,
travel,83,366207,0.0-29.0-0.0,"""event"",""trial"",""time""
""fullscreenenter"",""1"",""1711""
","
","
","""event"",""trial"",""time""
""fullscreenenter"",""1"",""1711""
","
",,,,,,,,,,,,"[{""stimulus"":""run_exp/static/images/task_images/rocket-01.jpg"",""time"":0.20000004768371582},{""stimulus"":""run_exp/static/images/task_images/rocket-02.jpg"",""time"":1035.1000001430511},{""stimulus"":""run_exp/static/images/task_images/rocket-03.jpg"",""time"":2075.100000143051},{""stimulus"":""run_exp/static/images/task_images/rocket-04.jpg"",""time"":3115.2999999523163},{""stimulus"":""run_exp/static/images/task_images/rocket-05.jpg"",""time"":4135.400000095367},{""stimulus"":""run_exp/static/images/task_images/rocket-06.jpg"",""time"":5168.100000143051},{""stimulus"":""run_exp/static/images/task_images/rocket-07.jpg"",""time"":6215.200000047684},{""stimulus"":""run_exp/static/images/task_images/rocket-08.jpg"",""time"":7245.600000143051},{""stimulus"":""run_exp/static/images/task_images/rocket-09.jpg"",""time"":8285.600000143051}]",[],2,,,,,,,,,,,,,,
alien_welcome,84,371217,0.0-29.0-1.0,"""event"",""trial"",""time""
""fullscreenenter"",""1"",""1711""
","
","
","""event"",""trial"",""time""
""fullscreenenter"",""1"",""1711""
","
",,null,run_exp/static/images/task_images/aliens/old_aliens/planet/alien_planet-68.jpg,null,,,,,,,,,,,,,68,"71,11,68,48,28,12,5,26,14,72,42,6,56,8,52,63,34,49,79,80,27,23,29,67,47,10,58,37,35,60,70,50,30,77,31,64,57,25,45,32,74,4,24,2,73,1,13,76,21,38,41,22,33,59,36,20",,,,,,,,,,
land,85,371727,0.0-29.0-2.0,"""event"",""trial"",""time""
""fullscreenenter"",""1"",""1711""
","
","
","""event"",""trial"",""time""
""fullscreenenter"",""1"",""1711""
","
",,null,run_exp/static/images/task_images/land.jpg,null,,,,,,,94,,,3,,,,,,,,,,,,,,
dig,86,373737,0.0-29.0-3.0,"""event"",""trial"",""time""
""fullscreenenter"",""1"",""1711""
","
","
","""event"",""trial"",""time""
""fullscreenenter"",""1"",""1711""
","
",,,,,,,,,,,,"[{""stimulus"":""run_exp/static/images/task_images/dig.jpg"",""time"":0.5},{""stimulus"":""run_exp/static/images/task_images/land.jpg"",""time"":678.2000000476837},{""stimulus"":""run_exp/static/images/task_images/dig.jpg"",""time"":1348.2999999523163}]",[],3,,,,,,,,,,,,,,
harvest,87,374756,0.0-29.0-4.0,"""event"",""trial"",""time""
""fullscreenenter"",""1"",""1711""
","
","
","""event"",""trial"",""time""
""fullscreenenter"",""1"",""1711""
","
",,null,run_exp/static/images/task_images/gems/94.jpg,null,,,,,,,43,,,3,,,,,94,0.457176966,0.457446809,,,,,,,
decision,88,375165,0.0-29.0-5.0,"""event"",""trial"",""time""
""fullscreenenter"",""1"",""1711""
","
","
","""event"",""trial"",""time""
""fullscreenenter"",""1"",""1711""
","
",,406.6000001,run_exp/static/images/task_images/land.jpg,65,,,,,,,43,,,3,,,,,,,,62240,1,0,FALSE,,,
dig,89,377766,0.0-30.0-0.0,"""event"",""trial"",""time""
""fullscreenenter"",""1"",""1711""
","
","
","""event"",""trial"",""time""
""fullscreenenter"",""1"",""1711""
","
",,,,,,,,,,,,"[{""stimulus"":""run_exp/static/images/task_images/dig.jpg"",""time"":0.3000001907348633},{""stimulus"":""run_exp/static/images/task_images/land.jpg"",""time"":875.1000001430511},{""stimulus"":""run_exp/static/images/task_images/dig.jpg"",""time"":1746.2000000476837}]",[],3,,,,,,,,,,,,,,
harvest,90,378776,0.0-30.0-1.0,"""event"",""trial"",""time""
""fullscreenenter"",""1"",""1711""
","
","
","""event"",""trial"",""time""
""fullscreenenter"",""1"",""1711""
","
",,null,run_exp/static/images/task_images/gems/43.jpg,null,,,,,,,22,,,3,,,,,43,0.505454653,0.511627907,,,,,,,
decision,91,379649,0.0-30.0-2.0,"""event"",""trial"",""time""
""fullscreenenter"",""1"",""1711""
","
","
","""event"",""trial"",""time""
""fullscreenenter"",""1"",""1711""
","
",,871,run_exp/static/images/task_images/land.jpg,65,,,,,,,22,,,3,,,,,,,,66724,1,1,FALSE,,,
dig,92,381787,0.0-31.0-0.0,"""event"",""trial"",""time""
""fullscreenenter"",""1"",""1711""
","
","
","""event"",""trial"",""time""
""fullscreenenter"",""1"",""1711""
","
",,,,,,,,,,,,"[{""stimulus"":""run_exp/static/images/task_images/dig.jpg"",""time"":0.40000009536743164},{""stimulus"":""run_exp/static/images/task_images/land.jpg"",""time"":712.6000001430511},{""stimulus"":""run_exp/static/images/task_images/dig.jpg"",""time"":1442.4000000953674}]",[],3,,,,,,,,,,,,,,
harvest,93,382790,0.0-31.0-1.0,"""event"",""trial"",""time""
""fullscreenenter"",""1"",""1711""
","
","
","""event"",""trial"",""time""
""fullscreenenter"",""1"",""1711""
","
",,null,run_exp/static/images/task_images/gems/22.jpg,null,,,,,,,10,,,3,,,,,22,0.454714585,0.454545455,,,,,,,
decision,94,383420,0.0-31.0-2.0,"""event"",""trial"",""time""
""fullscreenenter"",""1"",""1711""
","
","
","""event"",""trial"",""time""
""fullscreenenter"",""1"",""1711""
","
",,627.3999999,run_exp/static/images/task_images/land.jpg,65,,,,,,,10,,,3,,,,,,,,70495,1,2,FALSE,,,
dig,95,385816,0.0-32.0-0.0,"""event"",""trial"",""time""
""fullscreenenter"",""1"",""1711""
","
","
","""event"",""trial"",""time""
""fullscreenenter"",""1"",""1711""
","
",,,,,,,,,,,,"[{""stimulus"":""run_exp/static/images/task_images/dig.jpg"",""time"":0.39999985694885254},{""stimulus"":""run_exp/static/images/task_images/land.jpg"",""time"":811.2999999523163},{""stimulus"":""run_exp/static/images/task_images/dig.jpg"",""time"":1591.2999999523163}]",[],3,,,,,,,,,,,,,,
harvest,96,386826,0.0-32.0-1.0,"""event"",""trial"",""time""
""fullscreenenter"",""1"",""1711""
","
","
","""event"",""trial"",""time""
""fullscreenenter"",""1"",""1711""
","
",,null,run_exp/static/images/task_images/gems/10.jpg,null,,,,,,,5,,,3,,,,,10,0.522131075,0.5,,,,,,,
decision,97,387529,0.0-32.0-2.0,"""event"",""trial"",""time""
""fullscreenenter"",""1"",""1711""
","
","
","""event"",""trial"",""time""
""fullscreenenter"",""1"",""1711""
","
",,701.1000001,run_exp/static/images/task_images/land.jpg,76,,,,,,,5,,,3,,,,,,,,74605,1,3,TRUE,,,
travel,98,396836,0.0-33.0-0.0,"""event"",""trial"",""time""
""fullscreenenter"",""1"",""1711""
","
","
","""event"",""trial"",""time""
""fullscreenenter"",""1"",""1711""
","
",,,,,,,,,,,,"[{""stimulus"":""run_exp/static/images/task_images/rocket-01.jpg"",""time"":0.19999980926513672},{""stimulus"":""run_exp/static/images/task_images/rocket-02.jpg"",""time"":1051.7999999523163},{""stimulus"":""run_exp/static/images/task_images/rocket-03.jpg"",""time"":2081.5},{""stimulus"":""run_exp/static/images/task_images/rocket-04.jpg"",""time"":3112.0999999046326},{""stimulus"":""run_exp/static/images/task_images/rocket-05.jpg"",""time"":4141.599999904633},{""stimulus"":""run_exp/static/images/task_images/rocket-06.jpg"",""time"":5166.599999904633},{""stimulus"":""run_exp/static/images/task_images/rocket-07.jpg"",""time"":6212},{""stimulus"":""run_exp/static/images/task_images/rocket-08.jpg"",""time"":7252},{""stimulus"":""run_exp/static/images/task_images/rocket-09.jpg"",""time"":8271.399999856949}]",[],3,,,,,,,,,,,,,,
alien_welcome,99,401846,0.0-33.0-1.0,"""event"",""trial"",""time""
""fullscreenenter"",""1"",""1711""
","
","
","""event"",""trial"",""time""
""fullscreenenter"",""1"",""1711""
","
",,null,run_exp/static/images/task_images/aliens/old_aliens/planet/alien_planet-48.jpg,null,,,,,,,,,,,,,48,"71,11,68,48,28,12,5,26,14,72,42,6,56,8,52,63,34,49,79,80,27,23,29,67,47,10,58,37,35,60,70,50,30,77,31,64,57,25,45,32,74,4,24,2,73,1,13,76,21,38,41,22,33,59,36,20",,,,,,,,,,
land,100,402352,0.0-33.0-2.0,"""event"",""trial"",""time""
""fullscreenenter"",""1"",""1711""
","
","
","""event"",""trial"",""time""
""fullscreenenter"",""1"",""1711""
","
",,null,run_exp/static/images/task_images/land.jpg,null,,,,,,,95,,,4,,,,,,,,,,,,,,
dig,101,404377,0.0-33.0-3.0,"""event"",""trial"",""time""
""fullscreenenter"",""1"",""1711""
","
","
","""event"",""trial"",""time""
""fullscreenenter"",""1"",""1711""
","
",,,,,,,,,,,,"[{""stimulus"":""run_exp/static/images/task_images/dig.jpg"",""time"":0.20000004768371582},{""stimulus"":""run_exp/static/images/task_images/land.jpg"",""time"":682.2000000476837},{""stimulus"":""run_exp/static/images/task_images/dig.jpg"",""time"":1347.2999999523163}]",[],4,,,,,,,,,,,,,,
harvest,102,405396,0.0-33.0-4.0,"""event"",""trial"",""time""
""fullscreenenter"",""1"",""1711""
","
","
","""event"",""trial"",""time""
""fullscreenenter"",""1"",""1711""
","
",,null,run_exp/static/images/task_images/gems/95.jpg,null,,,,,,,44,,,4,,,,,95,0.46136913,0.463157895,,,,,,,
decision,103,406133,0.0-33.0-5.0,"""event"",""trial"",""time""
""fullscreenenter"",""1"",""1711""
","
","
","""event"",""trial"",""time""
""fullscreenenter"",""1"",""1711""
","
",,735,run_exp/static/images/task_images/land.jpg,65,,,,,,,44,,,4,,,,,,,,93208,1,0,FALSE,,,
dig,104,408416,0.0-34.0-0.0,"""event"",""trial"",""time""
""fullscreenenter"",""1"",""1711""
","
","
","""event"",""trial"",""time""
""fullscreenenter"",""1"",""1711""
","
",,,,,,,,,,,,"[{""stimulus"":""run_exp/static/images/task_images/dig.jpg"",""time"":0.3000001907348633},{""stimulus"":""run_exp/static/images/task_images/land.jpg"",""time"":768.2000000476837},{""stimulus"":""run_exp/static/images/task_images/dig.jpg"",""time"":1525.1000001430511}]",[],4,,,,,,,,,,,,,,
harvest,105,409436,0.0-34.0-1.0,"""event"",""trial"",""time""
""fullscreenenter"",""1"",""1711""
","
","
","""event"",""trial"",""time""
""fullscreenenter"",""1"",""1711""
","
",,null,run_exp/static/images/task_images/gems/44.jpg,null,,,,,,,20,,,4,,,,,44,0.461374582,0.454545455,,,,,,,
decision,106,409505,0.0-34.0-2.0,"""event"",""trial"",""time""
""fullscreenenter"",""1"",""1711""
","
","
","""event"",""trial"",""time""
""fullscreenenter"",""1"",""1711""
","
",,66.79999995,run_exp/static/images/task_images/land.jpg,65,,,,,,,20,,,4,,,,,,,,96580,1,1,FALSE,,,
dig,107,412446,0.0-35.0-0.0,"""event"",""trial"",""time""
""fullscreenenter"",""1"",""1711""
","
","
","""event"",""trial"",""time""
""fullscreenenter"",""1"",""1711""
","
",,,,,,,,,,,,"[{""stimulus"":""run_exp/static/images/task_images/dig.jpg"",""time"":0.2999999523162842},{""stimulus"":""run_exp/static/images/task_images/land.jpg"",""time"":985.2000000476837},{""stimulus"":""run_exp/static/images/task_images/dig.jpg"",""time"":1966.7000000476837}]",[],4,,,,,,,,,,,,,,
harvest,108,413458,0.0-35.0-1.0,"""event"",""trial"",""time""
""fullscreenenter"",""1"",""1711""
","
","
","""event"",""trial"",""time""
""fullscreenenter"",""1"",""1711""
","
",,null,run_exp/static/images/task_images/gems/20.jpg,null,,,,,,,11,,,4,,,,,20,0.564741808,0.55,,,,,,,
decision,109,413567,0.0-35.0-2.0,"""event"",""trial"",""time""
""fullscreenenter"",""1"",""1711""
","
","
","""event"",""trial"",""time""
""fullscreenenter"",""1"",""1711""
","
",,106.8999999,run_exp/static/images/task_images/land.jpg,76,,,,,,,11,,,4,,,,,,,,100642,1,2,TRUE,,,
travel,110,423476,0.0-36.0-0.0,"""event"",""trial"",""time""
""fullscreenenter"",""1"",""1711""
","
","
","""event"",""trial"",""time""
""fullscreenenter"",""1"",""1711""
","
",,,,,,,,,,,,"[{""stimulus"":""run_exp/static/images/task_images/rocket-01.jpg"",""time"":0.40000009536743164},{""stimulus"":""run_exp/static/images/task_images/rocket-02.jpg"",""time"":1114.4000000953674},{""stimulus"":""run_exp/static/images/task_images/rocket-03.jpg"",""time"":2213.7999999523163},{""stimulus"":""run_exp/static/images/task_images/rocket-04.jpg"",""time"":3314.0999999046326},{""stimulus"":""run_exp/static/images/task_images/rocket-05.jpg"",""time"":4403.900000095367},{""stimulus"":""run_exp/static/images/task_images/rocket-06.jpg"",""time"":5504},{""stimulus"":""run_exp/static/images/task_images/rocket-07.jpg"",""time"":6604.200000047684},{""stimulus"":""run_exp/static/images/task_images/rocket-08.jpg"",""time"":7703.599999904633},{""stimulus"":""run_exp/static/images/task_images/rocket-09.jpg"",""time"":8804}]",[],4,,,,,,,,,,,,,,
alien_welcome,111,428496,0.0-36.0-1.0,"""event"",""trial"",""time""
""fullscreenenter"",""1"",""1711""
","
","
","""event"",""trial"",""time""
""fullscreenenter"",""1"",""1711""
","
",,null,run_exp/static/images/task_images/aliens/old_aliens/planet/alien_planet-28.jpg,null,,,,,,,,,,,,,28,"71,11,68,48,28,12,5,26,14,72,42,6,56,8,52,63,34,49,79,80,27,23,29,67,47,10,58,37,35,60,70,50,30,77,31,64,57,25,45,32,74,4,24,2,73,1,13,76,21,38,41,22,33,59,36,20",,,,,,,,,,
land,112,429016,0.0-36.0-2.0,"""event"",""trial"",""time""
""fullscreenenter"",""1"",""1711""
","
","
","""event"",""trial"",""time""
""fullscreenenter"",""1"",""1711""
","
",,null,run_exp/static/images/task_images/land.jpg,null,,,,,,,101,,,5,,,,,,,,,,,,,,
dig,113,431036,0.0-36.0-3.0,"""event"",""trial"",""time""
""fullscreenenter"",""1"",""1711""
","
","
","""event"",""trial"",""time""
""fullscreenenter"",""1"",""1711""
","
",,,,,,,,,,,,"[{""stimulus"":""run_exp/static/images/task_images/dig.jpg"",""time"":0.40000009536743164},{""stimulus"":""run_exp/static/images/task_images/land.jpg"",""time"":678.5},{""stimulus"":""run_exp/static/images/task_images/dig.jpg"",""time"":1340.7000000476837}]",[],5,,,,,,,,,,,,,,
harvest,114,432046,0.0-36.0-4.0,"""event"",""trial"",""time""
""fullscreenenter"",""1"",""1711""
","
","
","""event"",""trial"",""time""
""fullscreenenter"",""1"",""1711""
","
",,null,run_exp/static/images/task_images/gems/101.jpg,null,,,,,,,49,,,5,,,,,101,0.488703766,0.485148515,,,,,,,
decision,115,432917,0.0-36.0-5.0,"""event"",""trial"",""time""
""fullscreenenter"",""1"",""1711""
","
","
","""event"",""trial"",""time""
""fullscreenenter"",""1"",""1711""
","
",,869.2,run_exp/static/images/task_images/land.jpg,65,,,,,,,49,,,5,,,,,,,,119992,1,0,FALSE,,,
dig,116,435056,0.0-37.0-0.0,"""event"",""trial"",""time""
""fullscreenenter"",""1"",""1711""
","
","
","""event"",""trial"",""time""
""fullscreenenter"",""1"",""1711""
","
",,,,,,,,,,,,"[{""stimulus"":""run_exp/static/images/task_images/dig.jpg"",""time"":0.39999985694885254},{""stimulus"":""run_exp/static/images/task_images/land.jpg"",""time"":723.5999999046326},{""stimulus"":""run_exp/static/images/task_images/dig.jpg"",""time"":1423.5}]",[],5,,,,,,,,,,,,,,
harvest,117,436066,0.0-37.0-1.0,"""event"",""trial"",""time""
""fullscreenenter"",""1"",""1711""
","
","
","""event"",""trial"",""time""
""fullscreenenter"",""1"",""1711""
","
",,null,run_exp/static/images/task_images/gems/49.jpg,null,,,,,,,21,,,5,,,,,49,0.431118708,0.428571429,,,,,,,
decision,118,436087,0.0-37.0-2.0,"""event"",""trial"",""time""
""fullscreenenter"",""1"",""1711""
","
","
","""event"",""trial"",""time""
""fullscreenenter"",""1"",""1711""
","
",,18.89999986,run_exp/static/images/task_images/land.jpg,65,,,,,,,21,,,5,,,,,,,,123162,1,1,FALSE,,,
dig,119,439076,0.0-38.0-0.0,"""event"",""trial"",""time""
""fullscreenenter"",""1"",""1711""
","
","
","""event"",""trial"",""time""
""fullscreenenter"",""1"",""1711""
","
",,,,,,,,,,,,"[{""stimulus"":""run_exp/static/images/task_images/dig.jpg"",""time"":0.10000014305114746},{""stimulus"":""run_exp/static/images/task_images/land.jpg"",""time"":996.6000001430511},{""stimulus"":""run_exp/static/images/task_images/dig.jpg"",""time"":1987.6000001430511}]",[],5,,,,,,,,,,,,,,
harvest,120,440083,0.0-38.0-1.0,"""event"",""trial"",""time""
""fullscreenenter"",""1"",""1711""
","
","
","""event"",""trial"",""time""
""fullscreenenter"",""1"",""1711""
","
",,null,run_exp/static/images/task_images/gems/21.jpg,null,,,,,,,12,,,5,,,,,21,0.554747714,0.571428571,,,,,,,
decision,121,440574,0.0-38.0-2.0,"""event"",""trial"",""time""
""fullscreenenter"",""1"",""1711""
","
","
","""event"",""trial"",""time""
""fullscreenenter"",""1"",""1711""
","
",,489.8,run_exp/static/images/task_images/land.jpg,76,,,,,,,12,,,5,,,,,,,,127650,1,2,TRUE,,,
travel,122,450087,0.0-39.0-0.0,"""event"",""trial"",""time""
""fullscreenenter"",""1"",""1711""
","
","
","""event"",""trial"",""time""
""fullscreenenter"",""1"",""1711""
","
",,,,,,,,,,,,"[{""stimulus"":""run_exp/static/images/task_images/rocket-01.jpg"",""time"":0.2999999523162842},{""stimulus"":""run_exp/static/images/task_images/rocket-02.jpg"",""time"":1063.5999999046326},{""stimulus"":""run_exp/static/images/task_images/rocket-03.jpg"",""time"":2118.399999856949},{""stimulus"":""run_exp/static/images/task_images/rocket-04.jpg"",""time"":3188.899999856949},{""stimulus"":""run_exp/static/images/task_images/rocket-05.jpg"",""time"":4238.799999952316},{""stimulus"":""run_exp/static/images/task_images/rocket-06.jpg"",""time"":5298.299999952316},{""stimulus"":""run_exp/static/images/task_images/rocket-07.jpg"",""time"":6348.099999904633},{""stimulus"":""run_exp/static/images/task_images/rocket-08.jpg"",""time"":7398.5},{""stimulus"":""run_exp/static/images/task_images/rocket-09.jpg"",""time"":8449.699999809265}]",[],5,,,,,,,,,,,,,,
alien_welcome,123,455097,0.0-39.0-1.0,"""event"",""trial"",""time""
""fullscreenenter"",""1"",""1711""
","
","
","""event"",""trial"",""time""
""fullscreenenter"",""1"",""1711""
","
",,null,run_exp/static/images/task_images/aliens/old_aliens/planet/alien_planet-12.jpg,null,,,,,,,,,,,,,12,"71,11,68,48,28,12,5,26,14,72,42,6,56,8,52,63,34,49,79,80,27,23,29,67,47,10,58,37,35,60,70,50,30,77,31,64,57,25,45,32,74,4,24,2,73,1,13,76,21,38,41,22,33,59,36,20",,,,,,,,,,
land,124,455606,0.0-39.0-2.0,"""event"",""trial"",""time""
""fullscreenenter"",""1"",""1711""
","
","
","""event"",""trial"",""time""
""fullscreenenter"",""1"",""1711""
","
",,null,run_exp/static/images/task_images/land.jpg,null,,,,,,,100,,,6,,,,,,,,,,,,,,
dig,125,457617,0.0-39.0-3.0,"""event"",""trial"",""time""
""fullscreenenter"",""1"",""1711""
","
","
","""event"",""trial"",""time""
""fullscreenenter"",""1"",""1711""
","
",,,,,,,,,,,,"[{""stimulus"":""run_exp/static/images/task_images/dig.jpg"",""time"":0.39999985694885254},{""stimulus"":""run_exp/static/images/task_images/land.jpg"",""time"":677.8999998569489},{""stimulus"":""run_exp/static/images/task_images/dig.jpg"",""time"":1340.3999998569489}]",[],6,,,,,,,,,,,,,,
harvest,126,458627,0.0-39.0-4.0,"""event"",""trial"",""time""
""fullscreenenter"",""1"",""1711""
","
","
","""event"",""trial"",""time""
""fullscreenenter"",""1"",""1711""
","
",,null,run_exp/static/images/task_images/gems/100.jpg,null,,,,,,,74,,,6,,,,,100,0.735956544,0.74,,,,,,,
decision,127,459565,0.0-39.0-5.0,"""event"",""trial"",""time""
""fullscreenenter"",""1"",""1711""
","
","
","""event"",""trial"",""time""
""fullscreenenter"",""1"",""1711""
","
",,936.7,run_exp/static/images/task_images/land.jpg,65,,,,,,,74,,,6,,,,,,,,146640,1,0,FALSE,,,
dig,128,461637,0.0-40.0-0.0,"""event"",""trial"",""time""
""fullscreenenter"",""1"",""1711""
","
","
","""event"",""trial"",""time""
""fullscreenenter"",""1"",""1711""
","
",,,,,,,,,,,,"[{""stimulus"":""run_exp/static/images/task_images/dig.jpg"",""time"":0.09999990463256836},{""stimulus"":""run_exp/static/images/task_images/land.jpg"",""time"":694.7999999523163},{""stimulus"":""run_exp/static/images/task_images/dig.jpg"",""time"":1390.2000000476837}]",[],6,,,,,,,,,,,,,,
harvest,129,462656,0.0-40.0-1.0,"""event"",""trial"",""time""
""fullscreenenter"",""1"",""1711""
","
","
","""event"",""trial"",""time""
""fullscreenenter"",""1"",""1711""
","
",,null,run_exp/static/images/task_images/gems/74.jpg,null,,,,,,,57,,,6,,,,,74,0.771718794,0.77027027,,,,,,,
decision,130,462990,0.0-40.0-2.0,"""event"",""trial"",""time""
""fullscreenenter"",""1"",""1711""
","
","
","""event"",""trial"",""time""
""fullscreenenter"",""1"",""1711""
","
",,331.2,run_exp/static/images/task_images/land.jpg,65,,,,,,,57,,,6,,,,,,,,150065,1,1,FALSE,,,
dig,131,465677,0.0-41.0-0.0,"""event"",""trial"",""time""
""fullscreenenter"",""1"",""1711""
","
","
","""event"",""trial"",""time""
""fullscreenenter"",""1"",""1711""
","
",,,,,,,,,,,,"[{""stimulus"":""run_exp/static/images/task_images/dig.jpg"",""time"":0.40000009536743164},{""stimulus"":""run_exp/static/images/task_images/land.jpg"",""time"":898.2999999523163},{""stimulus"":""run_exp/static/images/task_images/dig.jpg"",""time"":1781.7000000476837}]",[],6,,,,,,,,,,,,,,
harvest,132,466690,0.0-41.0-1.0,"""event"",""trial"",""time""
""fullscreenenter"",""1"",""1711""
","
","
","""event"",""trial"",""time""
""fullscreenenter"",""1"",""1711""
","
",,null,run_exp/static/images/task_images/gems/57.jpg,null,,,,,,,47,,,6,,,,,57,0.818219678,0.824561404,,,,,,,
decision,133,467117,0.0-41.0-2.0,"""event"",""trial"",""time""
""fullscreenenter"",""1"",""1711""
","
","
","""event"",""trial"",""time""
""fullscreenenter"",""1"",""1711""
","
",,424.5,run_exp/static/images/task_images/land.jpg,65,,,,,,,47,,,6,,,,,,,,154192,1,2,FALSE,,,
dig,134,469717,0.0-42.0-0.0,"""event"",""trial"",""time""
""fullscreenenter"",""1"",""1711""
","
","
","""event"",""trial"",""time""
""fullscreenenter"",""1"",""1711""
","
",,,,,,,,,,,,"[{""stimulus"":""run_exp/static/images/task_images/dig.jpg"",""time"":0.40000009536743164},{""stimulus"":""run_exp/static/images/task_images/land.jpg"",""time"":875.1000001430511},{""stimulus"":""run_exp/static/images/task_images/dig.jpg"",""time"":1734.7000000476837}]",[],6,,,,,,,,,,,,,,
harvest,135,470719,0.0-42.0-1.0,"""event"",""trial"",""time""
""fullscreenenter"",""1"",""1711""
","
","
","""event"",""trial"",""time""
""fullscreenenter"",""1"",""1711""
","
",,null,run_exp/static/images/task_images/gems/47.jpg,null,,,,,,,39,,,6,,,,,47,0.836497523,0.829787234,,,,,,,
decision,136,471145,0.0-42.0-2.0,"""event"",""trial"",""time""
""fullscreenenter"",""1"",""1711""
","
","
","""event"",""trial"",""time""
""fullscreenenter"",""1"",""1711""
","
",,423.8,run_exp/static/images/task_images/land.jpg,65,,,,,,,39,,,6,,,,,,,,158220,1,3,FALSE,,,
dig,137,473727,0.0-43.0-0.0,"""event"",""trial"",""time""
""fullscreenenter"",""1"",""1711""
","
","
","""event"",""trial"",""time""
""fullscreenenter"",""1"",""1711""
","
",,,,,,,,,,,,"[{""stimulus"":""run_exp/static/images/task_images/dig.jpg"",""time"":0.39999985694885254},{""stimulus"":""run_exp/static/images/task_images/land.jpg"",""time"":876.5999999046326},{""stimulus"":""run_exp/static/images/task_images/dig.jpg"",""time"":1736}]",[],6,,,,,,,,,,,,,,
harvest,138,474747,0.0-43.0-1.0,"""event"",""trial"",""time""
""fullscreenenter"",""1"",""1711""
","
","
","""event"",""trial"",""time""
""fullscreenenter"",""1"",""1711""
","
",,null,run_exp/static/images/task_images/gems/39.jpg,null,,,,,,,32,,,6,,,,,39,0.819703473,0.820512821,,,,,,,
decision,139,475114,0.0-43.0-2.0,"""event"",""trial"",""time""
""fullscreenenter"",""1"",""1711""
","
","
","""event"",""trial"",""time""
""fullscreenenter"",""1"",""1711""
","
",,365.8,run_exp/static/images/task_images/land.jpg,76,,,,,,,32,,,6,,,,,,,,162189,1,4,TRUE,,,
travel,140,484757,0.0-44.0-0.0,"""event"",""trial"",""time""
""fullscreenenter"",""1"",""1711""
","
","
","""event"",""trial"",""time""
""fullscreenenter"",""1"",""1711""
","
",,,,,,,,,,,,"[{""stimulus"":""run_exp/static/images/task_images/rocket-01.jpg"",""time"":0.39999985694885254},{""stimulus"":""run_exp/static/images/task_images/rocket-02.jpg"",""time"":1086.7999999523163},{""stimulus"":""run_exp/static/images/task_images/rocket-03.jpg"",""time"":2146.7999999523163},{""stimulus"":""run_exp/static/images/task_images/rocket-04.jpg"",""time"":3226.5999999046326},{""stimulus"":""run_exp/static/images/task_images/rocket-05.jpg"",""time"":4286.899999856949},{""stimulus"":""run_exp/static/images/task_images/rocket-06.jpg"",""time"":5366.599999904633},{""stimulus"":""run_exp/static/images/task_images/rocket-07.jpg"",""time"":6436.599999904633},{""stimulus"":""run_exp/static/images/task_images/rocket-08.jpg"",""time"":7506.299999952316},{""stimulus"":""run_exp/static/images/task_images/rocket-09.jpg"",""time"":8576.299999952316}]",[],6,,,,,,,,,,,,,,
alien_welcome,141,489766,0.0-44.0-1.0,"""event"",""trial"",""time""
""fullscreenenter"",""1"",""1711""
","
","
","""event"",""trial"",""time""
""fullscreenenter"",""1"",""1711""
","
",,null,run_exp/static/images/task_images/aliens/old_aliens/planet/alien_planet-5.jpg,null,,,,,,,,,,,,,5,"71,11,68,48,28,12,5,26,14,72,42,6,56,8,52,63,34,49,79,80,27,23,29,67,47,10,58,37,35,60,70,50,30,77,31,64,57,25,45,32,74,4,24,2,73,1,13,76,21,38,41,22,33,59,36,20",,,,,,,,,,
land,142,490276,0.0-44.0-2.0,"""event"",""trial"",""time""
""fullscreenenter"",""1"",""1711""
","
","
","""event"",""trial"",""time""
""fullscreenenter"",""1"",""1711""
","
",,null,run_exp/static/images/task_images/land.jpg,null,,,,,,,102,,,7,,,,,,,,,,,,,,
dig,143,492297,0.0-44.0-3.0,"""event"",""trial"",""time""
""fullscreenenter"",""1"",""1711""
","
","
","""event"",""trial"",""time""
""fullscreenenter"",""1"",""1711""
","
",,,,,,,,,,,,"[{""stimulus"":""run_exp/static/images/task_images/dig.jpg"",""time"":0.40000009536743164},{""stimulus"":""run_exp/static/images/task_images/land.jpg"",""time"":678.6000001430511},{""stimulus"":""run_exp/static/images/task_images/dig.jpg"",""time"":1337.7000000476837}]",[],7,,,,,,,,,,,,,,
harvest,144,493316,0.0-44.0-4.0,"""event"",""trial"",""time""
""fullscreenenter"",""1"",""1711""
","
","
","""event"",""trial"",""time""
""fullscreenenter"",""1"",""1711""
","
",,null,run_exp/static/images/task_images/gems/102.jpg,null,,,,,,,82,,,7,,,,,102,0.800235436,0.803921569,,,,,,,
decision,145,493690,0.0-44.0-5.0,"""event"",""trial"",""time""
""fullscreenenter"",""1"",""1711""
","
","
","""event"",""trial"",""time""
""fullscreenenter"",""1"",""1711""
","
",,371.3,run_exp/static/images/task_images/land.jpg,65,,,,,,,82,,,7,,,,,,,,180765,1,0,FALSE,,,
dig,146,496336,0.0-45.0-0.0,"""event"",""trial"",""time""
""fullscreenenter"",""1"",""1711""
","
","
","""event"",""trial"",""time""
""fullscreenenter"",""1"",""1711""
","
",,,,,,,,,,,,"[{""stimulus"":""run_exp/static/images/task_images/dig.jpg"",""time"":0.2999999523162842},{""stimulus"":""run_exp/static/images/task_images/land.jpg"",""time"":884.2000000476837},{""stimulus"":""run_exp/static/images/task_images/dig.jpg"",""time"":1761.7999999523163}]",[],7,,,,,,,,,,,,,,
harvest,147,497343,0.0-45.0-1.0,"""event"",""trial"",""time""
""fullscreenenter"",""1"",""1711""
","
","
","""event"",""trial"",""time""
""fullscreenenter"",""1"",""1711""
","
",,null,run_exp/static/images/task_images/gems/82.jpg,null,,,,,,,63,,,7,,,,,82,0.763645729,0.768292683,,,,,,,
decision,148,497620,0.0-45.0-2.0,"""event"",""trial"",""time""
""fullscreenenter"",""1"",""1711""
","
","
","""event"",""trial"",""time""
""fullscreenenter"",""1"",""1711""
","
",,276,run_exp/static/images/task_images/land.jpg,65,,,,,,,63,,,7,,,,,,,,184696,1,1,FALSE,,,
dig,149,500367,0.0-46.0-0.0,"""event"",""trial"",""time""
""fullscreenenter"",""1"",""1711""
","
","
","""event"",""trial"",""time""
""fullscreenenter"",""1"",""1711""
","
",,,,,,,,,,,,"[{""stimulus"":""run_exp/static/images/task_images/dig.jpg"",""time"":0.40000009536743164},{""stimulus"":""run_exp/static/images/task_images/land.jpg"",""time"":910.2000000476837},{""stimulus"":""run_exp/static/images/task_images/dig.jpg"",""time"":1830.9000000953674}]",[],7,,,,,,,,,,,,,,
harvest,150,501373,0.0-46.0-1.0,"""event"",""trial"",""time""
""fullscreenenter"",""1"",""1711""
","
","
","""event"",""trial"",""time""
""fullscreenenter"",""1"",""1711""
","
",,null,run_exp/static/images/task_images/gems/63.jpg,null,,,,,,,49,,,7,,,,,63,0.775320921,0.777777778,,,,,,,
decision,151,501988,0.0-46.0-2.0,"""event"",""trial"",""time""
""fullscreenenter"",""1"",""1711""
","
","
","""event"",""trial"",""time""
""fullscreenenter"",""1"",""1711""
","
",,614.0999999,run_exp/static/images/task_images/land.jpg,76,,,,,,,49,,,7,,,,,,,,189063,1,2,TRUE,,,
travel,152,511376,0.0-47.0-0.0,"""event"",""trial"",""time""
""fullscreenenter"",""1"",""1711""
","
","
","""event"",""trial"",""time""
""fullscreenenter"",""1"",""1711""
","
",,,,,,,,,,,,"[{""stimulus"":""run_exp/static/images/task_images/rocket-01.jpg"",""time"":0},{""stimulus"":""run_exp/static/images/task_images/rocket-02.jpg"",""time"":1045.0999999046326},{""stimulus"":""run_exp/static/images/task_images/rocket-03.jpg"",""time"":2095.5999999046326},{""stimulus"":""run_exp/static/images/task_images/rocket-04.jpg"",""time"":3135.5},{""stimulus"":""run_exp/static/images/task_images/rocket-05.jpg"",""time"":4175.599999904633},{""stimulus"":""run_exp/static/images/task_images/rocket-06.jpg"",""time"":5216},{""stimulus"":""run_exp/static/images/task_images/rocket-07.jpg"",""time"":6255.799999952316},{""stimulus"":""run_exp/static/images/task_images/rocket-08.jpg"",""time"":7305.399999856949},{""stimulus"":""run_exp/static/images/task_images/rocket-09.jpg"",""time"":8345.799999952316}]",[],7,,,,,,,,,,,,,,
alien_welcome,153,516396,0.0-47.0-1.0,"""event"",""trial"",""time""
""fullscreenenter"",""1"",""1711""
","
","
","""event"",""trial"",""time""
""fullscreenenter"",""1"",""1711""
","
",,null,run_exp/static/images/task_images/aliens/old_aliens/planet/alien_planet-26.jpg,null,,,,,,,,,,,,,26,"71,11,68,48,28,12,5,26,14,72,42,6,56,8,52,63,34,49,79,80,27,23,29,67,47,10,58,37,35,60,70,50,30,77,31,64,57,25,45,32,74,4,24,2,73,1,13,76,21,38,41,22,33,59,36,20",,,,,,,,,,
land,154,516916,0.0-47.0-2.0,"""event"",""trial"",""time""
""fullscreenenter"",""1"",""1711""
","
","
","""event"",""trial"",""time""
""fullscreenenter"",""1"",""1711""
","
",,null,run_exp/static/images/task_images/land.jpg,null,,,,,,,104,,,8,,,,,,,,,,,,,,
dig,155,518926,0.0-47.0-3.0,"""event"",""trial"",""time""
""fullscreenenter"",""1"",""1711""
","
","
","""event"",""trial"",""time""
""fullscreenenter"",""1"",""1711""
","
",,,,,,,,,,,,"[{""stimulus"":""run_exp/static/images/task_images/dig.jpg"",""time"":0.40000009536743164},{""stimulus"":""run_exp/static/images/task_images/land.jpg"",""time"":677.5},{""stimulus"":""run_exp/static/images/task_images/dig.jpg"",""time"":1337.5}]",[],8,,,,,,,,,,,,,,
harvest,156,519946,0.0-47.0-4.0,"""event"",""trial"",""time""
""fullscreenenter"",""1"",""1711""
","
","
","""event"",""trial"",""time""
""fullscreenenter"",""1"",""1711""
","
",,null,run_exp/static/images/task_images/gems/104.jpg,null,,,,,,,78,,,8,,,,,104,0.746454095,0.75,,,,,,,
decision,157,519970,0.0-47.0-5.0,"""event"",""trial"",""time""
""fullscreenenter"",""1"",""1711""
","
","
","""event"",""trial"",""time""
""fullscreenenter"",""1"",""1711""
","
",,22.70000005,run_exp/static/images/task_images/land.jpg,65,,,,,,,78,,,8,,,,,,,,207046,1,0,FALSE,,,
dig,158,522956,0.0-48.0-0.0,"""event"",""trial"",""time""
""fullscreenenter"",""1"",""1711""
","
","
","""event"",""trial"",""time""
""fullscreenenter"",""1"",""1711""
","
",,,,,,,,,,,,"[{""stimulus"":""run_exp/static/images/task_images/dig.jpg"",""time"":0.40000009536743164},{""stimulus"":""run_exp/static/images/task_images/land.jpg"",""time"":1009.9000000953674},{""stimulus"":""run_exp/static/images/task_images/dig.jpg"",""time"":2000.2000000476837}]",[],8,,,,,,,,,,,,,,
harvest,159,523966,0.0-48.0-1.0,"""event"",""trial"",""time""
""fullscreenenter"",""1"",""1711""
","
","
","""event"",""trial"",""time""
""fullscreenenter"",""1"",""1711""
","
",,null,run_exp/static/images/task_images/gems/78.jpg,null,,,,,,,71,,,8,,,,,78,0.912667377,0.91025641,,,,,,,
decision,160,524017,0.0-48.0-2.0,"""event"",""trial"",""time""
""fullscreenenter"",""1"",""1711""
","
","
","""event"",""trial"",""time""
""fullscreenenter"",""1"",""1711""
","
",,48.29999995,run_exp/static/images/task_images/land.jpg,65,,,,,,,71,,,8,,,,,,,,211092,1,1,FALSE,,,
dig,161,526976,0.0-49.0-0.0,"""event"",""trial"",""time""
""fullscreenenter"",""1"",""1711""
","
","
","""event"",""trial"",""time""
""fullscreenenter"",""1"",""1711""
","
",,,,,,,,,,,,"[{""stimulus"":""run_exp/static/images/task_images/dig.jpg"",""time"":0.2999999523162842},{""stimulus"":""run_exp/static/images/task_images/land.jpg"",""time"":993.2999999523163},{""stimulus"":""run_exp/static/images/task_images/dig.jpg"",""time"":1975.8999998569489}]",[],8,,,,,,,,,,,,,,
harvest,162,527979,0.0-49.0-1.0,"""event"",""trial"",""time""
""fullscreenenter"",""1"",""1711""
","
","
","""event"",""trial"",""time""
""fullscreenenter"",""1"",""1711""
","
",,null,run_exp/static/images/task_images/gems/71.jpg,null,,,,,,,60,,,8,,,,,71,0.840377402,0.845070423,,,,,,,
decision,163,528399,0.0-49.0-2.0,"""event"",""trial"",""time""
""fullscreenenter"",""1"",""1711""
","
","
","""event"",""trial"",""time""
""fullscreenenter"",""1"",""1711""
","
",,417.1999998,run_exp/static/images/task_images/land.jpg,76,,,,,,,60,,,8,,,,,,,,215474,1,2,TRUE,,,
travel,164,537986,0.0-50.0-0.0,"""event"",""trial"",""time""
""fullscreenenter"",""1"",""1711""
","
","
","""event"",""trial"",""time""
""fullscreenenter"",""1"",""1711""
","
",,,,,,,,,,,,"[{""stimulus"":""run_exp/static/images/task_images/rocket-01.jpg"",""time"":0.2999999523162842},{""stimulus"":""run_exp/static/images/task_images/rocket-02.jpg"",""time"":1071.7999999523163},{""stimulus"":""run_exp/static/images/task_images/rocket-03.jpg"",""time"":2141.600000143051},{""stimulus"":""run_exp/static/images/task_images/rocket-04.jpg"",""time"":3201.9000000953674},{""stimulus"":""run_exp/static/images/task_images/rocket-05.jpg"",""time"":4257.700000047684},{""stimulus"":""run_exp/static/images/task_images/rocket-06.jpg"",""time"":5321.700000047684},{""stimulus"":""run_exp/static/images/task_images/rocket-07.jpg"",""time"":6401.600000143051},{""stimulus"":""run_exp/static/images/task_images/rocket-08.jpg"",""time"":7461.799999952316},{""stimulus"":""run_exp/static/images/task_images/rocket-09.jpg"",""time"":8532.100000143051}]",[],8,,,,,,,,,,,,,,
alien_welcome,165,542996,0.0-50.0-1.0,"""event"",""trial"",""time""
""fullscreenenter"",""1"",""1711""
","
","
","""event"",""trial"",""time""
""fullscreenenter"",""1"",""1711""
","
",,null,run_exp/static/images/task_images/aliens/old_aliens/planet/alien_planet-14.jpg,null,,,,,,,,,,,,,14,"71,11,68,48,28,12,5,26,14,72,42,6,56,8,52,63,34,49,79,80,27,23,29,67,47,10,58,37,35,60,70,50,30,77,31,64,57,25,45,32,74,4,24,2,73,1,13,76,21,38,41,22,33,59,36,20",,,,,,,,,,
land,166,543502,0.0-50.0-2.0,"""event"",""trial"",""time""
""fullscreenenter"",""1"",""1711""
","
","
","""event"",""trial"",""time""
""fullscreenenter"",""1"",""1711""
","
",,null,run_exp/static/images/task_images/land.jpg,null,,,,,,,99,,,9,,,,,,,,,,,,,,
dig,167,545513,0.0-50.0-3.0,"""event"",""trial"",""time""
""fullscreenenter"",""1"",""1711""
","
","
","""event"",""trial"",""time""
""fullscreenenter"",""1"",""1711""
","
",,,,,,,,,,,,"[{""stimulus"":""run_exp/static/images/task_images/dig.jpg"",""time"":0.40000009536743164},{""stimulus"":""run_exp/static/images/task_images/land.jpg"",""time"":672.2000000476837},{""stimulus"":""run_exp/static/images/task_images/dig.jpg"",""time"":1342.4000000953674}]",[],9,,,,,,,,,,,,,,
harvest,168,546536,0.0-50.0-4.0,"""event"",""trial"",""time""
""fullscreenenter"",""1"",""1711""
","
","
","""event"",""trial"",""time""
""fullscreenenter"",""1"",""1711""
","
",,null,run_exp/static/images/task_images/gems/99.jpg,null,,,,,,,24,,,9,,,,,99,0.244236249,0.242424242,,,,,,,
decision,169,546948,0.0-50.0-5.0,"""event"",""trial"",""time""
""fullscreenenter"",""1"",""1711""
","
","
","""event"",""trial"",""time""
""fullscreenenter"",""1"",""1711""
","
",,410.4000001,run_exp/static/images/task_images/land.jpg,65,,,,,,,24,,,9,,,,,,,,234023,1,0,FALSE,,,
dig,170,549546,0.0-51.0-0.0,"""event"",""trial"",""time""
""fullscreenenter"",""1"",""1711""
","
","
","""event"",""trial"",""time""
""fullscreenenter"",""1"",""1711""
","
",,,,,,,,,,,,"[{""stimulus"":""run_exp/static/images/task_images/dig.jpg"",""time"":0.10000014305114746},{""stimulus"":""run_exp/static/images/task_images/land.jpg"",""time"":872.3000001907349},{""stimulus"":""run_exp/static/images/task_images/dig.jpg"",""time"":1741.8000001907349}]",[],9,,,,,,,,,,,,,,
harvest,171,550557,0.0-51.0-1.0,"""event"",""trial"",""time""
""fullscreenenter"",""1"",""1711""
","
","
","""event"",""trial"",""time""
""fullscreenenter"",""1"",""1711""
","
",,null,run_exp/static/images/task_images/gems/24.jpg,null,,,,,,,3,,,9,,,,,24,0.127158039,0.125,,,,,,,
decision,172,550878,0.0-51.0-2.0,"""event"",""trial"",""time""
""fullscreenenter"",""1"",""1711""
","
","
","""event"",""trial"",""time""
""fullscreenenter"",""1"",""1711""
","
",,319.2,run_exp/static/images/task_images/land.jpg,76,,,,,,,3,,,9,,,,,,,,237954,1,1,TRUE,,,
travel,173,560566,0.0-52.0-0.0,"""event"",""trial"",""time""
""fullscreenenter"",""1"",""1711""
","
","
","""event"",""trial"",""time""
""fullscreenenter"",""1"",""1711""
","
",,,,,,,,,,,,"[{""stimulus"":""run_exp/static/images/task_images/rocket-01.jpg"",""time"":0.2999999523162842},{""stimulus"":""run_exp/static/images/task_images/rocket-02.jpg"",""time"":1081.7999999523163},{""stimulus"":""run_exp/static/images/task_images/rocket-03.jpg"",""time"":2171.4000000953674},{""stimulus"":""run_exp/static/images/task_images/rocket-04.jpg"",""time"":3241.7999999523163},{""stimulus"":""run_exp/static/images/task_images/rocket-05.jpg"",""time"":4311.600000143051},{""stimulus"":""run_exp/static/images/task_images/rocket-06.jpg"",""time"":5379.299999952316},{""stimulus"":""run_exp/static/images/task_images/rocket-07.jpg"",""time"":6471.900000095367},{""stimulus"":""run_exp/static/images/task_images/rocket-08.jpg"",""time"":7531.799999952316},{""stimulus"":""run_exp/static/images/task_images/rocket-09.jpg"",""time"":8621.400000095367}]",[],9,,,,,,,,,,,,,,
alien_welcome,174,565576,0.0-52.0-1.0,"""event"",""trial"",""time""
""fullscreenenter"",""1"",""1711""
","
","
","""event"",""trial"",""time""
""fullscreenenter"",""1"",""1711""
","
",,null,run_exp/static/images/task_images/aliens/old_aliens/planet/alien_planet-72.jpg,null,,,,,,,,,,,,,72,"71,11,68,48,28,12,5,26,14,72,42,6,56,8,52,63,34,49,79,80,27,23,29,67,47,10,58,37,35,60,70,50,30,77,31,64,57,25,45,32,74,4,24,2,73,1,13,76,21,38,41,22,33,59,36,20",,,,,,,,,,
land,175,566088,0.0-52.0-2.0,"""event"",""trial"",""time""
""fullscreenenter"",""1"",""1711""
","
","
","""event"",""trial"",""time""
""fullscreenenter"",""1"",""1711""
","
",,null,run_exp/static/images/task_images/land.jpg,null,,,,,,,105,,,10,,,,,,,,,,,,,,
dig,176,568095,0.0-52.0-3.0,"""event"",""trial"",""time""
""fullscreenenter"",""1"",""1711""
","
","
","""event"",""trial"",""time""
""fullscreenenter"",""1"",""1711""
","
",,,,,,,,,,,,"[{""stimulus"":""run_exp/static/images/task_images/dig.jpg"",""time"":0.40000009536743164},{""stimulus"":""run_exp/static/images/task_images/land.jpg"",""time"":687.4000000953674},{""stimulus"":""run_exp/static/images/task_images/dig.jpg"",""time"":1335.8000001907349}]",[],10,,,,,,,,,,,,,,
harvest,177,569117,0.0-52.0-4.0,"""event"",""trial"",""time""
""fullscreenenter"",""1"",""1711""
","
","
","""event"",""trial"",""time""
""fullscreenenter"",""1"",""1711""
","
",,null,run_exp/static/images/task_images/gems/105.jpg,null,,,,,,,26,,,10,,,,,105,0.244748061,0.247619048,,,,,,,
decision,178,569409,0.0-52.0-5.0,"""event"",""trial"",""time""
""fullscreenenter"",""1"",""1711""
","
","
","""event"",""trial"",""time""
""fullscreenenter"",""1"",""1711""
","
",,290.5,run_exp/static/images/task_images/land.jpg,65,,,,,,,26,,,10,,,,,,,,256484,1,0,FALSE,,,
dig,179,572137,0.0-53.0-0.0,"""event"",""trial"",""time""
""fullscreenenter"",""1"",""1711""
","
","
","""event"",""trial"",""time""
""fullscreenenter"",""1"",""1711""
","
",,,,,,,,,,,,"[{""stimulus"":""run_exp/static/images/task_images/dig.jpg"",""time"":0.20000004768371582},{""stimulus"":""run_exp/static/images/task_images/land.jpg"",""time"":908.2000000476837},{""stimulus"":""run_exp/static/images/task_images/dig.jpg"",""time"":1823.2000000476837}]",[],10,,,,,,,,,,,,,,
harvest,180,573153,0.0-53.0-1.0,"""event"",""trial"",""time""
""fullscreenenter"",""1"",""1711""
","
","
","""event"",""trial"",""time""
""fullscreenenter"",""1"",""1711""
","
",,null,run_exp/static/images/task_images/gems/26.jpg,null,,,,,,,4,,,10,,,,,26,0.164135809,0.153846154,,,,,,,
decision,181,573582,0.0-53.0-2.0,"""event"",""trial"",""time""
""fullscreenenter"",""1"",""1711""
","
","
","""event"",""trial"",""time""
""fullscreenenter"",""1"",""1711""
","
",,426.5999999,run_exp/static/images/task_images/land.jpg,76,,,,,,,4,,,10,,,,,,,,260657,1,1,TRUE,,,
travel,182,583167,0.0-54.0-0.0,"""event"",""trial"",""time""
""fullscreenenter"",""1"",""1711""
","
","
","""event"",""trial"",""time""
""fullscreenenter"",""1"",""1711""
","
",,,,,,,,,,,,"[{""stimulus"":""run_exp/static/images/task_images/rocket-01.jpg"",""time"":0.20000004768371582},{""stimulus"":""run_exp/static/images/task_images/rocket-02.jpg"",""time"":1079.4000000953674},{""stimulus"":""run_exp/static/images/task_images/rocket-03.jpg"",""time"":2149.5},{""stimulus"":""run_exp/static/images/task_images/rocket-04.jpg"",""time"":3199.7999999523163},{""stimulus"":""run_exp/static/images/task_images/rocket-05.jpg"",""time"":4264.200000047684},{""stimulus"":""run_exp/static/images/task_images/rocket-06.jpg"",""time"":5324.900000095367},{""stimulus"":""run_exp/static/images/task_images/rocket-07.jpg"",""time"":6379.700000047684},{""stimulus"":""run_exp/static/images/task_images/rocket-08.jpg"",""time"":7449.299999952316},{""stimulus"":""run_exp/static/images/task_images/rocket-09.jpg"",""time"":8518.400000095367}]",[],10,,,,,,,,,,,,,,
alien_welcome,183,588186,0.0-54.0-1.0,"""event"",""trial"",""time""
""fullscreenenter"",""1"",""1711""
","
","
","""event"",""trial"",""time""
""fullscreenenter"",""1"",""1711""
","
",,null,run_exp/static/images/task_images/aliens/old_aliens/planet/alien_planet-42.jpg,null,,,,,,,,,,,,,42,"71,11,68,48,28,12,5,26,14,72,42,6,56,8,52,63,34,49,79,80,27,23,29,67,47,10,58,37,35,60,70,50,30,77,31,64,57,25,45,32,74,4,24,2,73,1,13,76,21,38,41,22,33,59,36,20",,,,,,,,,,
land,184,588703,0.0-54.0-2.0,"""event"",""trial"",""time""
""fullscreenenter"",""1"",""1711""
","
","
","""event"",""trial"",""time""
""fullscreenenter"",""1"",""1711""
","
",,null,run_exp/static/images/task_images/land.jpg,null,,,,,,,97,,,11,,,,,,,,,,,,,,
dig,185,590717,0.0-54.0-3.0,"""event"",""trial"",""time""
""fullscreenenter"",""1"",""1711""
","
","
","""event"",""trial"",""time""
""fullscreenenter"",""1"",""1711""
","
",,,,,,,,,,,,"[{""stimulus"":""run_exp/static/images/task_images/dig.jpg"",""time"":0.19999980926513672},{""stimulus"":""run_exp/static/images/task_images/land.jpg"",""time"":683.2999999523163},{""stimulus"":""run_exp/static/images/task_images/dig.jpg"",""time"":1344}]",[],11,,,,,,,,,,,,,,
harvest,186,591732,0.0-54.0-4.0,"""event"",""trial"",""time""
""fullscreenenter"",""1"",""1711""
","
","
","""event"",""trial"",""time""
""fullscreenenter"",""1"",""1711""
","
",,null,run_exp/static/images/task_images/gems/97.jpg,null,,,,,,,16,,,11,,,,,97,0.165526758,0.164948454,,,,,,,
decision,187,592112,0.0-54.0-5.0,"""event"",""trial"",""time""
""fullscreenenter"",""1"",""1711""
","
","
","""event"",""trial"",""time""
""fullscreenenter"",""1"",""1711""
","
",,378.2,run_exp/static/images/task_images/land.jpg,65,,,,,,,16,,,11,,,,,,,,279187,1,0,FALSE,,,
dig,188,594756,0.0-55.0-0.0,"""event"",""trial"",""time""
""fullscreenenter"",""1"",""1711""
","
","
","""event"",""trial"",""time""
""fullscreenenter"",""1"",""1711""
","
",,,,,,,,,,,,"[{""stimulus"":""run_exp/static/images/task_images/dig.jpg"",""time"":0.20000004768371582},{""stimulus"":""run_exp/static/images/task_images/land.jpg"",""time"":880.0999999046326},{""stimulus"":""run_exp/static/images/task_images/dig.jpg"",""time"":1758.8999998569489}]",[],11,,,,,,,,,,,,,,
harvest,189,595764,0.0-55.0-1.0,"""event"",""trial"",""time""
""fullscreenenter"",""1"",""1711""
","
","
","""event"",""trial"",""time""
""fullscreenenter"",""1"",""1711""
","
",,null,run_exp/static/images/task_images/gems/16.jpg,null,,,,,,,4,,,11,,,,,16,0.238725653,0.25,,,,,,,
decision,190,596099,0.0-55.0-2.0,"""event"",""trial"",""time""
""fullscreenenter"",""1"",""1711""
","
","
","""event"",""trial"",""time""
""fullscreenenter"",""1"",""1711""
","
",,332.3,run_exp/static/images/task_images/land.jpg,76,,,,,,,4,,,11,,,,,,,,283174,1,1,TRUE,,,
travel,191,605786,0.0-56.0-0.0,"""event"",""trial"",""time""
""fullscreenenter"",""1"",""1711""
","
","
","""event"",""trial"",""time""
""fullscreenenter"",""1"",""1711""
","
",,,,,,,,,,,,"[{""stimulus"":""run_exp/static/images/task_images/rocket-01.jpg"",""time"":0.40000009536743164},{""stimulus"":""run_exp/static/images/task_images/rocket-02.jpg"",""time"":1092.5999999046326},{""stimulus"":""run_exp/static/images/task_images/rocket-03.jpg"",""time"":2162.7000000476837},{""stimulus"":""run_exp/static/images/task_images/rocket-04.jpg"",""time"":3242.7999999523163},{""stimulus"":""run_exp/static/images/task_images/rocket-05.jpg"",""time"":4312.700000047684},{""stimulus"":""run_exp/static/images/task_images/rocket-06.jpg"",""time"":5372.299999952316},{""stimulus"":""run_exp/static/images/task_images/rocket-07.jpg"",""time"":6447.700000047684},{""stimulus"":""run_exp/static/images/task_images/rocket-08.jpg"",""time"":7522},{""stimulus"":""run_exp/static/images/task_images/rocket-09.jpg"",""time"":8601.700000047684}]",[],11,,,,,,,,,,,,,,
alien_welcome,192,610796,0.0-56.0-1.0,"""event"",""trial"",""time""
""fullscreenenter"",""1"",""1711""
","
","
","""event"",""trial"",""time""
""fullscreenenter"",""1"",""1711""
","
",,null,run_exp/static/images/task_images/aliens/old_aliens/planet/alien_planet-6.jpg,null,,,,,,,,,,,,,6,"71,11,68,48,28,12,5,26,14,72,42,6,56,8,52,63,34,49,79,80,27,23,29,67,47,10,58,37,35,60,70,50,30,77,31,64,57,25,45,32,74,4,24,2,73,1,13,76,21,38,41,22,33,59,36,20",,,,,,,,,,
land,193,611316,0.0-56.0-2.0,"""event"",""trial"",""time""
""fullscreenenter"",""1"",""1711""
","
","
","""event"",""trial"",""time""
""fullscreenenter"",""1"",""1711""
","
",,null,run_exp/static/images/task_images/land.jpg,null,,,,,,,92,,,12,,,,,,,,,,,,,,
dig,194,613326,0.0-56.0-3.0,"""event"",""trial"",""time""
""fullscreenenter"",""1"",""1711""
","
","
","""event"",""trial"",""time""
""fullscreenenter"",""1"",""1711""
","
",,,,,,,,,,,,"[{""stimulus"":""run_exp/static/images/task_images/dig.jpg"",""time"":0.5},{""stimulus"":""run_exp/static/images/task_images/land.jpg"",""time"":688.2999999523163},{""stimulus"":""run_exp/static/images/task_images/dig.jpg"",""time"":1345.9000000953674}]",[],12,,,,,,,,,,,,,,
harvest,195,614337,0.0-56.0-4.0,"""event"",""trial"",""time""
""fullscreenenter"",""1"",""1711""
","
","
","""event"",""trial"",""time""
""fullscreenenter"",""1"",""1711""
","
",,null,run_exp/static/images/task_images/gems/92.jpg,null,,,,,,,24,,,12,,,,,92,0.264709362,0.260869565,,,,,,,
decision,196,615520,0.0-56.0-5.0,"""event"",""trial"",""time""
""fullscreenenter"",""1"",""1711""
","
","
","""event"",""trial"",""time""
""fullscreenenter"",""1"",""1711""
","
",,1181.2,run_exp/static/images/task_images/land.jpg,65,,,,,,,24,,,12,,,,,,,,302595,1,0,TRUE,,,
end_of_block_continue,197,624369,0.0-57.0-0.0,"""event"",""trial"",""time""
""fullscreenenter"",""1"",""1711""
","
","
","""event"",""trial"",""time""
""fullscreenenter"",""1"",""1711""
","
",,null,run_exp/static/audio/clip_32_block_end.m4a,,,,,,,null,,,,,,,,,,,,,,,,,,
alien_welcome,198,629387,0.0-58.0-0.0,"""event"",""trial"",""time""
""fullscreenenter"",""1"",""1711""
","
","
","""event"",""trial"",""time""
""fullscreenenter"",""1"",""1711""
","
",,null,run_exp/static/images/task_images/aliens/old_aliens/planet/alien_planet-56.jpg,null,,,,,,,,,,,,,56,"71,11,68,48,28,12,5,26,14,72,42,6,56,8,52,63,34,49,79,80,27,23,29,67,47,10,58,37,35,60,70,50,30,77,31,64,57,25,45,32,74,4,24,2,73,1,13,76,21,38,41,22,33,59,36,20",,,,,,,,,,
land,199,629907,0.0-58.0-1.0,"""event"",""trial"",""time""
""fullscreenenter"",""1"",""1711""
","
","
","""event"",""trial"",""time""
""fullscreenenter"",""1"",""1711""
","
",,null,run_exp/static/images/task_images/land.jpg,null,,,,,,,95,,,13,,,,,,,,,,,,,,
dig,200,631927,0.0-58.0-2.0,"""event"",""trial"",""time""
""fullscreenenter"",""1"",""1711""
","
","
","""event"",""trial"",""time""
""fullscreenenter"",""1"",""1711""
","
",,,,,,,,,,,,"[{""stimulus"":""run_exp/static/images/task_images/dig.jpg"",""time"":0.5},{""stimulus"":""run_exp/static/images/task_images/land.jpg"",""time"":677.8999998569489},{""stimulus"":""run_exp/static/images/task_images/dig.jpg"",""time"":1337.2999999523163}]",[],13,,,,,,,,,,,,,,
harvest,201,632937,0.0-58.0-3.0,"""event"",""trial"",""time""
""fullscreenenter"",""1"",""1711""
","
","
","""event"",""trial"",""time""
""fullscreenenter"",""1"",""1711""
","
",,null,run_exp/static/images/task_images/gems/95.jpg,null,,,,,,,12,,,13,,,,,95,0.12887575,0.126315789,,,,,,,
decision,202,633613,0.0-58.0-4.0,"""event"",""trial"",""time""
""fullscreenenter"",""1"",""1711""
","
","
","""event"",""trial"",""time""
""fullscreenenter"",""1"",""1711""
","
",,673.4000001,run_exp/static/images/task_images/land.jpg,65,,,,,,,12,,,13,,,,,,,,9236,2,0,FALSE,,,
dig,203,635957,0.0-59.0-0.0,"""event"",""trial"",""time""
""fullscreenenter"",""1"",""1711""
","
","
","""event"",""trial"",""time""
""fullscreenenter"",""1"",""1711""
","
",,,,,,,,,,,,"[{""stimulus"":""run_exp/static/images/task_images/dig.jpg"",""time"":0.40000009536743164},{""stimulus"":""run_exp/static/images/task_images/land.jpg"",""time"":788.2000000476837},{""stimulus"":""run_exp/static/images/task_images/dig.jpg"",""time"":1558.1000001430511}]",[],13,,,,,,,,,,,,,,
harvest,204,636967,0.0-59.0-1.0,"""event"",""trial"",""time""
""fullscreenenter"",""1"",""1711""
","
","
","""event"",""trial"",""time""
""fullscreenenter"",""1"",""1711""
","
",,null,run_exp/static/images/task_images/gems/12.jpg,null,,,,,,,3,,,13,,,,,12,0.283733307,0.25,,,,,,,
decision,205,638376,0.0-59.0-2.0,"""event"",""trial"",""time""
""fullscreenenter"",""1"",""1711""
","
","
","""event"",""trial"",""time""
""fullscreenenter"",""1"",""1711""
","
",,1407.1,run_exp/static/images/task_images/land.jpg,76,,,,,,,3,,,13,,,,,,,,13999,2,1,TRUE,,,
travel,206,646986,0.0-60.0-0.0,"""event"",""trial"",""time""
""fullscreenenter"",""1"",""1711""
","
","
","""event"",""trial"",""time""
""fullscreenenter"",""1"",""1711""
","
",,,,,,,,,,,,"[{""stimulus"":""run_exp/static/images/task_images/rocket-01.jpg"",""time"":0.2999999523162842},{""stimulus"":""run_exp/static/images/task_images/rocket-02.jpg"",""time"":965.2000000476837},{""stimulus"":""run_exp/static/images/task_images/rocket-03.jpg"",""time"":1914.0999999046326},{""stimulus"":""run_exp/static/images/task_images/rocket-04.jpg"",""time"":2863.7999999523163},{""stimulus"":""run_exp/static/images/task_images/rocket-05.jpg"",""time"":3833.7000000476837},{""stimulus"":""run_exp/static/images/task_images/rocket-06.jpg"",""time"":4773.799999952316},{""stimulus"":""run_exp/static/images/task_images/rocket-07.jpg"",""time"":5734.099999904633},{""stimulus"":""run_exp/static/images/task_images/rocket-08.jpg"",""time"":6683.599999904633},{""stimulus"":""run_exp/static/images/task_images/rocket-09.jpg"",""time"":7634}]",[],13,,,,,,,,,,,,,,
alien_welcome,207,652007,0.0-60.0-1.0,"""event"",""trial"",""time""
""fullscreenenter"",""1"",""1711""
","
","
","""event"",""trial"",""time""
""fullscreenenter"",""1"",""1711""
","
",,null,run_exp/static/images/task_images/aliens/old_aliens/planet/alien_planet-8.jpg,null,,,,,,,,,,,,,8,"71,11,68,48,28,12,5,26,14,72,42,6,56,8,52,63,34,49,79,80,27,23,29,67,47,10,58,37,35,60,70,50,30,77,31,64,57,25,45,32,74,4,24,2,73,1,13,76,21,38,41,22,33,59,36,20",,,,,,,,,,
land,208,652517,0.0-60.0-2.0,"""event"",""trial"",""time""
""fullscreenenter"",""1"",""1711""
","
","
","""event"",""trial"",""time""
""fullscreenenter"",""1"",""1711""
","
",,null,run_exp/static/images/task_images/land.jpg,null,,,,,,,96,,,14,,,,,,,,,,,,,,
dig,209,654527,0.0-60.0-3.0,"""event"",""trial"",""time""
""fullscreenenter"",""1"",""1711""
","
","
","""event"",""trial"",""time""
""fullscreenenter"",""1"",""1711""
","
",,,,,,,,,,,,"[{""stimulus"":""run_exp/static/images/task_images/dig.jpg"",""time"":0.39999985694885254},{""stimulus"":""run_exp/static/images/task_images/land.jpg"",""time"":674.1999998092651},{""stimulus"":""run_exp/static/images/task_images/dig.jpg"",""time"":1338}]",[],14,,,,,,,,,,,,,,
harvest,210,655536,0.0-60.0-4.0,"""event"",""trial"",""time""
""fullscreenenter"",""1"",""1711""
","
","
","""event"",""trial"",""time""
""fullscreenenter"",""1"",""1711""
","
",,null,run_exp/static/images/task_images/gems/96.jpg,null,,,,,,,23,,,14,,,,,96,0.239999279,0.239583333,,,,,,,
decision,211,656204,0.0-60.0-5.0,"""event"",""trial"",""time""
""fullscreenenter"",""1"",""1711""
","
","
","""event"",""trial"",""time""
""fullscreenenter"",""1"",""1711""
","
",,665.9000001,run_exp/static/images/task_images/land.jpg,65,,,,,,,23,,,14,,,,,,,,31827,2,0,FALSE,,,
dig,212,658557,0.0-61.0-0.0,"""event"",""trial"",""time""
""fullscreenenter"",""1"",""1711""
","
","
","""event"",""trial"",""time""
""fullscreenenter"",""1"",""1711""
","
",,,,,,,,,,,,"[{""stimulus"":""run_exp/static/images/task_images/dig.jpg"",""time"":0.40000009536743164},{""stimulus"":""run_exp/static/images/task_images/land.jpg"",""time"":786.3000001907349},{""stimulus"":""run_exp/static/images/task_images/dig.jpg"",""time"":1566.4000000953674}]",[],14,,,,,,,,,,,,,,
harvest,213,659577,0.0-61.0-1.0,"""event"",""trial"",""time""
""fullscreenenter"",""1"",""1711""
","
","
","""event"",""trial"",""time""
""fullscreenenter"",""1"",""1711""
","
",,null,run_exp/static/images/task_images/gems/23.jpg,null,,,,,,,5,,,14,,,,,23,0.205172436,0.217391304,,,,,,,
decision,214,660596,0.0-61.0-2.0,"""event"",""trial"",""time""
""fullscreenenter"",""1"",""1711""
","
","
","""event"",""trial"",""time""
""fullscreenenter"",""1"",""1711""
","
",,1017.7,run_exp/static/images/task_images/land.jpg,76,,,,,,,5,,,14,,,,,,,,36220,2,1,TRUE,,,
travel,215,669607,0.0-62.0-0.0,"""event"",""trial"",""time""
""fullscreenenter"",""1"",""1711""
","
","
","""event"",""trial"",""time""
""fullscreenenter"",""1"",""1711""
","
",,,,,,,,,,,,"[{""stimulus"":""run_exp/static/images/task_images/rocket-01.jpg"",""time"":0.09999990463256836},{""stimulus"":""run_exp/static/images/task_images/rocket-02.jpg"",""time"":1005.5},{""stimulus"":""run_exp/static/images/task_images/rocket-03.jpg"",""time"":2000.7999999523163},{""stimulus"":""run_exp/static/images/task_images/rocket-04.jpg"",""time"":3000.7000000476837},{""stimulus"":""run_exp/static/images/task_images/rocket-05.jpg"",""time"":4005.5},{""stimulus"":""run_exp/static/images/task_images/rocket-06.jpg"",""time"":4995.200000047684},{""stimulus"":""run_exp/static/images/task_images/rocket-07.jpg"",""time"":6005.399999856949},{""stimulus"":""run_exp/static/images/task_images/rocket-08.jpg"",""time"":6990.599999904633},{""stimulus"":""run_exp/static/images/task_images/rocket-09.jpg"",""time"":7995.099999904633}]",[],14,,,,,,,,,,,,,,
alien_welcome,216,674627,0.0-62.0-1.0,"""event"",""trial"",""time""
""fullscreenenter"",""1"",""1711""
","
","
","""event"",""trial"",""time""
""fullscreenenter"",""1"",""1711""
","
",,null,run_exp/static/images/task_images/aliens/old_aliens/planet/alien_planet-52.jpg,null,,,,,,,,,,,,,52,"71,11,68,48,28,12,5,26,14,72,42,6,56,8,52,63,34,49,79,80,27,23,29,67,47,10,58,37,35,60,70,50,30,77,31,64,57,25,45,32,74,4,24,2,73,1,13,76,21,38,41,22,33,59,36,20",,,,,,,,,,
land,217,675147,0.0-62.0-2.0,"""event"",""trial"",""time""
""fullscreenenter"",""1"",""1711""
","
","
","""event"",""trial"",""time""
""fullscreenenter"",""1"",""1711""
","
",,null,run_exp/static/images/task_images/land.jpg,null,,,,,,,93,,,15,,,,,,,,,,,,,,
dig,218,677167,0.0-62.0-3.0,"""event"",""trial"",""time""
""fullscreenenter"",""1"",""1711""
","
","
","""event"",""trial"",""time""
""fullscreenenter"",""1"",""1711""
","
",,,,,,,,,,,,"[{""stimulus"":""run_exp/static/images/task_images/dig.jpg"",""time"":0.40000009536743164},{""stimulus"":""run_exp/static/images/task_images/land.jpg"",""time"":687.5999999046326},{""stimulus"":""run_exp/static/images/task_images/dig.jpg"",""time"":1336}]",[],15,,,,,,,,,,,,,,
harvest,219,678181,0.0-62.0-4.0,"""event"",""trial"",""time""
""fullscreenenter"",""1"",""1711""
","
","
","""event"",""trial"",""time""
""fullscreenenter"",""1"",""1711""
","
",,null,run_exp/static/images/task_images/gems/93.jpg,null,,,,,,,26,,,15,,,,,93,0.284336563,0.279569892,,,,,,,
decision,220,678428,0.0-62.0-5.0,"""event"",""trial"",""time""
""fullscreenenter"",""1"",""1711""
","
","
","""event"",""trial"",""time""
""fullscreenenter"",""1"",""1711""
","
",,244.2,run_exp/static/images/task_images/land.jpg,76,,,,,,,26,,,15,,,,,,,,54051,2,0,TRUE,,,
travel,221,688187,0.0-63.0-0.0,"""event"",""trial"",""time""
""fullscreenenter"",""1"",""1711""
","
","
","""event"",""trial"",""time""
""fullscreenenter"",""1"",""1711""
","
",,,,,,,,,,,,"[{""stimulus"":""run_exp/static/images/task_images/rocket-01.jpg"",""time"":0.39999985694885254},{""stimulus"":""run_exp/static/images/task_images/rocket-02.jpg"",""time"":1092.5999999046326},{""stimulus"":""run_exp/static/images/task_images/rocket-03.jpg"",""time"":2182.2999999523163},{""stimulus"":""run_exp/static/images/task_images/rocket-04.jpg"",""time"":3254.2999999523163},{""stimulus"":""run_exp/static/images/task_images/rocket-05.jpg"",""time"":4352.899999856949},{""stimulus"":""run_exp/static/images/task_images/rocket-06.jpg"",""time"":5422.399999856949},{""stimulus"":""run_exp/static/images/task_images/rocket-07.jpg"",""time"":6502.599999904633},{""stimulus"":""run_exp/static/images/task_images/rocket-08.jpg"",""time"":7602.799999952316},{""stimulus"":""run_exp/static/images/task_images/rocket-09.jpg"",""time"":8682.299999952316}]",[],15,,,,,,,,,,,,,,
alien_welcome,222,693207,0.0-63.0-1.0,"""event"",""trial"",""time""
""fullscreenenter"",""1"",""1711""
","
","
","""event"",""trial"",""time""
""fullscreenenter"",""1"",""1711""
","
",,null,run_exp/static/images/task_images/aliens/old_aliens/planet/alien_planet-63.jpg,null,,,,,,,,,,,,,63,"71,11,68,48,28,12,5,26,14,72,42,6,56,8,52,63,34,49,79,80,27,23,29,67,47,10,58,37,35,60,70,50,30,77,31,64,57,25,45,32,74,4,24,2,73,1,13,76,21,38,41,22,33,59,36,20",,,,,,,,,,
land,223,693717,0.0-63.0-2.0,"""event"",""trial"",""time""
""fullscreenenter"",""1"",""1711""
","
","
","""event"",""trial"",""time""
""fullscreenenter"",""1"",""1711""
","
",,null,run_exp/static/images/task_images/land.jpg,null,,,,,,,97,,,16,,,,,,,,,,,,,,
dig,224,695737,0.0-63.0-3.0,"""event"",""trial"",""time""
""fullscreenenter"",""1"",""1711""
","
","
","""event"",""trial"",""time""
""fullscreenenter"",""1"",""1711""
","
",,,,,,,,,,,,"[{""stimulus"":""run_exp/static/images/task_images/dig.jpg"",""time"":0.5},{""stimulus"":""run_exp/static/images/task_images/land.jpg"",""time"":687.7999999523163},{""stimulus"":""run_exp/static/images/task_images/dig.jpg"",""time"":1348.4000000953674}]",[],16,,,,,,,,,,,,,,
harvest,225,696757,0.0-63.0-4.0,"""event"",""trial"",""time""
""fullscreenenter"",""1"",""1711""
","
","
","""event"",""trial"",""time""
""fullscreenenter"",""1"",""1711""
","
",,null,run_exp/static/images/task_images/gems/97.jpg,null,,,,,,,79,,,16,,,,,97,0.81460921,0.81443299,,,,,,,
decision,226,696943,0.0-63.0-5.0,"""event"",""trial"",""time""
""fullscreenenter"",""1"",""1711""
","
","
","""event"",""trial"",""time""
""fullscreenenter"",""1"",""1711""
","
",,183.8999999,run_exp/static/images/task_images/land.jpg,65,,,,,,,79,,,16,,,,,,,,72566,2,0,FALSE,,,
dig,227,699776,0.0-64.0-0.0,"""event"",""trial"",""time""
""fullscreenenter"",""1"",""1711""
","
","
","""event"",""trial"",""time""
""fullscreenenter"",""1"",""1711""
","
",,,,,,,,,,,,"[{""stimulus"":""run_exp/static/images/task_images/dig.jpg"",""time"":0.09999990463256836},{""stimulus"":""run_exp/static/images/task_images/land.jpg"",""time"":948.5},{""stimulus"":""run_exp/static/images/task_images/dig.jpg"",""time"":1888.2000000476837}]",[],16,,,,,,,,,,,,,,
harvest,228,700795,0.0-64.0-1.0,"""event"",""trial"",""time""
""fullscreenenter"",""1"",""1711""
","
","
","""event"",""trial"",""time""
""fullscreenenter"",""1"",""1711""
","
",,null,run_exp/static/images/task_images/gems/79.jpg,null,,,,,,,60,,,16,,,,,79,0.754906036,0.759493671,,,,,,,
decision,229,701206,0.0-64.0-2.0,"""event"",""trial"",""time""
""fullscreenenter"",""1"",""1711""
","
","
","""event"",""trial"",""time""
""fullscreenenter"",""1"",""1711""
","
",,409.3,run_exp/static/images/task_images/land.jpg,65,,,,,,,60,,,16,,,,,,,,76829,2,1,FALSE,,,
dig,230,703807,0.0-65.0-0.0,"""event"",""trial"",""time""
""fullscreenenter"",""1"",""1711""
","
","
","""event"",""trial"",""time""
""fullscreenenter"",""1"",""1711""
","
",,,,,,,,,,,,"[{""stimulus"":""run_exp/static/images/task_images/dig.jpg"",""time"":0.20000004768371582},{""stimulus"":""run_exp/static/images/task_images/land.jpg"",""time"":877.6000001430511},{""stimulus"":""run_exp/static/images/task_images/dig.jpg"",""time"":1747.6000001430511}]",[],16,,,,,,,,,,,,,,
harvest,231,704824,0.0-65.0-1.0,"""event"",""trial"",""time""
""fullscreenenter"",""1"",""1711""
","
","
","""event"",""trial"",""time""
""fullscreenenter"",""1"",""1711""
","
",,null,run_exp/static/images/task_images/gems/60.jpg,null,,,,,,,45,,,16,,,,,60,0.743686016,0.75,,,,,,,
decision,232,705221,0.0-65.0-2.0,"""event"",""trial"",""time""
""fullscreenenter"",""1"",""1711""
","
","
","""event"",""trial"",""time""
""fullscreenenter"",""1"",""1711""
","
",,395.2,run_exp/static/images/task_images/land.jpg,65,,,,,,,45,,,16,,,,,,,,80845,2,2,FALSE,,,
dig,233,707837,0.0-66.0-0.0,"""event"",""trial"",""time""
""fullscreenenter"",""1"",""1711""
","
","
","""event"",""trial"",""time""
""fullscreenenter"",""1"",""1711""
","
",,,,,,,,,,,,"[{""stimulus"":""run_exp/static/images/task_images/dig.jpg"",""time"":0.39999985694885254},{""stimulus"":""run_exp/static/images/task_images/land.jpg"",""time"":887.7999999523163},{""stimulus"":""run_exp/static/images/task_images/dig.jpg"",""time"":1748.5999999046326}]",[],16,,,,,,,,,,,,,,
harvest,234,708854,0.0-66.0-1.0,"""event"",""trial"",""time""
""fullscreenenter"",""1"",""1711""
","
","
","""event"",""trial"",""time""
""fullscreenenter"",""1"",""1711""
","
",,null,run_exp/static/images/task_images/gems/45.jpg,null,,,,,,,37,,,16,,,,,45,0.831309435,0.822222222,,,,,,,
decision,235,709310,0.0-66.0-2.0,"""event"",""trial"",""time""
""fullscreenenter"",""1"",""1711""
","
","
","""event"",""trial"",""time""
""fullscreenenter"",""1"",""1711""
","
",,454.8999999,run_exp/static/images/task_images/land.jpg,76,,,,,,,37,,,16,,,,,,,,84933,2,3,TRUE,,,
travel,236,718857,0.0-67.0-0.0,"""event"",""trial"",""time""
""fullscreenenter"",""1"",""1711""
","
","
","""event"",""trial"",""time""
""fullscreenenter"",""1"",""1711""
","
