"trial_type","trial_index","time_elapsed","internal_node_id","interactions","blur_events","focus_events","fullscreenenter_events","fullscreenexit_events","success"
"pavlovia","0","1","0.0-0.0","""event"",""trial"",""time""
""focus"",""1"",""596""
""fullscreenenter"",""1"",""713""
","
","""event"",""trial"",""time""
""focus"",""1"",""596""
","""event"",""trial"",""time""
""fullscreenenter"",""1"",""713""
","
",""
"fullscreen","1","1671","0.0-1.0","""event"",""trial"",""time""
""focus"",""1"",""596""
""fullscreenenter"",""1"",""713""
""blur"",""2"",""59181""
""focus"",""2"",""60900""
""blur"",""2"",""69656""
""fullscreenexit"",""2"",""70114""
""focus"",""2"",""70120""
""blur"",""2"",""117251""
""focus"",""2"",""117277""
""blur"",""2"",""165349""
","""event"",""trial"",""time""
""blur"",""2"",""59181""
""blur"",""2"",""69656""
""blur"",""2"",""117251""
""blur"",""2"",""165349""
","""event"",""trial"",""time""
""focus"",""1"",""596""
""focus"",""2"",""60900""
""focus"",""2"",""70120""
""focus"",""2"",""117277""
","""event"",""trial"",""time""
""fullscreenenter"",""1"",""713""
","""event"",""trial"",""time""
""fullscreenexit"",""2"",""70114""
","true"
