trial_type,trial_index,time_elapsed,internal_node_id,interactions,blur_events,focus_events,fullscreenenter_events,fullscreenexit_events,success,rt,stimulus,key_press,prompt,subject_id,participant_id,age,gender,button_pressed,next_reward,animation_sequence,responses,planet,curr_prac_trial,n_prac_rounds,alien,aliens,reward_received,decay_rate_actual,decay_rate_exp,time_in_block,block_num,prt,last_trial_on_planet,button_html,bonus,num_failures
pavlovia,0,5,0.0-0.0,"""event"",""trial"",""time""
""fullscreenenter"",""1"",""1461""
","
","
","""event"",""trial"",""time""
""fullscreenenter"",""1"",""1461""
","
",,,,,,,,,,,,,,,,,,,,,,,,,,,,
fullscreen,1,2396,0.0-1.0,"""event"",""trial"",""time""
""fullscreenenter"",""1"",""1461""
","
","
","""event"",""trial"",""time""
""fullscreenenter"",""1"",""1461""
","
",TRUE,,,,,,,,,,,,,,,,,,,,,,,,,,,
instruc_welcome,2,12154,0.0-2.0,"""event"",""trial"",""time""
""fullscreenenter"",""1"",""1461""
","
","
","""event"",""trial"",""time""
""fullscreenenter"",""1"",""1461""
","
",,null,run_exp/static/audio/clip_1_welcome.m4a,null,"<p>Howdy! In this experiment, you’ll be an explorer traveling through space to collect space treasure.</p><p>Your mission is to collect as much treasure as possible.</p><br><br><p><img src='run_exp/static/images/task_images/opening_img-01.jpg' height='300' width='auto'></p>",9307,74,15.77,Female,,,,,,,,,,,,,,,,,,,
audio-keyboard-response,3,28794,0.0-3.0,"""event"",""trial"",""time""
""fullscreenenter"",""1"",""1461""
","
","
","""event"",""trial"",""time""
""fullscreenenter"",""1"",""1461""
","
",,null,run_exp/static/audio/clip_2_move.m4a,null,,,,,,,,,,,,,,,,,,,,,,,,
welcome_dec,4,29369,0.0-4.0,"""event"",""trial"",""time""
""fullscreenenter"",""1"",""1461""
","
","
","""event"",""trial"",""time""
""fullscreenenter"",""1"",""1461""
","
",,571.4,"<p>Howdy! In this experiment, you’ll be an explorer traveling through space to collect space treasure.</p><p>Your mission is to collect as much treasure as possible.</p><br><br><p><img src='run_exp/static/images/task_images/opening_img-01.jpg' height='300' width='auto'></p>",,,,,,,1,,,,,,,,,,,,,,,,,,
html-keyboard-response,5,30476,0.0-5.0,"""event"",""trial"",""time""
""fullscreenenter"",""1"",""1461""
","
","
","""event"",""trial"",""time""
""fullscreenenter"",""1"",""1461""
","
",,1104.7,"<p>Howdy! In this experiment, you’ll be an explorer traveling through space to collect space treasure.</p><p>Your mission is to collect as much treasure as possible.</p><br><br><p><img src='run_exp/static/images/task_images/opening_img-01.jpg' height='300' width='auto'></p><button class=""jspsych-html-btn-unchosen""><img src=""run_exp/static/images/task_images/planet-01.jpg"" height=""50""></button><button class=""jspsych-html-btn-chosen""><img src=""run_exp/static/images/task_images/planet-02.jpg"" height=""50""></button><p><b>[press the space bar to lock in your answer]<b><br></p>",32,,,,,,,,,,,,,,,,,,,,,,,,
instruc_goal,6,40574,0.0-6.0-0.0,"""event"",""trial"",""time""
""fullscreenenter"",""1"",""1461""
","
","
","""event"",""trial"",""time""
""fullscreenenter"",""1"",""1461""
","
",,null,run_exp/static/audio/clip_3_goal.m4a,null,"<p> As a space explorer, you’ll visit different planets to dig for space treasure, these pink gems.</p> <p> The more treasure you dig up, the more bonus money you’ll win! </p><br><br><p><img src='run_exp/static/images/task_images/pink_gem.jpg' height='300' width='auto'></p>",,,,,,,,,,,,,,,,,,,,,,,
instruc_goal,7,41991,0.0-6.0-1.0,"""event"",""trial"",""time""
""fullscreenenter"",""1"",""1461""
","
","
","""event"",""trial"",""time""
""fullscreenenter"",""1"",""1461""
","
",,1415.2,"<p> As a space explorer, you’ll visit different planets to dig for space treasure, these pink gems.</p> <p> The more treasure you dig up, the more bonus money you’ll win! </p><br><br><p><img src='run_exp/static/images/task_images/pink_gem.jpg' height='300' width='auto'></p>",,,,,,,1,,,,,,,,,,,,,,,,,,
html-keyboard-response,8,42506,0.0-6.0-2.0,"""event"",""trial"",""time""
""fullscreenenter"",""1"",""1461""
","
","
","""event"",""trial"",""time""
""fullscreenenter"",""1"",""1461""
","
",,512.6,"<p> As a space explorer, you’ll visit different planets to dig for space treasure, these pink gems.</p> <p> The more treasure you dig up, the more bonus money you’ll win! </p><br><br><p><img src='run_exp/static/images/task_images/pink_gem.jpg' height='300' width='auto'></p><button class=""jspsych-html-btn-unchosen""><img src=""run_exp/static/images/task_images/planet-01.jpg"" height=""50""></button><button class=""jspsych-html-btn-chosen""><img src=""run_exp/static/images/task_images/planet-02.jpg"" height=""50""></button><p><b>[press the space bar to lock in your answer]<b><br></p>",32,,,,,,,,,,,,,,,,,,,,,,,,
instruc_dig,9,58554,0.0-7.0-0.0,"""event"",""trial"",""time""
""fullscreenenter"",""1"",""1461""
","
","
","""event"",""trial"",""time""
""fullscreenenter"",""1"",""1461""
","
",,null,run_exp/static/audio/clip_4_dig.m4a,null,,,,,,,100,,,,,,,,,,,,,,,,,
instruc_dig_try,10,58916,0.0-7.0-1.0,"""event"",""trial"",""time""
""fullscreenenter"",""1"",""1461""
","
","
","""event"",""trial"",""time""
""fullscreenenter"",""1"",""1461""
","
",,359.3,"<p> When you’ve arrived at a new planet, you will dig once. </p> <p>Then, you get to decide if you want to stay on the planet and dig again or travel to a new planet and dig there.</p> <p> To stay and dig, press the letter <strong>‘A’</strong> on your keyboard. Try pressing it now! </p><p><img src='run_exp/static/images/task_images/land.jpg'  height='700' width='auto'></p>",65,"<p> When you’ve arrived at a new planet, you will dig once. </p> <p>Then, you get to decide if you want to stay on the planet and dig again or travel to a new planet and dig there.</p> <p> To stay and dig, press the letter <strong>‘A’</strong> on your keyboard. Try pressing it now! </p><p><img src='run_exp/static/images/task_images/land.jpg'  height='700' width='auto'></p>",,,,,,100,,,,,,,,,,,,,,,,,
dig_prac,11,60940,0.0-7.0-2.0,"""event"",""trial"",""time""
""fullscreenenter"",""1"",""1461""
","
","
","""event"",""trial"",""time""
""fullscreenenter"",""1"",""1461""
","
",,,,,,,,,,,,"[{""stimulus"":""run_exp/static/images/task_images/dig.jpg"",""time"":0.4000000059604645},{""stimulus"":""run_exp/static/images/task_images/land.jpg"",""time"":678.9000000059605},{""stimulus"":""run_exp/static/images/task_images/dig.jpg"",""time"":1347.9000000059605}]",[],,,,,,,,,,,,,,,
instruc_travel,12,97214,0.0-7.0-3.0,"""event"",""trial"",""time""
""fullscreenenter"",""1"",""1461""
","
","
","""event"",""trial"",""time""
""fullscreenenter"",""1"",""1461""
","
",,null,run_exp/static/audio/clip_5_travel.m4a,null,"<p>Every time you dig up gems, there are less gems on the planet, so the more you dig on a planet the fewer gems you’ll get with each dig.</p><p>When gems are running low, you may want to travel to a new planet. </p> <p>  Planets are very far apart in this galaxy, so it will take some time to travel between them. </p> <br><p>There are lots and lots of planets for you to visit, so you won’t be able to return to any planets you’ve seen before. </p><br><p>To leave this planet and travel to a new one, press the letter <strong>‘L’</strong> on your keyboard. Try pressing it now! </p><p><img src='run_exp/static/images/task_images/rocket-01.jpg'  height='600' width='auto'></p>",,,,,,,,,,,,,,,,,,,,,,,
instruc_travel_try,13,97687,0.0-7.0-4.0,"""event"",""trial"",""time""
""fullscreenenter"",""1"",""1461""
","
","
","""event"",""trial"",""time""
""fullscreenenter"",""1"",""1461""
","
",,469.8,"<p>Every time you dig up gems, there are less gems on the planet, so the more you dig on a planet the fewer gems you’ll get with each dig.</p><p>When gems are running low, you may want to travel to a new planet. </p> <p>  Planets are very far apart in this galaxy, so it will take some time to travel between them. </p> <br><p>There are lots and lots of planets for you to visit, so you won’t be able to return to any planets you’ve seen before. </p><br><p>To leave this planet and travel to a new one, press the letter <strong>‘L’</strong> on your keyboard. Try pressing it now! </p><p><img src='run_exp/static/images/task_images/rocket-01.jpg'  height='600' width='auto'></p>",76,"<p>Every time you dig up gems, there are less gems on the planet, so the more you dig on a planet the fewer gems you’ll get with each dig.</p><p>When gems are running low, you may want to travel to a new planet. </p> <p>  Planets are very far apart in this galaxy, so it will take some time to travel between them. </p> <br><p>There are lots and lots of planets for you to visit, so you won’t be able to return to any planets you’ve seen before. </p><br><p>To leave this planet and travel to a new one, press the letter <strong>‘L’</strong> on your keyboard. Try pressing it now! </p><p><img src='run_exp/static/images/task_images/rocket-01.jpg'  height='600' width='auto'></p>",,,,,,,,,,,,,,,,,,,,,,,
travel_prac,14,107695,0.0-7.0-5.0,"""event"",""trial"",""time""
""fullscreenenter"",""1"",""1461""
","
","
","""event"",""trial"",""time""
""fullscreenenter"",""1"",""1461""
","
",,,,,,,,,,,,"[{""stimulus"":""run_exp/static/images/task_images/rocket-01.jpg"",""time"":0.29999998211860657},{""stimulus"":""run_exp/static/images/task_images/rocket-02.jpg"",""time"":1126.3999999761581},{""stimulus"":""run_exp/static/images/task_images/rocket-03.jpg"",""time"":2230.5999999940395},{""stimulus"":""run_exp/static/images/task_images/rocket-04.jpg"",""time"":3337.5},{""stimulus"":""run_exp/static/images/task_images/rocket-05.jpg"",""time"":4455.399999976158},{""stimulus"":""run_exp/static/images/task_images/rocket-06.jpg"",""time"":5561.299999982119},{""stimulus"":""run_exp/static/images/task_images/rocket-07.jpg"",""time"":6677.0999999940395},{""stimulus"":""run_exp/static/images/task_images/rocket-08.jpg"",""time"":7779.299999982119},{""stimulus"":""run_exp/static/images/task_images/rocket-09.jpg"",""time"":8900.399999976158}]",[],0,,,,,,,,,,,,,,
instruc_alien_greet,15,134885,0.0-7.0-6.0,"""event"",""trial"",""time""
""fullscreenenter"",""1"",""1461""
","
","
","""event"",""trial"",""time""
""fullscreenenter"",""1"",""1461""
","
",,null,run_exp/static/audio/clip_6_alien.m4a,null,"<p>When you arrive at a new planet, the alien who owns the treasure mine on that planet will greet you!</p><p>The better an alien takes care of their mine the easier it is to dig for gems. Some aliens take better care of their mine than others. So, you won’t get exactly the same amount of gems on each planet.</p><p>What the alien looks like does not tell you anything about how many gems there are on the planet.</p><br><p><img src=""run_exp/static/images/task_images/aliens/instructions_aliens/planet/alien_planet-1.jpg""  height=""600"" width=""auto""></p>",,,,,,,,,,,,,,,,,,,,,,,
instruc_alien_greet,16,136394,0.0-7.0-7.0,"""event"",""trial"",""time""
""fullscreenenter"",""1"",""1461""
","
","
","""event"",""trial"",""time""
""fullscreenenter"",""1"",""1461""
","
",,1506.1,"<p>When you arrive at a new planet, the alien who owns the treasure mine on that planet will greet you!</p><p>The better an alien takes care of their mine the easier it is to dig for gems. Some aliens take better care of their mine than others. So, you won’t get exactly the same amount of gems on each planet.</p><p>What the alien looks like does not tell you anything about how many gems there are on the planet.</p><br><p><img src=""run_exp/static/images/task_images/aliens/instructions_aliens/planet/alien_planet-1.jpg""  height=""600"" width=""auto""></p>",,,,,,,1,,,,,,,,,,,,,,,,,,
html-keyboard-response,17,136468,0.0-7.0-8.0,"""event"",""trial"",""time""
""fullscreenenter"",""1"",""1461""
","
","
","""event"",""trial"",""time""
""fullscreenenter"",""1"",""1461""
","
",,71.70000002,"<p>When you arrive at a new planet, the alien who owns the treasure mine on that planet will greet you!</p><p>The better an alien takes care of their mine the easier it is to dig for gems. Some aliens take better care of their mine than others. So, you won’t get exactly the same amount of gems on each planet.</p><p>What the alien looks like does not tell you anything about how many gems there are on the planet.</p><br><p><img src=""run_exp/static/images/task_images/aliens/instructions_aliens/planet/alien_planet-1.jpg""  height=""600"" width=""auto""></p><button class=""jspsych-html-btn-unchosen""><img src=""run_exp/static/images/task_images/planet-01.jpg"" height=""50""></button><button class=""jspsych-html-btn-chosen""><img src=""run_exp/static/images/task_images/planet-02.jpg"" height=""50""></button><p><b>[press the space bar to lock in your answer]<b><br></p>",32,,,,,,,,,,,,,,,,,,,,,,,,
time_out,18,147565,0.0-8.0-0.0,"""event"",""trial"",""time""
""fullscreenenter"",""1"",""1461""
","
","
","""event"",""trial"",""time""
""fullscreenenter"",""1"",""1461""
","
",,null,run_exp/static/audio/clip_7_timeout.m4a,null,"<p>If you don't make your choice fast enough, you’ll have to wait a few seconds before you can make another one.</p><p>You can’t dig for more gems or travel to new planets. You just have to sit and wait.</p><br><p><img src='run_exp/static/images/task_images/time_out.jpg'  height='600' width='auto'></p>",,,,,,,,,,,,,,,,,,,,,,,
time_out,19,149457,0.0-8.0-1.0,"""event"",""trial"",""time""
""fullscreenenter"",""1"",""1461""
","
","
","""event"",""trial"",""time""
""fullscreenenter"",""1"",""1461""
","
",,1888.6,"<p>If you don't make your choice fast enough, you’ll have to wait a few seconds before you can make another one.</p><p>You can’t dig for more gems or travel to new planets. You just have to sit and wait.</p><br><p><img src='run_exp/static/images/task_images/time_out.jpg'  height='600' width='auto'></p>",,,,,,,1,,,,,,,,,,,,,,,,,,
html-keyboard-response,20,149519,0.0-8.0-2.0,"""event"",""trial"",""time""
""fullscreenenter"",""1"",""1461""
","
","
","""event"",""trial"",""time""
""fullscreenenter"",""1"",""1461""
","
",,60.40000001,"<p>If you don't make your choice fast enough, you’ll have to wait a few seconds before you can make another one.</p><p>You can’t dig for more gems or travel to new planets. You just have to sit and wait.</p><br><p><img src='run_exp/static/images/task_images/time_out.jpg'  height='600' width='auto'></p><button class=""jspsych-html-btn-unchosen""><img src=""run_exp/static/images/task_images/planet-01.jpg"" height=""50""></button><button class=""jspsych-html-btn-chosen""><img src=""run_exp/static/images/task_images/planet-02.jpg"" height=""50""></button><p><b>[press the space bar to lock in your answer]<b><br></p>",32,,,,,,,,,,,,,,,,,,,,,,,,
instruc_break,21,165186,0.0-9.0-0.0,"""event"",""trial"",""time""
""fullscreenenter"",""1"",""1461""
","
","
","""event"",""trial"",""time""
""fullscreenenter"",""1"",""1461""
","
",,null,run_exp/static/audio/clip_8_break.m4a,null,"<p> After digging and traveling for a while, you’ll be able to take a break at home base. </p><p>The game will last 20 minutes no matter what.</p><p>You will visit home base every 5 minutes, so, you will visit home base three times during the game.</p><br><p><img src='run_exp/static/images/task_images/home_base.jpg' height='600' width='auto'></p>",,,,,,,,,,,,,,,,,,,,,,,
instruc_break,22,166412,0.0-9.0-1.0,"""event"",""trial"",""time""
""fullscreenenter"",""1"",""1461""
","
","
","""event"",""trial"",""time""
""fullscreenenter"",""1"",""1461""
","
",,1222.4,"<p> After digging and traveling for a while, you’ll be able to take a break at home base. </p><p>The game will last 20 minutes no matter what.</p><p>You will visit home base every 5 minutes, so, you will visit home base three times during the game.</p><br><p><img src='run_exp/static/images/task_images/home_base.jpg' height='600' width='auto'></p>",,,,,,,1,,,,,,,,,,,,,,,,,,
html-keyboard-response,23,166518,0.0-9.0-2.0,"""event"",""trial"",""time""
""fullscreenenter"",""1"",""1461""
","
","
","""event"",""trial"",""time""
""fullscreenenter"",""1"",""1461""
","
",,104.1,"<p> After digging and traveling for a while, you’ll be able to take a break at home base. </p><p>The game will last 20 minutes no matter what.</p><p>You will visit home base every 5 minutes, so, you will visit home base three times during the game.</p><br><p><img src='run_exp/static/images/task_images/home_base.jpg' height='600' width='auto'></p><button class=""jspsych-html-btn-unchosen""><img src=""run_exp/static/images/task_images/planet-01.jpg"" height=""50""></button><button class=""jspsych-html-btn-chosen""><img src=""run_exp/static/images/task_images/planet-02.jpg"" height=""50""></button><p><b>[press the space bar to lock in your answer]<b><br></p>",32,,,,,,,,,,,,,,,,,,,,,,,,
instruc_prac_game,24,176646,0.0-10.0-0.0,"""event"",""trial"",""time""
""fullscreenenter"",""1"",""1461""
","
","
","""event"",""trial"",""time""
""fullscreenenter"",""1"",""1461""
","
",,null,run_exp/static/audio/clip_9_practice.m4a,null,"<p> Are you ready to play a practice game? </p> <p>In this practice game, you'll be digging up barrels of gems. But, in the real game, you'll be digging up the gems themselves. </p>",,,,,,,,,,,,,,,,,,,,,,,
html-button-response,25,177671,0.0-10.0-1.0,"""event"",""trial"",""time""
""fullscreenenter"",""1"",""1461""
","
","
","""event"",""trial"",""time""
""fullscreenenter"",""1"",""1461""
","
",,1022.3,"<p> Are you ready to play a practice game? </p> <p>In this practice game, you'll be digging up barrels of gems. But, in the real game, you'll be digging up the gems themselves. </p>",,,,,,,0,,,,,,,,,,,,,,,,,,
alien_welcome_prac,26,182684,0.0-11.0-0.0,"""event"",""trial"",""time""
""fullscreenenter"",""1"",""1461""
","
","
","""event"",""trial"",""time""
""fullscreenenter"",""1"",""1461""
","
",,null,run_exp/static/images/task_images/aliens/practice_aliens/planet/alien_planet-5.jpg,null,,,,,,,,,,,,,,,,,,,,,,,,
land_prac,27,183197,0.0-11.0-1.0,"""event"",""trial"",""time""
""fullscreenenter"",""1"",""1461""
","
","
","""event"",""trial"",""time""
""fullscreenenter"",""1"",""1461""
","
",,null,run_exp/static/images/task_images/land.jpg,null,,,,,,,95,,,0,,,,,,,,,,,,,,
dig_prac,28,185216,0.0-11.0-2.0,"""event"",""trial"",""time""
""fullscreenenter"",""1"",""1461""
","
","
","""event"",""trial"",""time""
""fullscreenenter"",""1"",""1461""
","
",,,,,,,,,,,,"[{""stimulus"":""run_exp/static/images/task_images/dig.jpg"",""time"":0.4000000059604645},{""stimulus"":""run_exp/static/images/task_images/land.jpg"",""time"":679.3000000119209},{""stimulus"":""run_exp/static/images/task_images/dig.jpg"",""time"":1347.4000000059605}]",[],,,,,,,,,,,,,,,
harvest_prac,29,186229,0.0-11.0-3.0,"""event"",""trial"",""time""
""fullscreenenter"",""1"",""1461""
","
","
","""event"",""trial"",""time""
""fullscreenenter"",""1"",""1461""
","
",,null,run_exp/static/images/task_images/barrel_text.jpg,null,,,,,,,,,,,,,,,,,,,,,,,,
decision_prac,30,187468,0.0-11.0-4.0,"""event"",""trial"",""time""
""fullscreenenter"",""1"",""1461""
","
","
","""event"",""trial"",""time""
""fullscreenenter"",""1"",""1461""
","
",,1237.3,run_exp/static/images/task_images/land.jpg,65,,,,,,,,,,,1,,,,,,,,,,,,,
dig_prac,31,189489,0.0-12.0-0.0,"""event"",""trial"",""time""
""fullscreenenter"",""1"",""1461""
","
","
","""event"",""trial"",""time""
""fullscreenenter"",""1"",""1461""
","
",,,,,,,,,,,,"[{""stimulus"":""run_exp/static/images/task_images/dig.jpg"",""time"":0.29999998211860657},{""stimulus"":""run_exp/static/images/task_images/land.jpg"",""time"":672.6999999880791},{""stimulus"":""run_exp/static/images/task_images/dig.jpg"",""time"":1347}]",[],,,,,,,,,,,,,,,
harvest_prac,32,190501,0.0-12.0-1.0,"""event"",""trial"",""time""
""fullscreenenter"",""1"",""1461""
","
","
","""event"",""trial"",""time""
""fullscreenenter"",""1"",""1461""
","
",,null,run_exp/static/images/task_images/barrel_text.jpg,null,,,,,,,,,,,,,,,,,,,,,,,,
decision_prac,33,191288,0.0-12.0-2.0,"""event"",""trial"",""time""
""fullscreenenter"",""1"",""1461""
","
","
","""event"",""trial"",""time""
""fullscreenenter"",""1"",""1461""
","
",,785.5,run_exp/static/images/task_images/land.jpg,65,,,,,,,,,,,2,,,,,,,,,,,,,
dig_prac,34,193308,0.0-13.0-0.0,"""event"",""trial"",""time""
""fullscreenenter"",""1"",""1461""
","
","
","""event"",""trial"",""time""
""fullscreenenter"",""1"",""1461""
","
",,,,,,,,,,,,"[{""stimulus"":""run_exp/static/images/task_images/dig.jpg"",""time"":0.20000001788139343},{""stimulus"":""run_exp/static/images/task_images/land.jpg"",""time"":675.2000000178814},{""stimulus"":""run_exp/static/images/task_images/dig.jpg"",""time"":1349.4000000059605}]",[],,,,,,,,,,,,,,,
harvest_prac,35,194320,0.0-13.0-1.0,"""event"",""trial"",""time""
""fullscreenenter"",""1"",""1461""
","
","
","""event"",""trial"",""time""
""fullscreenenter"",""1"",""1461""
","
",,null,run_exp/static/images/task_images/barrel_text.jpg,null,,,,,,,,,,,,,,,,,,,,,,,,
decision_prac,36,195358,0.0-13.0-2.0,"""event"",""trial"",""time""
""fullscreenenter"",""1"",""1461""
","
","
","""event"",""trial"",""time""
""fullscreenenter"",""1"",""1461""
","
",,1037,run_exp/static/images/task_images/land.jpg,65,,,,,,,,,,,3,,,,,,,,,,,,,
dig_prac,37,197379,0.0-14.0-0.0,"""event"",""trial"",""time""
""fullscreenenter"",""1"",""1461""
","
","
","""event"",""trial"",""time""
""fullscreenenter"",""1"",""1461""
","
",,,,,,,,,,,,"[{""stimulus"":""run_exp/static/images/task_images/dig.jpg"",""time"":0.20000001788139343},{""stimulus"":""run_exp/static/images/task_images/land.jpg"",""time"":677.3000000119209},{""stimulus"":""run_exp/static/images/task_images/dig.jpg"",""time"":1345.4000000059605}]",[],,,,,,,,,,,,,,,
harvest_prac,38,198390,0.0-14.0-1.0,"""event"",""trial"",""time""
""fullscreenenter"",""1"",""1461""
","
","
","""event"",""trial"",""time""
""fullscreenenter"",""1"",""1461""
","
",,null,run_exp/static/images/task_images/barrel_text.jpg,null,,,,,,,,,,,,,,,,,,,,,,,,
decision_prac,39,198908,0.0-14.0-2.0,"""event"",""trial"",""time""
""fullscreenenter"",""1"",""1461""
","
","
","""event"",""trial"",""time""
""fullscreenenter"",""1"",""1461""
","
",,516.2,run_exp/static/images/task_images/land.jpg,65,,,,,,,,,,,4,,,,,,,,,,,,,
dig_prac,40,200916,0.0-15.0-0.0,"""event"",""trial"",""time""
""fullscreenenter"",""1"",""1461""
","
","
","""event"",""trial"",""time""
""fullscreenenter"",""1"",""1461""
","
",,,,,,,,,,,,"[{""stimulus"":""run_exp/static/images/task_images/dig.jpg"",""time"":0.4000000059604645},{""stimulus"":""run_exp/static/images/task_images/land.jpg"",""time"":676.0999999940395},{""stimulus"":""run_exp/static/images/task_images/dig.jpg"",""time"":1347.5}]",[],,,,,,,,,,,,,,,
harvest_prac,41,201931,0.0-15.0-1.0,"""event"",""trial"",""time""
""fullscreenenter"",""1"",""1461""
","
","
","""event"",""trial"",""time""
""fullscreenenter"",""1"",""1461""
","
",,null,run_exp/static/images/task_images/barrel_text.jpg,null,,,,,,,,,,,,,,,,,,,,,,,,
decision_prac,42,202358,0.0-15.0-2.0,"""event"",""trial"",""time""
""fullscreenenter"",""1"",""1461""
","
","
","""event"",""trial"",""time""
""fullscreenenter"",""1"",""1461""
","
",,425.7,run_exp/static/images/task_images/land.jpg,65,,,,,,,,,,,,1,,,,,,,,,,,,
quiz_instruc,43,205126,0.0-16.0-0.0,"""event"",""trial"",""time""
""fullscreenenter"",""1"",""1461""
","
","
","""event"",""trial"",""time""
""fullscreenenter"",""1"",""1461""
","
",,2763.1,run_exp/static/audio/clip_10_quiz.m4a,,,,,,,0,,,,,,,,,,,,,,,,,,
instruc_repeat,44,247886,0.0-16.0-1.0,"""event"",""trial"",""time""
""fullscreenenter"",""1"",""1461""
","
","
","""event"",""trial"",""time""
""fullscreenenter"",""1"",""1461""
","
",,null,"<p> Are you ready to play a practice game? </p> <p>In this practice game, you'll be digging up barrels of gems. But, in the real game, you'll be digging up the gems themselves. </p>",null,"<p>In this game, your goal is to collect as many gems as you can. That’s how you will win bonus money. </p> <p>The entire game will last 20 minutes no matter how many gems you collect or how many planets you visit. </p><p>To stay on a planet and dig again, press the letter A on your keyboard. To leave for a new planet, press the letter L.</p><p>The more you dig on a planet, the fewer gems you’ll get with each dig which is why you might consider leaving for a new planet. </p><p>When you arrive at a new planet, you’ll be greeted by an alien. What the alien looks like does not tell you anything about how much treasure is on the planet. </p>",,,,,,,,,,,,,,,,,,,,,,,
instruc_repeat_continue,45,248731,0.0-16.0-2.0,"""event"",""trial"",""time""
""fullscreenenter"",""1"",""1461""
","
","
","""event"",""trial"",""time""
""fullscreenenter"",""1"",""1461""
","
",,843.4,"<p> Are you ready to play a practice game? </p> <p>In this practice game, you'll be digging up barrels of gems. But, in the real game, you'll be digging up the gems themselves. </p>",,,,,,,0,,,,,,,,,,,,,,,,,,
quiz_q_1_ask,46,251522,0.0-16.0-3.0,"""event"",""trial"",""time""
""fullscreenenter"",""1"",""1461""
","
","
","""event"",""trial"",""time""
""fullscreenenter"",""1"",""1461""
","
",,2789.3,run_exp/static/audio/clip_11_q1_ask.m4a,,,,,,,2,,,,,,,,,,,,,,,,,,
quiz_q_1_fb_correct,47,255386,0.0-17.0-0.0,"""event"",""trial"",""time""
""fullscreenenter"",""1"",""1461""
","
","
","""event"",""trial"",""time""
""fullscreenenter"",""1"",""1461""
","
",,null,run_exp/static/audio/clip_12_q1_correct.m4a,null,<p>That’s correct. You win extra money by collecting more gems.</p>,,,,,,,,,,,,,,,,,,,,,,,
quiz_q_2_ask,48,256799,0.0-17.0-1.0,"""event"",""trial"",""time""
""fullscreenenter"",""1"",""1461""
","
","
","""event"",""trial"",""time""
""fullscreenenter"",""1"",""1461""
","
",,1410.1,run_exp/static/audio/clip_14_q2_ask.m4a,,,,,,,1,,,,,,,,,,,,,,,,,,
quiz_q_2_fb_correct,49,260806,0.0-18.0-0.0,"""event"",""trial"",""time""
""fullscreenenter"",""1"",""1461""
","
","
","""event"",""trial"",""time""
""fullscreenenter"",""1"",""1461""
","
",,null,run_exp/static/audio/clip_15_q2_correct.m4a,null,<p>That’s correct. The experiment is 20 minutes no matter what.</p>,,,,,,,,,,,,,,,,,,,,,,,
quiz_q_3_ask,50,262266,0.0-18.0-1.0,"""event"",""trial"",""time""
""fullscreenenter"",""1"",""1461""
","
","
","""event"",""trial"",""time""
""fullscreenenter"",""1"",""1461""
","
",,1457.2,run_exp/static/audio/clip_17_q3_ask.m4a,,,,,,,1,,,,,,,,,,,,,,,,,,
quiz_q_3_fb_correct,51,266266,0.0-19.0-0.0,"""event"",""trial"",""time""
""fullscreenenter"",""1"",""1461""
","
","
","""event"",""trial"",""time""
""fullscreenenter"",""1"",""1461""
","
",,null,run_exp/static/audio/clip_18_q3_correct.m4a,null,<p> That’s correct. You press the letter L to travel to a new planet.</p>,,,,,,,,,,,,,,,,,,,,,,,
quiz_q_4_ask,52,268031,0.0-19.0-1.0,"""event"",""trial"",""time""
""fullscreenenter"",""1"",""1461""
","
","
","""event"",""trial"",""time""
""fullscreenenter"",""1"",""1461""
","
",,1763.2,run_exp/static/audio/clip_20_q4_ask.m4a,,,,,,,1,,,,,,,,,,,,,,,,,,
quiz_q_4_fb_incorrect,53,273845,0.0-20.0-0.0,"""event"",""trial"",""time""
""fullscreenenter"",""1"",""1461""
","
","
","""event"",""trial"",""time""
""fullscreenenter"",""1"",""1461""
","
",,null,run_exp/static/audio/clip_22_q4_incorrect.m4a,null,<p>That’s incorrect.  The more you dig on a planet the fewer gems you’ll get with each dig.</p>,,,,,,,,,,,,,,,,,,,,,,,
quiz_q_5_ask,54,275865,0.0-20.0-1.0,"""event"",""trial"",""time""
""fullscreenenter"",""1"",""1461""
","
","
","""event"",""trial"",""time""
""fullscreenenter"",""1"",""1461""
","
",,2017.1,run_exp/static/audio/clip_23_q5_ask.m4a,,,,,,,1,,,,,,,,,,,,,,,,,,
quiz_q_5_fb_correct,55,280886,0.0-21.0-0.0,"""event"",""trial"",""time""
""fullscreenenter"",""1"",""1461""
","
","
","""event"",""trial"",""time""
""fullscreenenter"",""1"",""1461""
","
",,null,run_exp/static/audio/clip_24_q5_correct.m4a,null,<p> That’s correct. The alien tells you nothing about how much treasure is on the planet.</p>,,,,,,,,,,,,,,,,,,,,,,,
quiz_incorrect,56,286446,0.0-22.0-0.0,"""event"",""trial"",""time""
""fullscreenenter"",""1"",""1461""
","
","
","""event"",""trial"",""time""
""fullscreenenter"",""1"",""1461""
","
",,null,run_exp/static/audio/clip_27_incorrect_quiz.m4a,null,,,,,,,,,,,,,,,,,,,,,,,,
quiz_incorrect_continue,57,287369,0.0-22.0-1.0,"""event"",""trial"",""time""
""fullscreenenter"",""1"",""1461""
","
","
","""event"",""trial"",""time""
""fullscreenenter"",""1"",""1461""
","
",,920.8,"<p>Oops, you missed some questions.</p><p>Now that you’ve heard the correct answers. Try the quiz again!</p>",,,,,,,0,,,,,,,,,,,,,,,,,,
quiz_q_1_ask,58,289008,0.0-22.0-2.0,"""event"",""trial"",""time""
""fullscreenenter"",""1"",""1461""
","
","
","""event"",""trial"",""time""
""fullscreenenter"",""1"",""1461""
","
",,1637.6,run_exp/static/audio/clip_11_q1_ask.m4a,,,,,,,2,,,,,,,,,,,,,,,,,,
quiz_q_1_fb_correct,59,292866,0.0-23.0-0.0,"""event"",""trial"",""time""
""fullscreenenter"",""1"",""1461""
","
","
","""event"",""trial"",""time""
""fullscreenenter"",""1"",""1461""
","
",,null,run_exp/static/audio/clip_12_q1_correct.m4a,null,<p>That’s correct. You win extra money by collecting more gems.</p>,,,,,,,,,,,,,,,,,,,,,,,
quiz_q_2_ask,60,293916,0.0-23.0-1.0,"""event"",""trial"",""time""
""fullscreenenter"",""1"",""1461""
","
","
","""event"",""trial"",""time""
""fullscreenenter"",""1"",""1461""
","
",,1048.1,run_exp/static/audio/clip_14_q2_ask.m4a,,,,,,,1,,,,,,,,,,,,,,,,,,
quiz_q_2_fb_correct,61,297926,0.0-24.0-0.0,"""event"",""trial"",""time""
""fullscreenenter"",""1"",""1461""
","
","
","""event"",""trial"",""time""
""fullscreenenter"",""1"",""1461""
","
",,null,run_exp/static/audio/clip_15_q2_correct.m4a,null,<p>That’s correct. The experiment is 20 minutes no matter what.</p>,,,,,,,,,,,,,,,,,,,,,,,
quiz_q_3_ask,62,298998,0.0-24.0-1.0,"""event"",""trial"",""time""
""fullscreenenter"",""1"",""1461""
","
","
","""event"",""trial"",""time""
""fullscreenenter"",""1"",""1461""
","
",,1069.5,run_exp/static/audio/clip_17_q3_ask.m4a,,,,,,,1,,,,,,,,,,,,,,,,,,
quiz_q_3_fb_correct,63,302986,0.0-25.0-0.0,"""event"",""trial"",""time""
""fullscreenenter"",""1"",""1461""
","
","
","""event"",""trial"",""time""
""fullscreenenter"",""1"",""1461""
","
",,null,run_exp/static/audio/clip_18_q3_correct.m4a,null,<p> That’s correct. You press the letter L to travel to a new planet.</p>,,,,,,,,,,,,,,,,,,,,,,,
quiz_q_4_ask,64,304245,0.0-25.0-1.0,"""event"",""trial"",""time""
""fullscreenenter"",""1"",""1461""
","
","
","""event"",""trial"",""time""
""fullscreenenter"",""1"",""1461""
","
",,1257.3,run_exp/static/audio/clip_20_q4_ask.m4a,,,,,,,0,,,,,,,,,,,,,,,,,,
quiz_q_4_fb_correct,65,309566,0.0-26.0-0.0,"""event"",""trial"",""time""
""fullscreenenter"",""1"",""1461""
","
","
","""event"",""trial"",""time""
""fullscreenenter"",""1"",""1461""
","
",,null,run_exp/static/audio/clip_21_q4_correct.m4a,null,<p> That’s correct. The more you dig on a planet the fewer gems you’ll get with each dig. </p>,,,,,,,,,,,,,,,,,,,,,,,
quiz_q_5_ask,66,311173,0.0-26.0-1.0,"""event"",""trial"",""time""
""fullscreenenter"",""1"",""1461""
","
","
","""event"",""trial"",""time""
""fullscreenenter"",""1"",""1461""
","
",,1604.9,run_exp/static/audio/clip_23_q5_ask.m4a,,,,,,,1,,,,,,,,,,,,,,,,,,
quiz_q_5_fb_correct,67,316186,0.0-27.0-0.0,"""event"",""trial"",""time""
""fullscreenenter"",""1"",""1461""
","
","
","""event"",""trial"",""time""
""fullscreenenter"",""1"",""1461""
","
",,null,run_exp/static/audio/clip_24_q5_correct.m4a,null,<p> That’s correct. The alien tells you nothing about how much treasure is on the planet.</p>,,,,,,,,,,,,,,,,,,,,,,,
quiz_correct,68,319666,0.0-28.0-0.0,"""event"",""trial"",""time""
""fullscreenenter"",""1"",""1461""
","
","
","""event"",""trial"",""time""
""fullscreenenter"",""1"",""1461""
","
",,null,run_exp/static/audio/clip_26_correct_quiz.m4a,null,,,,,,,,,,,,,,,,,,,,,,,,
quiz_correct_continue,69,320879,0.0-28.0-1.0,"""event"",""trial"",""time""
""fullscreenenter"",""1"",""1461""
","
","
","""event"",""trial"",""time""
""fullscreenenter"",""1"",""1461""
","
",,1211.1,<p>Good job! You're now ready to move on to the real game!</p>,,,,,,,0,,,,,,,,,,,,,,,,,,
audio-keyboard-response,70,331006,0.0-28.0-2.0,"""event"",""trial"",""time""
""fullscreenenter"",""1"",""1461""
","
","
","""event"",""trial"",""time""
""fullscreenenter"",""1"",""1461""
","
",,null,run_exp/static/audio/clip_28_real_game.m4a,null,,,,,,,,,,,,,,,,,,,,,,,,
instruc_begin_exp_contine,71,331995,0.0-28.0-3.0,"""event"",""trial"",""time""
""fullscreenenter"",""1"",""1461""
","
","
","""event"",""trial"",""time""
""fullscreenenter"",""1"",""1461""
","
",,987.8,"<p>Now that you know how  to dig for space treasure and travel to new planets,you can start exploring! </p><p>Do you want to go over the instructions again or get started with the real game?</p>",,,,,,,1,,,,,,1,,,,,,,,,,,,
alien_welcome,72,337002,0.0-29.0-0.0,"""event"",""trial"",""time""
""fullscreenenter"",""1"",""1461""
","
","
","""event"",""trial"",""time""
""fullscreenenter"",""1"",""1461""
","
",,null,run_exp/static/images/task_images/aliens/old_aliens/planet/alien_planet-65.jpg,null,,,,,,,,,,,,,65,"65,25,66,13,40,34,5,71,38,67,62,48,32,52,70,17,22,77,35,80,78,19,55,15,30,23,6,41,60,63,76,53,10,46,42,31,14,61,39,73,28,58,2,9,20,8,45,50,75,16,57,1,59,74,18,27,47,44,69,56,51,79,29,43",,,,,,,,,,
land,73,337520,0.0-29.0-1.0,"""event"",""trial"",""time""
""fullscreenenter"",""1"",""1461""
","
","
","""event"",""trial"",""time""
""fullscreenenter"",""1"",""1461""
","
",,null,run_exp/static/images/task_images/land.jpg,null,,,,,,,97,,,1,,,,,,,,,,,,,,
dig,74,339530,0.0-29.0-2.0,"""event"",""trial"",""time""
""fullscreenenter"",""1"",""1461""
","
","
","""event"",""trial"",""time""
""fullscreenenter"",""1"",""1461""
","
",,,,,,,,,,,,"[{""stimulus"":""run_exp/static/images/task_images/dig.jpg"",""time"":0.30000001192092896},{""stimulus"":""run_exp/static/images/task_images/land.jpg"",""time"":680.9000000059605},{""stimulus"":""run_exp/static/images/task_images/dig.jpg"",""time"":1335.9000000059605}]",[],1,,,,,,,,,,,,,,
harvest,75,340542,0.0-29.0-3.0,"""event"",""trial"",""time""
""fullscreenenter"",""1"",""1461""
","
","
","""event"",""trial"",""time""
""fullscreenenter"",""1"",""1461""
","
",,null,run_exp/static/images/task_images/gems/97.jpg,null,,,,,,,15,,,1,,,,,97,0.156133519,0.154639175,,,,,,,
decision,76,341538,0.0-29.0-4.0,"""event"",""trial"",""time""
""fullscreenenter"",""1"",""1461""
","
","
","""event"",""trial"",""time""
""fullscreenenter"",""1"",""1461""
","
",,992.7,run_exp/static/images/task_images/land.jpg,65,,,,,,,15,,,1,,,,,,,,9540,1,0,FALSE,,,
dig,77,343564,0.0-30.0-0.0,"""event"",""trial"",""time""
""fullscreenenter"",""1"",""1461""
","
","
","""event"",""trial"",""time""
""fullscreenenter"",""1"",""1461""
","
",,,,,,,,,,,,"[{""stimulus"":""run_exp/static/images/task_images/dig.jpg"",""time"":0.30000001192092896},{""stimulus"":""run_exp/static/images/task_images/land.jpg"",""time"":671.5},{""stimulus"":""run_exp/static/images/task_images/dig.jpg"",""time"":1344.4000000059605}]",[],1,,,,,,,,,,,,,,
harvest,78,344579,0.0-30.0-1.0,"""event"",""trial"",""time""
""fullscreenenter"",""1"",""1461""
","
","
","""event"",""trial"",""time""
""fullscreenenter"",""1"",""1461""
","
",,null,run_exp/static/images/task_images/gems/15.jpg,null,,,,,,,2,,,1,,,,,15,0.16043047,0.133333333,,,,,,,
decision,79,345157,0.0-30.0-2.0,"""event"",""trial"",""time""
""fullscreenenter"",""1"",""1461""
","
","
","""event"",""trial"",""time""
""fullscreenenter"",""1"",""1461""
","
",,576.4,run_exp/static/images/task_images/land.jpg,65,,,,,,,2,,,1,,,,,,,,13159,1,1,FALSE,,,
dig,80,347586,0.0-31.0-0.0,"""event"",""trial"",""time""
""fullscreenenter"",""1"",""1461""
","
","
","""event"",""trial"",""time""
""fullscreenenter"",""1"",""1461""
","
",,,,,,,,,,,,"[{""stimulus"":""run_exp/static/images/task_images/dig.jpg"",""time"":0.20000001788139343},{""stimulus"":""run_exp/static/images/task_images/land.jpg"",""time"":822.7000000178814},{""stimulus"":""run_exp/static/images/task_images/dig.jpg"",""time"":1630.5}]",[],1,,,,,,,,,,,,,,
harvest,81,348599,0.0-31.0-1.0,"""event"",""trial"",""time""
""fullscreenenter"",""1"",""1461""
","
","
","""event"",""trial"",""time""
""fullscreenenter"",""1"",""1461""
","
",,null,run_exp/static/images/task_images/gems/2.jpg,null,,,,,,,0,,,1,,,,,2,0.23388697,0,,,,,,,
decision,82,349188,0.0-31.0-2.0,"""event"",""trial"",""time""
""fullscreenenter"",""1"",""1461""
","
","
","""event"",""trial"",""time""
""fullscreenenter"",""1"",""1461""
","
",,586.9,run_exp/static/images/task_images/land.jpg,76,,,,,,,0,,,1,,,,,,,,17190,1,2,TRUE,,,
travel,83,358609,0.0-32.0-0.0,"""event"",""trial"",""time""
""fullscreenenter"",""1"",""1461""
","
","
","""event"",""trial"",""time""
""fullscreenenter"",""1"",""1461""
","
",,,,,,,,,,,,"[{""stimulus"":""run_exp/static/images/task_images/rocket-01.jpg"",""time"":0.20000001788139343},{""stimulus"":""run_exp/static/images/task_images/rocket-02.jpg"",""time"":1047.9000000059605},{""stimulus"":""run_exp/static/images/task_images/rocket-03.jpg"",""time"":2091.5},{""stimulus"":""run_exp/static/images/task_images/rocket-04.jpg"",""time"":3151.800000011921},{""stimulus"":""run_exp/static/images/task_images/rocket-05.jpg"",""time"":4195},{""stimulus"":""run_exp/static/images/task_images/rocket-06.jpg"",""time"":5239.5},{""stimulus"":""run_exp/static/images/task_images/rocket-07.jpg"",""time"":6271.4000000059605},{""stimulus"":""run_exp/static/images/task_images/rocket-08.jpg"",""time"":7327.100000023842},{""stimulus"":""run_exp/static/images/task_images/rocket-09.jpg"",""time"":8374}]",[],1,,,,,,,,,,,,,,
alien_welcome,84,363616,0.0-32.0-1.0,"""event"",""trial"",""time""
""fullscreenenter"",""1"",""1461""
","
","
","""event"",""trial"",""time""
""fullscreenenter"",""1"",""1461""
","
",,null,run_exp/static/images/task_images/aliens/old_aliens/planet/alien_planet-25.jpg,null,,,,,,,,,,,,,25,"65,25,66,13,40,34,5,71,38,67,62,48,32,52,70,17,22,77,35,80,78,19,55,15,30,23,6,41,60,63,76,53,10,46,42,31,14,61,39,73,28,58,2,9,20,8,45,50,75,16,57,1,59,74,18,27,47,44,69,56,51,79,29,43",,,,,,,,,,
land,85,364119,0.0-32.0-2.0,"""event"",""trial"",""time""
""fullscreenenter"",""1"",""1461""
","
","
","""event"",""trial"",""time""
""fullscreenenter"",""1"",""1461""
","
",,null,run_exp/static/images/task_images/land.jpg,null,,,,,,,101,,,2,,,,,,,,,,,,,,
dig,86,366125,0.0-32.0-3.0,"""event"",""trial"",""time""
""fullscreenenter"",""1"",""1461""
","
","
","""event"",""trial"",""time""
""fullscreenenter"",""1"",""1461""
","
",,,,,,,,,,,,"[{""stimulus"":""run_exp/static/images/task_images/dig.jpg"",""time"":0.30000001192092896},{""stimulus"":""run_exp/static/images/task_images/land.jpg"",""time"":678.5999999940395},{""stimulus"":""run_exp/static/images/task_images/dig.jpg"",""time"":1336}]",[],2,,,,,,,,,,,,,,
harvest,87,367140,0.0-32.0-4.0,"""event"",""trial"",""time""
""fullscreenenter"",""1"",""1461""
","
","
","""event"",""trial"",""time""
""fullscreenenter"",""1"",""1461""
","
",,null,run_exp/static/images/task_images/gems/101.jpg,null,,,,,,,19,,,2,,,,,101,0.188343364,0.188118812,,,,,,,
decision,88,367598,0.0-32.0-5.0,"""event"",""trial"",""time""
""fullscreenenter"",""1"",""1461""
","
","
","""event"",""trial"",""time""
""fullscreenenter"",""1"",""1461""
","
",,456.7,run_exp/static/images/task_images/land.jpg,65,,,,,,,19,,,2,,,,,,,,35601,1,0,FALSE,,,
dig,89,370155,0.0-33.0-0.0,"""event"",""trial"",""time""
""fullscreenenter"",""1"",""1461""
","
","
","""event"",""trial"",""time""
""fullscreenenter"",""1"",""1461""
","
",,,,,,,,,,,,"[{""stimulus"":""run_exp/static/images/task_images/dig.jpg"",""time"":0.4000000059604645},{""stimulus"":""run_exp/static/images/task_images/land.jpg"",""time"":863.9000000059605},{""stimulus"":""run_exp/static/images/task_images/dig.jpg"",""time"":1708.9000000059605}]",[],2,,,,,,,,,,,,,,
harvest,90,371166,0.0-33.0-1.0,"""event"",""trial"",""time""
""fullscreenenter"",""1"",""1461""
","
","
","""event"",""trial"",""time""
""fullscreenenter"",""1"",""1461""
","
",,null,run_exp/static/images/task_images/gems/19.jpg,null,,,,,,,4,,,2,,,,,19,0.224476233,0.210526316,,,,,,,
decision,91,371469,0.0-33.0-2.0,"""event"",""trial"",""time""
""fullscreenenter"",""1"",""1461""
","
","
","""event"",""trial"",""time""
""fullscreenenter"",""1"",""1461""
","
",,301.1,run_exp/static/images/task_images/land.jpg,65,,,,,,,4,,,2,,,,,,,,39471,1,1,FALSE,,,
dig,92,374175,0.0-34.0-0.0,"""event"",""trial"",""time""
""fullscreenenter"",""1"",""1461""
","
","
","""event"",""trial"",""time""
""fullscreenenter"",""1"",""1461""
","
",,,,,,,,,,,,"[{""stimulus"":""run_exp/static/images/task_images/dig.jpg"",""time"":0.30000001192092896},{""stimulus"":""run_exp/static/images/task_images/land.jpg"",""time"":906.5999999940395},{""stimulus"":""run_exp/static/images/task_images/dig.jpg"",""time"":1811.699999988079}]",[],2,,,,,,,,,,,,,,
harvest,93,375192,0.0-34.0-1.0,"""event"",""trial"",""time""
""fullscreenenter"",""1"",""1461""
","
","
","""event"",""trial"",""time""
""fullscreenenter"",""1"",""1461""
","
",,null,run_exp/static/images/task_images/gems/4.jpg,null,,,,,,,1,,,2,,,,,4,0.214396053,0.25,,,,,,,
decision,94,375779,0.0-34.0-2.0,"""event"",""trial"",""time""
""fullscreenenter"",""1"",""1461""
","
","
","""event"",""trial"",""time""
""fullscreenenter"",""1"",""1461""
","
",,584.6,run_exp/static/images/task_images/land.jpg,65,,,,,,,1,,,2,,,,,,,,43781,1,2,FALSE,,,
dig,95,378211,0.0-35.0-0.0,"""event"",""trial"",""time""
""fullscreenenter"",""1"",""1461""
","
","
","""event"",""trial"",""time""
""fullscreenenter"",""1"",""1461""
","
",,,,,,,,,,,,"[{""stimulus"":""run_exp/static/images/task_images/dig.jpg"",""time"":0.3999999761581421},{""stimulus"":""run_exp/static/images/task_images/land.jpg"",""time"":821.0999999940395},{""stimulus"":""run_exp/static/images/task_images/dig.jpg"",""time"":1618.3999999761581}]",[],2,,,,,,,,,,,,,,
harvest,96,379226,0.0-35.0-1.0,"""event"",""trial"",""time""
""fullscreenenter"",""1"",""1461""
","
","
","""event"",""trial"",""time""
""fullscreenenter"",""1"",""1461""
","
",,null,run_exp/static/images/task_images/gems/1.jpg,null,,,,,,,0,,,2,,,,,1,0.151702657,0,,,,,,,
decision,97,379478,0.0-35.0-2.0,"""event"",""trial"",""time""
""fullscreenenter"",""1"",""1461""
","
","
","""event"",""trial"",""time""
""fullscreenenter"",""1"",""1461""
","
",,250.7,run_exp/static/images/task_images/land.jpg,76,,,,,,,0,,,2,,,,,,,,47481,1,3,TRUE,,,
travel,98,389232,0.0-36.0-0.0,"""event"",""trial"",""time""
""fullscreenenter"",""1"",""1461""
","
","
","""event"",""trial"",""time""
""fullscreenenter"",""1"",""1461""
","
",,,,,,,,,,,,"[{""stimulus"":""run_exp/static/images/task_images/rocket-01.jpg"",""time"":0.20000001788139343},{""stimulus"":""run_exp/static/images/task_images/rocket-02.jpg"",""time"":1085.800000011921},{""stimulus"":""run_exp/static/images/task_images/rocket-03.jpg"",""time"":2181.800000011921},{""stimulus"":""run_exp/static/images/task_images/rocket-04.jpg"",""time"":3259.300000011921},{""stimulus"":""run_exp/static/images/task_images/rocket-05.jpg"",""time"":4340.300000011921},{""stimulus"":""run_exp/static/images/task_images/rocket-06.jpg"",""time"":5428.300000011921},{""stimulus"":""run_exp/static/images/task_images/rocket-07.jpg"",""time"":6507.700000017881},{""stimulus"":""run_exp/static/images/task_images/rocket-08.jpg"",""time"":7583.5999999940395},{""stimulus"":""run_exp/static/images/task_images/rocket-09.jpg"",""time"":8672.700000017881}]",[],2,,,,,,,,,,,,,,
alien_welcome,99,394235,0.0-36.0-1.0,"""event"",""trial"",""time""
""fullscreenenter"",""1"",""1461""
","
","
","""event"",""trial"",""time""
""fullscreenenter"",""1"",""1461""
","
",,null,run_exp/static/images/task_images/aliens/old_aliens/planet/alien_planet-66.jpg,null,,,,,,,,,,,,,66,"65,25,66,13,40,34,5,71,38,67,62,48,32,52,70,17,22,77,35,80,78,19,55,15,30,23,6,41,60,63,76,53,10,46,42,31,14,61,39,73,28,58,2,9,20,8,45,50,75,16,57,1,59,74,18,27,47,44,69,56,51,79,29,43",,,,,,,,,,
land,100,394749,0.0-36.0-2.0,"""event"",""trial"",""time""
""fullscreenenter"",""1"",""1461""
","
","
","""event"",""trial"",""time""
""fullscreenenter"",""1"",""1461""
","
",,null,run_exp/static/images/task_images/land.jpg,null,,,,,,,97,,,3,,,,,,,,,,,,,,
dig,101,396760,0.0-36.0-3.0,"""event"",""trial"",""time""
""fullscreenenter"",""1"",""1461""
","
","
","""event"",""trial"",""time""
""fullscreenenter"",""1"",""1461""
","
",,,,,,,,,,,,"[{""stimulus"":""run_exp/static/images/task_images/dig.jpg"",""time"":0.4000000059604645},{""stimulus"":""run_exp/static/images/task_images/land.jpg"",""time"":683.6000000238419},{""stimulus"":""run_exp/static/images/task_images/dig.jpg"",""time"":1338.800000011921}]",[],3,,,,,,,,,,,,,,
harvest,102,397771,0.0-36.0-4.0,"""event"",""trial"",""time""
""fullscreenenter"",""1"",""1461""
","
","
","""event"",""trial"",""time""
""fullscreenenter"",""1"",""1461""
","
",,null,run_exp/static/images/task_images/gems/97.jpg,null,,,,,,,50,,,3,,,,,97,0.519751086,0.515463918,,,,,,,
decision,103,398089,0.0-36.0-5.0,"""event"",""trial"",""time""
""fullscreenenter"",""1"",""1461""
","
","
","""event"",""trial"",""time""
""fullscreenenter"",""1"",""1461""
","
",,315.5,run_exp/static/images/task_images/land.jpg,65,,,,,,,50,,,3,,,,,,,,66091,1,0,FALSE,,,
dig,104,400782,0.0-37.0-0.0,"""event"",""trial"",""time""
""fullscreenenter"",""1"",""1461""
","
","
","""event"",""trial"",""time""
""fullscreenenter"",""1"",""1461""
","
",,,,,,,,,,,,"[{""stimulus"":""run_exp/static/images/task_images/dig.jpg"",""time"":0.30000001192092896},{""stimulus"":""run_exp/static/images/task_images/land.jpg"",""time"":897.3000000119209},{""stimulus"":""run_exp/static/images/task_images/dig.jpg"",""time"":1801.800000011921}]",[],3,,,,,,,,,,,,,,
harvest,105,401798,0.0-37.0-1.0,"""event"",""trial"",""time""
""fullscreenenter"",""1"",""1461""
","
","
","""event"",""trial"",""time""
""fullscreenenter"",""1"",""1461""
","
",,null,run_exp/static/images/task_images/gems/50.jpg,null,,,,,,,24,,,3,,,,,50,0.472261254,0.48,,,,,,,
decision,106,402059,0.0-37.0-2.0,"""event"",""trial"",""time""
""fullscreenenter"",""1"",""1461""
","
","
","""event"",""trial"",""time""
""fullscreenenter"",""1"",""1461""
","
",,258.8,run_exp/static/images/task_images/land.jpg,65,,,,,,,24,,,3,,,,,,,,70061,1,1,FALSE,,,
dig,107,404808,0.0-38.0-0.0,"""event"",""trial"",""time""
""fullscreenenter"",""1"",""1461""
","
","
","""event"",""trial"",""time""
""fullscreenenter"",""1"",""1461""
","
",,,,,,,,,,,,"[{""stimulus"":""run_exp/static/images/task_images/dig.jpg"",""time"":0.19999998807907104},{""stimulus"":""run_exp/static/images/task_images/land.jpg"",""time"":919.5999999940395},{""stimulus"":""run_exp/static/images/task_images/dig.jpg"",""time"":1839.699999988079}]",[],3,,,,,,,,,,,,,,
harvest,108,405823,0.0-38.0-1.0,"""event"",""trial"",""time""
""fullscreenenter"",""1"",""1461""
","
","
","""event"",""trial"",""time""
""fullscreenenter"",""1"",""1461""
","
",,null,run_exp/static/images/task_images/gems/24.jpg,null,,,,,,,10,,,3,,,,,24,0.433585173,0.416666667,,,,,,,
decision,109,406079,0.0-38.0-2.0,"""event"",""trial"",""time""
""fullscreenenter"",""1"",""1461""
","
","
","""event"",""trial"",""time""
""fullscreenenter"",""1"",""1461""
","
",,254.5,run_exp/static/images/task_images/land.jpg,65,,,,,,,10,,,3,,,,,,,,74081,1,2,FALSE,,,
dig,110,408838,0.0-39.0-0.0,"""event"",""trial"",""time""
""fullscreenenter"",""1"",""1461""
","
","
","""event"",""trial"",""time""
""fullscreenenter"",""1"",""1461""
","
",,,,,,,,,,,,"[{""stimulus"":""run_exp/static/images/task_images/dig.jpg"",""time"":0.30000001192092896},{""stimulus"":""run_exp/static/images/task_images/land.jpg"",""time"":925.7000000178814},{""stimulus"":""run_exp/static/images/task_images/dig.jpg"",""time"":1834.4000000059605}]",[],3,,,,,,,,,,,,,,
harvest,111,409855,0.0-39.0-1.0,"""event"",""trial"",""time""
""fullscreenenter"",""1"",""1461""
","
","
","""event"",""trial"",""time""
""fullscreenenter"",""1"",""1461""
","
",,null,run_exp/static/images/task_images/gems/10.jpg,null,,,,,,,6,,,3,,,,,10,0.552719924,0.6,,,,,,,
decision,112,410019,0.0-39.0-2.0,"""event"",""trial"",""time""
""fullscreenenter"",""1"",""1461""
","
","
","""event"",""trial"",""time""
""fullscreenenter"",""1"",""1461""
","
",,162.3,run_exp/static/images/task_images/land.jpg,65,,,,,,,6,,,3,,,,,,,,78021,1,3,FALSE,,,
dig,113,412866,0.0-40.0-0.0,"""event"",""trial"",""time""
""fullscreenenter"",""1"",""1461""
","
","
","""event"",""trial"",""time""
""fullscreenenter"",""1"",""1461""
","
",,,,,,,,,,,,"[{""stimulus"":""run_exp/static/images/task_images/dig.jpg"",""time"":0.30000001192092896},{""stimulus"":""run_exp/static/images/task_images/land.jpg"",""time"":958},{""stimulus"":""run_exp/static/images/task_images/dig.jpg"",""time"":1892.800000011921}]",[],3,,,,,,,,,,,,,,
harvest,114,413881,0.0-40.0-1.0,"""event"",""trial"",""time""
""fullscreenenter"",""1"",""1461""
","
","
","""event"",""trial"",""time""
""fullscreenenter"",""1"",""1461""
","
",,null,run_exp/static/images/task_images/gems/6.jpg,null,,,,,,,3,,,3,,,,,6,0.565347532,0.5,,,,,,,
decision,115,413949,0.0-40.0-2.0,"""event"",""trial"",""time""
""fullscreenenter"",""1"",""1461""
","
","
","""event"",""trial"",""time""
""fullscreenenter"",""1"",""1461""
","
",,65.5,run_exp/static/images/task_images/land.jpg,76,,,,,,,3,,,3,,,,,,,,81951,1,4,TRUE,,,
travel,116,423888,0.0-41.0-0.0,"""event"",""trial"",""time""
""fullscreenenter"",""1"",""1461""
","
","
","""event"",""trial"",""time""
""fullscreenenter"",""1"",""1461""
","
",,,,,,,,,,,,"[{""stimulus"":""run_exp/static/images/task_images/rocket-01.jpg"",""time"":0.30000001192092896},{""stimulus"":""run_exp/static/images/task_images/rocket-02.jpg"",""time"":1114},{""stimulus"":""run_exp/static/images/task_images/rocket-03.jpg"",""time"":2219.800000011921},{""stimulus"":""run_exp/static/images/task_images/rocket-04.jpg"",""time"":3312},{""stimulus"":""run_exp/static/images/task_images/rocket-05.jpg"",""time"":4418.199999988079},{""stimulus"":""run_exp/static/images/task_images/rocket-06.jpg"",""time"":5523.199999988079},{""stimulus"":""run_exp/static/images/task_images/rocket-07.jpg"",""time"":6630.4000000059605},{""stimulus"":""run_exp/static/images/task_images/rocket-08.jpg"",""time"":7736.199999988079},{""stimulus"":""run_exp/static/images/task_images/rocket-09.jpg"",""time"":8829.5}]",[],3,,,,,,,,,,,,,,
alien_welcome,117,428904,0.0-41.0-1.0,"""event"",""trial"",""time""
""fullscreenenter"",""1"",""1461""
","
","
","""event"",""trial"",""time""
""fullscreenenter"",""1"",""1461""
","
",,null,run_exp/static/images/task_images/aliens/old_aliens/planet/alien_planet-13.jpg,null,,,,,,,,,,,,,13,"65,25,66,13,40,34,5,71,38,67,62,48,32,52,70,17,22,77,35,80,78,19,55,15,30,23,6,41,60,63,76,53,10,46,42,31,14,61,39,73,28,58,2,9,20,8,45,50,75,16,57,1,59,74,18,27,47,44,69,56,51,79,29,43",,,,,,,,,,
land,118,429418,0.0-41.0-2.0,"""event"",""trial"",""time""
""fullscreenenter"",""1"",""1461""
","
","
","""event"",""trial"",""time""
""fullscreenenter"",""1"",""1461""
","
",,null,run_exp/static/images/task_images/land.jpg,null,,,,,,,103,,,4,,,,,,,,,,,,,,
dig,119,431430,0.0-41.0-3.0,"""event"",""trial"",""time""
""fullscreenenter"",""1"",""1461""
","
","
","""event"",""trial"",""time""
""fullscreenenter"",""1"",""1461""
","
",,,,,,,,,,,,"[{""stimulus"":""run_exp/static/images/task_images/dig.jpg"",""time"":0.30000001192092896},{""stimulus"":""run_exp/static/images/task_images/land.jpg"",""time"":669.1999999880791},{""stimulus"":""run_exp/static/images/task_images/dig.jpg"",""time"":1340.300000011921}]",[],4,,,,,,,,,,,,,,
harvest,120,432441,0.0-41.0-4.0,"""event"",""trial"",""time""
""fullscreenenter"",""1"",""1461""
","
","
","""event"",""trial"",""time""
""fullscreenenter"",""1"",""1461""
","
",,null,run_exp/static/images/task_images/gems/103.jpg,null,,,,,,,51,,,4,,,,,103,0.495533175,0.495145631,,,,,,,
decision,121,432749,0.0-41.0-5.0,"""event"",""trial"",""time""
""fullscreenenter"",""1"",""1461""
","
","
","""event"",""trial"",""time""
""fullscreenenter"",""1"",""1461""
","
",,306.2,run_exp/static/images/task_images/land.jpg,65,,,,,,,51,,,4,,,,,,,,100751,1,0,FALSE,,,
dig,122,435452,0.0-42.0-0.0,"""event"",""trial"",""time""
""fullscreenenter"",""1"",""1461""
","
","
","""event"",""trial"",""time""
""fullscreenenter"",""1"",""1461""
","
",,,,,,,,,,,,"[{""stimulus"":""run_exp/static/images/task_images/dig.jpg"",""time"":0.4000000059604645},{""stimulus"":""run_exp/static/images/task_images/land.jpg"",""time"":906},{""stimulus"":""run_exp/static/images/task_images/dig.jpg"",""time"":1810.5}]",[],4,,,,,,,,,,,,,,
harvest,123,436466,0.0-42.0-1.0,"""event"",""trial"",""time""
""fullscreenenter"",""1"",""1461""
","
","
","""event"",""trial"",""time""
""fullscreenenter"",""1"",""1461""
","
",,null,run_exp/static/images/task_images/gems/51.jpg,null,,,,,,,24,,,4,,,,,51,0.469873372,0.470588235,,,,,,,
decision,124,436699,0.0-42.0-2.0,"""event"",""trial"",""time""
""fullscreenenter"",""1"",""1461""
","
","
","""event"",""trial"",""time""
""fullscreenenter"",""1"",""1461""
","
",,231.3,run_exp/static/images/task_images/land.jpg,65,,,,,,,24,,,4,,,,,,,,104702,1,1,FALSE,,,
dig,125,439473,0.0-43.0-0.0,"""event"",""trial"",""time""
""fullscreenenter"",""1"",""1461""
","
","
","""event"",""trial"",""time""
""fullscreenenter"",""1"",""1461""
","
",,,,,,,,,,,,"[{""stimulus"":""run_exp/static/images/task_images/dig.jpg"",""time"":0.30000001192092896},{""stimulus"":""run_exp/static/images/task_images/land.jpg"",""time"":933.4000000059605},{""stimulus"":""run_exp/static/images/task_images/dig.jpg"",""time"":1848.800000011921}]",[],4,,,,,,,,,,,,,,
harvest,126,440486,0.0-43.0-1.0,"""event"",""trial"",""time""
""fullscreenenter"",""1"",""1461""
","
","
","""event"",""trial"",""time""
""fullscreenenter"",""1"",""1461""
","
",,null,run_exp/static/images/task_images/gems/24.jpg,null,,,,,,,13,,,4,,,,,24,0.546733383,0.541666667,,,,,,,
decision,127,441119,0.0-43.0-2.0,"""event"",""trial"",""time""
""fullscreenenter"",""1"",""1461""
","
","
","""event"",""trial"",""time""
""fullscreenenter"",""1"",""1461""
","
",,631,run_exp/static/images/task_images/land.jpg,65,,,,,,,13,,,4,,,,,,,,109121,1,2,FALSE,,,
dig,128,443491,0.0-44.0-0.0,"""event"",""trial"",""time""
""fullscreenenter"",""1"",""1461""
","
","
","""event"",""trial"",""time""
""fullscreenenter"",""1"",""1461""
","
",,,,,,,,,,,,"[{""stimulus"":""run_exp/static/images/task_images/dig.jpg"",""time"":0.30000001192092896},{""stimulus"":""run_exp/static/images/task_images/land.jpg"",""time"":795.8000000119209},{""stimulus"":""run_exp/static/images/task_images/dig.jpg"",""time"":1590.4000000059605}]",[],4,,,,,,,,,,,,,,
harvest,129,444495,0.0-44.0-1.0,"""event"",""trial"",""time""
""fullscreenenter"",""1"",""1461""
","
","
","""event"",""trial"",""time""
""fullscreenenter"",""1"",""1461""
","
",,null,run_exp/static/images/task_images/gems/13.jpg,null,,,,,,,6,,,4,,,,,13,0.443629788,0.461538462,,,,,,,
decision,130,444700,0.0-44.0-2.0,"""event"",""trial"",""time""
""fullscreenenter"",""1"",""1461""
","
","
","""event"",""trial"",""time""
""fullscreenenter"",""1"",""1461""
","
",,202.8,run_exp/static/images/task_images/land.jpg,65,,,,,,,6,,,4,,,,,,,,112702,1,3,FALSE,,,
dig,131,447505,0.0-45.0-0.0,"""event"",""trial"",""time""
""fullscreenenter"",""1"",""1461""
","
","
","""event"",""trial"",""time""
""fullscreenenter"",""1"",""1461""
","
",,,,,,,,,,,,"[{""stimulus"":""run_exp/static/images/task_images/dig.jpg"",""time"":0.20000001788139343},{""stimulus"":""run_exp/static/images/task_images/land.jpg"",""time"":946},{""stimulus"":""run_exp/static/images/task_images/dig.jpg"",""time"":1868.1000000238419}]",[],4,,,,,,,,,,,,,,
harvest,132,448518,0.0-45.0-1.0,"""event"",""trial"",""time""
""fullscreenenter"",""1"",""1461""
","
","
","""event"",""trial"",""time""
""fullscreenenter"",""1"",""1461""
","
",,null,run_exp/static/images/task_images/gems/6.jpg,null,,,,,,,3,,,4,,,,,6,0.491349457,0.5,,,,,,,
decision,133,449101,0.0-45.0-2.0,"""event"",""trial"",""time""
""fullscreenenter"",""1"",""1461""
","
","
","""event"",""trial"",""time""
""fullscreenenter"",""1"",""1461""
","
",,580.4,run_exp/static/images/task_images/land.jpg,76,,,,,,,3,,,4,,,,,,,,117103,1,4,TRUE,,,
travel,134,458524,0.0-46.0-0.0,"""event"",""trial"",""time""
""fullscreenenter"",""1"",""1461""
","
","
","""event"",""trial"",""time""
""fullscreenenter"",""1"",""1461""
","
",,,,,,,,,,,,"[{""stimulus"":""run_exp/static/images/task_images/rocket-01.jpg"",""time"":0.20000001788139343},{""stimulus"":""run_exp/static/images/task_images/rocket-02.jpg"",""time"":1051.7000000178814},{""stimulus"":""run_exp/static/images/task_images/rocket-03.jpg"",""time"":2094.4000000059605},{""stimulus"":""run_exp/static/images/task_images/rocket-04.jpg"",""time"":3143.600000023842},{""stimulus"":""run_exp/static/images/task_images/rocket-05.jpg"",""time"":4188.5},{""stimulus"":""run_exp/static/images/task_images/rocket-06.jpg"",""time"":5235.9000000059605},{""stimulus"":""run_exp/static/images/task_images/rocket-07.jpg"",""time"":6282.800000011921},{""stimulus"":""run_exp/static/images/task_images/rocket-08.jpg"",""time"":7328.300000011921},{""stimulus"":""run_exp/static/images/task_images/rocket-09.jpg"",""time"":8372.700000017881}]",[],4,,,,,,,,,,,,,,
alien_welcome,135,463527,0.0-46.0-1.0,"""event"",""trial"",""time""
""fullscreenenter"",""1"",""1461""
","
","
","""event"",""trial"",""time""
""fullscreenenter"",""1"",""1461""
","
",,null,run_exp/static/images/task_images/aliens/old_aliens/planet/alien_planet-40.jpg,null,,,,,,,,,,,,,40,"65,25,66,13,40,34,5,71,38,67,62,48,32,52,70,17,22,77,35,80,78,19,55,15,30,23,6,41,60,63,76,53,10,46,42,31,14,61,39,73,28,58,2,9,20,8,45,50,75,16,57,1,59,74,18,27,47,44,69,56,51,79,29,43",,,,,,,,,,
land,136,464039,0.0-46.0-2.0,"""event"",""trial"",""time""
""fullscreenenter"",""1"",""1461""
","
","
","""event"",""trial"",""time""
""fullscreenenter"",""1"",""1461""
","
",,null,run_exp/static/images/task_images/land.jpg,null,,,,,,,96,,,5,,,,,,,,,,,,,,
dig,137,466057,0.0-46.0-3.0,"""event"",""trial"",""time""
""fullscreenenter"",""1"",""1461""
","
","
","""event"",""trial"",""time""
""fullscreenenter"",""1"",""1461""
","
",,,,,,,,,,,,"[{""stimulus"":""run_exp/static/images/task_images/dig.jpg"",""time"":0.5},{""stimulus"":""run_exp/static/images/task_images/land.jpg"",""time"":668.9000000059605},{""stimulus"":""run_exp/static/images/task_images/dig.jpg"",""time"":1342.300000011921}]",[],5,,,,,,,,,,,,,,
harvest,138,467071,0.0-46.0-4.0,"""event"",""trial"",""time""
""fullscreenenter"",""1"",""1461""
","
","
","""event"",""trial"",""time""
""fullscreenenter"",""1"",""1461""
","
",,null,run_exp/static/images/task_images/gems/96.jpg,null,,,,,,,52,,,5,,,,,96,0.540762486,0.541666667,,,,,,,
decision,139,467481,0.0-46.0-5.0,"""event"",""trial"",""time""
""fullscreenenter"",""1"",""1461""
","
","
","""event"",""trial"",""time""
""fullscreenenter"",""1"",""1461""
","
",,407.7,run_exp/static/images/task_images/land.jpg,65,,,,,,,52,,,5,,,,,,,,135483,1,0,FALSE,,,
dig,140,470084,0.0-47.0-0.0,"""event"",""trial"",""time""
""fullscreenenter"",""1"",""1461""
","
","
","""event"",""trial"",""time""
""fullscreenenter"",""1"",""1461""
","
",,,,,,,,,,,,"[{""stimulus"":""run_exp/static/images/task_images/dig.jpg"",""time"":0.4000000059604645},{""stimulus"":""run_exp/static/images/task_images/land.jpg"",""time"":866.5999999940395},{""stimulus"":""run_exp/static/images/task_images/dig.jpg"",""time"":1740.300000011921}]",[],5,,,,,,,,,,,,,,
harvest,141,471097,0.0-47.0-1.0,"""event"",""trial"",""time""
""fullscreenenter"",""1"",""1461""
","
","
","""event"",""trial"",""time""
""fullscreenenter"",""1"",""1461""
","
",,null,run_exp/static/images/task_images/gems/52.jpg,null,,,,,,,26,,,5,,,,,52,0.508351911,0.5,,,,,,,
decision,142,471170,0.0-47.0-2.0,"""event"",""trial"",""time""
""fullscreenenter"",""1"",""1461""
","
","
","""event"",""trial"",""time""
""fullscreenenter"",""1"",""1461""
","
",,71.5,run_exp/static/images/task_images/land.jpg,65,,,,,,,26,,,5,,,,,,,,139172,1,1,FALSE,,,
dig,143,474105,0.0-48.0-0.0,"""event"",""trial"",""time""
""fullscreenenter"",""1"",""1461""
","
","
","""event"",""trial"",""time""
""fullscreenenter"",""1"",""1461""
","
",,,,,,,,,,,,"[{""stimulus"":""run_exp/static/images/task_images/dig.jpg"",""time"":0.20000001788139343},{""stimulus"":""run_exp/static/images/task_images/land.jpg"",""time"":983},{""stimulus"":""run_exp/static/images/task_images/dig.jpg"",""time"":1961.0999999940395}]",[],5,,,,,,,,,,,,,,
harvest,144,475117,0.0-48.0-1.0,"""event"",""trial"",""time""
""fullscreenenter"",""1"",""1461""
","
","
","""event"",""trial"",""time""
""fullscreenenter"",""1"",""1461""
","
",,null,run_exp/static/images/task_images/gems/26.jpg,null,,,,,,,13,,,5,,,,,26,0.513003918,0.5,,,,,,,
decision,145,475151,0.0-48.0-2.0,"""event"",""trial"",""time""
""fullscreenenter"",""1"",""1461""
","
","
","""event"",""trial"",""time""
""fullscreenenter"",""1"",""1461""
","
",,32.69999999,run_exp/static/images/task_images/land.jpg,65,,,,,,,13,,,5,,,,,,,,143153,1,2,FALSE,,,
dig,146,478137,0.0-49.0-0.0,"""event"",""trial"",""time""
""fullscreenenter"",""1"",""1461""
","
","
","""event"",""trial"",""time""
""fullscreenenter"",""1"",""1461""
","
",,,,,,,,,,,,"[{""stimulus"":""run_exp/static/images/task_images/dig.jpg"",""time"":0.5},{""stimulus"":""run_exp/static/images/task_images/land.jpg"",""time"":1004.4000000059605},{""stimulus"":""run_exp/static/images/task_images/dig.jpg"",""time"":1986.4000000059605}]",[],5,,,,,,,,,,,,,,
harvest,147,479151,0.0-49.0-1.0,"""event"",""trial"",""time""
""fullscreenenter"",""1"",""1461""
","
","
","""event"",""trial"",""time""
""fullscreenenter"",""1"",""1461""
","
",,null,run_exp/static/images/task_images/gems/13.jpg,null,,,,,,,7,,,5,,,,,13,0.571251502,0.538461538,,,,,,,
decision,148,479159,0.0-49.0-2.0,"""event"",""trial"",""time""
""fullscreenenter"",""1"",""1461""
","
","
","""event"",""trial"",""time""
""fullscreenenter"",""1"",""1461""
","
",,6.800000012,run_exp/static/images/task_images/land.jpg,65,,,,,,,7,,,5,,,,,,,,147162,1,3,FALSE,,,
dig,149,482162,0.0-50.0-0.0,"""event"",""trial"",""time""
""fullscreenenter"",""1"",""1461""
","
","
","""event"",""trial"",""time""
""fullscreenenter"",""1"",""1461""
","
",,,,,,,,,,,,"[{""stimulus"":""run_exp/static/images/task_images/dig.jpg"",""time"":0.19999998807907104},{""stimulus"":""run_exp/static/images/task_images/land.jpg"",""time"":1004.1999999880791},{""stimulus"":""run_exp/static/images/task_images/dig.jpg"",""time"":2000.0999999940395}]",[],5,,,,,,,,,,,,,,
harvest,150,483174,0.0-50.0-1.0,"""event"",""trial"",""time""
""fullscreenenter"",""1"",""1461""
","
","
","""event"",""trial"",""time""
""fullscreenenter"",""1"",""1461""
","
",,null,run_exp/static/images/task_images/gems/7.jpg,null,,,,,,,3,,,5,,,,,7,0.497249216,0.428571429,,,,,,,
decision,151,483470,0.0-50.0-2.0,"""event"",""trial"",""time""
""fullscreenenter"",""1"",""1461""
","
","
","""event"",""trial"",""time""
""fullscreenenter"",""1"",""1461""
","
",,293.9,run_exp/static/images/task_images/land.jpg,76,,,,,,,3,,,5,,,,,,,,151472,1,4,TRUE,,,
travel,152,493187,0.0-51.0-0.0,"""event"",""trial"",""time""
""fullscreenenter"",""1"",""1461""
","
","
","""event"",""trial"",""time""
""fullscreenenter"",""1"",""1461""
","
",,,,,,,,,,,,"[{""stimulus"":""run_exp/static/images/task_images/rocket-01.jpg"",""time"":0.4000000059604645},{""stimulus"":""run_exp/static/images/task_images/rocket-02.jpg"",""time"":1089.699999988079},{""stimulus"":""run_exp/static/images/task_images/rocket-03.jpg"",""time"":2164.800000011921},{""stimulus"":""run_exp/static/images/task_images/rocket-04.jpg"",""time"":3239.0999999940395},{""stimulus"":""run_exp/static/images/task_images/rocket-05.jpg"",""time"":4316.5},{""stimulus"":""run_exp/static/images/task_images/rocket-06.jpg"",""time"":5404.800000011921},{""stimulus"":""run_exp/static/images/task_images/rocket-07.jpg"",""time"":6478.300000011921},{""stimulus"":""run_exp/static/images/task_images/rocket-08.jpg"",""time"":7553.199999988079},{""stimulus"":""run_exp/static/images/task_images/rocket-09.jpg"",""time"":8627.5}]",[],5,,,,,,,,,,,,,,
alien_welcome,153,498199,0.0-51.0-1.0,"""event"",""trial"",""time""
""fullscreenenter"",""1"",""1461""
","
","
","""event"",""trial"",""time""
""fullscreenenter"",""1"",""1461""
","
",,null,run_exp/static/images/task_images/aliens/old_aliens/planet/alien_planet-34.jpg,null,,,,,,,,,,,,,34,"65,25,66,13,40,34,5,71,38,67,62,48,32,52,70,17,22,77,35,80,78,19,55,15,30,23,6,41,60,63,76,53,10,46,42,31,14,61,39,73,28,58,2,9,20,8,45,50,75,16,57,1,59,74,18,27,47,44,69,56,51,79,29,43",,,,,,,,,,
land,154,498716,0.0-51.0-2.0,"""event"",""trial"",""time""
""fullscreenenter"",""1"",""1461""
","
","
","""event"",""trial"",""time""
""fullscreenenter"",""1"",""1461""
","
",,null,run_exp/static/images/task_images/land.jpg,null,,,,,,,98,,,6,,,,,,,,,,,,,,
dig,155,500720,0.0-51.0-3.0,"""event"",""trial"",""time""
""fullscreenenter"",""1"",""1461""
","
","
","""event"",""trial"",""time""
""fullscreenenter"",""1"",""1461""
","
",,,,,,,,,,,,"[{""stimulus"":""run_exp/static/images/task_images/dig.jpg"",""time"":0.4000000059604645},{""stimulus"":""run_exp/static/images/task_images/land.jpg"",""time"":680.9000000059605},{""stimulus"":""run_exp/static/images/task_images/dig.jpg"",""time"":1336.800000011921}]",[],6,,,,,,,,,,,,,,
harvest,156,501735,0.0-51.0-4.0,"""event"",""trial"",""time""
""fullscreenenter"",""1"",""1461""
","
","
","""event"",""trial"",""time""
""fullscreenenter"",""1"",""1461""
","
",,null,run_exp/static/images/task_images/gems/98.jpg,null,,,,,,,80,,,6,,,,,98,0.817569869,0.816326531,,,,,,,
decision,157,502079,0.0-51.0-5.0,"""event"",""trial"",""time""
""fullscreenenter"",""1"",""1461""
","
","
","""event"",""trial"",""time""
""fullscreenenter"",""1"",""1461""
","
",,342.4,run_exp/static/images/task_images/land.jpg,76,,,,,,,80,,,6,,,,,,,,170081,1,0,TRUE,,,
travel,158,511748,0.0-52.0-0.0,"""event"",""trial"",""time""
""fullscreenenter"",""1"",""1461""
","
","
","""event"",""trial"",""time""
""fullscreenenter"",""1"",""1461""
","
",,,,,,,,,,,,"[{""stimulus"":""run_exp/static/images/task_images/rocket-01.jpg"",""time"":0.20000001788139343},{""stimulus"":""run_exp/static/images/task_images/rocket-02.jpg"",""time"":1086.7000000178814},{""stimulus"":""run_exp/static/images/task_images/rocket-03.jpg"",""time"":2161},{""stimulus"":""run_exp/static/images/task_images/rocket-04.jpg"",""time"":3234},{""stimulus"":""run_exp/static/images/task_images/rocket-05.jpg"",""time"":4296.200000017881},{""stimulus"":""run_exp/static/images/task_images/rocket-06.jpg"",""time"":5372},{""stimulus"":""run_exp/static/images/task_images/rocket-07.jpg"",""time"":6448.200000017881},{""stimulus"":""run_exp/static/images/task_images/rocket-08.jpg"",""time"":7527.4000000059605},{""stimulus"":""run_exp/static/images/task_images/rocket-09.jpg"",""time"":8588.300000011921}]",[],6,,,,,,,,,,,,,,
alien_welcome,159,516751,0.0-52.0-1.0,"""event"",""trial"",""time""
""fullscreenenter"",""1"",""1461""
","
","
","""event"",""trial"",""time""
""fullscreenenter"",""1"",""1461""
","
",,null,run_exp/static/images/task_images/aliens/old_aliens/planet/alien_planet-5.jpg,null,,,,,,,,,,,,,5,"65,25,66,13,40,34,5,71,38,67,62,48,32,52,70,17,22,77,35,80,78,19,55,15,30,23,6,41,60,63,76,53,10,46,42,31,14,61,39,73,28,58,2,9,20,8,45,50,75,16,57,1,59,74,18,27,47,44,69,56,51,79,29,43",,,,,,,,,,
land,160,517264,0.0-52.0-2.0,"""event"",""trial"",""time""
""fullscreenenter"",""1"",""1461""
","
","
","""event"",""trial"",""time""
""fullscreenenter"",""1"",""1461""
","
",,null,run_exp/static/images/task_images/land.jpg,null,,,,,,,101,,,7,,,,,,,,,,,,,,
dig,161,519274,0.0-52.0-3.0,"""event"",""trial"",""time""
""fullscreenenter"",""1"",""1461""
","
","
","""event"",""trial"",""time""
""fullscreenenter"",""1"",""1461""
","
",,,,,,,,,,,,"[{""stimulus"":""run_exp/static/images/task_images/dig.jpg"",""time"":0.4000000059604645},{""stimulus"":""run_exp/static/images/task_images/land.jpg"",""time"":683.4000000059605},{""stimulus"":""run_exp/static/images/task_images/dig.jpg"",""time"":1340.699999988079}]",[],7,,,,,,,,,,,,,,
harvest,162,520290,0.0-52.0-4.0,"""event"",""trial"",""time""
""fullscreenenter"",""1"",""1461""
","
","
","""event"",""trial"",""time""
""fullscreenenter"",""1"",""1461""
","
",,null,run_exp/static/images/task_images/gems/101.jpg,null,,,,,,,80,,,7,,,,,101,0.791527331,0.792079208,,,,,,,
decision,163,520601,0.0-52.0-5.0,"""event"",""trial"",""time""
""fullscreenenter"",""1"",""1461""
","
","
","""event"",""trial"",""time""
""fullscreenenter"",""1"",""1461""
","
",,309.3,run_exp/static/images/task_images/land.jpg,76,,,,,,,80,,,7,,,,,,,,188603,1,0,TRUE,,,
travel,164,530303,0.0-53.0-0.0,"""event"",""trial"",""time""
""fullscreenenter"",""1"",""1461""
","
","
","""event"",""trial"",""time""
""fullscreenenter"",""1"",""1461""
","
",,,,,,,,,,,,"[{""stimulus"":""run_exp/static/images/task_images/rocket-01.jpg"",""time"":0.29999998211860657},{""stimulus"":""run_exp/static/images/task_images/rocket-02.jpg"",""time"":1086},{""stimulus"":""run_exp/static/images/task_images/rocket-03.jpg"",""time"":2163.699999988079},{""stimulus"":""run_exp/static/images/task_images/rocket-04.jpg"",""time"":3237.199999988079},{""stimulus"":""run_exp/static/images/task_images/rocket-05.jpg"",""time"":4310.899999976158},{""stimulus"":""run_exp/static/images/task_images/rocket-06.jpg"",""time"":5384.5},{""stimulus"":""run_exp/static/images/task_images/rocket-07.jpg"",""time"":6461.5},{""stimulus"":""run_exp/static/images/task_images/rocket-08.jpg"",""time"":7535.899999976158},{""stimulus"":""run_exp/static/images/task_images/rocket-09.jpg"",""time"":8612.399999976158}]",[],7,,,,,,,,,,,,,,
alien_welcome,165,535318,0.0-53.0-1.0,"""event"",""trial"",""time""
""fullscreenenter"",""1"",""1461""
","
","
","""event"",""trial"",""time""
""fullscreenenter"",""1"",""1461""
","
",,null,run_exp/static/images/task_images/aliens/old_aliens/planet/alien_planet-71.jpg,null,,,,,,,,,,,,,71,"65,25,66,13,40,34,5,71,38,67,62,48,32,52,70,17,22,77,35,80,78,19,55,15,30,23,6,41,60,63,76,53,10,46,42,31,14,61,39,73,28,58,2,9,20,8,45,50,75,16,57,1,59,74,18,27,47,44,69,56,51,79,29,43",,,,,,,,,,
land,166,535835,0.0-53.0-2.0,"""event"",""trial"",""time""
""fullscreenenter"",""1"",""1461""
","
","
","""event"",""trial"",""time""
""fullscreenenter"",""1"",""1461""
","
",,null,run_exp/static/images/task_images/land.jpg,null,,,,,,,101,,,8,,,,,,,,,,,,,,
dig,167,537851,0.0-53.0-3.0,"""event"",""trial"",""time""
""fullscreenenter"",""1"",""1461""
","
","
","""event"",""trial"",""time""
""fullscreenenter"",""1"",""1461""
","
",,,,,,,,,,,,"[{""stimulus"":""run_exp/static/images/task_images/dig.jpg"",""time"":0.3999999761581421},{""stimulus"":""run_exp/static/images/task_images/land.jpg"",""time"":670.3999999761581},{""stimulus"":""run_exp/static/images/task_images/dig.jpg"",""time"":1341.0999999940395}]",[],8,,,,,,,,,,,,,,
harvest,168,538854,0.0-53.0-4.0,"""event"",""trial"",""time""
""fullscreenenter"",""1"",""1461""
","
","
","""event"",""trial"",""time""
""fullscreenenter"",""1"",""1461""
","
",,null,run_exp/static/images/task_images/gems/101.jpg,null,,,,,,,87,,,8,,,,,101,0.859212636,0.861386139,,,,,,,
decision,169,539940,0.0-53.0-5.0,"""event"",""trial"",""time""
""fullscreenenter"",""1"",""1461""
","
","
","""event"",""trial"",""time""
""fullscreenenter"",""1"",""1461""
","
",,1083.8,run_exp/static/images/task_images/land.jpg,65,,,,,,,87,,,8,,,,,,,,207942,1,0,FALSE,,,
dig,170,541865,0.0-54.0-0.0,"""event"",""trial"",""time""
""fullscreenenter"",""1"",""1461""
","
","
","""event"",""trial"",""time""
""fullscreenenter"",""1"",""1461""
","
",,,,,,,,,,,,"[{""stimulus"":""run_exp/static/images/task_images/dig.jpg"",""time"":0.4000000059604645},{""stimulus"":""run_exp/static/images/task_images/land.jpg"",""time"":641.7000000178814},{""stimulus"":""run_exp/static/images/task_images/dig.jpg"",""time"":1280}]",[],8,,,,,,,,,,,,,,
harvest,171,542879,0.0-54.0-1.0,"""event"",""trial"",""time""
""fullscreenenter"",""1"",""1461""
","
","
","""event"",""trial"",""time""
""fullscreenenter"",""1"",""1461""
","
",,null,run_exp/static/images/task_images/gems/87.jpg,null,,,,,,,68,,,8,,,,,87,0.785686256,0.781609195,,,,,,,
decision,172,543410,0.0-54.0-2.0,"""event"",""trial"",""time""
""fullscreenenter"",""1"",""1461""
","
","
","""event"",""trial"",""time""
""fullscreenenter"",""1"",""1461""
","
",,528.4,run_exp/static/images/task_images/land.jpg,65,,,,,,,68,,,8,,,,,,,,211412,1,1,FALSE,,,
dig,173,545885,0.0-55.0-0.0,"""event"",""trial"",""time""
""fullscreenenter"",""1"",""1461""
","
","
","""event"",""trial"",""time""
""fullscreenenter"",""1"",""1461""
","
",,,,,,,,,,,,"[{""stimulus"":""run_exp/static/images/task_images/dig.jpg"",""time"":0.20000001788139343},{""stimulus"":""run_exp/static/images/task_images/land.jpg"",""time"":832.5999999940395},{""stimulus"":""run_exp/static/images/task_images/dig.jpg"",""time"":1657.5}]",[],8,,,,,,,,,,,,,,
harvest,174,546902,0.0-55.0-1.0,"""event"",""trial"",""time""
""fullscreenenter"",""1"",""1461""
","
","
","""event"",""trial"",""time""
""fullscreenenter"",""1"",""1461""
","
",,null,run_exp/static/images/task_images/gems/68.jpg,null,,,,,,,59,,,8,,,,,68,0.873712598,0.867647059,,,,,,,
decision,175,547270,0.0-55.0-2.0,"""event"",""trial"",""time""
""fullscreenenter"",""1"",""1461""
","
","
","""event"",""trial"",""time""
""fullscreenenter"",""1"",""1461""
","
",,366.8,run_exp/static/images/task_images/land.jpg,65,,,,,,,59,,,8,,,,,,,,215272,1,2,FALSE,,,
dig,176,549918,0.0-56.0-0.0,"""event"",""trial"",""time""
""fullscreenenter"",""1"",""1461""
","
","
","""event"",""trial"",""time""
""fullscreenenter"",""1"",""1461""
","
",,,,,,,,,,,,"[{""stimulus"":""run_exp/static/images/task_images/dig.jpg"",""time"":0.19999998807907104},{""stimulus"":""run_exp/static/images/task_images/land.jpg"",""time"":884.6999999880791},{""stimulus"":""run_exp/static/images/task_images/dig.jpg"",""time"":1764.7999999821186}]",[],8,,,,,,,,,,,,,,
harvest,177,550923,0.0-56.0-1.0,"""event"",""trial"",""time""
""fullscreenenter"",""1"",""1461""
","
","
","""event"",""trial"",""time""
""fullscreenenter"",""1"",""1461""
","
",,null,run_exp/static/images/task_images/gems/59.jpg,null,,,,,,,52,,,8,,,,,59,0.880159105,0.881355932,,,,,,,
decision,178,551240,0.0-56.0-2.0,"""event"",""trial"",""time""
""fullscreenenter"",""1"",""1461""
","
","
","""event"",""trial"",""time""
""fullscreenenter"",""1"",""1461""
","
",,316.1,run_exp/static/images/task_images/land.jpg,76,,,,,,,52,,,8,,,,,,,,219242,1,3,TRUE,,,
travel,179,560938,0.0-57.0-0.0,"""event"",""trial"",""time""
""fullscreenenter"",""1"",""1461""
","
","
","""event"",""trial"",""time""
""fullscreenenter"",""1"",""1461""
","
",,,,,,,,,,,,"[{""stimulus"":""run_exp/static/images/task_images/rocket-01.jpg"",""time"":0.20000001788139343},{""stimulus"":""run_exp/static/images/task_images/rocket-02.jpg"",""time"":1076.9000000059605},{""stimulus"":""run_exp/static/images/task_images/rocket-03.jpg"",""time"":2159.5},{""stimulus"":""run_exp/static/images/task_images/rocket-04.jpg"",""time"":3229.600000023842},{""stimulus"":""run_exp/static/images/task_images/rocket-05.jpg"",""time"":4312.200000017881},{""stimulus"":""run_exp/static/images/task_images/rocket-06.jpg"",""time"":5383.800000011921},{""stimulus"":""run_exp/static/images/task_images/rocket-07.jpg"",""time"":6453.700000017881},{""stimulus"":""run_exp/static/images/task_images/rocket-08.jpg"",""time"":7534.600000023842},{""stimulus"":""run_exp/static/images/task_images/rocket-09.jpg"",""time"":8615.800000011921}]",[],8,,,,,,,,,,,,,,
alien_welcome,180,565943,0.0-57.0-1.0,"""event"",""trial"",""time""
""fullscreenenter"",""1"",""1461""
","
","
","""event"",""trial"",""time""
""fullscreenenter"",""1"",""1461""
","
",,null,run_exp/static/images/task_images/aliens/old_aliens/planet/alien_planet-38.jpg,null,,,,,,,,,,,,,38,"65,25,66,13,40,34,5,71,38,67,62,48,32,52,70,17,22,77,35,80,78,19,55,15,30,23,6,41,60,63,76,53,10,46,42,31,14,61,39,73,28,58,2,9,20,8,45,50,75,16,57,1,59,74,18,27,47,44,69,56,51,79,29,43",,,,,,,,,,
land,181,566461,0.0-57.0-2.0,"""event"",""trial"",""time""
""fullscreenenter"",""1"",""1461""
","
","
","""event"",""trial"",""time""
""fullscreenenter"",""1"",""1461""
","
",,null,run_exp/static/images/task_images/land.jpg,null,,,,,,,104,,,9,,,,,,,,,,,,,,
dig,182,568476,0.0-57.0-3.0,"""event"",""trial"",""time""
""fullscreenenter"",""1"",""1461""
","
","
","""event"",""trial"",""time""
""fullscreenenter"",""1"",""1461""
","
",,,,,,,,,,,,"[{""stimulus"":""run_exp/static/images/task_images/dig.jpg"",""time"":0.4000000059604645},{""stimulus"":""run_exp/static/images/task_images/land.jpg"",""time"":681.3000000119209},{""stimulus"":""run_exp/static/images/task_images/dig.jpg"",""time"":1337.9000000059605}]",[],9,,,,,,,,,,,,,,
harvest,183,569493,0.0-57.0-4.0,"""event"",""trial"",""time""
""fullscreenenter"",""1"",""1461""
","
","
","""event"",""trial"",""time""
""fullscreenenter"",""1"",""1461""
","
",,null,run_exp/static/images/task_images/gems/104.jpg,null,,,,,,,20,,,9,,,,,104,0.196155335,0.192307692,,,,,,,
decision,184,569910,0.0-57.0-5.0,"""event"",""trial"",""time""
""fullscreenenter"",""1"",""1461""
","
","
","""event"",""trial"",""time""
""fullscreenenter"",""1"",""1461""
","
",,415.6,run_exp/static/images/task_images/land.jpg,76,,,,,,,20,,,9,,,,,,,,237913,1,0,TRUE,,,
travel,185,579493,0.0-58.0-0.0,"""event"",""trial"",""time""
""fullscreenenter"",""1"",""1461""
","
","
","""event"",""trial"",""time""
""fullscreenenter"",""1"",""1461""
","
",,,,,,,,,,,,"[{""stimulus"":""run_exp/static/images/task_images/rocket-01.jpg"",""time"":0.30000001192092896},{""stimulus"":""run_exp/static/images/task_images/rocket-02.jpg"",""time"":1074.5},{""stimulus"":""run_exp/static/images/task_images/rocket-03.jpg"",""time"":2131.9000000059605},{""stimulus"":""run_exp/static/images/task_images/rocket-04.jpg"",""time"":3208},{""stimulus"":""run_exp/static/images/task_images/rocket-05.jpg"",""time"":4263.5},{""stimulus"":""run_exp/static/images/task_images/rocket-06.jpg"",""time"":5321.5999999940395},{""stimulus"":""run_exp/static/images/task_images/rocket-07.jpg"",""time"":6396.9000000059605},{""stimulus"":""run_exp/static/images/task_images/rocket-08.jpg"",""time"":7458.0999999940395},{""stimulus"":""run_exp/static/images/task_images/rocket-09.jpg"",""time"":8519.5}]",[],9,,,,,,,,,,,,,,
alien_welcome,186,584497,0.0-58.0-1.0,"""event"",""trial"",""time""
""fullscreenenter"",""1"",""1461""
","
","
","""event"",""trial"",""time""
""fullscreenenter"",""1"",""1461""
","
",,null,run_exp/static/images/task_images/aliens/old_aliens/planet/alien_planet-67.jpg,null,,,,,,,,,,,,,67,"65,25,66,13,40,34,5,71,38,67,62,48,32,52,70,17,22,77,35,80,78,19,55,15,30,23,6,41,60,63,76,53,10,46,42,31,14,61,39,73,28,58,2,9,20,8,45,50,75,16,57,1,59,74,18,27,47,44,69,56,51,79,29,43",,,,,,,,,,
land,187,585010,0.0-58.0-2.0,"""event"",""trial"",""time""
""fullscreenenter"",""1"",""1461""
","
","
","""event"",""trial"",""time""
""fullscreenenter"",""1"",""1461""
","
",,null,run_exp/static/images/task_images/land.jpg,null,,,,,,,110,,,10,,,,,,,,,,,,,,
dig,188,587020,0.0-58.0-3.0,"""event"",""trial"",""time""
""fullscreenenter"",""1"",""1461""
","
","
","""event"",""trial"",""time""
""fullscreenenter"",""1"",""1461""
","
",,,,,,,,,,,,"[{""stimulus"":""run_exp/static/images/task_images/dig.jpg"",""time"":0.4000000059604645},{""stimulus"":""run_exp/static/images/task_images/land.jpg"",""time"":669.1999999880791},{""stimulus"":""run_exp/static/images/task_images/dig.jpg"",""time"":1339.5}]",[],10,,,,,,,,,,,,,,
harvest,189,588035,0.0-58.0-4.0,"""event"",""trial"",""time""
""fullscreenenter"",""1"",""1461""
","
","
","""event"",""trial"",""time""
""fullscreenenter"",""1"",""1461""
","
",,null,run_exp/static/images/task_images/gems/110.jpg,null,,,,,,,28,,,10,,,,,110,0.255863674,0.254545455,,,,,,,
decision,190,588640,0.0-58.0-5.0,"""event"",""trial"",""time""
""fullscreenenter"",""1"",""1461""
","
","
","""event"",""trial"",""time""
""fullscreenenter"",""1"",""1461""
","
",,603,run_exp/static/images/task_images/land.jpg,65,,,,,,,28,,,10,,,,,,,,256642,1,0,FALSE,,,
dig,191,591058,0.0-59.0-0.0,"""event"",""trial"",""time""
""fullscreenenter"",""1"",""1461""
","
","
","""event"",""trial"",""time""
""fullscreenenter"",""1"",""1461""
","
",,,,,,,,,,,,"[{""stimulus"":""run_exp/static/images/task_images/dig.jpg"",""time"":0.30000001192092896},{""stimulus"":""run_exp/static/images/task_images/land.jpg"",""time"":807.2000000178814},{""stimulus"":""run_exp/static/images/task_images/dig.jpg"",""time"":1604.2000000178814}]",[],10,,,,,,,,,,,,,,
harvest,192,592070,0.0-59.0-1.0,"""event"",""trial"",""time""
""fullscreenenter"",""1"",""1461""
","
","
","""event"",""trial"",""time""
""fullscreenenter"",""1"",""1461""
","
",,null,run_exp/static/images/task_images/gems/28.jpg,null,,,,,,,5,,,10,,,,,28,0.194175266,0.178571429,,,,,,,
decision,193,592310,0.0-59.0-2.0,"""event"",""trial"",""time""
""fullscreenenter"",""1"",""1461""
","
","
","""event"",""trial"",""time""
""fullscreenenter"",""1"",""1461""
","
",,238.3,run_exp/static/images/task_images/land.jpg,76,,,,,,,5,,,10,,,,,,,,260313,1,1,TRUE,,,
travel,194,602080,0.0-60.0-0.0,"""event"",""trial"",""time""
""fullscreenenter"",""1"",""1461""
","
","
","""event"",""trial"",""time""
""fullscreenenter"",""1"",""1461""
","
",,,,,,,,,,,,"[{""stimulus"":""run_exp/static/images/task_images/rocket-01.jpg"",""time"":0.19999998807907104},{""stimulus"":""run_exp/static/images/task_images/rocket-02.jpg"",""time"":1092.300000011921},{""stimulus"":""run_exp/static/images/task_images/rocket-03.jpg"",""time"":2177.699999988079},{""stimulus"":""run_exp/static/images/task_images/rocket-04.jpg"",""time"":3267.0999999940395},{""stimulus"":""run_exp/static/images/task_images/rocket-05.jpg"",""time"":4341.4000000059605},{""stimulus"":""run_exp/static/images/task_images/rocket-06.jpg"",""time"":5431.699999988079},{""stimulus"":""run_exp/static/images/task_images/rocket-07.jpg"",""time"":6509.199999988079},{""stimulus"":""run_exp/static/images/task_images/rocket-08.jpg"",""time"":7598.9000000059605},{""stimulus"":""run_exp/static/images/task_images/rocket-09.jpg"",""time"":8688.90000000596}]",[],10,,,,,,,,,,,,,,
alien_welcome,195,607097,0.0-60.0-1.0,"""event"",""trial"",""time""
""fullscreenenter"",""1"",""1461""
","
","
","""event"",""trial"",""time""
""fullscreenenter"",""1"",""1461""
","
",,null,run_exp/static/images/task_images/aliens/old_aliens/planet/alien_planet-62.jpg,null,,,,,,,,,,,,,62,"65,25,66,13,40,34,5,71,38,67,62,48,32,52,70,17,22,77,35,80,78,19,55,15,30,23,6,41,60,63,76,53,10,46,42,31,14,61,39,73,28,58,2,9,20,8,45,50,75,16,57,1,59,74,18,27,47,44,69,56,51,79,29,43",,,,,,,,,,
land,196,607611,0.0-60.0-2.0,"""event"",""trial"",""time""
""fullscreenenter"",""1"",""1461""
","
","
","""event"",""trial"",""time""
""fullscreenenter"",""1"",""1461""
","
",,null,run_exp/static/images/task_images/land.jpg,null,,,,,,,96,,,11,,,,,,,,,,,,,,
dig,197,609622,0.0-60.0-3.0,"""event"",""trial"",""time""
""fullscreenenter"",""1"",""1461""
","
","
","""event"",""trial"",""time""
""fullscreenenter"",""1"",""1461""
","
",,,,,,,,,,,,"[{""stimulus"":""run_exp/static/images/task_images/dig.jpg"",""time"":0.4000000059604645},{""stimulus"":""run_exp/static/images/task_images/land.jpg"",""time"":669},{""stimulus"":""run_exp/static/images/task_images/dig.jpg"",""time"":1339.4000000059605}]",[],11,,,,,,,,,,,,,,
harvest,198,610633,0.0-60.0-4.0,"""event"",""trial"",""time""
""fullscreenenter"",""1"",""1461""
","
","
","""event"",""trial"",""time""
""fullscreenenter"",""1"",""1461""
","
",,null,run_exp/static/images/task_images/gems/96.jpg,null,,,,,,,20,,,11,,,,,96,0.205491851,0.208333333,,,,,,,
decision,199,610860,0.0-60.0-5.0,"""event"",""trial"",""time""
""fullscreenenter"",""1"",""1461""
","
","
","""event"",""trial"",""time""
""fullscreenenter"",""1"",""1461""
","
",,225.9,run_exp/static/images/task_images/land.jpg,76,,,,,,,20,,,11,,,,,,,,278863,1,0,TRUE,,,
travel,200,620640,0.0-61.0-0.0,"""event"",""trial"",""time""
""fullscreenenter"",""1"",""1461""
","
","
","""event"",""trial"",""time""
""fullscreenenter"",""1"",""1461""
","
",,,,,,,,,,,,"[{""stimulus"":""run_exp/static/images/task_images/rocket-01.jpg"",""time"":0.29999998211860657},{""stimulus"":""run_exp/static/images/task_images/rocket-02.jpg"",""time"":1089.9000000059605},{""stimulus"":""run_exp/static/images/task_images/rocket-03.jpg"",""time"":2180.0999999940395},{""stimulus"":""run_exp/static/images/task_images/rocket-04.jpg"",""time"":3266.199999988079},{""stimulus"":""run_exp/static/images/task_images/rocket-05.jpg"",""time"":4356.0999999940395},{""stimulus"":""run_exp/static/images/task_images/rocket-06.jpg"",""time"":5433.5},{""stimulus"":""run_exp/static/images/task_images/rocket-07.jpg"",""time"":6522.799999982119},{""stimulus"":""run_exp/static/images/task_images/rocket-08.jpg"",""time"":7612.299999982119},{""stimulus"":""run_exp/static/images/task_images/rocket-09.jpg"",""time"":8702.59999999404}]",[],11,,,,,,,,,,,,,,
alien_welcome,201,625656,0.0-61.0-1.0,"""event"",""trial"",""time""
""fullscreenenter"",""1"",""1461""
","
","
","""event"",""trial"",""time""
""fullscreenenter"",""1"",""1461""
","
",,null,run_exp/static/images/task_images/aliens/old_aliens/planet/alien_planet-48.jpg,null,,,,,,,,,,,,,48,"65,25,66,13,40,34,5,71,38,67,62,48,32,52,70,17,22,77,35,80,78,19,55,15,30,23,6,41,60,63,76,53,10,46,42,31,14,61,39,73,28,58,2,9,20,8,45,50,75,16,57,1,59,74,18,27,47,44,69,56,51,79,29,43",,,,,,,,,,
land,202,626171,0.0-61.0-2.0,"""event"",""trial"",""time""
""fullscreenenter"",""1"",""1461""
","
","
","""event"",""trial"",""time""
""fullscreenenter"",""1"",""1461""
","
",,null,run_exp/static/images/task_images/land.jpg,null,,,,,,,106,,,12,,,,,,,,,,,,,,
dig,203,628181,0.0-61.0-3.0,"""event"",""trial"",""time""
""fullscreenenter"",""1"",""1461""
","
","
","""event"",""trial"",""time""
""fullscreenenter"",""1"",""1461""
","
",,,,,,,,,,,,"[{""stimulus"":""run_exp/static/images/task_images/dig.jpg"",""time"":0.29999998211860657},{""stimulus"":""run_exp/static/images/task_images/land.jpg"",""time"":683.0999999940395},{""stimulus"":""run_exp/static/images/task_images/dig.jpg"",""time"":1339.4000000059605}]",[],12,,,,,,,,,,,,,,
harvest,204,629195,0.0-61.0-4.0,"""event"",""trial"",""time""
""fullscreenenter"",""1"",""1461""
","
","
","""event"",""trial"",""time""
""fullscreenenter"",""1"",""1461""
","
",,null,run_exp/static/images/task_images/gems/106.jpg,null,,,,,,,23,,,12,,,,,106,0.214526396,0.216981132,,,,,,,
decision,205,629570,0.0-61.0-5.0,"""event"",""trial"",""time""
""fullscreenenter"",""1"",""1461""
","
","
","""event"",""trial"",""time""
""fullscreenenter"",""1"",""1461""
","
",,373.3,run_exp/static/images/task_images/land.jpg,76,,,,,,,23,,,12,,,,,,,,297572,1,0,TRUE,,,
travel,206,639198,0.0-62.0-0.0,"""event"",""trial"",""time""
""fullscreenenter"",""1"",""1461""
","
","
","""event"",""trial"",""time""
""fullscreenenter"",""1"",""1461""
","
",,,,,,,,,,,,"[{""stimulus"":""run_exp/static/images/task_images/rocket-01.jpg"",""time"":0.20000001788139343},{""stimulus"":""run_exp/static/images/task_images/rocket-02.jpg"",""time"":1082.5999999940395},{""stimulus"":""run_exp/static/images/task_images/rocket-03.jpg"",""time"":2141.2000000178814},{""stimulus"":""run_exp/static/images/task_images/rocket-04.jpg"",""time"":3215.800000011921},{""stimulus"":""run_exp/static/images/task_images/rocket-05.jpg"",""time"":4292.0999999940395},{""stimulus"":""run_exp/static/images/task_images/rocket-06.jpg"",""time"":5350.5},{""stimulus"":""run_exp/static/images/task_images/rocket-07.jpg"",""time"":6422.0999999940395},{""stimulus"":""run_exp/static/images/task_images/rocket-08.jpg"",""time"":7492.9000000059605},{""stimulus"":""run_exp/static/images/task_images/rocket-09.jpg"",""time"":8566.09999999404}]",[],12,,,,,,,,,,,,,,
alien_welcome,207,644210,0.0-62.0-1.0,"""event"",""trial"",""time""
""fullscreenenter"",""1"",""1461""
","
","
","""event"",""trial"",""time""
""fullscreenenter"",""1"",""1461""
","
",,null,run_exp/static/images/task_images/aliens/old_aliens/planet/alien_planet-32.jpg,null,,,,,,,,,,,,,32,"65,25,66,13,40,34,5,71,38,67,62,48,32,52,70,17,22,77,35,80,78,19,55,15,30,23,6,41,60,63,76,53,10,46,42,31,14,61,39,73,28,58,2,9,20,8,45,50,75,16,57,1,59,74,18,27,47,44,69,56,51,79,29,43",,,,,,,,,,
land,208,644727,0.0-62.0-2.0,"""event"",""trial"",""time""
""fullscreenenter"",""1"",""1461""
","
","
","""event"",""trial"",""time""
""fullscreenenter"",""1"",""1461""
","
",,null,run_exp/static/images/task_images/land.jpg,null,,,,,,,97,,,13,,,,,,,,,,,,,,
dig,209,646732,0.0-62.0-3.0,"""event"",""trial"",""time""
""fullscreenenter"",""1"",""1461""
","
","
","""event"",""trial"",""time""
""fullscreenenter"",""1"",""1461""
","
",,,,,,,,,,,,"[{""stimulus"":""run_exp/static/images/task_images/dig.jpg"",""time"":0.4000000059604645},{""stimulus"":""run_exp/static/images/task_images/land.jpg"",""time"":681.8000000119209},{""stimulus"":""run_exp/static/images/task_images/dig.jpg"",""time"":1349}]",[],13,,,,,,,,,,,,,,
harvest,210,647748,0.0-62.0-4.0,"""event"",""trial"",""time""
""fullscreenenter"",""1"",""1461""
","
","
","""event"",""trial"",""time""
""fullscreenenter"",""1"",""1461""
","
",,null,run_exp/static/images/task_images/gems/97.jpg,null,,,,,,,15,,,13,,,,,97,0.158512914,0.154639175,,,,,,,
decision,211,648131,0.0-62.0-5.0,"""event"",""trial"",""time""
""fullscreenenter"",""1"",""1461""
","
","
","""event"",""trial"",""time""
""fullscreenenter"",""1"",""1461""
","
",,381.3,run_exp/static/images/task_images/land.jpg,76,,,,,,,15,,,13,,,,,,,,316133,1,0,TRUE,,,
end_of_block_continue,212,652643,0.0-63.0-0.0,"""event"",""trial"",""time""
""fullscreenenter"",""1"",""1461""
","
","
","""event"",""trial"",""time""
""fullscreenenter"",""1"",""1461""
","
",,4508.1,run_exp/static/audio/clip_32_block_end.m4a,,,,,,,0,,,,,,,,,,,,,,,,,,
alien_welcome,213,657660,0.0-64.0-0.0,"""event"",""trial"",""time""
""fullscreenenter"",""1"",""1461""
","
","
","""event"",""trial"",""time""
""fullscreenenter"",""1"",""1461""
","
",,null,run_exp/static/images/task_images/aliens/old_aliens/planet/alien_planet-52.jpg,null,,,,,,,,,,,,,52,"65,25,66,13,40,34,5,71,38,67,62,48,32,52,70,17,22,77,35,80,78,19,55,15,30,23,6,41,60,63,76,53,10,46,42,31,14,61,39,73,28,58,2,9,20,8,45,50,75,16,57,1,59,74,18,27,47,44,69,56,51,79,29,43",,,,,,,,,,
land,214,658175,0.0-64.0-1.0,"""event"",""trial"",""time""
""fullscreenenter"",""1"",""1461""
","
","
","""event"",""trial"",""time""
""fullscreenenter"",""1"",""1461""
","
",,null,run_exp/static/images/task_images/land.jpg,null,,,,,,,104,,,14,,,,,,,,,,,,,,
dig,215,660192,0.0-64.0-2.0,"""event"",""trial"",""time""
""fullscreenenter"",""1"",""1461""
","
","
","""event"",""trial"",""time""
""fullscreenenter"",""1"",""1461""
","
",,,,,,,,,,,,"[{""stimulus"":""run_exp/static/images/task_images/dig.jpg"",""time"":0.4000000059604645},{""stimulus"":""run_exp/static/images/task_images/land.jpg"",""time"":681.9000000059605},{""stimulus"":""run_exp/static/images/task_images/dig.jpg"",""time"":1347.9000000059605}]",[],14,,,,,,,,,,,,,,
harvest,216,661196,0.0-64.0-3.0,"""event"",""trial"",""time""
""fullscreenenter"",""1"",""1461""
","
","
","""event"",""trial"",""time""
""fullscreenenter"",""1"",""1461""
","
",,null,run_exp/static/images/task_images/gems/104.jpg,null,,,,,,,26,,,14,,,,,104,0.249711094,0.25,,,,,,,
decision,217,661631,0.0-64.0-4.0,"""event"",""trial"",""time""
""fullscreenenter"",""1"",""1461""
","
","
","""event"",""trial"",""time""
""fullscreenenter"",""1"",""1461""
","
",,433,run_exp/static/images/task_images/land.jpg,76,,,,,,,26,,,14,,,,,,,,8985,2,0,TRUE,,,
travel,218,671206,0.0-65.0-0.0,"""event"",""trial"",""time""
""fullscreenenter"",""1"",""1461""
","
","
","""event"",""trial"",""time""
""fullscreenenter"",""1"",""1461""
","
",,,,,,,,,,,,"[{""stimulus"":""run_exp/static/images/task_images/rocket-01.jpg"",""time"":0.20000001788139343},{""stimulus"":""run_exp/static/images/task_images/rocket-02.jpg"",""time"":1074.800000011921},{""stimulus"":""run_exp/static/images/task_images/rocket-03.jpg"",""time"":2128},{""stimulus"":""run_exp/static/images/task_images/rocket-04.jpg"",""time"":3200.800000011921},{""stimulus"":""run_exp/static/images/task_images/rocket-05.jpg"",""time"":4267.300000011921},{""stimulus"":""run_exp/static/images/task_images/rocket-06.jpg"",""time"":5329.0999999940395},{""stimulus"":""run_exp/static/images/task_images/rocket-07.jpg"",""time"":6393.9000000059605},{""stimulus"":""run_exp/static/images/task_images/rocket-08.jpg"",""time"":7456.300000011921},{""stimulus"":""run_exp/static/images/task_images/rocket-09.jpg"",""time"":8513.800000011921}]",[],14,,,,,,,,,,,,,,
alien_welcome,219,676214,0.0-65.0-1.0,"""event"",""trial"",""time""
""fullscreenenter"",""1"",""1461""
","
","
","""event"",""trial"",""time""
""fullscreenenter"",""1"",""1461""
","
",,null,run_exp/static/images/task_images/aliens/old_aliens/planet/alien_planet-70.jpg,null,,,,,,,,,,,,,70,"65,25,66,13,40,34,5,71,38,67,62,48,32,52,70,17,22,77,35,80,78,19,55,15,30,23,6,41,60,63,76,53,10,46,42,31,14,61,39,73,28,58,2,9,20,8,45,50,75,16,57,1,59,74,18,27,47,44,69,56,51,79,29,43",,,,,,,,,,
land,220,676726,0.0-65.0-2.0,"""event"",""trial"",""time""
""fullscreenenter"",""1"",""1461""
","
","
","""event"",""trial"",""time""
""fullscreenenter"",""1"",""1461""
","
",,null,run_exp/static/images/task_images/land.jpg,null,,,,,,,108,,,15,,,,,,,,,,,,,,
dig,221,678734,0.0-65.0-3.0,"""event"",""trial"",""time""
""fullscreenenter"",""1"",""1461""
","
","
","""event"",""trial"",""time""
""fullscreenenter"",""1"",""1461""
","
",,,,,,,,,,,,"[{""stimulus"":""run_exp/static/images/task_images/dig.jpg"",""time"":0.4000000059604645},{""stimulus"":""run_exp/static/images/task_images/land.jpg"",""time"":669.4000000059605},{""stimulus"":""run_exp/static/images/task_images/dig.jpg"",""time"":1338.800000011921}]",[],15,,,,,,,,,,,,,,
harvest,222,679747,0.0-65.0-4.0,"""event"",""trial"",""time""
""fullscreenenter"",""1"",""1461""
","
","
","""event"",""trial"",""time""
""fullscreenenter"",""1"",""1461""
","
",,null,run_exp/static/images/task_images/gems/108.jpg,null,,,,,,,17,,,15,,,,,108,0.161054849,0.157407407,,,,,,,
decision,223,680104,0.0-65.0-5.0,"""event"",""trial"",""time""
""fullscreenenter"",""1"",""1461""
","
","
","""event"",""trial"",""time""
""fullscreenenter"",""1"",""1461""
","
",,355.1,run_exp/static/images/task_images/land.jpg,76,,,,,,,17,,,15,,,,,,,,27457,2,0,TRUE,,,
travel,224,689753,0.0-66.0-0.0,"""event"",""trial"",""time""
""fullscreenenter"",""1"",""1461""
","
","
","""event"",""trial"",""time""
""fullscreenenter"",""1"",""1461""
","
",,,,,,,,,,,,"[{""stimulus"":""run_exp/static/images/task_images/rocket-01.jpg"",""time"":0.19999998807907104},{""stimulus"":""run_exp/static/images/task_images/rocket-02.jpg"",""time"":1082.0999999940395},{""stimulus"":""run_exp/static/images/task_images/rocket-03.jpg"",""time"":2156.0999999940395},{""stimulus"":""run_exp/static/images/task_images/rocket-04.jpg"",""time"":3226.199999988079},{""stimulus"":""run_exp/static/images/task_images/rocket-05.jpg"",""time"":4293.0999999940395},{""stimulus"":""run_exp/static/images/task_images/rocket-06.jpg"",""time"":5363.199999988079},{""stimulus"":""run_exp/static/images/task_images/rocket-07.jpg"",""time"":6438.0999999940395},{""stimulus"":""run_exp/static/images/task_images/rocket-08.jpg"",""time"":7512.399999976158},{""stimulus"":""run_exp/static/images/task_images/rocket-09.jpg"",""time"":8570.399999976158}]",[],15,,,,,,,,,,,,,,
alien_welcome,225,694756,0.0-66.0-1.0,"""event"",""trial"",""time""
""fullscreenenter"",""1"",""1461""
","
","
","""event"",""trial"",""time""
""fullscreenenter"",""1"",""1461""
","
",,null,run_exp/static/images/task_images/aliens/old_aliens/planet/alien_planet-17.jpg,null,,,,,,,,,,,,,17,"65,25,66,13,40,34,5,71,38,67,62,48,32,52,70,17,22,77,35,80,78,19,55,15,30,23,6,41,60,63,76,53,10,46,42,31,14,61,39,73,28,58,2,9,20,8,45,50,75,16,57,1,59,74,18,27,47,44,69,56,51,79,29,43",,,,,,,,,,
land,226,695271,0.0-66.0-2.0,"""event"",""trial"",""time""
""fullscreenenter"",""1"",""1461""
","
","
","""event"",""trial"",""time""
""fullscreenenter"",""1"",""1461""
","
",,null,run_exp/static/images/task_images/land.jpg,null,,,,,,,101,,,16,,,,,,,,,,,,,,
dig,227,697287,0.0-66.0-3.0,"""event"",""trial"",""time""
""fullscreenenter"",""1"",""1461""
","
","
","""event"",""trial"",""time""
""fullscreenenter"",""1"",""1461""
","
",,,,,,,,,,,,"[{""stimulus"":""run_exp/static/images/task_images/dig.jpg"",""time"":0.4000000059604645},{""stimulus"":""run_exp/static/images/task_images/land.jpg"",""time"":678.4000000059605},{""stimulus"":""run_exp/static/images/task_images/dig.jpg"",""time"":1348.0999999940395}]",[],16,,,,,,,,,,,,,,
harvest,228,698296,0.0-66.0-4.0,"""event"",""trial"",""time""
""fullscreenenter"",""1"",""1461""
","
","
","""event"",""trial"",""time""
""fullscreenenter"",""1"",""1461""
","
",,null,run_exp/static/images/task_images/gems/101.jpg,null,,,,,,,21,,,16,,,,,101,0.205577486,0.207920792,,,,,,,
decision,229,698832,0.0-66.0-5.0,"""event"",""trial"",""time""
""fullscreenenter"",""1"",""1461""
","
","
","""event"",""trial"",""time""
""fullscreenenter"",""1"",""1461""
","
",,534.1,run_exp/static/images/task_images/land.jpg,76,,,,,,,21,,,16,,,,,,,,46186,2,0,TRUE,,,
travel,230,708305,0.0-67.0-0.0,"""event"",""trial"",""time""
""fullscreenenter"",""1"",""1461""
","
","
","""event"",""trial"",""time""
""fullscreenenter"",""1"",""1461""
","
",,,,,,,,,,,,"[{""stimulus"":""run_exp/static/images/task_images/rocket-01.jpg"",""time"":0.20000001788139343},{""stimulus"":""run_exp/static/images/task_images/rocket-02.jpg"",""time"":1060.800000011921},{""stimulus"":""run_exp/static/images/task_images/rocket-03.jpg"",""time"":2114.9000000059605},{""stimulus"":""run_exp/static/images/task_images/rocket-04.jpg"",""time"":3166.5},{""stimulus"":""run_exp/static/images/task_images/rocket-05.jpg"",""time"":4211},{""stimulus"":""run_exp/static/images/task_images/rocket-06.jpg"",""time"":5266.4000000059605},{""stimulus"":""run_exp/static/images/task_images/rocket-07.jpg"",""time"":6321.200000017881},{""stimulus"":""run_exp/static/images/task_images/rocket-08.jpg"",""time"":7364.800000011921},{""stimulus"":""run_exp/static/images/task_images/rocket-09.jpg"",""time"":8412.200000017881}]",[],16,,,,,,,,,,,,,,
alien_welcome,231,713316,0.0-67.0-1.0,"""event"",""trial"",""time""
""fullscreenenter"",""1"",""1461""
","
","
","""event"",""trial"",""time""
""fullscreenenter"",""1"",""1461""
","
",,null,run_exp/static/images/task_images/aliens/old_aliens/planet/alien_planet-22.jpg,null,,,,,,,,,,,,,22,"65,25,66,13,40,34,5,71,38,67,62,48,32,52,70,17,22,77,35,80,78,19,55,15,30,23,6,41,60,63,76,53,10,46,42,31,14,61,39,73,28,58,2,9,20,8,45,50,75,16,57,1,59,74,18,27,47,44,69,56,51,79,29,43",,,,,,,,,,
land,232,713830,0.0-67.0-2.0,"""event"",""trial"",""time""
""fullscreenenter"",""1"",""1461""
","
","
","""event"",""trial"",""time""
""fullscreenenter"",""1"",""1461""
","
",,null,run_exp/static/images/task_images/land.jpg,null,,,,,,,99,,,17,,,,,,,,,,,,,,
dig,233,715838,0.0-67.0-3.0,"""event"",""trial"",""time""
""fullscreenenter"",""1"",""1461""
","
","
","""event"",""trial"",""time""
""fullscreenenter"",""1"",""1461""
","
",,,,,,,,,,,,"[{""stimulus"":""run_exp/static/images/task_images/dig.jpg"",""time"":0.4000000059604645},{""stimulus"":""run_exp/static/images/task_images/land.jpg"",""time"":681.5},{""stimulus"":""run_exp/static/images/task_images/dig.jpg"",""time"":1337.4000000059605}]",[],17,,,,,,,,,,,,,,
harvest,234,716850,0.0-67.0-4.0,"""event"",""trial"",""time""
""fullscreenenter"",""1"",""1461""
","
","
","""event"",""trial"",""time""
""fullscreenenter"",""1"",""1461""
","
",,null,run_exp/static/images/task_images/gems/99.jpg,null,,,,,,,84,,,17,,,,,99,0.845214716,0.848484848,,,,,,,
