trial_type,trial_index,time_elapsed,internal_node_id,interactions,blur_events,focus_events,fullscreenenter_events,fullscreenexit_events,success,rt,stimulus,key_press,prompt,subject_id,participant_id,age,gender,button_pressed,next_reward,animation_sequence,responses,planet,curr_prac_trial,n_prac_rounds,alien,aliens,reward_received,decay_rate_actual,decay_rate_exp,time_in_block,block_num,prt,last_trial_on_planet,button_html,bonus,num_failures
pavlovia,0,2,0.0-0.0,"""event"",""trial"",""time""
""fullscreenenter"",""1"",""3698""
","
","
","""event"",""trial"",""time""
""fullscreenenter"",""1"",""3698""
","
",,,,,,,,,,,,,,,,,,,,,,,,,,,,
fullscreen,1,4697,0.0-1.0,"""event"",""trial"",""time""
""fullscreenenter"",""1"",""3698""
","
","
","""event"",""trial"",""time""
""fullscreenenter"",""1"",""3698""
","
",TRUE,,,,,,,,,,,,,,,,,,,,,,,,,,,
instruc_welcome,2,14452,0.0-2.0,"""event"",""trial"",""time""
""fullscreenenter"",""1"",""3698""
","
","
","""event"",""trial"",""time""
""fullscreenenter"",""1"",""3698""
","
",,null,run_exp/static/audio/clip_1_welcome.m4a,null,"<p>Howdy! In this experiment, you’ll be an explorer traveling through space to collect space treasure.</p><p>Your mission is to collect as much treasure as possible.</p><br><br><p><img src='run_exp/static/images/task_images/opening_img-01.jpg' height='300' width='auto'></p>",7834,2935,24.7,Female,,,,,,,,,,,,,,,,,,,
audio-keyboard-response,3,31027,0.0-3.0,"""event"",""trial"",""time""
""fullscreenenter"",""1"",""3698""
","
","
","""event"",""trial"",""time""
""fullscreenenter"",""1"",""3698""
","
",,null,run_exp/static/audio/clip_2_move.m4a,null,,,,,,,,,,,,,,,,,,,,,,,,
welcome_dec,4,33073,0.0-4.0,"""event"",""trial"",""time""
""fullscreenenter"",""1"",""3698""
","
","
","""event"",""trial"",""time""
""fullscreenenter"",""1"",""3698""
","
",,2042.5,"<p>Howdy! In this experiment, you’ll be an explorer traveling through space to collect space treasure.</p><p>Your mission is to collect as much treasure as possible.</p><br><br><p><img src='run_exp/static/images/task_images/opening_img-01.jpg' height='300' width='auto'></p>",,,,,,,1,,,,,,,,,,,,,,,,,,
html-keyboard-response,5,33815,0.0-5.0,"""event"",""trial"",""time""
""fullscreenenter"",""1"",""3698""
","
","
","""event"",""trial"",""time""
""fullscreenenter"",""1"",""3698""
","
",,738.8,"<p>Howdy! In this experiment, you’ll be an explorer traveling through space to collect space treasure.</p><p>Your mission is to collect as much treasure as possible.</p><br><br><p><img src='run_exp/static/images/task_images/opening_img-01.jpg' height='300' width='auto'></p><button class=""jspsych-html-btn-unchosen""><img src=""run_exp/static/images/task_images/planet-01.jpg"" height=""50""></button><button class=""jspsych-html-btn-chosen""><img src=""run_exp/static/images/task_images/planet-02.jpg"" height=""50""></button><p><b>[press the space bar to lock in your answer]<b><br></p>",32,,,,,,,,,,,,,,,,,,,,,,,,
instruc_goal,6,43870,0.0-6.0-0.0,"""event"",""trial"",""time""
""fullscreenenter"",""1"",""3698""
","
","
","""event"",""trial"",""time""
""fullscreenenter"",""1"",""3698""
","
",,null,run_exp/static/audio/clip_3_goal.m4a,null,"<p> As a space explorer, you’ll visit different planets to dig for space treasure, these pink gems.</p> <p> The more treasure you dig up, the more bonus money you’ll win! </p><br><br><p><img src='run_exp/static/images/task_images/pink_gem.jpg' height='300' width='auto'></p>",,,,,,,,,,,,,,,,,,,,,,,
instruc_goal,7,46717,0.0-6.0-1.0,"""event"",""trial"",""time""
""fullscreenenter"",""1"",""3698""
","
","
","""event"",""trial"",""time""
""fullscreenenter"",""1"",""3698""
","
",,2844.2,"<p> As a space explorer, you’ll visit different planets to dig for space treasure, these pink gems.</p> <p> The more treasure you dig up, the more bonus money you’ll win! </p><br><br><p><img src='run_exp/static/images/task_images/pink_gem.jpg' height='300' width='auto'></p>",,,,,,,1,,,,,,,,,,,,,,,,,,
html-keyboard-response,8,47320,0.0-6.0-2.0,"""event"",""trial"",""time""
""fullscreenenter"",""1"",""3698""
","
","
","""event"",""trial"",""time""
""fullscreenenter"",""1"",""3698""
","
",,600.5,"<p> As a space explorer, you’ll visit different planets to dig for space treasure, these pink gems.</p> <p> The more treasure you dig up, the more bonus money you’ll win! </p><br><br><p><img src='run_exp/static/images/task_images/pink_gem.jpg' height='300' width='auto'></p><button class=""jspsych-html-btn-unchosen""><img src=""run_exp/static/images/task_images/planet-01.jpg"" height=""50""></button><button class=""jspsych-html-btn-chosen""><img src=""run_exp/static/images/task_images/planet-02.jpg"" height=""50""></button><p><b>[press the space bar to lock in your answer]<b><br></p>",32,,,,,,,,,,,,,,,,,,,,,,,,
instruc_dig,9,63326,0.0-7.0-0.0,"""event"",""trial"",""time""
""fullscreenenter"",""1"",""3698""
","
","
","""event"",""trial"",""time""
""fullscreenenter"",""1"",""3698""
","
",,null,run_exp/static/audio/clip_4_dig.m4a,null,,,,,,,100,,,,,,,,,,,,,,,,,
instruc_dig_try,10,63837,0.0-7.0-1.0,"""event"",""trial"",""time""
""fullscreenenter"",""1"",""3698""
","
","
","""event"",""trial"",""time""
""fullscreenenter"",""1"",""3698""
","
",,508.4,"<p> When you’ve arrived at a new planet, you will dig once. </p> <p>Then, you get to decide if you want to stay on the planet and dig again or travel to a new planet and dig there.</p> <p> To stay and dig, press the letter <strong>‘A’</strong> on your keyboard. Try pressing it now! </p><p><img src='run_exp/static/images/task_images/land.jpg'  height='700' width='auto'></p>",65,"<p> When you’ve arrived at a new planet, you will dig once. </p> <p>Then, you get to decide if you want to stay on the planet and dig again or travel to a new planet and dig there.</p> <p> To stay and dig, press the letter <strong>‘A’</strong> on your keyboard. Try pressing it now! </p><p><img src='run_exp/static/images/task_images/land.jpg'  height='700' width='auto'></p>",,,,,,100,,,,,,,,,,,,,,,,,
dig_prac,11,65852,0.0-7.0-2.0,"""event"",""trial"",""time""
""fullscreenenter"",""1"",""3698""
","
","
","""event"",""trial"",""time""
""fullscreenenter"",""1"",""3698""
","
",,,,,,,,,,,,"[{""stimulus"":""run_exp/static/images/task_images/dig.jpg"",""time"":0.599999999627471},{""stimulus"":""run_exp/static/images/task_images/land.jpg"",""time"":676.7000000001863},{""stimulus"":""run_exp/static/images/task_images/dig.jpg"",""time"":1342.2000000001863}]",[],,,,,,,,,,,,,,,
instruc_travel,12,102089,0.0-7.0-3.0,"""event"",""trial"",""time""
""fullscreenenter"",""1"",""3698""
","
","
","""event"",""trial"",""time""
""fullscreenenter"",""1"",""3698""
","
",,null,run_exp/static/audio/clip_5_travel.m4a,null,"<p>Every time you dig up gems, there are less gems on the planet, so the more you dig on a planet the fewer gems you’ll get with each dig.</p><p>When gems are running low, you may want to travel to a new planet. </p> <p>  Planets are very far apart in this galaxy, so it will take some time to travel between them. </p> <br><p>There are lots and lots of planets for you to visit, so you won’t be able to return to any planets you’ve seen before. </p><br><p>To leave this planet and travel to a new one, press the letter <strong>‘L’</strong> on your keyboard. Try pressing it now! </p><p><img src='run_exp/static/images/task_images/rocket-01.jpg'  height='600' width='auto'></p>",,,,,,,,,,,,,,,,,,,,,,,
instruc_travel_try,13,104120,0.0-7.0-4.0,"""event"",""trial"",""time""
""fullscreenenter"",""1"",""3698""
","
","
","""event"",""trial"",""time""
""fullscreenenter"",""1"",""3698""
","
",,2028.4,"<p>Every time you dig up gems, there are less gems on the planet, so the more you dig on a planet the fewer gems you’ll get with each dig.</p><p>When gems are running low, you may want to travel to a new planet. </p> <p>  Planets are very far apart in this galaxy, so it will take some time to travel between them. </p> <br><p>There are lots and lots of planets for you to visit, so you won’t be able to return to any planets you’ve seen before. </p><br><p>To leave this planet and travel to a new one, press the letter <strong>‘L’</strong> on your keyboard. Try pressing it now! </p><p><img src='run_exp/static/images/task_images/rocket-01.jpg'  height='600' width='auto'></p>",76,"<p>Every time you dig up gems, there are less gems on the planet, so the more you dig on a planet the fewer gems you’ll get with each dig.</p><p>When gems are running low, you may want to travel to a new planet. </p> <p>  Planets are very far apart in this galaxy, so it will take some time to travel between them. </p> <br><p>There are lots and lots of planets for you to visit, so you won’t be able to return to any planets you’ve seen before. </p><br><p>To leave this planet and travel to a new one, press the letter <strong>‘L’</strong> on your keyboard. Try pressing it now! </p><p><img src='run_exp/static/images/task_images/rocket-01.jpg'  height='600' width='auto'></p>",,,,,,,,,,,,,,,,,,,,,,,
travel_prac,14,114130,0.0-7.0-5.0,"""event"",""trial"",""time""
""fullscreenenter"",""1"",""3698""
","
","
","""event"",""trial"",""time""
""fullscreenenter"",""1"",""3698""
","
",,,,,,,,,,,,"[{""stimulus"":""run_exp/static/images/task_images/rocket-01.jpg"",""time"":0.5},{""stimulus"":""run_exp/static/images/task_images/rocket-02.jpg"",""time"":1123.0999999996275},{""stimulus"":""run_exp/static/images/task_images/rocket-03.jpg"",""time"":2232.7999999998137},{""stimulus"":""run_exp/static/images/task_images/rocket-04.jpg"",""time"":3347.0999999996275},{""stimulus"":""run_exp/static/images/task_images/rocket-05.jpg"",""time"":4446.699999999255},{""stimulus"":""run_exp/static/images/task_images/rocket-06.jpg"",""time"":5560.799999999814},{""stimulus"":""run_exp/static/images/task_images/rocket-07.jpg"",""time"":6672.799999999814},{""stimulus"":""run_exp/static/images/task_images/rocket-08.jpg"",""time"":7784.799999999814},{""stimulus"":""run_exp/static/images/task_images/rocket-09.jpg"",""time"":8895.099999999627}]",[],0,,,,,,,,,,,,,,
instruc_alien_greet,15,141322,0.0-7.0-6.0,"""event"",""trial"",""time""
""fullscreenenter"",""1"",""3698""
","
","
","""event"",""trial"",""time""
""fullscreenenter"",""1"",""3698""
","
",,null,run_exp/static/audio/clip_6_alien.m4a,null,"<p>When you arrive at a new planet, the alien who owns the treasure mine on that planet will greet you!</p><p>The better an alien takes care of their mine the easier it is to dig for gems. Some aliens take better care of their mine than others. So, you won’t get exactly the same amount of gems on each planet.</p><p>What the alien looks like does not tell you anything about how many gems there are on the planet.</p><br><p><img src=""run_exp/static/images/task_images/aliens/instructions_aliens/planet/alien_planet-1.jpg""  height=""600"" width=""auto""></p>",,,,,,,,,,,,,,,,,,,,,,,
instruc_alien_greet,16,142000,0.0-7.0-7.0,"""event"",""trial"",""time""
""fullscreenenter"",""1"",""3698""
","
","
","""event"",""trial"",""time""
""fullscreenenter"",""1"",""3698""
","
",,675.8,"<p>When you arrive at a new planet, the alien who owns the treasure mine on that planet will greet you!</p><p>The better an alien takes care of their mine the easier it is to dig for gems. Some aliens take better care of their mine than others. So, you won’t get exactly the same amount of gems on each planet.</p><p>What the alien looks like does not tell you anything about how many gems there are on the planet.</p><br><p><img src=""run_exp/static/images/task_images/aliens/instructions_aliens/planet/alien_planet-1.jpg""  height=""600"" width=""auto""></p>",,,,,,,1,,,,,,,,,,,,,,,,,,
html-keyboard-response,17,142463,0.0-7.0-8.0,"""event"",""trial"",""time""
""fullscreenenter"",""1"",""3698""
","
","
","""event"",""trial"",""time""
""fullscreenenter"",""1"",""3698""
","
",,460.3,"<p>When you arrive at a new planet, the alien who owns the treasure mine on that planet will greet you!</p><p>The better an alien takes care of their mine the easier it is to dig for gems. Some aliens take better care of their mine than others. So, you won’t get exactly the same amount of gems on each planet.</p><p>What the alien looks like does not tell you anything about how many gems there are on the planet.</p><br><p><img src=""run_exp/static/images/task_images/aliens/instructions_aliens/planet/alien_planet-1.jpg""  height=""600"" width=""auto""></p><button class=""jspsych-html-btn-unchosen""><img src=""run_exp/static/images/task_images/planet-01.jpg"" height=""50""></button><button class=""jspsych-html-btn-chosen""><img src=""run_exp/static/images/task_images/planet-02.jpg"" height=""50""></button><p><b>[press the space bar to lock in your answer]<b><br></p>",32,,,,,,,,,,,,,,,,,,,,,,,,
time_out,18,153546,0.0-8.0-0.0,"""event"",""trial"",""time""
""fullscreenenter"",""1"",""3698""
","
","
","""event"",""trial"",""time""
""fullscreenenter"",""1"",""3698""
","
",,null,run_exp/static/audio/clip_7_timeout.m4a,null,"<p>If you don't make your choice fast enough, you’ll have to wait a few seconds before you can make another one.</p><p>You can’t dig for more gems or travel to new planets. You just have to sit and wait.</p><br><p><img src='run_exp/static/images/task_images/time_out.jpg'  height='600' width='auto'></p>",,,,,,,,,,,,,,,,,,,,,,,
time_out,19,154555,0.0-8.0-1.0,"""event"",""trial"",""time""
""fullscreenenter"",""1"",""3698""
","
","
","""event"",""trial"",""time""
""fullscreenenter"",""1"",""3698""
","
",,1006.2,"<p>If you don't make your choice fast enough, you’ll have to wait a few seconds before you can make another one.</p><p>You can’t dig for more gems or travel to new planets. You just have to sit and wait.</p><br><p><img src='run_exp/static/images/task_images/time_out.jpg'  height='600' width='auto'></p>",,,,,,,1,,,,,,,,,,,,,,,,,,
html-keyboard-response,20,154939,0.0-8.0-2.0,"""event"",""trial"",""time""
""fullscreenenter"",""1"",""3698""
","
","
","""event"",""trial"",""time""
""fullscreenenter"",""1"",""3698""
","
",,382,"<p>If you don't make your choice fast enough, you’ll have to wait a few seconds before you can make another one.</p><p>You can’t dig for more gems or travel to new planets. You just have to sit and wait.</p><br><p><img src='run_exp/static/images/task_images/time_out.jpg'  height='600' width='auto'></p><button class=""jspsych-html-btn-unchosen""><img src=""run_exp/static/images/task_images/planet-01.jpg"" height=""50""></button><button class=""jspsych-html-btn-chosen""><img src=""run_exp/static/images/task_images/planet-02.jpg"" height=""50""></button><p><b>[press the space bar to lock in your answer]<b><br></p>",32,,,,,,,,,,,,,,,,,,,,,,,,
instruc_break,21,170613,0.0-9.0-0.0,"""event"",""trial"",""time""
""fullscreenenter"",""1"",""3698""
","
","
","""event"",""trial"",""time""
""fullscreenenter"",""1"",""3698""
","
",,null,run_exp/static/audio/clip_8_break.m4a,null,"<p> After digging and traveling for a while, you’ll be able to take a break at home base. </p><p>The game will last 20 minutes no matter what.</p><p>You will visit home base every 5 minutes, so, you will visit home base three times during the game.</p><br><p><img src='run_exp/static/images/task_images/home_base.jpg' height='600' width='auto'></p>",,,,,,,,,,,,,,,,,,,,,,,
instruc_break,22,172103,0.0-9.0-1.0,"""event"",""trial"",""time""
""fullscreenenter"",""1"",""3698""
","
","
","""event"",""trial"",""time""
""fullscreenenter"",""1"",""3698""
","
",,1487.7,"<p> After digging and traveling for a while, you’ll be able to take a break at home base. </p><p>The game will last 20 minutes no matter what.</p><p>You will visit home base every 5 minutes, so, you will visit home base three times during the game.</p><br><p><img src='run_exp/static/images/task_images/home_base.jpg' height='600' width='auto'></p>",,,,,,,1,,,,,,,,,,,,,,,,,,
html-keyboard-response,23,172400,0.0-9.0-2.0,"""event"",""trial"",""time""
""fullscreenenter"",""1"",""3698""
","
","
","""event"",""trial"",""time""
""fullscreenenter"",""1"",""3698""
","
",,294.6,"<p> After digging and traveling for a while, you’ll be able to take a break at home base. </p><p>The game will last 20 minutes no matter what.</p><p>You will visit home base every 5 minutes, so, you will visit home base three times during the game.</p><br><p><img src='run_exp/static/images/task_images/home_base.jpg' height='600' width='auto'></p><button class=""jspsych-html-btn-unchosen""><img src=""run_exp/static/images/task_images/planet-01.jpg"" height=""50""></button><button class=""jspsych-html-btn-chosen""><img src=""run_exp/static/images/task_images/planet-02.jpg"" height=""50""></button><p><b>[press the space bar to lock in your answer]<b><br></p>",32,,,,,,,,,,,,,,,,,,,,,,,,
instruc_prac_game,24,182517,0.0-10.0-0.0,"""event"",""trial"",""time""
""fullscreenenter"",""1"",""3698""
","
","
","""event"",""trial"",""time""
""fullscreenenter"",""1"",""3698""
","
",,null,run_exp/static/audio/clip_9_practice.m4a,null,"<p> Are you ready to play a practice game? </p> <p>In this practice game, you'll be digging up barrels of gems. But, in the real game, you'll be digging up the gems themselves. </p>",,,,,,,,,,,,,,,,,,,,,,,
html-button-response,25,185721,0.0-10.0-1.0,"""event"",""trial"",""time""
""fullscreenenter"",""1"",""3698""
","
","
","""event"",""trial"",""time""
""fullscreenenter"",""1"",""3698""
","
",,3202,"<p> Are you ready to play a practice game? </p> <p>In this practice game, you'll be digging up barrels of gems. But, in the real game, you'll be digging up the gems themselves. </p>",,,,,,,0,,,,,,,,,,,,,,,,,,
alien_welcome_prac,26,190734,0.0-11.0-0.0,"""event"",""trial"",""time""
""fullscreenenter"",""1"",""3698""
","
","
","""event"",""trial"",""time""
""fullscreenenter"",""1"",""3698""
","
",,null,run_exp/static/images/task_images/aliens/practice_aliens/planet/alien_planet-5.jpg,null,,,,,,,,,,,,,,,,,,,,,,,,
land_prac,27,191245,0.0-11.0-1.0,"""event"",""trial"",""time""
""fullscreenenter"",""1"",""3698""
","
","
","""event"",""trial"",""time""
""fullscreenenter"",""1"",""3698""
","
",,null,run_exp/static/images/task_images/land.jpg,null,,,,,,,110,,,0,,,,,,,,,,,,,,
dig_prac,28,193262,0.0-11.0-2.0,"""event"",""trial"",""time""
""fullscreenenter"",""1"",""3698""
","
","
","""event"",""trial"",""time""
""fullscreenenter"",""1"",""3698""
","
",,,,,,,,,,,,"[{""stimulus"":""run_exp/static/images/task_images/dig.jpg"",""time"":0.5},{""stimulus"":""run_exp/static/images/task_images/land.jpg"",""time"":676.6999999992549},{""stimulus"":""run_exp/static/images/task_images/dig.jpg"",""time"":1339.2999999998137}]",[],,,,,,,,,,,,,,,
harvest_prac,29,194268,0.0-11.0-3.0,"""event"",""trial"",""time""
""fullscreenenter"",""1"",""3698""
","
","
","""event"",""trial"",""time""
""fullscreenenter"",""1"",""3698""
","
",,null,run_exp/static/images/task_images/barrel_text.jpg,null,,,,,,,,,,,,,,,,,,,,,,,,
decision_prac,30,194408,0.0-11.0-4.0,"""event"",""trial"",""time""
""fullscreenenter"",""1"",""3698""
","
","
","""event"",""trial"",""time""
""fullscreenenter"",""1"",""3698""
","
",,137.4,run_exp/static/images/task_images/land.jpg,65,,,,,,,,,,,1,,,,,,,,,,,,,
dig_prac,31,196419,0.0-12.0-0.0,"""event"",""trial"",""time""
""fullscreenenter"",""1"",""3698""
","
","
","""event"",""trial"",""time""
""fullscreenenter"",""1"",""3698""
","
",,,,,,,,,,,,"[{""stimulus"":""run_exp/static/images/task_images/dig.jpg"",""time"":0.2999999998137355},{""stimulus"":""run_exp/static/images/task_images/land.jpg"",""time"":670},{""stimulus"":""run_exp/static/images/task_images/dig.jpg"",""time"":1343.699999999255}]",[],,,,,,,,,,,,,,,
harvest_prac,32,197427,0.0-12.0-1.0,"""event"",""trial"",""time""
""fullscreenenter"",""1"",""3698""
","
","
","""event"",""trial"",""time""
""fullscreenenter"",""1"",""3698""
","
",,null,run_exp/static/images/task_images/barrel_text.jpg,null,,,,,,,,,,,,,,,,,,,,,,,,
decision_prac,33,199783,0.0-12.0-2.0,"""event"",""trial"",""time""
""fullscreenenter"",""1"",""3698""
","
","
","""event"",""trial"",""time""
""fullscreenenter"",""1"",""3698""
","
",,2353.2,run_exp/static/images/task_images/land.jpg,65,,,,,,,,,,,2,,,,,,,,,,,,,
dig_prac,34,201795,0.0-13.0-0.0,"""event"",""trial"",""time""
""fullscreenenter"",""1"",""3698""
","
","
","""event"",""trial"",""time""
""fullscreenenter"",""1"",""3698""
","
",,,,,,,,,,,,"[{""stimulus"":""run_exp/static/images/task_images/dig.jpg"",""time"":0.09999999962747097},{""stimulus"":""run_exp/static/images/task_images/land.jpg"",""time"":673.7000000001863},{""stimulus"":""run_exp/static/images/task_images/dig.jpg"",""time"":1337.2999999998137}]",[],,,,,,,,,,,,,,,
harvest_prac,35,202804,0.0-13.0-1.0,"""event"",""trial"",""time""
""fullscreenenter"",""1"",""3698""
","
","
","""event"",""trial"",""time""
""fullscreenenter"",""1"",""3698""
","
",,null,run_exp/static/images/task_images/barrel_text.jpg,null,,,,,,,,,,,,,,,,,,,,,,,,
decision_prac,36,203178,0.0-13.0-2.0,"""event"",""trial"",""time""
""fullscreenenter"",""1"",""3698""
","
","
","""event"",""trial"",""time""
""fullscreenenter"",""1"",""3698""
","
",,373,run_exp/static/images/task_images/land.jpg,65,,,,,,,,,,,3,,,,,,,,,,,,,
dig_prac,37,205187,0.0-14.0-0.0,"""event"",""trial"",""time""
""fullscreenenter"",""1"",""3698""
","
","
","""event"",""trial"",""time""
""fullscreenenter"",""1"",""3698""
","
",,,,,,,,,,,,"[{""stimulus"":""run_exp/static/images/task_images/dig.jpg"",""time"":0.09999999962747097},{""stimulus"":""run_exp/static/images/task_images/land.jpg"",""time"":673.7000000001863},{""stimulus"":""run_exp/static/images/task_images/dig.jpg"",""time"":1335.2999999998137}]",[],,,,,,,,,,,,,,,
harvest_prac,38,206195,0.0-14.0-1.0,"""event"",""trial"",""time""
""fullscreenenter"",""1"",""3698""
","
","
","""event"",""trial"",""time""
""fullscreenenter"",""1"",""3698""
","
",,null,run_exp/static/images/task_images/barrel_text.jpg,null,,,,,,,,,,,,,,,,,,,,,,,,
decision_prac,39,206710,0.0-14.0-2.0,"""event"",""trial"",""time""
""fullscreenenter"",""1"",""3698""
","
","
","""event"",""trial"",""time""
""fullscreenenter"",""1"",""3698""
","
",,512.9,run_exp/static/images/task_images/land.jpg,65,,,,,,,,,,,4,,,,,,,,,,,,,
dig_prac,40,208723,0.0-15.0-0.0,"""event"",""trial"",""time""
""fullscreenenter"",""1"",""3698""
","
","
","""event"",""trial"",""time""
""fullscreenenter"",""1"",""3698""
","
",,,,,,,,,,,,"[{""stimulus"":""run_exp/static/images/task_images/dig.jpg"",""time"":0},{""stimulus"":""run_exp/static/images/task_images/land.jpg"",""time"":673.6999999992549},{""stimulus"":""run_exp/static/images/task_images/dig.jpg"",""time"":1338.5}]",[],,,,,,,,,,,,,,,
harvest_prac,41,209732,0.0-15.0-1.0,"""event"",""trial"",""time""
""fullscreenenter"",""1"",""3698""
","
","
","""event"",""trial"",""time""
""fullscreenenter"",""1"",""3698""
","
",,null,run_exp/static/images/task_images/barrel_text.jpg,null,,,,,,,,,,,,,,,,,,,,,,,,
decision_prac,42,210271,0.0-15.0-2.0,"""event"",""trial"",""time""
""fullscreenenter"",""1"",""3698""
","
","
","""event"",""trial"",""time""
""fullscreenenter"",""1"",""3698""
","
",,537.6,run_exp/static/images/task_images/land.jpg,65,,,,,,,,,,,,1,,,,,,,,,,,,
quiz_instruc,43,214241,0.0-16.0-0.0,"""event"",""trial"",""time""
""fullscreenenter"",""1"",""3698""
","
","
","""event"",""trial"",""time""
""fullscreenenter"",""1"",""3698""
","
",,3965.3,run_exp/static/audio/clip_10_quiz.m4a,,,,,,,0,,,,,,,,,,,,,,,,,,
instruc_repeat,44,256992,0.0-16.0-1.0,"""event"",""trial"",""time""
""fullscreenenter"",""1"",""3698""
","
","
","""event"",""trial"",""time""
""fullscreenenter"",""1"",""3698""
","
",,null,"<p> Are you ready to play a practice game? </p> <p>In this practice game, you'll be digging up barrels of gems. But, in the real game, you'll be digging up the gems themselves. </p>",null,"<p>In this game, your goal is to collect as many gems as you can. That’s how you will win bonus money. </p> <p>The entire game will last 20 minutes no matter how many gems you collect or how many planets you visit. </p><p>To stay on a planet and dig again, press the letter A on your keyboard. To leave for a new planet, press the letter L.</p><p>The more you dig on a planet, the fewer gems you’ll get with each dig which is why you might consider leaving for a new planet. </p><p>When you arrive at a new planet, you’ll be greeted by an alien. What the alien looks like does not tell you anything about how much treasure is on the planet. </p>",,,,,,,,,,,,,,,,,,,,,,,
instruc_repeat_continue,45,258894,0.0-16.0-2.0,"""event"",""trial"",""time""
""fullscreenenter"",""1"",""3698""
","
","
","""event"",""trial"",""time""
""fullscreenenter"",""1"",""3698""
","
",,1899.9,"<p> Are you ready to play a practice game? </p> <p>In this practice game, you'll be digging up barrels of gems. But, in the real game, you'll be digging up the gems themselves. </p>",,,,,,,0,,,,,,,,,,,,,,,,,,
quiz_q_1_ask,46,262200,0.0-16.0-3.0,"""event"",""trial"",""time""
""fullscreenenter"",""1"",""3698""
","
","
","""event"",""trial"",""time""
""fullscreenenter"",""1"",""3698""
","
",,3302.6,run_exp/static/audio/clip_11_q1_ask.m4a,,,,,,,2,,,,,,,,,,,,,,,,,,
quiz_q_1_fb_correct,47,266038,0.0-17.0-0.0,"""event"",""trial"",""time""
""fullscreenenter"",""1"",""3698""
","
","
","""event"",""trial"",""time""
""fullscreenenter"",""1"",""3698""
","
",,null,run_exp/static/audio/clip_12_q1_correct.m4a,null,<p>That’s correct. You win extra money by collecting more gems.</p>,,,,,,,,,,,,,,,,,,,,,,,
quiz_q_2_ask,48,270962,0.0-17.0-1.0,"""event"",""trial"",""time""
""fullscreenenter"",""1"",""3698""
","
","
","""event"",""trial"",""time""
""fullscreenenter"",""1"",""3698""
","
",,4920.8,run_exp/static/audio/clip_14_q2_ask.m4a,,,,,,,1,,,,,,,,,,,,,,,,,,
quiz_q_2_fb_correct,49,274955,0.0-18.0-0.0,"""event"",""trial"",""time""
""fullscreenenter"",""1"",""3698""
","
","
","""event"",""trial"",""time""
""fullscreenenter"",""1"",""3698""
","
",,null,run_exp/static/audio/clip_15_q2_correct.m4a,null,<p>That’s correct. The experiment is 20 minutes no matter what.</p>,,,,,,,,,,,,,,,,,,,,,,,
quiz_q_3_ask,50,278179,0.0-18.0-1.0,"""event"",""trial"",""time""
""fullscreenenter"",""1"",""3698""
","
","
","""event"",""trial"",""time""
""fullscreenenter"",""1"",""3698""
","
",,3221.6,run_exp/static/audio/clip_17_q3_ask.m4a,,,,,,,1,,,,,,,,,,,,,,,,,,
quiz_q_3_fb_correct,51,282145,0.0-19.0-0.0,"""event"",""trial"",""time""
""fullscreenenter"",""1"",""3698""
","
","
","""event"",""trial"",""time""
""fullscreenenter"",""1"",""3698""
","
",,null,run_exp/static/audio/clip_18_q3_correct.m4a,null,<p> That’s correct. You press the letter L to travel to a new planet.</p>,,,,,,,,,,,,,,,,,,,,,,,
quiz_q_4_ask,52,286286,0.0-19.0-1.0,"""event"",""trial"",""time""
""fullscreenenter"",""1"",""3698""
","
","
","""event"",""trial"",""time""
""fullscreenenter"",""1"",""3698""
","
",,4139.1,run_exp/static/audio/clip_20_q4_ask.m4a,,,,,,,0,,,,,,,,,,,,,,,,,,
quiz_q_4_fb_correct,53,291595,0.0-20.0-0.0,"""event"",""trial"",""time""
""fullscreenenter"",""1"",""3698""
","
","
","""event"",""trial"",""time""
""fullscreenenter"",""1"",""3698""
","
",,null,run_exp/static/audio/clip_21_q4_correct.m4a,null,<p> That’s correct. The more you dig on a planet the fewer gems you’ll get with each dig. </p>,,,,,,,,,,,,,,,,,,,,,,,
quiz_q_5_ask,54,294633,0.0-20.0-1.0,"""event"",""trial"",""time""
""fullscreenenter"",""1"",""3698""
","
","
","""event"",""trial"",""time""
""fullscreenenter"",""1"",""3698""
","
",,3033.8,run_exp/static/audio/clip_23_q5_ask.m4a,,,,,,,1,,,,,,,,,,,,,,,,,,
quiz_q_5_fb_correct,55,299638,0.0-21.0-0.0,"""event"",""trial"",""time""
""fullscreenenter"",""1"",""3698""
","
","
","""event"",""trial"",""time""
""fullscreenenter"",""1"",""3698""
","
",,null,run_exp/static/audio/clip_24_q5_correct.m4a,null,<p> That’s correct. The alien tells you nothing about how much treasure is on the planet.</p>,,,,,,,,,,,,,,,,,,,,,,,
quiz_correct,56,303073,0.0-22.0-0.0,"""event"",""trial"",""time""
""fullscreenenter"",""1"",""3698""
","
","
","""event"",""trial"",""time""
""fullscreenenter"",""1"",""3698""
","
",,null,run_exp/static/audio/clip_26_correct_quiz.m4a,null,,,,,,,,,,,,,,,,,,,,,,,,
quiz_correct_continue,57,303928,0.0-22.0-1.0,"""event"",""trial"",""time""
""fullscreenenter"",""1"",""3698""
","
","
","""event"",""trial"",""time""
""fullscreenenter"",""1"",""3698""
","
",,853.7,<p>Good job! You're now ready to move on to the real game!</p>,,,,,,,0,,,,,,,,,,,,,,,,,,
audio-keyboard-response,58,314059,0.0-22.0-2.0,"""event"",""trial"",""time""
""fullscreenenter"",""1"",""3698""
","
","
","""event"",""trial"",""time""
""fullscreenenter"",""1"",""3698""
","
",,null,run_exp/static/audio/clip_28_real_game.m4a,null,,,,,,,,,,,,,,,,,,,,,,,,
instruc_begin_exp_contine,59,315482,0.0-22.0-3.0,"""event"",""trial"",""time""
""fullscreenenter"",""1"",""3698""
","
","
","""event"",""trial"",""time""
""fullscreenenter"",""1"",""3698""
","
",,1419.6,"<p>Now that you know how  to dig for space treasure and travel to new planets,you can start exploring! </p><p>Do you want to go over the instructions again or get started with the real game?</p>",,,,,,,1,,,,,,1,,,,,,,,,,,,
alien_welcome,60,320494,0.0-23.0-0.0,"""event"",""trial"",""time""
""fullscreenenter"",""1"",""3698""
","
","
","""event"",""trial"",""time""
""fullscreenenter"",""1"",""3698""
","
",,null,run_exp/static/images/task_images/aliens/old_aliens/planet/alien_planet-12.jpg,null,,,,,,,,,,,,,12,"12,52,7,9,31,54,22,1,68,76,58,77,74,35,27,30,79,4,10,13,36,75,29,20,18,43,24,26,50,61,8,34,55,15,60,16,49,19,65,48,66,42,32",,,,,,,,,,
land,61,321007,0.0-23.0-1.0,"""event"",""trial"",""time""
""fullscreenenter"",""1"",""3698""
","
","
","""event"",""trial"",""time""
""fullscreenenter"",""1"",""3698""
","
",,null,run_exp/static/images/task_images/land.jpg,null,,,,,,,105,,,1,,,,,,,,,,,,,,
dig,62,323023,0.0-23.0-2.0,"""event"",""trial"",""time""
""fullscreenenter"",""1"",""3698""
","
","
","""event"",""trial"",""time""
""fullscreenenter"",""1"",""3698""
","
",,,,,,,,,,,,"[{""stimulus"":""run_exp/static/images/task_images/dig.jpg"",""time"":0.599999999627471},{""stimulus"":""run_exp/static/images/task_images/land.jpg"",""time"":675.2000000001863},{""stimulus"":""run_exp/static/images/task_images/dig.jpg"",""time"":1341.5999999996275}]",[],1,,,,,,,,,,,,,,
harvest,63,324031,0.0-23.0-3.0,"""event"",""trial"",""time""
""fullscreenenter"",""1"",""3698""
","
","
","""event"",""trial"",""time""
""fullscreenenter"",""1"",""3698""
","
",,null,run_exp/static/images/task_images/gems/105.jpg,null,,,,,,,29,,,1,,,,,105,0.278554286,0.276190476,,,,,,,
decision,64,324185,0.0-23.0-4.0,"""event"",""trial"",""time""
""fullscreenenter"",""1"",""3698""
","
","
","""event"",""trial"",""time""
""fullscreenenter"",""1"",""3698""
","
",,151.2,run_exp/static/images/task_images/land.jpg,65,,,,,,,29,,,1,,,,,,,,8702,1,0,FALSE,,,
dig,65,327044,0.0-24.0-0.0,"""event"",""trial"",""time""
""fullscreenenter"",""1"",""3698""
","
","
","""event"",""trial"",""time""
""fullscreenenter"",""1"",""3698""
","
",,,,,,,,,,,,"[{""stimulus"":""run_exp/static/images/task_images/dig.jpg"",""time"":0.20000000018626451},{""stimulus"":""run_exp/static/images/task_images/land.jpg"",""time"":958.9000000003725},{""stimulus"":""run_exp/static/images/task_images/dig.jpg"",""time"":1902}]",[],1,,,,,,,,,,,,,,
harvest,66,328052,0.0-24.0-1.0,"""event"",""trial"",""time""
""fullscreenenter"",""1"",""3698""
","
","
","""event"",""trial"",""time""
""fullscreenenter"",""1"",""3698""
","
",,null,run_exp/static/images/task_images/gems/29.jpg,null,,,,,,,3,,,1,,,,,29,0.115366627,0.103448276,,,,,,,
decision,67,328186,0.0-24.0-2.0,"""event"",""trial"",""time""
""fullscreenenter"",""1"",""3698""
","
","
","""event"",""trial"",""time""
""fullscreenenter"",""1"",""3698""
","
",,131,run_exp/static/images/task_images/land.jpg,65,,,,,,,3,,,1,,,,,,,,12702,1,1,FALSE,,,
dig,68,331071,0.0-25.0-0.0,"""event"",""trial"",""time""
""fullscreenenter"",""1"",""3698""
","
","
","""event"",""trial"",""time""
""fullscreenenter"",""1"",""3698""
","
",,,,,,,,,,,,"[{""stimulus"":""run_exp/static/images/task_images/dig.jpg"",""time"":0.20000000018626451},{""stimulus"":""run_exp/static/images/task_images/land.jpg"",""time"":967.5},{""stimulus"":""run_exp/static/images/task_images/dig.jpg"",""time"":1921.7999999998137}]",[],1,,,,,,,,,,,,,,
harvest,69,332076,0.0-25.0-1.0,"""event"",""trial"",""time""
""fullscreenenter"",""1"",""3698""
","
","
","""event"",""trial"",""time""
""fullscreenenter"",""1"",""3698""
","
",,null,run_exp/static/images/task_images/gems/3.jpg,null,,,,,,,1,,,1,,,,,3,0.204130665,0.333333333,,,,,,,
decision,70,332258,0.0-25.0-2.0,"""event"",""trial"",""time""
""fullscreenenter"",""1"",""3698""
","
","
","""event"",""trial"",""time""
""fullscreenenter"",""1"",""3698""
","
",,179.5,run_exp/static/images/task_images/land.jpg,76,,,,,,,1,,,1,,,,,,,,16774,1,2,TRUE,,,
travel,71,342084,0.0-26.0-0.0,"""event"",""trial"",""time""
""fullscreenenter"",""1"",""3698""
","
","
","""event"",""trial"",""time""
""fullscreenenter"",""1"",""3698""
","
",,,,,,,,,,,,"[{""stimulus"":""run_exp/static/images/task_images/rocket-01.jpg"",""time"":0.20000000018626451},{""stimulus"":""run_exp/static/images/task_images/rocket-02.jpg"",""time"":1102.2999999998137},{""stimulus"":""run_exp/static/images/task_images/rocket-03.jpg"",""time"":2192.100000000559},{""stimulus"":""run_exp/static/images/task_images/rocket-04.jpg"",""time"":3277.600000000559},{""stimulus"":""run_exp/static/images/task_images/rocket-05.jpg"",""time"":4373.600000000559},{""stimulus"":""run_exp/static/images/task_images/rocket-06.jpg"",""time"":5464.5},{""stimulus"":""run_exp/static/images/task_images/rocket-07.jpg"",""time"":6547.600000000559},{""stimulus"":""run_exp/static/images/task_images/rocket-08.jpg"",""time"":7646.200000000186},{""stimulus"":""run_exp/static/images/task_images/rocket-09.jpg"",""time"":8734}]",[],1,,,,,,,,,,,,,,
alien_welcome,72,347092,0.0-26.0-1.0,"""event"",""trial"",""time""
""fullscreenenter"",""1"",""3698""
","
","
","""event"",""trial"",""time""
""fullscreenenter"",""1"",""3698""
","
",,null,run_exp/static/images/task_images/aliens/old_aliens/planet/alien_planet-52.jpg,null,,,,,,,,,,,,,52,"12,52,7,9,31,54,22,1,68,76,58,77,74,35,27,30,79,4,10,13,36,75,29,20,18,43,24,26,50,61,8,34,55,15,60,16,49,19,65,48,66,42,32",,,,,,,,,,
land,73,347604,0.0-26.0-2.0,"""event"",""trial"",""time""
""fullscreenenter"",""1"",""3698""
","
","
","""event"",""trial"",""time""
""fullscreenenter"",""1"",""3698""
","
",,null,run_exp/static/images/task_images/land.jpg,null,,,,,,,101,,,2,,,,,,,,,,,,,,
dig,74,349611,0.0-26.0-3.0,"""event"",""trial"",""time""
""fullscreenenter"",""1"",""3698""
","
","
","""event"",""trial"",""time""
""fullscreenenter"",""1"",""3698""
","
",,,,,,,,,,,,"[{""stimulus"":""run_exp/static/images/task_images/dig.jpg"",""time"":0.599999999627471},{""stimulus"":""run_exp/static/images/task_images/land.jpg"",""time"":680.4000000003725},{""stimulus"":""run_exp/static/images/task_images/dig.jpg"",""time"":1336.2999999998137}]",[],2,,,,,,,,,,,,,,
harvest,75,350619,0.0-26.0-4.0,"""event"",""trial"",""time""
""fullscreenenter"",""1"",""3698""
","
","
","""event"",""trial"",""time""
""fullscreenenter"",""1"",""3698""
","
",,null,run_exp/static/images/task_images/gems/101.jpg,null,,,,,,,15,,,2,,,,,101,0.146646321,0.148514851,,,,,,,
decision,76,351917,0.0-26.0-5.0,"""event"",""trial"",""time""
""fullscreenenter"",""1"",""3698""
","
","
","""event"",""trial"",""time""
""fullscreenenter"",""1"",""3698""
","
",,1296.2,run_exp/static/images/task_images/land.jpg,65,,,,,,,15,,,2,,,,,,,,36434,1,0,FALSE,,,
dig,77,353631,0.0-27.0-0.0,"""event"",""trial"",""time""
""fullscreenenter"",""1"",""3698""
","
","
","""event"",""trial"",""time""
""fullscreenenter"",""1"",""3698""
","
",,,,,,,,,,,,"[{""stimulus"":""run_exp/static/images/task_images/dig.jpg"",""time"":0.20000000018626451},{""stimulus"":""run_exp/static/images/task_images/land.jpg"",""time"":569.7000000001863},{""stimulus"":""run_exp/static/images/task_images/dig.jpg"",""time"":1139.2999999998137}]",[],2,,,,,,,,,,,,,,
harvest,78,354636,0.0-27.0-1.0,"""event"",""trial"",""time""
""fullscreenenter"",""1"",""3698""
","
","
","""event"",""trial"",""time""
""fullscreenenter"",""1"",""3698""
","
",,null,run_exp/static/images/task_images/gems/15.jpg,null,,,,,,,4,,,2,,,,,15,0.257731547,0.266666667,,,,,,,
decision,79,354972,0.0-27.0-2.0,"""event"",""trial"",""time""
""fullscreenenter"",""1"",""3698""
","
","
","""event"",""trial"",""time""
""fullscreenenter"",""1"",""3698""
","
",,334.4,run_exp/static/images/task_images/land.jpg,76,,,,,,,4,,,2,,,,,,,,39489,1,1,TRUE,,,
travel,80,364644,0.0-28.0-0.0,"""event"",""trial"",""time""
""fullscreenenter"",""1"",""3698""
","
","
","""event"",""trial"",""time""
""fullscreenenter"",""1"",""3698""
","
",,,,,,,,,,,,"[{""stimulus"":""run_exp/static/images/task_images/rocket-01.jpg"",""time"":0.20000000018626451},{""stimulus"":""run_exp/static/images/task_images/rocket-02.jpg"",""time"":1076.3999999994412},{""stimulus"":""run_exp/static/images/task_images/rocket-03.jpg"",""time"":2155.2999999998137},{""stimulus"":""run_exp/static/images/task_images/rocket-04.jpg"",""time"":3230.7000000001863},{""stimulus"":""run_exp/static/images/task_images/rocket-05.jpg"",""time"":4302.5999999996275},{""stimulus"":""run_exp/static/images/task_images/rocket-06.jpg"",""time"":5374.700000000186},{""stimulus"":""run_exp/static/images/task_images/rocket-07.jpg"",""time"":6442.700000000186},{""stimulus"":""run_exp/static/images/task_images/rocket-08.jpg"",""time"":7518.5999999996275},{""stimulus"":""run_exp/static/images/task_images/rocket-09.jpg"",""time"":8589.599999999627}]",[],2,,,,,,,,,,,,,,
alien_welcome,81,369652,0.0-28.0-1.0,"""event"",""trial"",""time""
""fullscreenenter"",""1"",""3698""
","
","
","""event"",""trial"",""time""
""fullscreenenter"",""1"",""3698""
","
",,null,run_exp/static/images/task_images/aliens/old_aliens/planet/alien_planet-7.jpg,null,,,,,,,,,,,,,7,"12,52,7,9,31,54,22,1,68,76,58,77,74,35,27,30,79,4,10,13,36,75,29,20,18,43,24,26,50,61,8,34,55,15,60,16,49,19,65,48,66,42,32",,,,,,,,,,
land,82,370164,0.0-28.0-2.0,"""event"",""trial"",""time""
""fullscreenenter"",""1"",""3698""
","
","
","""event"",""trial"",""time""
""fullscreenenter"",""1"",""3698""
","
",,null,run_exp/static/images/task_images/land.jpg,null,,,,,,,97,,,3,,,,,,,,,,,,,,
dig,83,372175,0.0-28.0-3.0,"""event"",""trial"",""time""
""fullscreenenter"",""1"",""3698""
","
","
","""event"",""trial"",""time""
""fullscreenenter"",""1"",""3698""
","
",,,,,,,,,,,,"[{""stimulus"":""run_exp/static/images/task_images/dig.jpg"",""time"":0.599999999627471},{""stimulus"":""run_exp/static/images/task_images/land.jpg"",""time"":680.5},{""stimulus"":""run_exp/static/images/task_images/dig.jpg"",""time"":1341.0999999996275}]",[],3,,,,,,,,,,,,,,
harvest,84,373180,0.0-28.0-4.0,"""event"",""trial"",""time""
""fullscreenenter"",""1"",""3698""
","
","
","""event"",""trial"",""time""
""fullscreenenter"",""1"",""3698""
","
",,null,run_exp/static/images/task_images/gems/97.jpg,null,,,,,,,53,,,3,,,,,97,0.547836819,0.546391753,,,,,,,
decision,85,373965,0.0-28.0-5.0,"""event"",""trial"",""time""
""fullscreenenter"",""1"",""3698""
","
","
","""event"",""trial"",""time""
""fullscreenenter"",""1"",""3698""
","
",,782.9,run_exp/static/images/task_images/land.jpg,65,,,,,,,53,,,3,,,,,,,,58482,1,0,FALSE,,,
dig,86,376196,0.0-29.0-0.0,"""event"",""trial"",""time""
""fullscreenenter"",""1"",""3698""
","
","
","""event"",""trial"",""time""
""fullscreenenter"",""1"",""3698""
","
",,,,,,,,,,,,"[{""stimulus"":""run_exp/static/images/task_images/dig.jpg"",""time"":0.20000000018626451},{""stimulus"":""run_exp/static/images/task_images/land.jpg"",""time"":749.9000000003725},{""stimulus"":""run_exp/static/images/task_images/dig.jpg"",""time"":1486}]",[],3,,,,,,,,,,,,,,
harvest,87,377204,0.0-29.0-1.0,"""event"",""trial"",""time""
""fullscreenenter"",""1"",""3698""
","
","
","""event"",""trial"",""time""
""fullscreenenter"",""1"",""3698""
","
",,null,run_exp/static/images/task_images/gems/53.jpg,null,,,,,,,22,,,3,,,,,53,0.410052266,0.41509434,,,,,,,
decision,88,377493,0.0-29.0-2.0,"""event"",""trial"",""time""
""fullscreenenter"",""1"",""3698""
","
","
","""event"",""trial"",""time""
""fullscreenenter"",""1"",""3698""
","
",,286.2,run_exp/static/images/task_images/land.jpg,65,,,,,,,22,,,3,,,,,,,,62009,1,1,FALSE,,,
dig,89,380212,0.0-30.0-0.0,"""event"",""trial"",""time""
""fullscreenenter"",""1"",""3698""
","
","
","""event"",""trial"",""time""
""fullscreenenter"",""1"",""3698""
","
",,,,,,,,,,,,"[{""stimulus"":""run_exp/static/images/task_images/dig.jpg"",""time"":0.2999999998137355},{""stimulus"":""run_exp/static/images/task_images/land.jpg"",""time"":907.9000000003725},{""stimulus"":""run_exp/static/images/task_images/dig.jpg"",""time"":1814.2999999998137}]",[],3,,,,,,,,,,,,,,
harvest,90,381221,0.0-30.0-1.0,"""event"",""trial"",""time""
""fullscreenenter"",""1"",""3698""
","
","
","""event"",""trial"",""time""
""fullscreenenter"",""1"",""3698""
","
",,null,run_exp/static/images/task_images/gems/22.jpg,null,,,,,,,13,,,3,,,,,22,0.593230246,0.590909091,,,,,,,
decision,91,381490,0.0-30.0-2.0,"""event"",""trial"",""time""
""fullscreenenter"",""1"",""3698""
","
","
","""event"",""trial"",""time""
""fullscreenenter"",""1"",""3698""
","
",,267.4,run_exp/static/images/task_images/land.jpg,76,,,,,,,13,,,3,,,,,,,,66006,1,2,TRUE,,,
travel,92,391231,0.0-31.0-0.0,"""event"",""trial"",""time""
""fullscreenenter"",""1"",""3698""
","
","
","""event"",""trial"",""time""
""fullscreenenter"",""1"",""3698""
","
",,,,,,,,,,,,"[{""stimulus"":""run_exp/static/images/task_images/rocket-01.jpg"",""time"":0.20000000018626451},{""stimulus"":""run_exp/static/images/task_images/rocket-02.jpg"",""time"":1086.5},{""stimulus"":""run_exp/static/images/task_images/rocket-03.jpg"",""time"":2164.7999999998137},{""stimulus"":""run_exp/static/images/task_images/rocket-04.jpg"",""time"":3256.9000000003725},{""stimulus"":""run_exp/static/images/task_images/rocket-05.jpg"",""time"":4334.299999999814},{""stimulus"":""run_exp/static/images/task_images/rocket-06.jpg"",""time"":5412.9000000003725},{""stimulus"":""run_exp/static/images/task_images/rocket-07.jpg"",""time"":6494.5},{""stimulus"":""run_exp/static/images/task_images/rocket-08.jpg"",""time"":7574},{""stimulus"":""run_exp/static/images/task_images/rocket-09.jpg"",""time"":8654.5}]",[],3,,,,,,,,,,,,,,
alien_welcome,93,396238,0.0-31.0-1.0,"""event"",""trial"",""time""
""fullscreenenter"",""1"",""3698""
","
","
","""event"",""trial"",""time""
""fullscreenenter"",""1"",""3698""
","
",,null,run_exp/static/images/task_images/aliens/old_aliens/planet/alien_planet-9.jpg,null,,,,,,,,,,,,,9,"12,52,7,9,31,54,22,1,68,76,58,77,74,35,27,30,79,4,10,13,36,75,29,20,18,43,24,26,50,61,8,34,55,15,60,16,49,19,65,48,66,42,32",,,,,,,,,,
land,94,396747,0.0-31.0-2.0,"""event"",""trial"",""time""
""fullscreenenter"",""1"",""3698""
","
","
","""event"",""trial"",""time""
""fullscreenenter"",""1"",""3698""
","
",,null,run_exp/static/images/task_images/land.jpg,null,,,,,,,97,,,4,,,,,,,,,,,,,,
dig,95,398757,0.0-31.0-3.0,"""event"",""trial"",""time""
""fullscreenenter"",""1"",""3698""
","
","
","""event"",""trial"",""time""
""fullscreenenter"",""1"",""3698""
","
",,,,,,,,,,,,"[{""stimulus"":""run_exp/static/images/task_images/dig.jpg"",""time"":0.6000000005587935},{""stimulus"":""run_exp/static/images/task_images/land.jpg"",""time"":674.2000000001863},{""stimulus"":""run_exp/static/images/task_images/dig.jpg"",""time"":1335.7999999998137}]",[],4,,,,,,,,,,,,,,
harvest,96,399765,0.0-31.0-4.0,"""event"",""trial"",""time""
""fullscreenenter"",""1"",""3698""
","
","
","""event"",""trial"",""time""
""fullscreenenter"",""1"",""3698""
","
",,null,run_exp/static/images/task_images/gems/97.jpg,null,,,,,,,39,,,4,,,,,97,0.40190295,0.402061856,,,,,,,
decision,97,399780,0.0-31.0-5.0,"""event"",""trial"",""time""
""fullscreenenter"",""1"",""3698""
","
","
","""event"",""trial"",""time""
""fullscreenenter"",""1"",""3698""
","
",,13.6,run_exp/static/images/task_images/land.jpg,65,,,,,,,39,,,4,,,,,,,,84296,1,0,FALSE,,,
dig,98,402773,0.0-32.0-0.0,"""event"",""trial"",""time""
""fullscreenenter"",""1"",""3698""
","
","
","""event"",""trial"",""time""
""fullscreenenter"",""1"",""3698""
","
",,,,,,,,,,,,"[{""stimulus"":""run_exp/static/images/task_images/dig.jpg"",""time"":0.09999999962747097},{""stimulus"":""run_exp/static/images/task_images/land.jpg"",""time"":1006.0999999996275},{""stimulus"":""run_exp/static/images/task_images/dig.jpg"",""time"":1998.2000000001863}]",[],4,,,,,,,,,,,,,,
harvest,99,403781,0.0-32.0-1.0,"""event"",""trial"",""time""
""fullscreenenter"",""1"",""3698""
","
","
","""event"",""trial"",""time""
""fullscreenenter"",""1"",""3698""
","
",,null,run_exp/static/images/task_images/gems/39.jpg,null,,,,,,,16,,,4,,,,,39,0.413562461,0.41025641,,,,,,,
decision,100,403982,0.0-32.0-2.0,"""event"",""trial"",""time""
""fullscreenenter"",""1"",""3698""
","
","
","""event"",""trial"",""time""
""fullscreenenter"",""1"",""3698""
","
",,198.7,run_exp/static/images/task_images/land.jpg,65,,,,,,,16,,,4,,,,,,,,88498,1,1,FALSE,,,
dig,101,406799,0.0-33.0-0.0,"""event"",""trial"",""time""
""fullscreenenter"",""1"",""3698""
","
","
","""event"",""trial"",""time""
""fullscreenenter"",""1"",""3698""
","
",,,,,,,,,,,,"[{""stimulus"":""run_exp/static/images/task_images/dig.jpg"",""time"":0.20000000018626451},{""stimulus"":""run_exp/static/images/task_images/land.jpg"",""time"":940},{""stimulus"":""run_exp/static/images/task_images/dig.jpg"",""time"":1873.800000000745}]",[],4,,,,,,,,,,,,,,
harvest,102,407807,0.0-33.0-1.0,"""event"",""trial"",""time""
""fullscreenenter"",""1"",""3698""
","
","
","""event"",""trial"",""time""
""fullscreenenter"",""1"",""3698""
","
",,null,run_exp/static/images/task_images/gems/16.jpg,null,,,,,,,7,,,4,,,,,16,0.427014073,0.4375,,,,,,,
decision,103,408380,0.0-33.0-2.0,"""event"",""trial"",""time""
""fullscreenenter"",""1"",""3698""
","
","
","""event"",""trial"",""time""
""fullscreenenter"",""1"",""3698""
","
",,570.9,run_exp/static/images/task_images/land.jpg,76,,,,,,,7,,,4,,,,,,,,92896,1,2,TRUE,,,
travel,104,417813,0.0-34.0-0.0,"""event"",""trial"",""time""
""fullscreenenter"",""1"",""3698""
","
","
","""event"",""trial"",""time""
""fullscreenenter"",""1"",""3698""
","
",,,,,,,,,,,,"[{""stimulus"":""run_exp/static/images/task_images/rocket-01.jpg"",""time"":0.19999999925494194},{""stimulus"":""run_exp/static/images/task_images/rocket-02.jpg"",""time"":1055.7999999998137},{""stimulus"":""run_exp/static/images/task_images/rocket-03.jpg"",""time"":2101.0999999996275},{""stimulus"":""run_exp/static/images/task_images/rocket-04.jpg"",""time"":3147.7999999998137},{""stimulus"":""run_exp/static/images/task_images/rocket-05.jpg"",""time"":4196.899999999441},{""stimulus"":""run_exp/static/images/task_images/rocket-06.jpg"",""time"":5247.5},{""stimulus"":""run_exp/static/images/task_images/rocket-07.jpg"",""time"":6293},{""stimulus"":""run_exp/static/images/task_images/rocket-08.jpg"",""time"":7333.0999999996275},{""stimulus"":""run_exp/static/images/task_images/rocket-09.jpg"",""time"":8383.5}]",[],4,,,,,,,,,,,,,,
alien_welcome,105,422821,0.0-34.0-1.0,"""event"",""trial"",""time""
""fullscreenenter"",""1"",""3698""
","
","
","""event"",""trial"",""time""
""fullscreenenter"",""1"",""3698""
","
",,null,run_exp/static/images/task_images/aliens/old_aliens/planet/alien_planet-31.jpg,null,,,,,,,,,,,,,31,"12,52,7,9,31,54,22,1,68,76,58,77,74,35,27,30,79,4,10,13,36,75,29,20,18,43,24,26,50,61,8,34,55,15,60,16,49,19,65,48,66,42,32",,,,,,,,,,
land,106,423333,0.0-34.0-2.0,"""event"",""trial"",""time""
""fullscreenenter"",""1"",""3698""
","
","
","""event"",""trial"",""time""
""fullscreenenter"",""1"",""3698""
","
",,null,run_exp/static/images/task_images/land.jpg,null,,,,,,,100,,,5,,,,,,,,,,,,,,
dig,107,425339,0.0-34.0-3.0,"""event"",""trial"",""time""
""fullscreenenter"",""1"",""3698""
","
","
","""event"",""trial"",""time""
""fullscreenenter"",""1"",""3698""
","
",,,,,,,,,,,,"[{""stimulus"":""run_exp/static/images/task_images/dig.jpg"",""time"":0.6999999992549419},{""stimulus"":""run_exp/static/images/task_images/land.jpg"",""time"":680.0999999996275},{""stimulus"":""run_exp/static/images/task_images/dig.jpg"",""time"":1341.8999999994412}]",[],5,,,,,,,,,,,,,,
harvest,108,426346,0.0-34.0-4.0,"""event"",""trial"",""time""
""fullscreenenter"",""1"",""3698""
","
","
","""event"",""trial"",""time""
""fullscreenenter"",""1"",""3698""
","
",,null,run_exp/static/images/task_images/gems/100.jpg,null,,,,,,,54,,,5,,,,,100,0.540949841,0.54,,,,,,,
decision,109,426619,0.0-34.0-5.0,"""event"",""trial"",""time""
""fullscreenenter"",""1"",""3698""
","
","
","""event"",""trial"",""time""
""fullscreenenter"",""1"",""3698""
","
",,270.1,run_exp/static/images/task_images/land.jpg,65,,,,,,,54,,,5,,,,,,,,111135,1,0,FALSE,,,
dig,110,429359,0.0-35.0-0.0,"""event"",""trial"",""time""
""fullscreenenter"",""1"",""3698""
","
","
","""event"",""trial"",""time""
""fullscreenenter"",""1"",""3698""
","
",,,,,,,,,,,,"[{""stimulus"":""run_exp/static/images/task_images/dig.jpg"",""time"":0.30000000074505806},{""stimulus"":""run_exp/static/images/task_images/land.jpg"",""time"":918.5},{""stimulus"":""run_exp/static/images/task_images/dig.jpg"",""time"":1824.9000000003725}]",[],5,,,,,,,,,,,,,,
harvest,111,430367,0.0-35.0-1.0,"""event"",""trial"",""time""
""fullscreenenter"",""1"",""3698""
","
","
","""event"",""trial"",""time""
""fullscreenenter"",""1"",""3698""
","
",,null,run_exp/static/images/task_images/gems/54.jpg,null,,,,,,,27,,,5,,,,,54,0.502753801,0.5,,,,,,,
decision,112,430403,0.0-35.0-2.0,"""event"",""trial"",""time""
""fullscreenenter"",""1"",""3698""
","
","
","""event"",""trial"",""time""
""fullscreenenter"",""1"",""3698""
","
",,34,run_exp/static/images/task_images/land.jpg,65,,,,,,,27,,,5,,,,,,,,114920,1,1,FALSE,,,
dig,113,433381,0.0-36.0-0.0,"""event"",""trial"",""time""
""fullscreenenter"",""1"",""3698""
","
","
","""event"",""trial"",""time""
""fullscreenenter"",""1"",""3698""
","
",,,,,,,,,,,,"[{""stimulus"":""run_exp/static/images/task_images/dig.jpg"",""time"":0.2999999998137355},{""stimulus"":""run_exp/static/images/task_images/land.jpg"",""time"":1000.4000000003725},{""stimulus"":""run_exp/static/images/task_images/dig.jpg"",""time"":1982}]",[],5,,,,,,,,,,,,,,
harvest,114,434389,0.0-36.0-1.0,"""event"",""trial"",""time""
""fullscreenenter"",""1"",""3698""
","
","
","""event"",""trial"",""time""
""fullscreenenter"",""1"",""3698""
","
",,null,run_exp/static/images/task_images/gems/27.jpg,null,,,,,,,12,,,5,,,,,27,0.44592935,0.444444444,,,,,,,
decision,115,434982,0.0-36.0-2.0,"""event"",""trial"",""time""
""fullscreenenter"",""1"",""3698""
","
","
","""event"",""trial"",""time""
""fullscreenenter"",""1"",""3698""
","
",,591.2,run_exp/static/images/task_images/land.jpg,76,,,,,,,12,,,5,,,,,,,,119499,1,2,TRUE,,,
travel,116,444399,0.0-37.0-0.0,"""event"",""trial"",""time""
""fullscreenenter"",""1"",""3698""
","
","
","""event"",""trial"",""time""
""fullscreenenter"",""1"",""3698""
","
",,,,,,,,,,,,"[{""stimulus"":""run_exp/static/images/task_images/rocket-01.jpg"",""time"":0.19999999925494194},{""stimulus"":""run_exp/static/images/task_images/rocket-02.jpg"",""time"":1050.5999999996275},{""stimulus"":""run_exp/static/images/task_images/rocket-03.jpg"",""time"":2100.899999999441},{""stimulus"":""run_exp/static/images/task_images/rocket-04.jpg"",""time"":3138.399999999441},{""stimulus"":""run_exp/static/images/task_images/rocket-05.jpg"",""time"":4186.799999999814},{""stimulus"":""run_exp/static/images/task_images/rocket-06.jpg"",""time"":5232.0999999996275},{""stimulus"":""run_exp/static/images/task_images/rocket-07.jpg"",""time"":6273.5},{""stimulus"":""run_exp/static/images/task_images/rocket-08.jpg"",""time"":7322.5999999996275},{""stimulus"":""run_exp/static/images/task_images/rocket-09.jpg"",""time"":8370.899999999441}]",[],5,,,,,,,,,,,,,,
alien_welcome,117,449403,0.0-37.0-1.0,"""event"",""trial"",""time""
""fullscreenenter"",""1"",""3698""
","
","
","""event"",""trial"",""time""
""fullscreenenter"",""1"",""3698""
","
",,null,run_exp/static/images/task_images/aliens/old_aliens/planet/alien_planet-54.jpg,null,,,,,,,,,,,,,54,"12,52,7,9,31,54,22,1,68,76,58,77,74,35,27,30,79,4,10,13,36,75,29,20,18,43,24,26,50,61,8,34,55,15,60,16,49,19,65,48,66,42,32",,,,,,,,,,
land,118,449909,0.0-37.0-2.0,"""event"",""trial"",""time""
""fullscreenenter"",""1"",""3698""
","
","
","""event"",""trial"",""time""
""fullscreenenter"",""1"",""3698""
","
",,null,run_exp/static/images/task_images/land.jpg,null,,,,,,,97,,,6,,,,,,,,,,,,,,
dig,119,451915,0.0-37.0-3.0,"""event"",""trial"",""time""
""fullscreenenter"",""1"",""3698""
","
","
","""event"",""trial"",""time""
""fullscreenenter"",""1"",""3698""
","
",,,,,,,,,,,,"[{""stimulus"":""run_exp/static/images/task_images/dig.jpg"",""time"":0.599999999627471},{""stimulus"":""run_exp/static/images/task_images/land.jpg"",""time"":680.4000000003725},{""stimulus"":""run_exp/static/images/task_images/dig.jpg"",""time"":1341.9000000003725}]",[],6,,,,,,,,,,,,,,
harvest,120,452926,0.0-37.0-4.0,"""event"",""trial"",""time""
""fullscreenenter"",""1"",""3698""
","
","
","""event"",""trial"",""time""
""fullscreenenter"",""1"",""3698""
","
",,null,run_exp/static/images/task_images/gems/97.jpg,null,,,,,,,76,,,6,,,,,97,0.782575522,0.783505155,,,,,,,
decision,121,453348,0.0-37.0-5.0,"""event"",""trial"",""time""
""fullscreenenter"",""1"",""3698""
","
","
","""event"",""trial"",""time""
""fullscreenenter"",""1"",""3698""
","
",,419.2,run_exp/static/images/task_images/land.jpg,65,,,,,,,76,,,6,,,,,,,,137864,1,0,FALSE,,,
dig,122,455941,0.0-38.0-0.0,"""event"",""trial"",""time""
""fullscreenenter"",""1"",""3698""
","
","
","""event"",""trial"",""time""
""fullscreenenter"",""1"",""3698""
","
",,,,,,,,,,,,"[{""stimulus"":""run_exp/static/images/task_images/dig.jpg"",""time"":0.20000000018626451},{""stimulus"":""run_exp/static/images/task_images/land.jpg"",""time"":865.9000000003725},{""stimulus"":""run_exp/static/images/task_images/dig.jpg"",""time"":1724.6000000005588}]",[],6,,,,,,,,,,,,,,
harvest,123,456949,0.0-38.0-1.0,"""event"",""trial"",""time""
""fullscreenenter"",""1"",""3698""
","
","
","""event"",""trial"",""time""
""fullscreenenter"",""1"",""3698""
","
",,null,run_exp/static/images/task_images/gems/76.jpg,null,,,,,,,63,,,6,,,,,76,0.834022517,0.828947368,,,,,,,
decision,124,457127,0.0-38.0-2.0,"""event"",""trial"",""time""
""fullscreenenter"",""1"",""3698""
","
","
","""event"",""trial"",""time""
""fullscreenenter"",""1"",""3698""
","
",,175.9,run_exp/static/images/task_images/land.jpg,65,,,,,,,63,,,6,,,,,,,,141643,1,1,FALSE,,,
dig,125,459967,0.0-39.0-0.0,"""event"",""trial"",""time""
""fullscreenenter"",""1"",""3698""
","
","
","""event"",""trial"",""time""
""fullscreenenter"",""1"",""3698""
","
",,,,,,,,,,,,"[{""stimulus"":""run_exp/static/images/task_images/dig.jpg"",""time"":0.10000000055879354},{""stimulus"":""run_exp/static/images/task_images/land.jpg"",""time"":946.2000000001863},{""stimulus"":""run_exp/static/images/task_images/dig.jpg"",""time"":1892.2000000001863}]",[],6,,,,,,,,,,,,,,
harvest,126,460975,0.0-39.0-1.0,"""event"",""trial"",""time""
""fullscreenenter"",""1"",""3698""
","
","
","""event"",""trial"",""time""
""fullscreenenter"",""1"",""3698""
","
",,null,run_exp/static/images/task_images/gems/63.jpg,null,,,,,,,47,,,6,,,,,63,0.741329512,0.746031746,,,,,,,
decision,127,460997,0.0-39.0-2.0,"""event"",""trial"",""time""
""fullscreenenter"",""1"",""3698""
","
","
","""event"",""trial"",""time""
""fullscreenenter"",""1"",""3698""
","
",,19.4,run_exp/static/images/task_images/land.jpg,65,,,,,,,47,,,6,,,,,,,,145513,1,2,FALSE,,,
dig,128,463989,0.0-40.0-0.0,"""event"",""trial"",""time""
""fullscreenenter"",""1"",""3698""
","
","
","""event"",""trial"",""time""
""fullscreenenter"",""1"",""3698""
","
",,,,,,,,,,,,"[{""stimulus"":""run_exp/static/images/task_images/dig.jpg"",""time"":0.09999999962747097},{""stimulus"":""run_exp/static/images/task_images/land.jpg"",""time"":1004.5999999996275},{""stimulus"":""run_exp/static/images/task_images/dig.jpg"",""time"":1996.5}]",[],6,,,,,,,,,,,,,,
harvest,129,464997,0.0-40.0-1.0,"""event"",""trial"",""time""
""fullscreenenter"",""1"",""3698""
","
","
","""event"",""trial"",""time""
""fullscreenenter"",""1"",""3698""
","
",,null,run_exp/static/images/task_images/gems/47.jpg,null,,,,,,,40,,,6,,,,,47,0.841065,0.85106383,,,,,,,
decision,130,465245,0.0-40.0-2.0,"""event"",""trial"",""time""
""fullscreenenter"",""1"",""3698""
","
","
","""event"",""trial"",""time""
""fullscreenenter"",""1"",""3698""
","
",,245.8,run_exp/static/images/task_images/land.jpg,65,,,,,,,40,,,6,,,,,,,,149761,1,3,FALSE,,,
dig,131,468015,0.0-41.0-0.0,"""event"",""trial"",""time""
""fullscreenenter"",""1"",""3698""
","
","
","""event"",""trial"",""time""
""fullscreenenter"",""1"",""3698""
","
",,,,,,,,,,,,"[{""stimulus"":""run_exp/static/images/task_images/dig.jpg"",""time"":0.20000000018626451},{""stimulus"":""run_exp/static/images/task_images/land.jpg"",""time"":926.8000000007451},{""stimulus"":""run_exp/static/images/task_images/dig.jpg"",""time"":1844.6000000005588}]",[],6,,,,,,,,,,,,,,
harvest,132,469023,0.0-41.0-1.0,"""event"",""trial"",""time""
""fullscreenenter"",""1"",""3698""
","
","
","""event"",""trial"",""time""
""fullscreenenter"",""1"",""3698""
","
",,null,run_exp/static/images/task_images/gems/40.jpg,null,,,,,,,33,,,6,,,,,40,0.82302153,0.825,,,,,,,
decision,133,469166,0.0-41.0-2.0,"""event"",""trial"",""time""
""fullscreenenter"",""1"",""3698""
","
","
","""event"",""trial"",""time""
""fullscreenenter"",""1"",""3698""
","
",,140.5,run_exp/static/images/task_images/land.jpg,65,,,,,,,33,,,6,,,,,,,,153682,1,4,FALSE,,,
dig,134,472037,0.0-42.0-0.0,"""event"",""trial"",""time""
""fullscreenenter"",""1"",""3698""
","
","
","""event"",""trial"",""time""
""fullscreenenter"",""1"",""3698""
","
",,,,,,,,,,,,"[{""stimulus"":""run_exp/static/images/task_images/dig.jpg"",""time"":0},{""stimulus"":""run_exp/static/images/task_images/land.jpg"",""time"":955.2999999998137},{""stimulus"":""run_exp/static/images/task_images/dig.jpg"",""time"":1914.7000000001863}]",[],6,,,,,,,,,,,,,,
harvest,135,473045,0.0-42.0-1.0,"""event"",""trial"",""time""
""fullscreenenter"",""1"",""3698""
","
","
","""event"",""trial"",""time""
""fullscreenenter"",""1"",""3698""
","
",,null,run_exp/static/images/task_images/gems/33.jpg,null,,,,,,,27,,,6,,,,,33,0.81372032,0.818181818,,,,,,,
decision,136,473446,0.0-42.0-2.0,"""event"",""trial"",""time""
""fullscreenenter"",""1"",""3698""
","
","
","""event"",""trial"",""time""
""fullscreenenter"",""1"",""3698""
","
",,398.9,run_exp/static/images/task_images/land.jpg,65,,,,,,,27,,,6,,,,,,,,157963,1,5,FALSE,,,
dig,137,476063,0.0-43.0-0.0,"""event"",""trial"",""time""
""fullscreenenter"",""1"",""3698""
","
","
","""event"",""trial"",""time""
""fullscreenenter"",""1"",""3698""
","
",,,,,,,,,,,,"[{""stimulus"":""run_exp/static/images/task_images/dig.jpg"",""time"":0.20000000018626451},{""stimulus"":""run_exp/static/images/task_images/land.jpg"",""time"":874.6000000005588},{""stimulus"":""run_exp/static/images/task_images/dig.jpg"",""time"":1738.7999999998137}]",[],6,,,,,,,,,,,,,,
harvest,138,477069,0.0-43.0-1.0,"""event"",""trial"",""time""
""fullscreenenter"",""1"",""3698""
","
","
","""event"",""trial"",""time""
""fullscreenenter"",""1"",""3698""
","
",,null,run_exp/static/images/task_images/gems/27.jpg,null,,,,,,,22,,,6,,,,,27,0.83072076,0.814814815,,,,,,,
decision,139,477386,0.0-43.0-2.0,"""event"",""trial"",""time""
""fullscreenenter"",""1"",""3698""
","
","
","""event"",""trial"",""time""
""fullscreenenter"",""1"",""3698""
","
",,314.7,run_exp/static/images/task_images/land.jpg,76,,,,,,,22,,,6,,,,,,,,161902,1,6,TRUE,,,
travel,140,487087,0.0-44.0-0.0,"""event"",""trial"",""time""
""fullscreenenter"",""1"",""3698""
","
","
","""event"",""trial"",""time""
""fullscreenenter"",""1"",""3698""
","
",,,,,,,,,,,,"[{""stimulus"":""run_exp/static/images/task_images/rocket-01.jpg"",""time"":0.19999999925494194},{""stimulus"":""run_exp/static/images/task_images/rocket-02.jpg"",""time"":1085.5},{""stimulus"":""run_exp/static/images/task_images/rocket-03.jpg"",""time"":2161.5999999996275},{""stimulus"":""run_exp/static/images/task_images/rocket-04.jpg"",""time"":3238.199999999255},{""stimulus"":""run_exp/static/images/task_images/rocket-05.jpg"",""time"":4311},{""stimulus"":""run_exp/static/images/task_images/rocket-06.jpg"",""time"":5392.5},{""stimulus"":""run_exp/static/images/task_images/rocket-07.jpg"",""time"":6460.699999999255},{""stimulus"":""run_exp/static/images/task_images/rocket-08.jpg"",""time"":7543.0999999996275},{""stimulus"":""run_exp/static/images/task_images/rocket-09.jpg"",""time"":8615.299999999814}]",[],6,,,,,,,,,,,,,,
alien_welcome,141,492092,0.0-44.0-1.0,"""event"",""trial"",""time""
""fullscreenenter"",""1"",""3698""
","
","
","""event"",""trial"",""time""
""fullscreenenter"",""1"",""3698""
","
",,null,run_exp/static/images/task_images/aliens/old_aliens/planet/alien_planet-22.jpg,null,,,,,,,,,,,,,22,"12,52,7,9,31,54,22,1,68,76,58,77,74,35,27,30,79,4,10,13,36,75,29,20,18,43,24,26,50,61,8,34,55,15,60,16,49,19,65,48,66,42,32",,,,,,,,,,
land,142,492597,0.0-44.0-2.0,"""event"",""trial"",""time""
""fullscreenenter"",""1"",""3698""
","
","
","""event"",""trial"",""time""
""fullscreenenter"",""1"",""3698""
","
",,null,run_exp/static/images/task_images/land.jpg,null,,,,,,,97,,,7,,,,,,,,,,,,,,
dig,143,494604,0.0-44.0-3.0,"""event"",""trial"",""time""
""fullscreenenter"",""1"",""3698""
","
","
","""event"",""trial"",""time""
""fullscreenenter"",""1"",""3698""
","
",,,,,,,,,,,,"[{""stimulus"":""run_exp/static/images/task_images/dig.jpg"",""time"":0.39999999944120646},{""stimulus"":""run_exp/static/images/task_images/land.jpg"",""time"":678},{""stimulus"":""run_exp/static/images/task_images/dig.jpg"",""time"":1342.199999999255}]",[],7,,,,,,,,,,,,,,
harvest,144,495612,0.0-44.0-4.0,"""event"",""trial"",""time""
""fullscreenenter"",""1"",""3698""
","
","
","""event"",""trial"",""time""
""fullscreenenter"",""1"",""3698""
","
",,null,run_exp/static/images/task_images/gems/97.jpg,null,,,,,,,88,,,7,,,,,97,0.910090333,0.907216495,,,,,,,
decision,145,495630,0.0-44.0-5.0,"""event"",""trial"",""time""
""fullscreenenter"",""1"",""3698""
","
","
","""event"",""trial"",""time""
""fullscreenenter"",""1"",""3698""
","
",,15.9,run_exp/static/images/task_images/land.jpg,65,,,,,,,88,,,7,,,,,,,,180146,1,0,FALSE,,,
dig,146,498619,0.0-45.0-0.0,"""event"",""trial"",""time""
""fullscreenenter"",""1"",""3698""
","
","
","""event"",""trial"",""time""
""fullscreenenter"",""1"",""3698""
","
",,,,,,,,,,,,"[{""stimulus"":""run_exp/static/images/task_images/dig.jpg"",""time"":0.20000000018626451},{""stimulus"":""run_exp/static/images/task_images/land.jpg"",""time"":1007.2999999998137},{""stimulus"":""run_exp/static/images/task_images/dig.jpg"",""time"":1995.2000000001863}]",[],7,,,,,,,,,,,,,,
harvest,147,499632,0.0-45.0-1.0,"""event"",""trial"",""time""
""fullscreenenter"",""1"",""3698""
","
","
","""event"",""trial"",""time""
""fullscreenenter"",""1"",""3698""
","
",,null,run_exp/static/images/task_images/gems/88.jpg,null,,,,,,,67,,,7,,,,,88,0.757356921,0.761363636,,,,,,,
decision,148,499919,0.0-45.0-2.0,"""event"",""trial"",""time""
""fullscreenenter"",""1"",""3698""
","
","
","""event"",""trial"",""time""
""fullscreenenter"",""1"",""3698""
","
",,285.5,run_exp/static/images/task_images/land.jpg,65,,,,,,,67,,,7,,,,,,,,184436,1,1,FALSE,,,
dig,149,502645,0.0-46.0-0.0,"""event"",""trial"",""time""
""fullscreenenter"",""1"",""3698""
","
","
","""event"",""trial"",""time""
""fullscreenenter"",""1"",""3698""
","
",,,,,,,,,,,,"[{""stimulus"":""run_exp/static/images/task_images/dig.jpg"",""time"":0.20000000018626451},{""stimulus"":""run_exp/static/images/task_images/land.jpg"",""time"":913.3000000007451},{""stimulus"":""run_exp/static/images/task_images/dig.jpg"",""time"":1820.300000000745}]",[],7,,,,,,,,,,,,,,
harvest,150,503653,0.0-46.0-1.0,"""event"",""trial"",""time""
""fullscreenenter"",""1"",""3698""
","
","
","""event"",""trial"",""time""
""fullscreenenter"",""1"",""3698""
","
",,null,run_exp/static/images/task_images/gems/67.jpg,null,,,,,,,56,,,7,,,,,67,0.836311785,0.835820896,,,,,,,
decision,151,503949,0.0-46.0-2.0,"""event"",""trial"",""time""
""fullscreenenter"",""1"",""3698""
","
","
","""event"",""trial"",""time""
""fullscreenenter"",""1"",""3698""
","
",,293.5,run_exp/static/images/task_images/land.jpg,65,,,,,,,56,,,7,,,,,,,,188465,1,2,FALSE,,,
dig,152,506671,0.0-47.0-0.0,"""event"",""trial"",""time""
""fullscreenenter"",""1"",""3698""
","
","
","""event"",""trial"",""time""
""fullscreenenter"",""1"",""3698""
","
",,,,,,,,,,,,"[{""stimulus"":""run_exp/static/images/task_images/dig.jpg"",""time"":0.19999999925494194},{""stimulus"":""run_exp/static/images/task_images/land.jpg"",""time"":910.2999999998137},{""stimulus"":""run_exp/static/images/task_images/dig.jpg"",""time"":1812}]",[],7,,,,,,,,,,,,,,
harvest,153,507678,0.0-47.0-1.0,"""event"",""trial"",""time""
""fullscreenenter"",""1"",""3698""
","
","
","""event"",""trial"",""time""
""fullscreenenter"",""1"",""3698""
","
",,null,run_exp/static/images/task_images/gems/56.jpg,null,,,,,,,48,,,7,,,,,56,0.864325794,0.857142857,,,,,,,
decision,154,507716,0.0-47.0-2.0,"""event"",""trial"",""time""
""fullscreenenter"",""1"",""3698""
","
","
","""event"",""trial"",""time""
""fullscreenenter"",""1"",""3698""
","
",,35.5,run_exp/static/images/task_images/land.jpg,65,,,,,,,48,,,7,,,,,,,,192232,1,3,FALSE,,,
dig,155,510693,0.0-48.0-0.0,"""event"",""trial"",""time""
""fullscreenenter"",""1"",""3698""
","
","
","""event"",""trial"",""time""
""fullscreenenter"",""1"",""3698""
","
",,,,,,,,,,,,"[{""stimulus"":""run_exp/static/images/task_images/dig.jpg"",""time"":0.20000000018626451},{""stimulus"":""run_exp/static/images/task_images/land.jpg"",""time"":995.8000000007451},{""stimulus"":""run_exp/static/images/task_images/dig.jpg"",""time"":1980.800000000745}]",[],7,,,,,,,,,,,,,,
harvest,156,511701,0.0-48.0-1.0,"""event"",""trial"",""time""
""fullscreenenter"",""1"",""3698""
","
","
","""event"",""trial"",""time""
""fullscreenenter"",""1"",""3698""
","
",,null,run_exp/static/images/task_images/gems/48.jpg,null,,,,,,,41,,,7,,,,,48,0.853521502,0.854166667,,,,,,,
decision,157,511758,0.0-48.0-2.0,"""event"",""trial"",""time""
""fullscreenenter"",""1"",""3698""
","
","
","""event"",""trial"",""time""
""fullscreenenter"",""1"",""3698""
","
",,54.1,run_exp/static/images/task_images/land.jpg,65,,,,,,,41,,,7,,,,,,,,196274,1,4,FALSE,,,
dig,158,514709,0.0-49.0-0.0,"""event"",""trial"",""time""
""fullscreenenter"",""1"",""3698""
","
","
","""event"",""trial"",""time""
""fullscreenenter"",""1"",""3698""
","
",,,,,,,,,,,,"[{""stimulus"":""run_exp/static/images/task_images/dig.jpg"",""time"":0.10000000055879354},{""stimulus"":""run_exp/static/images/task_images/land.jpg"",""time"":986.3000000007451},{""stimulus"":""run_exp/static/images/task_images/dig.jpg"",""time"":1971.5}]",[],7,,,,,,,,,,,,,,
harvest,159,515712,0.0-49.0-1.0,"""event"",""trial"",""time""
""fullscreenenter"",""1"",""3698""
","
","
","""event"",""trial"",""time""
""fullscreenenter"",""1"",""3698""
","
",,null,run_exp/static/images/task_images/gems/41.jpg,null,,,,,,,36,,,7,,,,,41,0.88803473,0.87804878,,,,,,,
decision,160,516059,0.0-49.0-2.0,"""event"",""trial"",""time""
""fullscreenenter"",""1"",""3698""
","
","
","""event"",""trial"",""time""
""fullscreenenter"",""1"",""3698""
","
",,344.7,run_exp/static/images/task_images/land.jpg,65,,,,,,,36,,,7,,,,,,,,200575,1,5,FALSE,,,
dig,161,518725,0.0-50.0-0.0,"""event"",""trial"",""time""
""fullscreenenter"",""1"",""3698""
","
","
","""event"",""trial"",""time""
""fullscreenenter"",""1"",""3698""
","
",,,,,,,,,,,,"[{""stimulus"":""run_exp/static/images/task_images/dig.jpg"",""time"":0},{""stimulus"":""run_exp/static/images/task_images/land.jpg"",""time"":896.5},{""stimulus"":""run_exp/static/images/task_images/dig.jpg"",""time"":1776.5}]",[],7,,,,,,,,,,,,,,
harvest,162,519733,0.0-50.0-1.0,"""event"",""trial"",""time""
""fullscreenenter"",""1"",""3698""
","
","
","""event"",""trial"",""time""
""fullscreenenter"",""1"",""3698""
","
",,null,run_exp/static/images/task_images/gems/36.jpg,null,,,,,,,26,,,7,,,,,36,0.722554071,0.722222222,,,,,,,
decision,163,519881,0.0-50.0-2.0,"""event"",""trial"",""time""
""fullscreenenter"",""1"",""3698""
","
","
","""event"",""trial"",""time""
""fullscreenenter"",""1"",""3698""
","
",,145.4,run_exp/static/images/task_images/land.jpg,65,,,,,,,26,,,7,,,,,,,,204398,1,6,FALSE,,,
dig,164,522748,0.0-51.0-0.0,"""event"",""trial"",""time""
""fullscreenenter"",""1"",""3698""
","
","
","""event"",""trial"",""time""
""fullscreenenter"",""1"",""3698""
","
",,,,,,,,,,,,"[{""stimulus"":""run_exp/static/images/task_images/dig.jpg"",""time"":0.2999999998137355},{""stimulus"":""run_exp/static/images/task_images/land.jpg"",""time"":957.7999999998137},{""stimulus"":""run_exp/static/images/task_images/dig.jpg"",""time"":1911.2999999998137}]",[],7,,,,,,,,,,,,,,
harvest,165,523756,0.0-51.0-1.0,"""event"",""trial"",""time""
""fullscreenenter"",""1"",""3698""
","
","
","""event"",""trial"",""time""
""fullscreenenter"",""1"",""3698""
","
",,null,run_exp/static/images/task_images/gems/26.jpg,null,,,,,,,21,,,7,,,,,26,0.803980744,0.807692308,,,,,,,
decision,166,524084,0.0-51.0-2.0,"""event"",""trial"",""time""
""fullscreenenter"",""1"",""3698""
","
","
","""event"",""trial"",""time""
""fullscreenenter"",""1"",""3698""
","
",,325.2,run_exp/static/images/task_images/land.jpg,76,,,,,,,21,,,7,,,,,,,,208600,1,7,TRUE,,,
travel,167,533765,0.0-52.0-0.0,"""event"",""trial"",""time""
""fullscreenenter"",""1"",""3698""
","
","
","""event"",""trial"",""time""
""fullscreenenter"",""1"",""3698""
","
",,,,,,,,,,,,"[{""stimulus"":""run_exp/static/images/task_images/rocket-01.jpg"",""time"":0.20000000018626451},{""stimulus"":""run_exp/static/images/task_images/rocket-02.jpg"",""time"":1085.7999999998137},{""stimulus"":""run_exp/static/images/task_images/rocket-03.jpg"",""time"":2157.600000000559},{""stimulus"":""run_exp/static/images/task_images/rocket-04.jpg"",""time"":3229.7999999998137},{""stimulus"":""run_exp/static/images/task_images/rocket-05.jpg"",""time"":4301.5},{""stimulus"":""run_exp/static/images/task_images/rocket-06.jpg"",""time"":5383.9000000003725},{""stimulus"":""run_exp/static/images/task_images/rocket-07.jpg"",""time"":6456},{""stimulus"":""run_exp/static/images/task_images/rocket-08.jpg"",""time"":7524.100000000559},{""stimulus"":""run_exp/static/images/task_images/rocket-09.jpg"",""time"":8600.100000000559}]",[],7,,,,,,,,,,,,,,
alien_welcome,168,538773,0.0-52.0-1.0,"""event"",""trial"",""time""
""fullscreenenter"",""1"",""3698""
","
","
","""event"",""trial"",""time""
""fullscreenenter"",""1"",""3698""
","
",,null,run_exp/static/images/task_images/aliens/old_aliens/planet/alien_planet-1.jpg,null,,,,,,,,,,,,,1,"12,52,7,9,31,54,22,1,68,76,58,77,74,35,27,30,79,4,10,13,36,75,29,20,18,43,24,26,50,61,8,34,55,15,60,16,49,19,65,48,66,42,32",,,,,,,,,,
land,169,539285,0.0-52.0-2.0,"""event"",""trial"",""time""
""fullscreenenter"",""1"",""3698""
","
","
","""event"",""trial"",""time""
""fullscreenenter"",""1"",""3698""
","
",,null,run_exp/static/images/task_images/land.jpg,null,,,,,,,101,,,8,,,,,,,,,,,,,,
dig,170,541296,0.0-52.0-3.0,"""event"",""trial"",""time""
""fullscreenenter"",""1"",""3698""
","
","
","""event"",""trial"",""time""
""fullscreenenter"",""1"",""3698""
","
",,,,,,,,,,,,"[{""stimulus"":""run_exp/static/images/task_images/dig.jpg"",""time"":0.40000000037252903},{""stimulus"":""run_exp/static/images/task_images/land.jpg"",""time"":676.2000000001863},{""stimulus"":""run_exp/static/images/task_images/dig.jpg"",""time"":1341.9000000003725}]",[],8,,,,,,,,,,,,,,
harvest,171,542304,0.0-52.0-4.0,"""event"",""trial"",""time""
""fullscreenenter"",""1"",""3698""
","
","
","""event"",""trial"",""time""
""fullscreenenter"",""1"",""3698""
","
",,null,run_exp/static/images/task_images/gems/101.jpg,null,,,,,,,86,,,8,,,,,101,0.855451131,0.851485149,,,,,,,
decision,172,542308,0.0-52.0-5.0,"""event"",""trial"",""time""
""fullscreenenter"",""1"",""3698""
","
","
","""event"",""trial"",""time""
""fullscreenenter"",""1"",""3698""
","
",,1.9,run_exp/static/images/task_images/land.jpg,65,,,,,,,86,,,8,,,,,,,,226824,1,0,FALSE,,,
dig,173,545317,0.0-53.0-0.0,"""event"",""trial"",""time""
""fullscreenenter"",""1"",""3698""
","
","
","""event"",""trial"",""time""
""fullscreenenter"",""1"",""3698""
","
",,,,,,,,,,,,"[{""stimulus"":""run_exp/static/images/task_images/dig.jpg"",""time"":0.09999999962747097},{""stimulus"":""run_exp/static/images/task_images/land.jpg"",""time"":1006.7000000001863},{""stimulus"":""run_exp/static/images/task_images/dig.jpg"",""time"":2008.9000000003725}]",[],8,,,,,,,,,,,,,,
harvest,174,546326,0.0-53.0-1.0,"""event"",""trial"",""time""
""fullscreenenter"",""1"",""3698""
","
","
","""event"",""trial"",""time""
""fullscreenenter"",""1"",""3698""
","
",,null,run_exp/static/images/task_images/gems/86.jpg,null,,,,,,,73,,,8,,,,,86,0.845527942,0.848837209,,,,,,,
decision,175,546427,0.0-53.0-2.0,"""event"",""trial"",""time""
""fullscreenenter"",""1"",""3698""
","
","
","""event"",""trial"",""time""
""fullscreenenter"",""1"",""3698""
","
",,99.1,run_exp/static/images/task_images/land.jpg,65,,,,,,,73,,,8,,,,,,,,230943,1,1,FALSE,,,
dig,176,549333,0.0-54.0-0.0,"""event"",""trial"",""time""
""fullscreenenter"",""1"",""3698""
","
","
","""event"",""trial"",""time""
""fullscreenenter"",""1"",""3698""
","
",,,,,,,,,,,,"[{""stimulus"":""run_exp/static/images/task_images/dig.jpg"",""time"":0.20000000018626451},{""stimulus"":""run_exp/static/images/task_images/land.jpg"",""time"":975.7000000001863},{""stimulus"":""run_exp/static/images/task_images/dig.jpg"",""time"":1942.3999999994412}]",[],8,,,,,,,,,,,,,,
harvest,177,550341,0.0-54.0-1.0,"""event"",""trial"",""time""
""fullscreenenter"",""1"",""3698""
","
","
","""event"",""trial"",""time""
""fullscreenenter"",""1"",""3698""
","
",,null,run_exp/static/images/task_images/gems/73.jpg,null,,,,,,,59,,,8,,,,,73,0.804812562,0.808219178,,,,,,,
decision,178,550608,0.0-54.0-2.0,"""event"",""trial"",""time""
""fullscreenenter"",""1"",""3698""
","
","
","""event"",""trial"",""time""
""fullscreenenter"",""1"",""3698""
","
",,263.9,run_exp/static/images/task_images/land.jpg,65,,,,,,,59,,,8,,,,,,,,235124,1,2,FALSE,,,
dig,179,553358,0.0-55.0-0.0,"""event"",""trial"",""time""
""fullscreenenter"",""1"",""3698""
","
","
","""event"",""trial"",""time""
""fullscreenenter"",""1"",""3698""
","
",,,,,,,,,,,,"[{""stimulus"":""run_exp/static/images/task_images/dig.jpg"",""time"":0.20000000018626451},{""stimulus"":""run_exp/static/images/task_images/land.jpg"",""time"":924.5},{""stimulus"":""run_exp/static/images/task_images/dig.jpg"",""time"":1836.5}]",[],8,,,,,,,,,,,,,,
harvest,180,554364,0.0-55.0-1.0,"""event"",""trial"",""time""
""fullscreenenter"",""1"",""3698""
","
","
","""event"",""trial"",""time""
""fullscreenenter"",""1"",""3698""
","
",,null,run_exp/static/images/task_images/gems/59.jpg,null,,,,,,,47,,,8,,,,,59,0.802985213,0.796610169,,,,,,,
decision,181,554560,0.0-55.0-2.0,"""event"",""trial"",""time""
""fullscreenenter"",""1"",""3698""
","
","
","""event"",""trial"",""time""
""fullscreenenter"",""1"",""3698""
","
",,193.9,run_exp/static/images/task_images/land.jpg,65,,,,,,,47,,,8,,,,,,,,239077,1,3,FALSE,,,
dig,182,557376,0.0-56.0-0.0,"""event"",""trial"",""time""
""fullscreenenter"",""1"",""3698""
","
","
","""event"",""trial"",""time""
""fullscreenenter"",""1"",""3698""
","
",,,,,,,,,,,,"[{""stimulus"":""run_exp/static/images/task_images/dig.jpg"",""time"":0.2999999998137355},{""stimulus"":""run_exp/static/images/task_images/land.jpg"",""time"":945.7000000001863},{""stimulus"":""run_exp/static/images/task_images/dig.jpg"",""time"":1880.1000000005588}]",[],8,,,,,,,,,,,,,,
harvest,183,558384,0.0-56.0-1.0,"""event"",""trial"",""time""
""fullscreenenter"",""1"",""3698""
","
","
","""event"",""trial"",""time""
""fullscreenenter"",""1"",""3698""
","
",,null,run_exp/static/images/task_images/gems/47.jpg,null,,,,,,,41,,,8,,,,,47,0.882780629,0.872340426,,,,,,,
decision,184,558536,0.0-56.0-2.0,"""event"",""trial"",""time""
""fullscreenenter"",""1"",""3698""
","
","
","""event"",""trial"",""time""
""fullscreenenter"",""1"",""3698""
","
",,149.7,run_exp/static/images/task_images/land.jpg,65,,,,,,,41,,,8,,,,,,,,243052,1,4,FALSE,,,
dig,185,561398,0.0-57.0-0.0,"""event"",""trial"",""time""
""fullscreenenter"",""1"",""3698""
","
","
","""event"",""trial"",""time""
""fullscreenenter"",""1"",""3698""
","
",,,,,,,,,,,,"[{""stimulus"":""run_exp/static/images/task_images/dig.jpg"",""time"":0.20000000018626451},{""stimulus"":""run_exp/static/images/task_images/land.jpg"",""time"":958.5999999996275},{""stimulus"":""run_exp/static/images/task_images/dig.jpg"",""time"":1907.5999999996275}]",[],8,,,,,,,,,,,,,,
harvest,186,562406,0.0-57.0-1.0,"""event"",""trial"",""time""
""fullscreenenter"",""1"",""3698""
","
","
","""event"",""trial"",""time""
""fullscreenenter"",""1"",""3698""
","
",,null,run_exp/static/images/task_images/gems/41.jpg,null,,,,,,,34,,,8,,,,,41,0.821794892,0.829268293,,,,,,,
decision,187,562796,0.0-57.0-2.0,"""event"",""trial"",""time""
""fullscreenenter"",""1"",""3698""
","
","
","""event"",""trial"",""time""
""fullscreenenter"",""1"",""3698""
","
",,388.2,run_exp/static/images/task_images/land.jpg,65,,,,,,,34,,,8,,,,,,,,247312,1,5,FALSE,,,
dig,188,565422,0.0-58.0-0.0,"""event"",""trial"",""time""
""fullscreenenter"",""1"",""3698""
","
","
","""event"",""trial"",""time""
""fullscreenenter"",""1"",""3698""
","
",,,,,,,,,,,,"[{""stimulus"":""run_exp/static/images/task_images/dig.jpg"",""time"":0.20000000018626451},{""stimulus"":""run_exp/static/images/task_images/land.jpg"",""time"":877.5},{""stimulus"":""run_exp/static/images/task_images/dig.jpg"",""time"":1749.6000000005588}]",[],8,,,,,,,,,,,,,,
harvest,189,566432,0.0-58.0-1.0,"""event"",""trial"",""time""
""fullscreenenter"",""1"",""3698""
","
","
","""event"",""trial"",""time""
""fullscreenenter"",""1"",""3698""
","
",,null,run_exp/static/images/task_images/gems/34.jpg,null,,,,,,,28,,,8,,,,,34,0.830394086,0.823529412,,,,,,,
decision,190,566496,0.0-58.0-2.0,"""event"",""trial"",""time""
""fullscreenenter"",""1"",""3698""
","
","
","""event"",""trial"",""time""
""fullscreenenter"",""1"",""3698""
","
",,61.1,run_exp/static/images/task_images/land.jpg,76,,,,,,,28,,,8,,,,,,,,251012,1,6,TRUE,,,
travel,191,576448,0.0-59.0-0.0,"""event"",""trial"",""time""
""fullscreenenter"",""1"",""3698""
","
","
","""event"",""trial"",""time""
""fullscreenenter"",""1"",""3698""
","
",,,,,,,,,,,,"[{""stimulus"":""run_exp/static/images/task_images/rocket-01.jpg"",""time"":0.09999999962747097},{""stimulus"":""run_exp/static/images/task_images/rocket-02.jpg"",""time"":1111.8999999994412},{""stimulus"":""run_exp/static/images/task_images/rocket-03.jpg"",""time"":2220.0999999996275},{""stimulus"":""run_exp/static/images/task_images/rocket-04.jpg"",""time"":3324},{""stimulus"":""run_exp/static/images/task_images/rocket-05.jpg"",""time"":4428.0999999996275},{""stimulus"":""run_exp/static/images/task_images/rocket-06.jpg"",""time"":5532.0999999996275},{""stimulus"":""run_exp/static/images/task_images/rocket-07.jpg"",""time"":6634.0999999996275},{""stimulus"":""run_exp/static/images/task_images/rocket-08.jpg"",""time"":7740},{""stimulus"":""run_exp/static/images/task_images/rocket-09.jpg"",""time"":8842.899999999441}]",[],8,,,,,,,,,,,,,,
alien_welcome,192,581453,0.0-59.0-1.0,"""event"",""trial"",""time""
""fullscreenenter"",""1"",""3698""
","
","
","""event"",""trial"",""time""
""fullscreenenter"",""1"",""3698""
","
",,null,run_exp/static/images/task_images/aliens/old_aliens/planet/alien_planet-68.jpg,null,,,,,,,,,,,,,68,"12,52,7,9,31,54,22,1,68,76,58,77,74,35,27,30,79,4,10,13,36,75,29,20,18,43,24,26,50,61,8,34,55,15,60,16,49,19,65,48,66,42,32",,,,,,,,,,
land,193,581968,0.0-59.0-2.0,"""event"",""trial"",""time""
""fullscreenenter"",""1"",""3698""
","
","
","""event"",""trial"",""time""
""fullscreenenter"",""1"",""3698""
","
",,null,run_exp/static/images/task_images/land.jpg,null,,,,,,,98,,,9,,,,,,,,,,,,,,
dig,194,583984,0.0-59.0-3.0,"""event"",""trial"",""time""
""fullscreenenter"",""1"",""3698""
","
","
","""event"",""trial"",""time""
""fullscreenenter"",""1"",""3698""
","
",,,,,,,,,,,,"[{""stimulus"":""run_exp/static/images/task_images/dig.jpg"",""time"":0.599999999627471},{""stimulus"":""run_exp/static/images/task_images/land.jpg"",""time"":675.5},{""stimulus"":""run_exp/static/images/task_images/dig.jpg"",""time"":1338.0999999996275}]",[],9,,,,,,,,,,,,,,
harvest,195,584992,0.0-59.0-4.0,"""event"",""trial"",""time""
""fullscreenenter"",""1"",""3698""
","
","
","""event"",""trial"",""time""
""fullscreenenter"",""1"",""3698""
","
",,null,run_exp/static/images/task_images/gems/98.jpg,null,,,,,,,16,,,9,,,,,98,0.158339529,0.163265306,,,,,,,
decision,196,585240,0.0-59.0-5.0,"""event"",""trial"",""time""
""fullscreenenter"",""1"",""3698""
","
","
","""event"",""trial"",""time""
""fullscreenenter"",""1"",""3698""
","
",,245.3,run_exp/static/images/task_images/land.jpg,65,,,,,,,16,,,9,,,,,,,,269756,1,0,FALSE,,,
dig,197,588006,0.0-60.0-0.0,"""event"",""trial"",""time""
""fullscreenenter"",""1"",""3698""
","
","
","""event"",""trial"",""time""
""fullscreenenter"",""1"",""3698""
","
",,,,,,,,,,,,"[{""stimulus"":""run_exp/static/images/task_images/dig.jpg"",""time"":0.2999999998137355},{""stimulus"":""run_exp/static/images/task_images/land.jpg"",""time"":922.2000000001863},{""stimulus"":""run_exp/static/images/task_images/dig.jpg"",""time"":1844.6000000005588}]",[],9,,,,,,,,,,,,,,
harvest,198,589014,0.0-60.0-1.0,"""event"",""trial"",""time""
""fullscreenenter"",""1"",""3698""
","
","
","""event"",""trial"",""time""
""fullscreenenter"",""1"",""3698""
","
",,null,run_exp/static/images/task_images/gems/16.jpg,null,,,,,,,2,,,9,,,,,16,0.111426041,0.125,,,,,,,
decision,199,589386,0.0-60.0-2.0,"""event"",""trial"",""time""
""fullscreenenter"",""1"",""3698""
","
","
","""event"",""trial"",""time""
""fullscreenenter"",""1"",""3698""
","
",,369.4,run_exp/static/images/task_images/land.jpg,76,,,,,,,2,,,9,,,,,,,,273902,1,1,TRUE,,,
travel,200,599030,0.0-61.0-0.0,"""event"",""trial"",""time""
""fullscreenenter"",""1"",""3698""
","
","
","""event"",""trial"",""time""
""fullscreenenter"",""1"",""3698""
","
",,,,,,,,,,,,"[{""stimulus"":""run_exp/static/images/task_images/rocket-01.jpg"",""time"":0.2999999998137355},{""stimulus"":""run_exp/static/images/task_images/rocket-02.jpg"",""time"":1079.7000000001863},{""stimulus"":""run_exp/static/images/task_images/rocket-03.jpg"",""time"":2151.7999999998137},{""stimulus"":""run_exp/static/images/task_images/rocket-04.jpg"",""time"":3218.100000000559},{""stimulus"":""run_exp/static/images/task_images/rocket-05.jpg"",""time"":4288.4000000003725},{""stimulus"":""run_exp/static/images/task_images/rocket-06.jpg"",""time"":5358.100000000559},{""stimulus"":""run_exp/static/images/task_images/rocket-07.jpg"",""time"":6434.100000000559},{""stimulus"":""run_exp/static/images/task_images/rocket-08.jpg"",""time"":7495.799999999814},{""stimulus"":""run_exp/static/images/task_images/rocket-09.jpg"",""time"":8567.600000000559}]",[],9,,,,,,,,,,,,,,
alien_welcome,201,604038,0.0-61.0-1.0,"""event"",""trial"",""time""
""fullscreenenter"",""1"",""3698""
","
","
","""event"",""trial"",""time""
""fullscreenenter"",""1"",""3698""
","
",,null,run_exp/static/images/task_images/aliens/old_aliens/planet/alien_planet-76.jpg,null,,,,,,,,,,,,,76,"12,52,7,9,31,54,22,1,68,76,58,77,74,35,27,30,79,4,10,13,36,75,29,20,18,43,24,26,50,61,8,34,55,15,60,16,49,19,65,48,66,42,32",,,,,,,,,,
land,202,604550,0.0-61.0-2.0,"""event"",""trial"",""time""
""fullscreenenter"",""1"",""3698""
","
","
","""event"",""trial"",""time""
""fullscreenenter"",""1"",""3698""
","
",,null,run_exp/static/images/task_images/land.jpg,null,,,,,,,99,,,10,,,,,,,,,,,,,,
dig,203,606556,0.0-61.0-3.0,"""event"",""trial"",""time""
""fullscreenenter"",""1"",""3698""
","
","
","""event"",""trial"",""time""
""fullscreenenter"",""1"",""3698""
","
",,,,,,,,,,,,"[{""stimulus"":""run_exp/static/images/task_images/dig.jpg"",""time"":0.5},{""stimulus"":""run_exp/static/images/task_images/land.jpg"",""time"":680.3000000007451},{""stimulus"":""run_exp/static/images/task_images/dig.jpg"",""time"":1341.9000000003725}]",[],10,,,,,,,,,,,,,,
harvest,204,607564,0.0-61.0-4.0,"""event"",""trial"",""time""
""fullscreenenter"",""1"",""3698""
","
","
","""event"",""trial"",""time""
""fullscreenenter"",""1"",""3698""
","
",,null,run_exp/static/images/task_images/gems/99.jpg,null,,,,,,,15,,,10,,,,,99,0.152452636,0.151515152,,,,,,,
decision,205,607795,0.0-61.0-5.0,"""event"",""trial"",""time""
""fullscreenenter"",""1"",""3698""
","
","
","""event"",""trial"",""time""
""fullscreenenter"",""1"",""3698""
","
",,228.1,run_exp/static/images/task_images/land.jpg,65,,,,,,,15,,,10,,,,,,,,292311,1,0,FALSE,,,
dig,206,610575,0.0-62.0-0.0,"""event"",""trial"",""time""
""fullscreenenter"",""1"",""3698""
","
","
","""event"",""trial"",""time""
""fullscreenenter"",""1"",""3698""
","
",,,,,,,,,,,,"[{""stimulus"":""run_exp/static/images/task_images/dig.jpg"",""time"":0.20000000018626451},{""stimulus"":""run_exp/static/images/task_images/land.jpg"",""time"":927.2000000001863},{""stimulus"":""run_exp/static/images/task_images/dig.jpg"",""time"":1855.5999999996275}]",[],10,,,,,,,,,,,,,,
harvest,207,611584,0.0-62.0-1.0,"""event"",""trial"",""time""
""fullscreenenter"",""1"",""3698""
","
","
","""event"",""trial"",""time""
""fullscreenenter"",""1"",""3698""
","
",,null,run_exp/static/images/task_images/gems/15.jpg,null,,,,,,,3,,,10,,,,,15,0.212853916,0.2,,,,,,,
decision,208,611926,0.0-62.0-2.0,"""event"",""trial"",""time""
""fullscreenenter"",""1"",""3698""
","
","
","""event"",""trial"",""time""
""fullscreenenter"",""1"",""3698""
","
",,339.4,run_exp/static/images/task_images/land.jpg,76,,,,,,,3,,,10,,,,,,,,296442,1,1,TRUE,,,
travel,209,621600,0.0-63.0-0.0,"""event"",""trial"",""time""
""fullscreenenter"",""1"",""3698""
","
","
","""event"",""trial"",""time""
""fullscreenenter"",""1"",""3698""
","
",,,,,,,,,,,,"[{""stimulus"":""run_exp/static/images/task_images/rocket-01.jpg"",""time"":0.19999999925494194},{""stimulus"":""run_exp/static/images/task_images/rocket-02.jpg"",""time"":1078},{""stimulus"":""run_exp/static/images/task_images/rocket-03.jpg"",""time"":2155.5999999996275},{""stimulus"":""run_exp/static/images/task_images/rocket-04.jpg"",""time"":3227.5999999996275},{""stimulus"":""run_exp/static/images/task_images/rocket-05.jpg"",""time"":4299.5999999996275},{""stimulus"":""run_exp/static/images/task_images/rocket-06.jpg"",""time"":5371.699999999255},{""stimulus"":""run_exp/static/images/task_images/rocket-07.jpg"",""time"":6443.5999999996275},{""stimulus"":""run_exp/static/images/task_images/rocket-08.jpg"",""time"":7515.5999999996275},{""stimulus"":""run_exp/static/images/task_images/rocket-09.jpg"",""time"":8593.899999999441}]",[],10,,,,,,,,,,,,,,
alien_welcome,210,626614,0.0-63.0-1.0,"""event"",""trial"",""time""
""fullscreenenter"",""1"",""3698""
","
","
","""event"",""trial"",""time""
""fullscreenenter"",""1"",""3698""
","
",,null,run_exp/static/images/task_images/aliens/old_aliens/planet/alien_planet-58.jpg,null,,,,,,,,,,,,,58,"12,52,7,9,31,54,22,1,68,76,58,77,74,35,27,30,79,4,10,13,36,75,29,20,18,43,24,26,50,61,8,34,55,15,60,16,49,19,65,48,66,42,32",,,,,,,,,,
land,211,627126,0.0-63.0-2.0,"""event"",""trial"",""time""
""fullscreenenter"",""1"",""3698""
","
","
","""event"",""trial"",""time""
""fullscreenenter"",""1"",""3698""
","
",,null,run_exp/static/images/task_images/land.jpg,null,,,,,,,100,,,11,,,,,,,,,,,,,,
dig,212,629135,0.0-63.0-3.0,"""event"",""trial"",""time""
""fullscreenenter"",""1"",""3698""
","
","
","""event"",""trial"",""time""
""fullscreenenter"",""1"",""3698""
","
",,,,,,,,,,,,"[{""stimulus"":""run_exp/static/images/task_images/dig.jpg"",""time"":0.6000000005587935},{""stimulus"":""run_exp/static/images/task_images/land.jpg"",""time"":680},{""stimulus"":""run_exp/static/images/task_images/dig.jpg"",""time"":1341.6000000005588}]",[],11,,,,,,,,,,,,,,
harvest,213,630144,0.0-63.0-4.0,"""event"",""trial"",""time""
""fullscreenenter"",""1"",""3698""
","
","
","""event"",""trial"",""time""
""fullscreenenter"",""1"",""3698""
","
",,null,run_exp/static/images/task_images/gems/100.jpg,null,,,,,,,29,,,11,,,,,100,0.288540412,0.29,,,,,,,
decision,214,630396,0.0-63.0-5.0,"""event"",""trial"",""time""
""fullscreenenter"",""1"",""3698""
","
","
","""event"",""trial"",""time""
""fullscreenenter"",""1"",""3698""
","
",,248.7,run_exp/static/images/task_images/land.jpg,65,,,,,,,29,,,11,,,,,,,,314912,1,0,TRUE,,,
end_of_block_continue,215,639205,0.0-64.0-0.0,"""event"",""trial"",""time""
""fullscreenenter"",""1"",""3698""
","
","
","""event"",""trial"",""time""
""fullscreenenter"",""1"",""3698""
","
",,null,run_exp/static/audio/clip_32_block_end.m4a,,,,,,,null,,,,,,,,,,,,,,,,,,
alien_welcome,216,644220,0.0-65.0-0.0,"""event"",""trial"",""time""
""fullscreenenter"",""1"",""3698""
","
","
","""event"",""trial"",""time""
""fullscreenenter"",""1"",""3698""
","
",,null,run_exp/static/images/task_images/aliens/old_aliens/planet/alien_planet-77.jpg,null,,,,,,,,,,,,,77,"12,52,7,9,31,54,22,1,68,76,58,77,74,35,27,30,79,4,10,13,36,75,29,20,18,43,24,26,50,61,8,34,55,15,60,16,49,19,65,48,66,42,32",,,,,,,,,,
land,217,644726,0.0-65.0-1.0,"""event"",""trial"",""time""
""fullscreenenter"",""1"",""3698""
","
","
","""event"",""trial"",""time""
""fullscreenenter"",""1"",""3698""
","
",,null,run_exp/static/images/task_images/land.jpg,null,,,,,,,103,,,12,,,,,,,,,,,,,,
dig,218,646736,0.0-65.0-2.0,"""event"",""trial"",""time""
""fullscreenenter"",""1"",""3698""
","
","
","""event"",""trial"",""time""
""fullscreenenter"",""1"",""3698""
","
",,,,,,,,,,,,"[{""stimulus"":""run_exp/static/images/task_images/dig.jpg"",""time"":0.5},{""stimulus"":""run_exp/static/images/task_images/land.jpg"",""time"":680.3000000007451},{""stimulus"":""run_exp/static/images/task_images/dig.jpg"",""time"":1342}]",[],12,,,,,,,,,,,,,,
harvest,219,647745,0.0-65.0-3.0,"""event"",""trial"",""time""
""fullscreenenter"",""1"",""3698""
","
","
","""event"",""trial"",""time""
""fullscreenenter"",""1"",""3698""
","
",,null,run_exp/static/images/task_images/gems/103.jpg,null,,,,,,,20,,,12,,,,,103,0.195435501,0.194174757,,,,,,,
decision,220,649079,0.0-65.0-4.0,"""event"",""trial"",""time""
""fullscreenenter"",""1"",""3698""
","
","
","""event"",""trial"",""time""
""fullscreenenter"",""1"",""3698""
","
",,1331.7,run_exp/static/images/task_images/land.jpg,65,,,,,,,20,,,12,,,,,,,,9861,2,0,FALSE,,,
dig,221,650758,0.0-66.0-0.0,"""event"",""trial"",""time""
""fullscreenenter"",""1"",""3698""
","
","
","""event"",""trial"",""time""
""fullscreenenter"",""1"",""3698""
","
",,,,,,,,,,,,"[{""stimulus"":""run_exp/static/images/task_images/dig.jpg"",""time"":0.20000000018626451},{""stimulus"":""run_exp/static/images/task_images/land.jpg"",""time"":565.5},{""stimulus"":""run_exp/static/images/task_images/dig.jpg"",""time"":1125.5}]",[],12,,,,,,,,,,,,,,
harvest,222,651766,0.0-66.0-1.0,"""event"",""trial"",""time""
""fullscreenenter"",""1"",""3698""
","
","
","""event"",""trial"",""time""
""fullscreenenter"",""1"",""3698""
","
",,null,run_exp/static/images/task_images/gems/20.jpg,null,,,,,,,3,,,12,,,,,20,0.126638977,0.15,,,,,,,
decision,223,652049,0.0-66.0-2.0,"""event"",""trial"",""time""
""fullscreenenter"",""1"",""3698""
","
","
","""event"",""trial"",""time""
""fullscreenenter"",""1"",""3698""
","
",,280.4,run_exp/static/images/task_images/land.jpg,76,,,,,,,3,,,12,,,,,,,,12831,2,1,TRUE,,,
travel,224,661775,0.0-67.0-0.0,"""event"",""trial"",""time""
""fullscreenenter"",""1"",""3698""
","
","
","""event"",""trial"",""time""
""fullscreenenter"",""1"",""3698""
","
",,,,,,,,,,,,"[{""stimulus"":""run_exp/static/images/task_images/rocket-01.jpg"",""time"":0.30000000074505806},{""stimulus"":""run_exp/static/images/task_images/rocket-02.jpg"",""time"":1088.9000000003725},{""stimulus"":""run_exp/static/images/task_images/rocket-03.jpg"",""time"":2166.2000000001863},{""stimulus"":""run_exp/static/images/task_images/rocket-04.jpg"",""time"":3248},{""stimulus"":""run_exp/static/images/task_images/rocket-05.jpg"",""time"":4320.300000000745},{""stimulus"":""run_exp/static/images/task_images/rocket-06.jpg"",""time"":5403.300000000745},{""stimulus"":""run_exp/static/images/task_images/rocket-07.jpg"",""time"":6483.100000000559},{""stimulus"":""run_exp/static/images/task_images/rocket-08.jpg"",""time"":7558.600000000559},{""stimulus"":""run_exp/static/images/task_images/rocket-09.jpg"",""time"":8641.100000000559}]",[],12,,,,,,,,,,,,,,
alien_welcome,225,666782,0.0-67.0-1.0,"""event"",""trial"",""time""
""fullscreenenter"",""1"",""3698""
","
","
","""event"",""trial"",""time""
""fullscreenenter"",""1"",""3698""
","
",,null,run_exp/static/images/task_images/aliens/old_aliens/planet/alien_planet-74.jpg,null,,,,,,,,,,,,,74,"12,52,7,9,31,54,22,1,68,76,58,77,74,35,27,30,79,4,10,13,36,75,29,20,18,43,24,26,50,61,8,34,55,15,60,16,49,19,65,48,66,42,32",,,,,,,,,,
land,226,667286,0.0-67.0-2.0,"""event"",""trial"",""time""
""fullscreenenter"",""1"",""3698""
","
","
","""event"",""trial"",""time""
""fullscreenenter"",""1"",""3698""
","
",,null,run_exp/static/images/task_images/land.jpg,null,,,,,,,99,,,13,,,,,,,,,,,,,,
dig,227,669294,0.0-67.0-3.0,"""event"",""trial"",""time""
""fullscreenenter"",""1"",""3698""
","
","
","""event"",""trial"",""time""
""fullscreenenter"",""1"",""3698""
","
",,,,,,,,,,,,"[{""stimulus"":""run_exp/static/images/task_images/dig.jpg"",""time"":0.6000000005587935},{""stimulus"":""run_exp/static/images/task_images/land.jpg"",""time"":680.1000000005588},{""stimulus"":""run_exp/static/images/task_images/dig.jpg"",""time"":1341.6000000005588}]",[],13,,,,,,,,,,,,,,
harvest,228,670305,0.0-67.0-4.0,"""event"",""trial"",""time""
""fullscreenenter"",""1"",""3698""
","
","
","""event"",""trial"",""time""
""fullscreenenter"",""1"",""3698""
","
",,null,run_exp/static/images/task_images/gems/99.jpg,null,,,,,,,27,,,13,,,,,99,0.272014439,0.272727273,,,,,,,
decision,229,670437,0.0-67.0-5.0,"""event"",""trial"",""time""
""fullscreenenter"",""1"",""3698""
","
","
","""event"",""trial"",""time""
""fullscreenenter"",""1"",""3698""
","
",,130.4,run_exp/static/images/task_images/land.jpg,65,,,,,,,27,,,13,,,,,,,,31220,2,0,FALSE,,,
dig,230,673318,0.0-68.0-0.0,"""event"",""trial"",""time""
""fullscreenenter"",""1"",""3698""
","
","
","""event"",""trial"",""time""
""fullscreenenter"",""1"",""3698""
","
",,,,,,,,,,,,"[{""stimulus"":""run_exp/static/images/task_images/dig.jpg"",""time"":0.19999999925494194},{""stimulus"":""run_exp/static/images/task_images/land.jpg"",""time"":962.8999999994412},{""stimulus"":""run_exp/static/images/task_images/dig.jpg"",""time"":1917.0999999996275}]",[],13,,,,,,,,,,,,,,
harvest,231,674326,0.0-68.0-1.0,"""event"",""trial"",""time""
""fullscreenenter"",""1"",""3698""
","
","
","""event"",""trial"",""time""
""fullscreenenter"",""1"",""3698""
","
",,null,run_exp/static/images/task_images/gems/27.jpg,null,,,,,,,5,,,13,,,,,27,0.17890275,0.185185185,,,,,,,
decision,232,674462,0.0-68.0-2.0,"""event"",""trial"",""time""
""fullscreenenter"",""1"",""3698""
","
","
","""event"",""trial"",""time""
""fullscreenenter"",""1"",""3698""
","
",,134.1,run_exp/static/images/task_images/land.jpg,76,,,,,,,5,,,13,,,,,,,,35245,2,1,TRUE,,,
travel,233,684337,0.0-69.0-0.0,"""event"",""trial"",""time""
""fullscreenenter"",""1"",""3698""
","
","
","""event"",""trial"",""time""
""fullscreenenter"",""1"",""3698""
","
",,,,,,,,,,,,"[{""stimulus"":""run_exp/static/images/task_images/rocket-01.jpg"",""time"":0.2999999998137355},{""stimulus"":""run_exp/static/images/task_images/rocket-02.jpg"",""time"":1102.7000000001863},{""stimulus"":""run_exp/static/images/task_images/rocket-03.jpg"",""time"":2196.2000000001863},{""stimulus"":""run_exp/static/images/task_images/rocket-04.jpg"",""time"":3294.7999999998137},{""stimulus"":""run_exp/static/images/task_images/rocket-05.jpg"",""time"":4388.399999999441},{""stimulus"":""run_exp/static/images/task_images/rocket-06.jpg"",""time"":5483.0999999996275},{""stimulus"":""run_exp/static/images/task_images/rocket-07.jpg"",""time"":6580.299999999814},{""stimulus"":""run_exp/static/images/task_images/rocket-08.jpg"",""time"":7674.700000000186},{""stimulus"":""run_exp/static/images/task_images/rocket-09.jpg"",""time"":8772.399999999441}]",[],13,,,,,,,,,,,,,,
alien_welcome,234,689341,0.0-69.0-1.0,"""event"",""trial"",""time""
""fullscreenenter"",""1"",""3698""
","
","
","""event"",""trial"",""time""
""fullscreenenter"",""1"",""3698""
","
",,null,run_exp/static/images/task_images/aliens/old_aliens/planet/alien_planet-35.jpg,null,,,,,,,,,,,,,35,"12,52,7,9,31,54,22,1,68,76,58,77,74,35,27,30,79,4,10,13,36,75,29,20,18,43,24,26,50,61,8,34,55,15,60,16,49,19,65,48,66,42,32",,,,,,,,,,
land,235,689846,0.0-69.0-2.0,"""event"",""trial"",""time""
""fullscreenenter"",""1"",""3698""
","
","
","""event"",""trial"",""time""
""fullscreenenter"",""1"",""3698""
","
",,null,run_exp/static/images/task_images/land.jpg,null,,,,,,,99,,,14,,,,,,,,,,,,,,
dig,236,691853,0.0-69.0-3.0,"""event"",""trial"",""time""
""fullscreenenter"",""1"",""3698""
","
","
","""event"",""trial"",""time""
""fullscreenenter"",""1"",""3698""
","
",,,,,,,,,,,,"[{""stimulus"":""run_exp/static/images/task_images/dig.jpg"",""time"":0.599999999627471},{""stimulus"":""run_exp/static/images/task_images/land.jpg"",""time"":680.0999999996275},{""stimulus"":""run_exp/static/images/task_images/dig.jpg"",""time"":1341.7000000001863}]",[],14,,,,,,,,,,,,,,
harvest,237,692865,0.0-69.0-4.0,"""event"",""trial"",""time""
""fullscreenenter"",""1"",""3698""
","
","
","""event"",""trial"",""time""
""fullscreenenter"",""1"",""3698""
","
",,null,run_exp/static/images/task_images/gems/99.jpg,null,,,,,,,16,,,14,,,,,99,0.161268009,0.161616162,,,,,,,
decision,238,693127,0.0-69.0-5.0,"""event"",""trial"",""time""
""fullscreenenter"",""1"",""3698""
","
","
","""event"",""trial"",""time""
""fullscreenenter"",""1"",""3698""
","
",,260.2,run_exp/static/images/task_images/land.jpg,65,,,,,,,16,,,14,,,,,,,,53910,2,0,FALSE,,,
dig,239,695878,0.0-70.0-0.0,"""event"",""trial"",""time""
""fullscreenenter"",""1"",""3698""
","
","
","""event"",""trial"",""time""
""fullscreenenter"",""1"",""3698""
","
",,,,,,,,,,,,"[{""stimulus"":""run_exp/static/images/task_images/dig.jpg"",""time"":0.09999999962747097},{""stimulus"":""run_exp/static/images/task_images/land.jpg"",""time"":922.5},{""stimulus"":""run_exp/static/images/task_images/dig.jpg"",""time"":1834.5999999996275}]",[],14,,,,,,,,,,,,,,
harvest,240,696886,0.0-70.0-1.0,"""event"",""trial"",""time""
""fullscreenenter"",""1"",""3698""
","
","
","""event"",""trial"",""time""
""fullscreenenter"",""1"",""3698""
","
",,null,run_exp/static/images/task_images/gems/16.jpg,null,,,,,,,2,,,14,,,,,16,0.102988064,0.125,,,,,,,
decision,241,696996,0.0-70.0-2.0,"""event"",""trial"",""time""
""fullscreenenter"",""1"",""3698""
","
","
","""event"",""trial"",""time""
""fullscreenenter"",""1"",""3698""
","
",,107.5,run_exp/static/images/task_images/land.jpg,76,,,,,,,2,,,14,,,,,,,,57779,2,1,TRUE,,,
travel,242,706902,0.0-71.0-0.0,"""event"",""trial"",""time""
""fullscreenenter"",""1"",""3698""
","
","
","""event"",""trial"",""time""
""fullscreenenter"",""1"",""3698""
","
