trial_type,trial_index,time_elapsed,internal_node_id,success,rt,stimulus,key_press,prompt,subject_id,age,gender,button_pressed,next_reward,animation_sequence,responses,planet,curr_prac_trial,n_prac_rounds,alien,aliens,reward_received,decay_rate_actual,decay_rate_exp,time_in_block,block_num,prt,last_trial_on_planet,button_html,bonus,num_failures
pavlovia,0,3,0.0-0.0,,,,,,,,,,,,,,,,,,,,,,,,,,,
fullscreen,1,7181,0.0-1.0,TRUE,,,,,,,,,,,,,,,,,,,,,,,,,,
instruc_welcome,2,16957,0.0-2.0,,null,run_exp/static/audio/clip_1_welcome.m4a,null,"<p>Howdy! In this experiment, you’ll be an explorer traveling through space to collect space treasure.</p><p>Your mission is to collect as much treasure as possible.</p><br><br><p><img src='run_exp/static/images/task_images/opening_img-01.jpg' height='300' width='auto'></p>",ScZlWtJmDLGDRVe_a5Ke5UddwllDBGZ_MLRP_4PjyRFRWbxW3avQ,10.37,male,,,,,,,,,,,,,,,,,,,
audio-keyboard-response,3,33536,0.0-3.0,,null,run_exp/static/audio/clip_2_move.m4a,null,,,,,,,,,,,,,,,,,,,,,,,
welcome_dec,4,41070,0.0-4.0,,7531.97,"<p>Howdy! In this experiment, you’ll be an explorer traveling through space to collect space treasure.</p><p>Your mission is to collect as much treasure as possible.</p><br><br><p><img src='run_exp/static/images/task_images/opening_img-01.jpg' height='300' width='auto'></p>",,,,,,1,,,,,,,,,,,,,,,,,,
html-keyboard-response,5,43955,0.0-5.0,,2882.535,"<p>Howdy! In this experiment, you’ll be an explorer traveling through space to collect space treasure.</p><p>Your mission is to collect as much treasure as possible.</p><br><br><p><img src='run_exp/static/images/task_images/opening_img-01.jpg' height='300' width='auto'></p><button class=""jspsych-html-btn-unchosen""><img src=""run_exp/static/images/task_images/planet-01.jpg"" height=""50""></button><button class=""jspsych-html-btn-chosen""><img src=""run_exp/static/images/task_images/planet-02.jpg"" height=""50""></button><p><b>[press the space bar to lock in your answer]<b><br></p>",32,,,,,,,,,,,,,,,,,,,,,,,
instruc_goal,6,53986,0.0-6.0-0.0,,null,run_exp/static/audio/clip_3_goal.m4a,null,"<p> As a space explorer, you’ll visit different planets to dig for space treasure, these pink gems.</p> <p> The more treasure you dig up, the more bonus money you’ll win! </p><br><br><p><img src='run_exp/static/images/task_images/pink_gem.jpg' height='300' width='auto'></p>",,,,,,,,,,,,,,,,,,,,,,
instruc_goal,7,58846,0.0-6.0-1.0,,4857.87,"<p> As a space explorer, you’ll visit different planets to dig for space treasure, these pink gems.</p> <p> The more treasure you dig up, the more bonus money you’ll win! </p><br><br><p><img src='run_exp/static/images/task_images/pink_gem.jpg' height='300' width='auto'></p>",,,,,,1,,,,,,,,,,,,,,,,,,
html-keyboard-response,8,62112,0.0-6.0-2.0,,3265.32,"<p> As a space explorer, you’ll visit different planets to dig for space treasure, these pink gems.</p> <p> The more treasure you dig up, the more bonus money you’ll win! </p><br><br><p><img src='run_exp/static/images/task_images/pink_gem.jpg' height='300' width='auto'></p><button class=""jspsych-html-btn-unchosen""><img src=""run_exp/static/images/task_images/planet-01.jpg"" height=""50""></button><button class=""jspsych-html-btn-chosen""><img src=""run_exp/static/images/task_images/planet-02.jpg"" height=""50""></button><p><b>[press the space bar to lock in your answer]<b><br></p>",32,,,,,,,,,,,,,,,,,,,,,,,
instruc_dig,9,78106,0.0-7.0-0.0,,null,run_exp/static/audio/clip_4_dig.m4a,null,,,,,,100,,,,,,,,,,,,,,,,,
instruc_dig_try,10,79692,0.0-7.0-1.0,,1585.525,"<p> When you’ve arrived at a new planet, you will dig once. </p> <p>Then, you get to decide if you want to stay on the planet and dig again or travel to a new planet and dig there.</p> <p> To stay and dig, press the letter <strong>‘A’</strong> on your keyboard. Try pressing it now! </p><p><img src='run_exp/static/images/task_images/land.jpg'  height='700' width='auto'></p>",65,"<p> When you’ve arrived at a new planet, you will dig once. </p> <p>Then, you get to decide if you want to stay on the planet and dig again or travel to a new planet and dig there.</p> <p> To stay and dig, press the letter <strong>‘A’</strong> on your keyboard. Try pressing it now! </p><p><img src='run_exp/static/images/task_images/land.jpg'  height='700' width='auto'></p>",,,,,100,,,,,,,,,,,,,,,,,
dig_prac,11,81704,0.0-7.0-2.0,,,,,,,,,,,"[{""stimulus"":""run_exp/static/images/task_images/dig.jpg"",""time"":0.21999998716637492},{""stimulus"":""run_exp/static/images/task_images/land.jpg"",""time"":669.2650000331923},{""stimulus"":""run_exp/static/images/task_images/dig.jpg"",""time"":1338.9200000092387}]",[],,,,,,,,,,,,,,,
instruc_travel,12,117947,0.0-7.0-3.0,,null,run_exp/static/audio/clip_5_travel.m4a,null,"<p>Every time you dig up gems, there are less gems on the planet, so the more you dig on a planet the fewer gems you’ll get with each dig.</p><p>When gems are running low, you may want to travel to a new planet. </p> <p>  Planets are very far apart in this galaxy, so it will take some time to travel between them. </p> <br><p>There are lots and lots of planets for you to visit, so you won’t be able to return to any planets you’ve seen before. </p><br><p>To leave this planet and travel to a new one, press the letter <strong>‘L’</strong> on your keyboard. Try pressing it now! </p><p><img src='run_exp/static/images/task_images/rocket-01.jpg'  height='600' width='auto'></p>",,,,,,,,,,,,,,,,,,,,,,
instruc_travel_try,13,120371,0.0-7.0-4.0,,2423.645,"<p>Every time you dig up gems, there are less gems on the planet, so the more you dig on a planet the fewer gems you’ll get with each dig.</p><p>When gems are running low, you may want to travel to a new planet. </p> <p>  Planets are very far apart in this galaxy, so it will take some time to travel between them. </p> <br><p>There are lots and lots of planets for you to visit, so you won’t be able to return to any planets you’ve seen before. </p><br><p>To leave this planet and travel to a new one, press the letter <strong>‘L’</strong> on your keyboard. Try pressing it now! </p><p><img src='run_exp/static/images/task_images/rocket-01.jpg'  height='600' width='auto'></p>",76,"<p>Every time you dig up gems, there are less gems on the planet, so the more you dig on a planet the fewer gems you’ll get with each dig.</p><p>When gems are running low, you may want to travel to a new planet. </p> <p>  Planets are very far apart in this galaxy, so it will take some time to travel between them. </p> <br><p>There are lots and lots of planets for you to visit, so you won’t be able to return to any planets you’ve seen before. </p><br><p>To leave this planet and travel to a new one, press the letter <strong>‘L’</strong> on your keyboard. Try pressing it now! </p><p><img src='run_exp/static/images/task_images/rocket-01.jpg'  height='600' width='auto'></p>",,,,,,,,,,,,,,,,,,,,,,
travel_prac,14,130384,0.0-7.0-5.0,,,,,,,,,,,"[{""stimulus"":""run_exp/static/images/task_images/rocket-01.jpg"",""time"":0.13000000035390258},{""stimulus"":""run_exp/static/images/task_images/rocket-02.jpg"",""time"":1118.7950000166893},{""stimulus"":""run_exp/static/images/task_images/rocket-03.jpg"",""time"":2236.99000000488},{""stimulus"":""run_exp/static/images/task_images/rocket-04.jpg"",""time"":3344.4299999973737},{""stimulus"":""run_exp/static/images/task_images/rocket-05.jpg"",""time"":4450.215000018943},{""stimulus"":""run_exp/static/images/task_images/rocket-06.jpg"",""time"":5569.52999997884},{""stimulus"":""run_exp/static/images/task_images/rocket-07.jpg"",""time"":6675.14000000665},{""stimulus"":""run_exp/static/images/task_images/rocket-08.jpg"",""time"":7793.074999994133},{""stimulus"":""run_exp/static/images/task_images/rocket-09.jpg"",""time"":8894.03999998467}]",[],0,,,,,,,,,,,,,,
instruc_alien_greet,15,157556,0.0-7.0-6.0,,null,run_exp/static/audio/clip_6_alien.m4a,null,"<p>When you arrive at a new planet, the alien who owns the treasure mine on that planet will greet you!</p><p>The better an alien takes care of their mine the easier it is to dig for gems. Some aliens take better care of their mine than others. So, you won’t get exactly the same amount of gems on each planet.</p><p>What the alien looks like does not tell you anything about how many gems there are on the planet.</p><br><p><img src=""run_exp/static/images/task_images/aliens/instructions_aliens/planet/alien_planet-1.jpg""  height=""600"" width=""auto""></p>",,,,,,,,,,,,,,,,,,,,,,
instruc_alien_greet,16,161254,0.0-7.0-7.0,,3696.52,"<p>When you arrive at a new planet, the alien who owns the treasure mine on that planet will greet you!</p><p>The better an alien takes care of their mine the easier it is to dig for gems. Some aliens take better care of their mine than others. So, you won’t get exactly the same amount of gems on each planet.</p><p>What the alien looks like does not tell you anything about how many gems there are on the planet.</p><br><p><img src=""run_exp/static/images/task_images/aliens/instructions_aliens/planet/alien_planet-1.jpg""  height=""600"" width=""auto""></p>",,,,,,1,,,,,,,,,,,,,,,,,,
html-keyboard-response,17,162886,0.0-7.0-8.0,,1630.485,"<p>When you arrive at a new planet, the alien who owns the treasure mine on that planet will greet you!</p><p>The better an alien takes care of their mine the easier it is to dig for gems. Some aliens take better care of their mine than others. So, you won’t get exactly the same amount of gems on each planet.</p><p>What the alien looks like does not tell you anything about how many gems there are on the planet.</p><br><p><img src=""run_exp/static/images/task_images/aliens/instructions_aliens/planet/alien_planet-1.jpg""  height=""600"" width=""auto""></p><button class=""jspsych-html-btn-unchosen""><img src=""run_exp/static/images/task_images/planet-01.jpg"" height=""50""></button><button class=""jspsych-html-btn-chosen""><img src=""run_exp/static/images/task_images/planet-02.jpg"" height=""50""></button><p><b>[press the space bar to lock in your answer]<b><br></p>",32,,,,,,,,,,,,,,,,,,,,,,,
time_out,18,173956,0.0-8.0-0.0,,null,run_exp/static/audio/clip_7_timeout.m4a,null,"<p>If you don't make your choice fast enough, you’ll have to wait a few seconds before you can make another one.</p><p>You can’t dig for more gems or travel to new planets. You just have to sit and wait.</p><br><p><img src='run_exp/static/images/task_images/time_out.jpg'  height='600' width='auto'></p>",,,,,,,,,,,,,,,,,,,,,,
time_out,19,175648,0.0-8.0-1.0,,1690.175,"<p>If you don't make your choice fast enough, you’ll have to wait a few seconds before you can make another one.</p><p>You can’t dig for more gems or travel to new planets. You just have to sit and wait.</p><br><p><img src='run_exp/static/images/task_images/time_out.jpg'  height='600' width='auto'></p>",,,,,,1,,,,,,,,,,,,,,,,,,
html-keyboard-response,20,176342,0.0-8.0-2.0,,693.52,"<p>If you don't make your choice fast enough, you’ll have to wait a few seconds before you can make another one.</p><p>You can’t dig for more gems or travel to new planets. You just have to sit and wait.</p><br><p><img src='run_exp/static/images/task_images/time_out.jpg'  height='600' width='auto'></p><button class=""jspsych-html-btn-unchosen""><img src=""run_exp/static/images/task_images/planet-01.jpg"" height=""50""></button><button class=""jspsych-html-btn-chosen""><img src=""run_exp/static/images/task_images/planet-02.jpg"" height=""50""></button><p><b>[press the space bar to lock in your answer]<b><br></p>",32,,,,,,,,,,,,,,,,,,,,,,,
instruc_break,21,191996,0.0-9.0-0.0,,null,run_exp/static/audio/clip_8_break.m4a,null,"<p> After digging and traveling for a while, you’ll be able to take a break at home base. </p><p>The game will last 20 minutes no matter what.</p><p>You will visit home base every 5 minutes, so, you will visit home base three times during the game.</p><br><p><img src='run_exp/static/images/task_images/home_base.jpg' height='600' width='auto'></p>",,,,,,,,,,,,,,,,,,,,,,
instruc_break,22,234244,0.0-9.0-1.0,,42246.85,"<p> After digging and traveling for a while, you’ll be able to take a break at home base. </p><p>The game will last 20 minutes no matter what.</p><p>You will visit home base every 5 minutes, so, you will visit home base three times during the game.</p><br><p><img src='run_exp/static/images/task_images/home_base.jpg' height='600' width='auto'></p>",,,,,,1,,,,,,,,,,,,,,,,,,
html-keyboard-response,23,236215,0.0-9.0-2.0,,1970.13,"<p> After digging and traveling for a while, you’ll be able to take a break at home base. </p><p>The game will last 20 minutes no matter what.</p><p>You will visit home base every 5 minutes, so, you will visit home base three times during the game.</p><br><p><img src='run_exp/static/images/task_images/home_base.jpg' height='600' width='auto'></p><button class=""jspsych-html-btn-unchosen""><img src=""run_exp/static/images/task_images/planet-01.jpg"" height=""50""></button><button class=""jspsych-html-btn-chosen""><img src=""run_exp/static/images/task_images/planet-02.jpg"" height=""50""></button><p><b>[press the space bar to lock in your answer]<b><br></p>",32,,,,,,,,,,,,,,,,,,,,,,,
instruc_prac_game,24,247140,0.0-10.0-0.0,,null,run_exp/static/audio/clip_9_practice.m4a,null,"<p> Are you ready to play a practice game? </p> <p>In this practice game, you'll be digging up barrels of gems. But, in the real game, you'll be digging up the gems themselves. </p>",,,,,,,,,,,,,,,,,,,,,,
html-button-response,25,250062,0.0-10.0-1.0,,2920.675,"<p> Are you ready to play a practice game? </p> <p>In this practice game, you'll be digging up barrels of gems. But, in the real game, you'll be digging up the gems themselves. </p>",,,,,,0,,,,,,,,,,,,,,,,,,
alien_welcome_prac,26,255069,0.0-11.0-0.0,,null,run_exp/static/images/task_images/aliens/practice_aliens/planet/alien_planet-5.jpg,null,,,,,,,,,,,,,,,,,,,,,,,
land_prac,27,255583,0.0-11.0-1.0,,null,run_exp/static/images/task_images/land.jpg,null,,,,,,104,,,0,,,,,,,,,,,,,,
dig_prac,28,257586,0.0-11.0-2.0,,,,,,,,,,,"[{""stimulus"":""run_exp/static/images/task_images/dig.jpg"",""time"":0.18999999156221747},{""stimulus"":""run_exp/static/images/task_images/land.jpg"",""time"":681.4250000170432},{""stimulus"":""run_exp/static/images/task_images/dig.jpg"",""time"":1350.7450000033714}]",[],,,,,,,,,,,,,,,
harvest_prac,29,258601,0.0-11.0-3.0,,null,run_exp/static/images/task_images/barrel_text.jpg,null,,,,,,,,,,,,,,,,,,,,,,,
decision_prac,30,261379,0.0-11.0-4.0,,2776.76,run_exp/static/images/task_images/land.jpg,65,,,,,,,,,,1,,,,,,,,,,,,,
dig_prac,31,263390,0.0-12.0-0.0,,,,,,,,,,,"[{""stimulus"":""run_exp/static/images/task_images/dig.jpg"",""time"":0.07999996887519956},{""stimulus"":""run_exp/static/images/task_images/land.jpg"",""time"":670.2899999800138},{""stimulus"":""run_exp/static/images/task_images/dig.jpg"",""time"":1341.7299999855459}]",[],,,,,,,,,,,,,,,
harvest_prac,32,264399,0.0-12.0-1.0,,null,run_exp/static/images/task_images/barrel_text.jpg,null,,,,,,,,,,,,,,,,,,,,,,,
decision_prac,33,267279,0.0-12.0-2.0,,2879.01,run_exp/static/images/task_images/land.jpg,65,,,,,,,,,,2,,,,,,,,,,,,,
dig_prac,34,269289,0.0-13.0-0.0,,,,,,,,,,,"[{""stimulus"":""run_exp/static/images/task_images/dig.jpg"",""time"":0.06999995093792677},{""stimulus"":""run_exp/static/images/task_images/land.jpg"",""time"":677.144999965094},{""stimulus"":""run_exp/static/images/task_images/dig.jpg"",""time"":1343.704999948386}]",[],,,,,,,,,,,,,,,
harvest_prac,35,270297,0.0-13.0-1.0,,null,run_exp/static/images/task_images/barrel_text.jpg,null,,,,,,,,,,,,,,,,,,,,,,,
decision_prac,36,272311,0.0-13.0-2.0,,2013.695,run_exp/static/images/task_images/land.jpg,65,,,,,,,,,,3,,,,,,,,,,,,,
dig_prac,37,274316,0.0-14.0-0.0,,,,,,,,,,,"[{""stimulus"":""run_exp/static/images/task_images/dig.jpg"",""time"":0.07000000914558768},{""stimulus"":""run_exp/static/images/task_images/land.jpg"",""time"":677.0200000028126},{""stimulus"":""run_exp/static/images/task_images/dig.jpg"",""time"":1348.3500000438653}]",[],,,,,,,,,,,,,,,
harvest_prac,38,275330,0.0-14.0-1.0,,null,run_exp/static/images/task_images/barrel_text.jpg,null,,,,,,,,,,,,,,,,,,,,,,,
decision_prac,39,277639,0.0-14.0-2.0,,2308.59,run_exp/static/images/task_images/land.jpg,76,,,,,,,,,,4,,,,,,,,,,,,,
travel,40,285330,0.0-15.0-0.0,,,,,,,,,,,"[{""stimulus"":""run_exp/static/images/task_images/rocket-01.jpg"",""time"":0.0850000069476664},{""stimulus"":""run_exp/static/images/task_images/rocket-02.jpg"",""time"":863.0349999875762},{""stimulus"":""run_exp/static/images/task_images/rocket-03.jpg"",""time"":1717.6500000059605},{""stimulus"":""run_exp/static/images/task_images/rocket-04.jpg"",""time"":2573.015000030864},{""stimulus"":""run_exp/static/images/task_images/rocket-05.jpg"",""time"":3428.82999998983},{""stimulus"":""run_exp/static/images/task_images/rocket-06.jpg"",""time"":4283.434999990277},{""stimulus"":""run_exp/static/images/task_images/rocket-07.jpg"",""time"":5137.205000035465},{""stimulus"":""run_exp/static/images/task_images/rocket-08.jpg"",""time"":5993.7299999874085},{""stimulus"":""run_exp/static/images/task_images/rocket-09.jpg"",""time"":6848.794999998063}]",[],0,,,,,,,,,,,,,,
alien_welcome_prac,41,290345,0.0-15.0-1.0,,null,run_exp/static/images/task_images/aliens/practice_aliens/planet/alien_planet-4.jpg,null,,,,,,,,,,,,,,,,,,,,,,,
land_prac,42,290846,0.0-15.0-2.0,,null,run_exp/static/images/task_images/land.jpg,null,,,,,,99,,,0,,,,,,,,,,,,,,
dig_prac,43,292860,0.0-15.0-3.0,,,,,,,,,,,"[{""stimulus"":""run_exp/static/images/task_images/dig.jpg"",""time"":0.1449999981559813},{""stimulus"":""run_exp/static/images/task_images/land.jpg"",""time"":677.8300000005402},{""stimulus"":""run_exp/static/images/task_images/dig.jpg"",""time"":1346.8400000128895}]",[],,,,,,,,,,,,,,,
harvest_prac,44,293869,0.0-15.0-4.0,,null,run_exp/static/images/task_images/barrel_text.jpg,null,,,,,,,,,,,,,,,,,,,,,,,
decision_prac,45,295487,0.0-15.0-5.0,,1616.995,run_exp/static/images/task_images/land.jpg,65,,,,,,,,,,,1,,,,,,,,,,,,
quiz_instruc,46,307925,0.0-16.0-0.0,,12436.865,run_exp/static/audio/clip_10_quiz.m4a,,,,,,0,,,,,,,,,,,,,,,,,,
instruc_repeat,47,350681,0.0-16.0-1.0,,null,"<p> Are you ready to play a practice game? </p> <p>In this practice game, you'll be digging up barrels of gems. But, in the real game, you'll be digging up the gems themselves. </p>",null,"<p>In this game, your goal is to collect as many gems as you can. That’s how you will win bonus money. </p> <p>The entire game will last 20 minutes no matter how many gems you collect or how many planets you visit. </p><p>To stay on a planet and dig again, press the letter A on your keyboard. To leave for a new planet, press the letter L.</p><p>The more you dig on a planet, the fewer gems you’ll get with each dig which is why you might consider leaving for a new planet. </p><p>When you arrive at a new planet, you’ll be greeted by an alien. What the alien looks like does not tell you anything about how much treasure is on the planet. </p>",,,,,,,,,,,,,,,,,,,,,,
instruc_repeat_continue,48,353446,0.0-16.0-2.0,,2764.315,"<p> Are you ready to play a practice game? </p> <p>In this practice game, you'll be digging up barrels of gems. But, in the real game, you'll be digging up the gems themselves. </p>",,,,,,0,,,,,,,,,,,,,,,,,,
quiz_q_1_ask,49,358119,0.0-16.0-3.0,,4671.305,run_exp/static/audio/clip_11_q1_ask.m4a,,,,,,2,,,,,,,,,,,,,,,,,,
quiz_q_1_fb_correct,50,361961,0.0-17.0-0.0,,null,run_exp/static/audio/clip_12_q1_corrrect.m4a,null,<p>That’s correct. You win extra money by collecting more gems.</p>,,,,,,,,,,,,,,,,,,,,,,
quiz_q_2_ask,51,371399,0.0-17.0-1.0,,9436.905,run_exp/static/audio/clip_14_q2_ask.m4a,,,,,,1,,,,,,,,,,,,,,,,,,
quiz_q_2_fb_correct,52,375400,0.0-18.0-0.0,,null,run_exp/static/audio/clip_15_q2_correct.m4a,null,<p>That’s correct. The experiment is 20 minutes no matter what.</p>,,,,,,,,,,,,,,,,,,,,,,
quiz_q_3_ask,53,381574,0.0-18.0-1.0,,6172.875,run_exp/static/audio/clip_17_q3_ask.m4a,,,,,,1,,,,,,,,,,,,,,,,,,
quiz_q_3_fb_correct,54,385561,0.0-19.0-0.0,,null,run_exp/static/audio/clip_18_q3_correct.m4a,null,<p> That’s correct. You press the letter L to travel to a new planet.</p>,,,,,,,,,,,,,,,,,,,,,,
quiz_q_4_ask,55,389432,0.0-19.0-1.0,,3870.12,run_exp/static/audio/clip_20_q4_ask.m4a,,,,,,0,,,,,,,,,,,,,,,,,,
quiz_q_4_fb_correct,56,394761,0.0-20.0-0.0,,null,run_exp/static/audio/clip_21_q4_correct.m4a,null,<p> That’s correct. The more you dig on a planet the fewer gems you’ll get with each dig. </p>,,,,,,,,,,,,,,,,,,,,,,
quiz_q_5_ask,57,397450,0.0-20.0-1.0,,2687.48,run_exp/static/audio/clip_23_q5_ask.m4a,,,,,,1,,,,,,,,,,,,,,,,,,
quiz_q_5_fb_correct,58,402441,0.0-21.0-0.0,,null,run_exp/static/audio/clip_24_q5_correct.m4a,null,<p> That’s correct. The alien tells you nothing about how much treasure is on the planet.</p>,,,,,,,,,,,,,,,,,,,,,,
quiz_correct,59,405901,0.0-22.0-0.0,,null,run_exp/static/audio/clip_26_correct_quiz.m4a,null,,,,,,,,,,,,,,,,,,,,,,,
quiz_correct_continue,60,407449,0.0-22.0-1.0,,1548.095,<p>Good job! You're now ready to move on to the real game!</p>,,,,,,0,,,,,,,,,,,,,,,,,,
audio-keyboard-response,61,417561,0.0-22.0-2.0,,null,run_exp/static/audio/clip_28_real_game.m4a,null,,,,,,,,,,,,,,,,,,,,,,,
instruc_begin_exp_contine,62,418881,0.0-22.0-3.0,,1318.71,"<p>Now that you know how  to dig for space treasure and travel to new planets,you can start exploring! </p><p>Do you want to go over the instructions again or get started with the real game?</p>",,,,,,1,,,,,,1,,,,,,,,,,,,
alien_welcome,63,423888,0.0-23.0-0.0,,null,run_exp/static/images/task_images/aliens/old_aliens/planet/alien_planet-56.jpg,null,,,,,,,,,,,,56,"56,14,19,42,64,26,72,22,36,63,76,59,34,39,24,4,44,41,33,54,71,58,15,75,12,3,57,20,40,43,16,27,50,77,60,79,67,55,48,78,65,74,25,68,62,66,30,7",,,,,,,,,,
land,64,424402,0.0-23.0-1.0,,null,run_exp/static/images/task_images/land.jpg,null,,,,,,97,,,1,,,,,,,,,,,,,,
dig,65,426415,0.0-23.0-2.0,,,,,,,,,,,"[{""stimulus"":""run_exp/static/images/task_images/dig.jpg"",""time"":0.15999999595806003},{""stimulus"":""run_exp/static/images/task_images/land.jpg"",""time"":670.1999999932013},{""stimulus"":""run_exp/static/images/task_images/dig.jpg"",""time"":1340.6599999871105}]",[],1,,,,,,,,,,,,,,
harvest,66,427426,0.0-23.0-3.0,,null,run_exp/static/images/task_images/gems/97.jpg,null,,,,,,26,,,1,,,,,97,0.269236977,0.268041237,,,,,,,
decision,67,430260,0.0-23.0-4.0,,2832.735,run_exp/static/images/task_images/land.jpg,65,,,,,,26,,,1,,,,,,,,11383,1,0,FALSE,,,
dig,68,430435,0.0-24.0-0.0,,,,,,,,,,,"[{""stimulus"":""run_exp/static/images/task_images/dig.jpg"",""time"":0.10000000474974513},{""stimulus"":""run_exp/static/images/task_images/land.jpg"",""time"":55.74999999953434},{""stimulus"":""run_exp/static/images/task_images/dig.jpg"",""time"":110.84500001743436}]",[],1,,,,,,,,,,,,,,
harvest,69,431444,0.0-24.0-1.0,,null,run_exp/static/images/task_images/gems/26.jpg,null,,,,,,6,,,1,,,,,26,0.244469993,0.230769231,,,,,,,
decision,70,432837,0.0-24.0-2.0,,1391.56,run_exp/static/images/task_images/land.jpg,76,,,,,,6,,,1,,,,,,,,13955,1,1,TRUE,,,
travel,71,441458,0.0-25.0-0.0,,,,,,,,,,,"[{""stimulus"":""run_exp/static/images/task_images/rocket-01.jpg"",""time"":0.07000000914558768},{""stimulus"":""run_exp/static/images/task_images/rocket-02.jpg"",""time"":961.0000000102445},{""stimulus"":""run_exp/static/images/task_images/rocket-03.jpg"",""time"":1919.560000009369},{""stimulus"":""run_exp/static/images/task_images/rocket-04.jpg"",""time"":2883.6000000010245},{""stimulus"":""run_exp/static/images/task_images/rocket-05.jpg"",""time"":3829.9150000093505},{""stimulus"":""run_exp/static/images/task_images/rocket-06.jpg"",""time"":4795.675000001211},{""stimulus"":""run_exp/static/images/task_images/rocket-07.jpg"",""time"":5742.359999974724},{""stimulus"":""run_exp/static/images/task_images/rocket-08.jpg"",""time"":6693.534999969415},{""stimulus"":""run_exp/static/images/task_images/rocket-09.jpg"",""time"":7655.964999983553}]",[],1,,,,,,,,,,,,,,
alien_welcome,72,446464,0.0-25.0-1.0,,null,run_exp/static/images/task_images/aliens/old_aliens/planet/alien_planet-14.jpg,null,,,,,,,,,,,,14,"56,14,19,42,64,26,72,22,36,63,76,59,34,39,24,4,44,41,33,54,71,58,15,75,12,3,57,20,40,43,16,27,50,77,60,79,67,55,48,78,65,74,25,68,62,66,30,7",,,,,,,,,,
land,73,446966,0.0-25.0-2.0,,null,run_exp/static/images/task_images/land.jpg,null,,,,,,100,,,2,,,,,,,,,,,,,,
dig,74,448982,0.0-25.0-3.0,,,,,,,,,,,"[{""stimulus"":""run_exp/static/images/task_images/dig.jpg"",""time"":0.17499999376013875},{""stimulus"":""run_exp/static/images/task_images/land.jpg"",""time"":681.1950000119396},{""stimulus"":""run_exp/static/images/task_images/dig.jpg"",""time"":1349.1550000035204}]",[],2,,,,,,,,,,,,,,
harvest,75,449993,0.0-25.0-4.0,,null,run_exp/static/images/task_images/gems/100.jpg,null,,,,,,26,,,2,,,,,100,0.25898278,0.26,,,,,,,
decision,76,450442,0.0-25.0-5.0,,447.55,run_exp/static/images/task_images/land.jpg,65,,,,,,26,,,2,,,,,,,,31560,1,0,FALSE,,,
dig,77,452995,0.0-26.0-0.0,,,,,,,,,,,"[{""stimulus"":""run_exp/static/images/task_images/dig.jpg"",""time"":0.07500004721805453},{""stimulus"":""run_exp/static/images/task_images/land.jpg"",""time"":851.6700000036508},{""stimulus"":""run_exp/static/images/task_images/dig.jpg"",""time"":1714.2600000370294}]",[],2,,,,,,,,,,,,,,
harvest,78,454005,0.0-26.0-1.0,,null,run_exp/static/images/task_images/gems/26.jpg,null,,,,,,7,,,2,,,,,26,0.275809809,0.269230769,,,,,,,
decision,79,454498,0.0-26.0-2.0,,491.575,run_exp/static/images/task_images/land.jpg,76,,,,,,7,,,2,,,,,,,,35616,1,1,TRUE,,,
travel,80,464012,0.0-27.0-0.0,,,,,,,,,,,"[{""stimulus"":""run_exp/static/images/task_images/rocket-01.jpg"",""time"":0.07499998901039362},{""stimulus"":""run_exp/static/images/task_images/rocket-02.jpg"",""time"":1061.9799999985844},{""stimulus"":""run_exp/static/images/task_images/rocket-03.jpg"",""time"":2121.4100000215694},{""stimulus"":""run_exp/static/images/task_images/rocket-04.jpg"",""time"":3184.4900000141934},{""stimulus"":""run_exp/static/images/task_images/rocket-05.jpg"",""time"":4240.280000027269},{""stimulus"":""run_exp/static/images/task_images/rocket-06.jpg"",""time"":5281.985000008717},{""stimulus"":""run_exp/static/images/task_images/rocket-07.jpg"",""time"":6339.2900000326335},{""stimulus"":""run_exp/static/images/task_images/rocket-08.jpg"",""time"":7395.85500000976},{""stimulus"":""run_exp/static/images/task_images/rocket-09.jpg"",""time"":8456.884999992326}]",[],2,,,,,,,,,,,,,,
alien_welcome,81,469020,0.0-27.0-1.0,,null,run_exp/static/images/task_images/aliens/old_aliens/planet/alien_planet-19.jpg,null,,,,,,,,,,,,19,"56,14,19,42,64,26,72,22,36,63,76,59,34,39,24,4,44,41,33,54,71,58,15,75,12,3,57,20,40,43,16,27,50,77,60,79,67,55,48,78,65,74,25,68,62,66,30,7",,,,,,,,,,
land,82,469521,0.0-27.0-2.0,,null,run_exp/static/images/task_images/land.jpg,null,,,,,,107,,,3,,,,,,,,,,,,,,
dig,83,471539,0.0-27.0-3.0,,,,,,,,,,,"[{""stimulus"":""run_exp/static/images/task_images/dig.jpg"",""time"":0.17499999376013875},{""stimulus"":""run_exp/static/images/task_images/land.jpg"",""time"":676.4599999878556},{""stimulus"":""run_exp/static/images/task_images/dig.jpg"",""time"":1347.7050000219606}]",[],3,,,,,,,,,,,,,,
harvest,84,472551,0.0-27.0-4.0,,null,run_exp/static/images/task_images/gems/107.jpg,null,,,,,,50,,,3,,,,,107,0.471943943,0.46728972,,,,,,,
decision,85,472967,0.0-27.0-5.0,,414.425,run_exp/static/images/task_images/land.jpg,65,,,,,,50,,,3,,,,,,,,54085,1,0,FALSE,,,
dig,86,475565,0.0-28.0-0.0,,,,,,,,,,,"[{""stimulus"":""run_exp/static/images/task_images/dig.jpg"",""time"":0.07000000914558768},{""stimulus"":""run_exp/static/images/task_images/land.jpg"",""time"":862.1350000030361},{""stimulus"":""run_exp/static/images/task_images/dig.jpg"",""time"":1730.8799999882467}]",[],3,,,,,,,,,,,,,,
harvest,87,476572,0.0-28.0-1.0,,null,run_exp/static/images/task_images/gems/50.jpg,null,,,,,,28,,,3,,,,,50,0.56638908,0.56,,,,,,,
decision,88,477309,0.0-28.0-2.0,,735.385,run_exp/static/images/task_images/land.jpg,65,,,,,,28,,,3,,,,,,,,58427,1,1,FALSE,,,
dig,89,479574,0.0-29.0-0.0,,,,,,,,,,,"[{""stimulus"":""run_exp/static/images/task_images/dig.jpg"",""time"":0.0849999487400055},{""stimulus"":""run_exp/static/images/task_images/land.jpg"",""time"":767.6449999562465},{""stimulus"":""run_exp/static/images/task_images/dig.jpg"",""time"":1515.2499999967404}]",[],3,,,,,,,,,,,,,,
harvest,90,480583,0.0-29.0-1.0,,null,run_exp/static/images/task_images/gems/28.jpg,null,,,,,,15,,,3,,,,,28,0.523218801,0.535714286,,,,,,,
decision,91,480696,0.0-29.0-2.0,,112.135,run_exp/static/images/task_images/land.jpg,76,,,,,,15,,,3,,,,,,,,61814,1,2,TRUE,,,
travel,92,490596,0.0-30.0-0.0,,,,,,,,,,,"[{""stimulus"":""run_exp/static/images/task_images/rocket-01.jpg"",""time"":0.06500002928078175},{""stimulus"":""run_exp/static/images/task_images/rocket-02.jpg"",""time"":1100.8700000238605},{""stimulus"":""run_exp/static/images/task_images/rocket-03.jpg"",""time"":2206.0400000191294},{""stimulus"":""run_exp/static/images/task_images/rocket-04.jpg"",""time"":3301.275000034366},{""stimulus"":""run_exp/static/images/task_images/rocket-05.jpg"",""time"":4407.210000033956},{""stimulus"":""run_exp/static/images/task_images/rocket-06.jpg"",""time"":5497.785000014119},{""stimulus"":""run_exp/static/images/task_images/rocket-07.jpg"",""time"":6601.045000017621},{""stimulus"":""run_exp/static/images/task_images/rocket-08.jpg"",""time"":7688.815000001341},{""stimulus"":""run_exp/static/images/task_images/rocket-09.jpg"",""time"":8795.030000037514}]",[],3,,,,,,,,,,,,,,
alien_welcome,93,495599,0.0-30.0-1.0,,null,run_exp/static/images/task_images/aliens/old_aliens/planet/alien_planet-42.jpg,null,,,,,,,,,,,,42,"56,14,19,42,64,26,72,22,36,63,76,59,34,39,24,4,44,41,33,54,71,58,15,75,12,3,57,20,40,43,16,27,50,77,60,79,67,55,48,78,65,74,25,68,62,66,30,7",,,,,,,,,,
land,94,496113,0.0-30.0-2.0,,null,run_exp/static/images/task_images/land.jpg,null,,,,,,106,,,4,,,,,,,,,,,,,,
dig,95,498122,0.0-30.0-3.0,,,,,,,,,,,"[{""stimulus"":""run_exp/static/images/task_images/dig.jpg"",""time"":0.15999999595806003},{""stimulus"":""run_exp/static/images/task_images/land.jpg"",""time"":670.0699999928474},{""stimulus"":""run_exp/static/images/task_images/dig.jpg"",""time"":1339.9799999897368}]",[],4,,,,,,,,,,,,,,
harvest,96,499136,0.0-30.0-4.0,,null,run_exp/static/images/task_images/gems/106.jpg,null,,,,,,58,,,4,,,,,106,0.551665855,0.547169811,,,,,,,
decision,97,500132,0.0-30.0-5.0,,995.915,run_exp/static/images/task_images/land.jpg,65,,,,,,58,,,4,,,,,,,,81251,1,0,FALSE,,,
dig,98,502151,0.0-31.0-0.0,,,,,,,,,,,"[{""stimulus"":""run_exp/static/images/task_images/dig.jpg"",""time"":0.08000002708286047},{""stimulus"":""run_exp/static/images/task_images/land.jpg"",""time"":680.9050000156276},{""stimulus"":""run_exp/static/images/task_images/dig.jpg"",""time"":1347.8699999977835}]",[],4,,,,,,,,,,,,,,
harvest,99,503163,0.0-31.0-1.0,,null,run_exp/static/images/task_images/gems/58.jpg,null,,,,,,27,,,4,,,,,58,0.464369106,0.465517241,,,,,,,
decision,100,503497,0.0-31.0-2.0,,332.47,run_exp/static/images/task_images/land.jpg,65,,,,,,27,,,4,,,,,,,,84615,1,1,FALSE,,,
dig,101,506171,0.0-32.0-0.0,,,,,,,,,,,"[{""stimulus"":""run_exp/static/images/task_images/dig.jpg"",""time"":0.06999995093792677},{""stimulus"":""run_exp/static/images/task_images/land.jpg"",""time"":891.1349999834783},{""stimulus"":""run_exp/static/images/task_images/dig.jpg"",""time"":1792.1949999872595}]",[],4,,,,,,,,,,,,,,
harvest,102,507187,0.0-32.0-1.0,,null,run_exp/static/images/task_images/gems/27.jpg,null,,,,,,13,,,4,,,,,27,0.496423578,0.481481481,,,,,,,
decision,103,508262,0.0-32.0-2.0,,1075.03,run_exp/static/images/task_images/land.jpg,76,,,,,,13,,,4,,,,,,,,89381,1,2,TRUE,,,
travel,104,517190,0.0-33.0-0.0,,,,,,,,,,,"[{""stimulus"":""run_exp/static/images/task_images/rocket-01.jpg"",""time"":0.07000000914558768},{""stimulus"":""run_exp/static/images/task_images/rocket-02.jpg"",""time"":993.6199999647215},{""stimulus"":""run_exp/static/images/task_images/rocket-03.jpg"",""time"":1987.4650000128895},{""stimulus"":""run_exp/static/images/task_images/rocket-04.jpg"",""time"":2978.309999976773},{""stimulus"":""run_exp/static/images/task_images/rocket-05.jpg"",""time"":3976.974999997765},{""stimulus"":""run_exp/static/images/task_images/rocket-06.jpg"",""time"":4956.965000019409},{""stimulus"":""run_exp/static/images/task_images/rocket-07.jpg"",""time"":5953.884999966249},{""stimulus"":""run_exp/static/images/task_images/rocket-08.jpg"",""time"":6948.274999973364},{""stimulus"":""run_exp/static/images/task_images/rocket-09.jpg"",""time"":7943.65500001004}]",[],4,,,,,,,,,,,,,,
alien_welcome,105,522191,0.0-33.0-1.0,,null,run_exp/static/images/task_images/aliens/old_aliens/planet/alien_planet-64.jpg,null,,,,,,,,,,,,64,"56,14,19,42,64,26,72,22,36,63,76,59,34,39,24,4,44,41,33,54,71,58,15,75,12,3,57,20,40,43,16,27,50,77,60,79,67,55,48,78,65,74,25,68,62,66,30,7",,,,,,,,,,
land,106,522693,0.0-33.0-2.0,,null,run_exp/static/images/task_images/land.jpg,null,,,,,,104,,,5,,,,,,,,,,,,,,
dig,107,524696,0.0-33.0-3.0,,,,,,,,,,,"[{""stimulus"":""run_exp/static/images/task_images/dig.jpg"",""time"":0.1799999736249447},{""stimulus"":""run_exp/static/images/task_images/land.jpg"",""time"":683.8149999966845},{""stimulus"":""run_exp/static/images/task_images/dig.jpg"",""time"":1348.7650000024587}]",[],5,,,,,,,,,,,,,,
harvest,108,525707,0.0-33.0-4.0,,null,run_exp/static/images/task_images/gems/104.jpg,null,,,,,,60,,,5,,,,,104,0.572967884,0.576923077,,,,,,,
decision,109,526882,0.0-33.0-5.0,,1173.23,run_exp/static/images/task_images/land.jpg,65,,,,,,60,,,5,,,,,,,,108000,1,0,FALSE,,,
dig,110,528711,0.0-34.0-0.0,,,,,,,,,,,"[{""stimulus"":""run_exp/static/images/task_images/dig.jpg"",""time"":0.08999998681247234},{""stimulus"":""run_exp/static/images/task_images/land.jpg"",""time"":609.2500000377186},{""stimulus"":""run_exp/static/images/task_images/dig.jpg"",""time"":1232.285000034608}]",[],5,,,,,,,,,,,,,,
harvest,111,529723,0.0-34.0-1.0,,null,run_exp/static/images/task_images/gems/60.jpg,null,,,,,,21,,,5,,,,,60,0.356693412,0.35,,,,,,,
decision,112,530067,0.0-34.0-2.0,,343.355,run_exp/static/images/task_images/land.jpg,65,,,,,,21,,,5,,,,,,,,111185,1,1,FALSE,,,
dig,113,532735,0.0-35.0-0.0,,,,,,,,,,,"[{""stimulus"":""run_exp/static/images/task_images/dig.jpg"",""time"":0.07499998901039362},{""stimulus"":""run_exp/static/images/task_images/land.jpg"",""time"":894.220000016503},{""stimulus"":""run_exp/static/images/task_images/dig.jpg"",""time"":1780.0699999788776}]",[],5,,,,,,,,,,,,,,
harvest,114,533745,0.0-35.0-1.0,,null,run_exp/static/images/task_images/gems/21.jpg,null,,,,,,12,,,5,,,,,21,0.548146352,0.571428571,,,,,,,
decision,115,533831,0.0-35.0-2.0,,84.63,run_exp/static/images/task_images/land.jpg,76,,,,,,12,,,5,,,,,,,,114949,1,2,TRUE,,,
travel,116,543745,0.0-36.0-0.0,,,,,,,,,,,"[{""stimulus"":""run_exp/static/images/task_images/rocket-01.jpg"",""time"":0.0950000248849392},{""stimulus"":""run_exp/static/images/task_images/rocket-02.jpg"",""time"":1112.7599999890663},{""stimulus"":""run_exp/static/images/task_images/rocket-03.jpg"",""time"":2214.6349999820814},{""stimulus"":""run_exp/static/images/task_images/rocket-04.jpg"",""time"":3316.4600000018254},{""stimulus"":""run_exp/static/images/task_images/rocket-05.jpg"",""time"":4419.385000015609},{""stimulus"":""run_exp/static/images/task_images/rocket-06.jpg"",""time"":5519.555000006221},{""stimulus"":""run_exp/static/images/task_images/rocket-07.jpg"",""time"":6606.735000037588},{""stimulus"":""run_exp/static/images/task_images/rocket-08.jpg"",""time"":7708.45500001451},{""stimulus"":""run_exp/static/images/task_images/rocket-09.jpg"",""time"":8811.344999994617}]",[],5,,,,,,,,,,,,,,
alien_welcome,117,548750,0.0-36.0-1.0,,null,run_exp/static/images/task_images/aliens/old_aliens/planet/alien_planet-26.jpg,null,,,,,,,,,,,,26,"56,14,19,42,64,26,72,22,36,63,76,59,34,39,24,4,44,41,33,54,71,58,15,75,12,3,57,20,40,43,16,27,50,77,60,79,67,55,48,78,65,74,25,68,62,66,30,7",,,,,,,,,,
land,118,549263,0.0-36.0-2.0,,null,run_exp/static/images/task_images/land.jpg,null,,,,,,102,,,6,,,,,,,,,,,,,,
dig,119,551281,0.0-36.0-3.0,,,,,,,,,,,"[{""stimulus"":""run_exp/static/images/task_images/dig.jpg"",""time"":0.16499997582286596},{""stimulus"":""run_exp/static/images/task_images/land.jpg"",""time"":682.390000030864},{""stimulus"":""run_exp/static/images/task_images/dig.jpg"",""time"":1335.6849999981932}]",[],6,,,,,,,,,,,,,,
harvest,120,552291,0.0-36.0-4.0,,null,run_exp/static/images/task_images/gems/102.jpg,null,,,,,,78,,,6,,,,,102,0.764282556,0.764705882,,,,,,,
decision,121,552641,0.0-36.0-5.0,,349.36,run_exp/static/images/task_images/land.jpg,65,,,,,,78,,,6,,,,,,,,133759,1,0,FALSE,,,
dig,122,555298,0.0-37.0-0.0,,,,,,,,,,,"[{""stimulus"":""run_exp/static/images/task_images/dig.jpg"",""time"":0.06999995093792677},{""stimulus"":""run_exp/static/images/task_images/land.jpg"",""time"":897.324999968987},{""stimulus"":""run_exp/static/images/task_images/dig.jpg"",""time"":1767.42499996908}]",[],6,,,,,,,,,,,,,,
harvest,123,556310,0.0-37.0-1.0,,null,run_exp/static/images/task_images/gems/78.jpg,null,,,,,,63,,,6,,,,,78,0.804979964,0.807692308,,,,,,,
decision,124,557497,0.0-37.0-2.0,,1185.41,run_exp/static/images/task_images/land.jpg,65,,,,,,63,,,6,,,,,,,,138615,1,1,FALSE,,,
dig,125,559321,0.0-38.0-0.0,,,,,,,,,,,"[{""stimulus"":""run_exp/static/images/task_images/dig.jpg"",""time"":0.06499997107312083},{""stimulus"":""run_exp/static/images/task_images/land.jpg"",""time"":611.2899999716319},{""stimulus"":""run_exp/static/images/task_images/dig.jpg"",""time"":1218.6599999549799}]",[],6,,,,,,,,,,,,,,
harvest,126,560334,0.0-38.0-1.0,,null,run_exp/static/images/task_images/gems/63.jpg,null,,,,,,53,,,6,,,,,63,0.842356088,0.841269841,,,,,,,
decision,127,561156,0.0-38.0-2.0,,821.855,run_exp/static/images/task_images/land.jpg,65,,,,,,53,,,6,,,,,,,,142275,1,2,FALSE,,,
dig,128,563339,0.0-39.0-0.0,,,,,,,,,,,"[{""stimulus"":""run_exp/static/images/task_images/dig.jpg"",""time"":0.08000002708286047},{""stimulus"":""run_exp/static/images/task_images/land.jpg"",""time"":729.749999998603},{""stimulus"":""run_exp/static/images/task_images/dig.jpg"",""time"":1463.259999989532}]",[],6,,,,,,,,,,,,,,
harvest,129,564352,0.0-39.0-1.0,,null,run_exp/static/images/task_images/gems/53.jpg,null,,,,,,35,,,6,,,,,53,0.660101344,0.660377358,,,,,,,
decision,130,565291,0.0-39.0-2.0,,938.61,run_exp/static/images/task_images/land.jpg,65,,,,,,35,,,6,,,,,,,,146409,1,3,FALSE,,,
dig,131,567355,0.0-40.0-0.0,,,,,,,,,,,"[{""stimulus"":""run_exp/static/images/task_images/dig.jpg"",""time"":0.07000000914558768},{""stimulus"":""run_exp/static/images/task_images/land.jpg"",""time"":690.6500000040978},{""stimulus"":""run_exp/static/images/task_images/dig.jpg"",""time"":1377.7850000187755}]",[],6,,,,,,,,,,,,,,
harvest,132,568363,0.0-40.0-1.0,,null,run_exp/static/images/task_images/gems/35.jpg,null,,,,,,32,,,6,,,,,35,0.910678238,0.914285714,,,,,,,
decision,133,568973,0.0-40.0-2.0,,608.79,run_exp/static/images/task_images/land.jpg,76,,,,,,32,,,6,,,,,,,,150091,1,4,TRUE,,,
travel,134,578374,0.0-41.0-0.0,,,,,,,,,,,"[{""stimulus"":""run_exp/static/images/task_images/rocket-01.jpg"",""time"":0.10000000474974513},{""stimulus"":""run_exp/static/images/task_images/rocket-02.jpg"",""time"":1050.4549999604933},{""stimulus"":""run_exp/static/images/task_images/rocket-03.jpg"",""time"":2100.1500000129454},{""stimulus"":""run_exp/static/images/task_images/rocket-04.jpg"",""time"":3142.3499999800697},{""stimulus"":""run_exp/static/images/task_images/rocket-05.jpg"",""time"":4183.064999990165},{""stimulus"":""run_exp/static/images/task_images/rocket-06.jpg"",""time"":5223.475000006147},{""stimulus"":""run_exp/static/images/task_images/rocket-07.jpg"",""time"":6269.555000006221},{""stimulus"":""run_exp/static/images/task_images/rocket-08.jpg"",""time"":7316.294999967795},{""stimulus"":""run_exp/static/images/task_images/rocket-09.jpg"",""time"":8358.889999974053}]",[],6,,,,,,,,,,,,,,
alien_welcome,135,583382,0.0-41.0-1.0,,null,run_exp/static/images/task_images/aliens/old_aliens/planet/alien_planet-72.jpg,null,,,,,,,,,,,,72,"56,14,19,42,64,26,72,22,36,63,76,59,34,39,24,4,44,41,33,54,71,58,15,75,12,3,57,20,40,43,16,27,50,77,60,79,67,55,48,78,65,74,25,68,62,66,30,7",,,,,,,,,,
land,136,583897,0.0-41.0-2.0,,null,run_exp/static/images/task_images/land.jpg,null,,,,,,109,,,7,,,,,,,,,,,,,,
dig,137,585912,0.0-41.0-3.0,,,,,,,,,,,"[{""stimulus"":""run_exp/static/images/task_images/dig.jpg"",""time"":0.14999997802078724},{""stimulus"":""run_exp/static/images/task_images/land.jpg"",""time"":680.0999999977648},{""stimulus"":""run_exp/static/images/task_images/dig.jpg"",""time"":1343.10999995796}]",[],7,,,,,,,,,,,,,,
harvest,138,586925,0.0-41.0-4.0,,null,run_exp/static/images/task_images/gems/109.jpg,null,,,,,,96,,,7,,,,,109,0.878497319,0.880733945,,,,,,,
decision,139,588469,0.0-41.0-5.0,,1542.77,run_exp/static/images/task_images/land.jpg,65,,,,,,96,,,7,,,,,,,,169587,1,0,FALSE,,,
dig,140,589935,0.0-42.0-0.0,,,,,,,,,,,"[{""stimulus"":""run_exp/static/images/task_images/dig.jpg"",""time"":0.07000000914558768},{""stimulus"":""run_exp/static/images/task_images/land.jpg"",""time"":493.3500000042841},{""stimulus"":""run_exp/static/images/task_images/dig.jpg"",""time"":979.0800000191666}]",[],7,,,,,,,,,,,,,,
harvest,141,590946,0.0-42.0-1.0,,null,run_exp/static/images/task_images/gems/96.jpg,null,,,,,,79,,,7,,,,,96,0.824065438,0.822916667,,,,,,,
decision,142,591559,0.0-42.0-2.0,,611.795,run_exp/static/images/task_images/land.jpg,65,,,,,,79,,,7,,,,,,,,172677,1,1,FALSE,,,
dig,143,593953,0.0-43.0-0.0,,,,,,,,,,,"[{""stimulus"":""run_exp/static/images/task_images/dig.jpg"",""time"":0.0850000069476664},{""stimulus"":""run_exp/static/images/task_images/land.jpg"",""time"":803.394999995362},{""stimulus"":""run_exp/static/images/task_images/dig.jpg"",""time"":1598.5900000086986}]",[],7,,,,,,,,,,,,,,
harvest,144,594962,0.0-43.0-1.0,,null,run_exp/static/images/task_images/gems/79.jpg,null,,,,,,63,,,7,,,,,79,0.802436915,0.797468354,,,,,,,
decision,145,594981,0.0-43.0-2.0,,17.44000003,run_exp/static/images/task_images/land.jpg,65,,,,,,63,,,7,,,,,,,,176099,1,2,FALSE,,,
dig,146,597966,0.0-44.0-0.0,,,,,,,,,,,"[{""stimulus"":""run_exp/static/images/task_images/dig.jpg"",""time"":0.07000000914558768},{""stimulus"":""run_exp/static/images/task_images/land.jpg"",""time"":1005.7350000133738},{""stimulus"":""run_exp/static/images/task_images/dig.jpg"",""time"":2002.745000005234}]",[],7,,,,,,,,,,,,,,
harvest,147,598976,0.0-44.0-1.0,,null,run_exp/static/images/task_images/gems/63.jpg,null,,,,,,52,,,7,,,,,63,0.826163398,0.825396825,,,,,,,
decision,148,599794,0.0-44.0-2.0,,816.835,run_exp/static/images/task_images/land.jpg,65,,,,,,52,,,7,,,,,,,,180912,1,3,FALSE,,,
dig,149,601978,0.0-45.0-0.0,,,,,,,,,,,"[{""stimulus"":""run_exp/static/images/task_images/dig.jpg"",""time"":0.06999995093792677},{""stimulus"":""run_exp/static/images/task_images/land.jpg"",""time"":735.904999950435},{""stimulus"":""run_exp/static/images/task_images/dig.jpg"",""time"":1466.9299999950454}]",[],7,,,,,,,,,,,,,,
harvest,150,602991,0.0-45.0-1.0,,null,run_exp/static/images/task_images/gems/52.jpg,null,,,,,,43,,,7,,,,,52,0.824474796,0.826923077,,,,,,,
decision,151,604353,0.0-45.0-2.0,,1360.84,run_exp/static/images/task_images/land.jpg,65,,,,,,43,,,7,,,,,,,,185471,1,4,FALSE,,,
dig,152,605996,0.0-46.0-0.0,,,,,,,,,,,"[{""stimulus"":""run_exp/static/images/task_images/dig.jpg"",""time"":0.07499998901039362},{""stimulus"":""run_exp/static/images/task_images/land.jpg"",""time"":550.8749999571592},{""stimulus"":""run_exp/static/images/task_images/dig.jpg"",""time"":1097.36499999417}]",[],7,,,,,,,,,,,,,,
harvest,153,607006,0.0-46.0-1.0,,null,run_exp/static/images/task_images/gems/43.jpg,null,,,,,,38,,,7,,,,,43,0.874689701,0.88372093,,,,,,,
decision,154,607499,0.0-46.0-2.0,,492.115,run_exp/static/images/task_images/land.jpg,65,,,,,,38,,,7,,,,,,,,188617,1,5,FALSE,,,
dig,155,610009,0.0-47.0-0.0,,,,,,,,,,,"[{""stimulus"":""run_exp/static/images/task_images/dig.jpg"",""time"":0.07499998901039362},{""stimulus"":""run_exp/static/images/task_images/land.jpg"",""time"":839.7550000227056},{""stimulus"":""run_exp/static/images/task_images/dig.jpg"",""time"":1681.414999999106}]",[],7,,,,,,,,,,,,,,
harvest,156,611021,0.0-47.0-1.0,,null,run_exp/static/images/task_images/gems/38.jpg,null,,,,,,29,,,7,,,,,38,0.765111245,0.763157895,,,,,,,
decision,157,611509,0.0-47.0-2.0,,487.445,run_exp/static/images/task_images/land.jpg,76,,,,,,29,,,7,,,,,,,,192627,1,6,TRUE,,,
travel,158,621024,0.0-48.0-0.0,,,,,,,,,,,"[{""stimulus"":""run_exp/static/images/task_images/rocket-01.jpg"",""time"":0.07499998901039362},{""stimulus"":""run_exp/static/images/task_images/rocket-02.jpg"",""time"":1071.0049999761395},{""stimulus"":""run_exp/static/images/task_images/rocket-03.jpg"",""time"":2113.7849999940954},{""stimulus"":""run_exp/static/images/task_images/rocket-04.jpg"",""time"":3183.634999964852},{""stimulus"":""run_exp/static/images/task_images/rocket-05.jpg"",""time"":4228.424999979325},{""stimulus"":""run_exp/static/images/task_images/rocket-06.jpg"",""time"":5287.3799999943},{""stimulus"":""run_exp/static/images/task_images/rocket-07.jpg"",""time"":6343.330000003334},{""stimulus"":""run_exp/static/images/task_images/rocket-08.jpg"",""time"":7403.950000007171},{""stimulus"":""run_exp/static/images/task_images/rocket-09.jpg"",""time"":8458.169999998063}]",[],7,,,,,,,,,,,,,,
alien_welcome,159,626029,0.0-48.0-1.0,,null,run_exp/static/images/task_images/aliens/old_aliens/planet/alien_planet-22.jpg,null,,,,,,,,,,,,22,"56,14,19,42,64,26,72,22,36,63,76,59,34,39,24,4,44,41,33,54,71,58,15,75,12,3,57,20,40,43,16,27,50,77,60,79,67,55,48,78,65,74,25,68,62,66,30,7",,,,,,,,,,
land,160,626531,0.0-48.0-2.0,,null,run_exp/static/images/task_images/land.jpg,null,,,,,,106,,,8,,,,,,,,,,,,,,
dig,161,628535,0.0-48.0-3.0,,,,,,,,,,,"[{""stimulus"":""run_exp/static/images/task_images/dig.jpg"",""time"":0.18999999156221747},{""stimulus"":""run_exp/static/images/task_images/land.jpg"",""time"":682.2549999924377},{""stimulus"":""run_exp/static/images/task_images/dig.jpg"",""time"":1336.6050000186078}]",[],8,,,,,,,,,,,,,,
harvest,162,629550,0.0-48.0-4.0,,null,run_exp/static/images/task_images/gems/106.jpg,null,,,,,,86,,,8,,,,,106,0.814479021,0.811320755,,,,,,,
decision,163,631879,0.0-48.0-5.0,,2328.65,run_exp/static/images/task_images/land.jpg,65,,,,,,86,,,8,,,,,,,,212997,1,0,FALSE,,,
dig,164,632554,0.0-49.0-0.0,,,,,,,,,,,"[{""stimulus"":""run_exp/static/images/task_images/dig.jpg"",""time"":0.1550000160932541},{""stimulus"":""run_exp/static/images/task_images/land.jpg"",""time"":235.18000001786277},{""stimulus"":""run_exp/static/images/task_images/dig.jpg"",""time"":453.63499998347834}]",[],8,,,,,,,,,,,,,,
harvest,165,633567,0.0-49.0-1.0,,null,run_exp/static/images/task_images/gems/86.jpg,null,,,,,,68,,,8,,,,,86,0.788732061,0.790697674,,,,,,,
decision,166,634288,0.0-49.0-2.0,,719.99,run_exp/static/images/task_images/land.jpg,65,,,,,,68,,,8,,,,,,,,215406,1,1,FALSE,,,
dig,167,636585,0.0-50.0-0.0,,,,,,,,,,,"[{""stimulus"":""run_exp/static/images/task_images/dig.jpg"",""time"":0.0850000069476664},{""stimulus"":""run_exp/static/images/task_images/land.jpg"",""time"":771.8650000169873},{""stimulus"":""run_exp/static/images/task_images/dig.jpg"",""time"":1535.8549999655224}]",[],8,,,,,,,,,,,,,,
harvest,168,637599,0.0-50.0-1.0,,null,run_exp/static/images/task_images/gems/68.jpg,null,,,,,,51,,,8,,,,,68,0.75110941,0.75,,,,,,,
decision,169,637915,0.0-50.0-2.0,,314.25,run_exp/static/images/task_images/land.jpg,65,,,,,,51,,,8,,,,,,,,219033,1,2,FALSE,,,
dig,170,640602,0.0-51.0-0.0,,,,,,,,,,,"[{""stimulus"":""run_exp/static/images/task_images/dig.jpg"",""time"":0.11999998241662979},{""stimulus"":""run_exp/static/images/task_images/land.jpg"",""time"":898.6649999860674},{""stimulus"":""run_exp/static/images/task_images/dig.jpg"",""time"":1802.785000007134}]",[],8,,,,,,,,,,,,,,
harvest,171,641612,0.0-51.0-1.0,,null,run_exp/static/images/task_images/gems/51.jpg,null,,,,,,43,,,8,,,,,51,0.851827718,0.843137255,,,,,,,
decision,172,641899,0.0-51.0-2.0,,286.6399999,run_exp/static/images/task_images/land.jpg,65,,,,,,43,,,8,,,,,,,,223017,1,3,FALSE,,,
dig,173,644620,0.0-52.0-0.0,,,,,,,,,,,"[{""stimulus"":""run_exp/static/images/task_images/dig.jpg"",""time"":0.08999998681247234},{""stimulus"":""run_exp/static/images/task_images/land.jpg"",""time"":909.2650000238791},{""stimulus"":""run_exp/static/images/task_images/dig.jpg"",""time"":1814.3399999826215}]",[],8,,,,,,,,,,,,,,
harvest,174,645635,0.0-52.0-1.0,,null,run_exp/static/images/task_images/gems/43.jpg,null,,,,,,33,,,8,,,,,43,0.771298609,0.76744186,,,,,,,
decision,175,645830,0.0-52.0-2.0,,194.38,run_exp/static/images/task_images/land.jpg,76,,,,,,33,,,8,,,,,,,,226948,1,4,TRUE,,,
travel,176,655639,0.0-53.0-0.0,,,,,,,,,,,"[{""stimulus"":""run_exp/static/images/task_images/rocket-01.jpg"",""time"":0.07000000914558768},{""stimulus"":""run_exp/static/images/task_images/rocket-02.jpg"",""time"":1093.9350000116974},{""stimulus"":""run_exp/static/images/task_images/rocket-03.jpg"",""time"":2186.60000001546},{""stimulus"":""run_exp/static/images/task_images/rocket-04.jpg"",""time"":3277.1800000336953},{""stimulus"":""run_exp/static/images/task_images/rocket-05.jpg"",""time"":4369.355000031646},{""stimulus"":""run_exp/static/images/task_images/rocket-06.jpg"",""time"":5461.225000035483},{""stimulus"":""run_exp/static/images/task_images/rocket-07.jpg"",""time"":6549.570000031963},{""stimulus"":""run_exp/static/images/task_images/rocket-08.jpg"",""time"":7625.419999996666},{""stimulus"":""run_exp/static/images/task_images/rocket-09.jpg"",""time"":8717.000000004191}]",[],8,,,,,,,,,,,,,,
alien_welcome,177,660655,0.0-53.0-1.0,,null,run_exp/static/images/task_images/aliens/old_aliens/planet/alien_planet-36.jpg,null,,,,,,,,,,,,36,"56,14,19,42,64,26,72,22,36,63,76,59,34,39,24,4,44,41,33,54,71,58,15,75,12,3,57,20,40,43,16,27,50,77,60,79,67,55,48,78,65,74,25,68,62,66,30,7",,,,,,,,,,
land,178,661166,0.0-53.0-2.0,,null,run_exp/static/images/task_images/land.jpg,null,,,,,,101,,,9,,,,,,,,,,,,,,
dig,179,663173,0.0-53.0-3.0,,,,,,,,,,,"[{""stimulus"":""run_exp/static/images/task_images/dig.jpg"",""time"":0.14999997802078724},{""stimulus"":""run_exp/static/images/task_images/land.jpg"",""time"":682.4249999481253},{""stimulus"":""run_exp/static/images/task_images/dig.jpg"",""time"":1339.6349999820814}]",[],9,,,,,,,,,,,,,,
harvest,180,664184,0.0-53.0-4.0,,null,run_exp/static/images/task_images/gems/101.jpg,null,,,,,,22,,,9,,,,,101,0.214415021,0.217821782,,,,,,,
decision,181,665204,0.0-53.0-5.0,,1019.165,run_exp/static/images/task_images/land.jpg,65,,,,,,22,,,9,,,,,,,,246322,1,0,FALSE,,,
dig,182,667199,0.0-54.0-0.0,,,,,,,,,,,"[{""stimulus"":""run_exp/static/images/task_images/dig.jpg"",""time"":0.07499998901039362},{""stimulus"":""run_exp/static/images/task_images/land.jpg"",""time"":669.5850000251085},{""stimulus"":""run_exp/static/images/task_images/dig.jpg"",""time"":1322.0950000104494}]",[],9,,,,,,,,,,,,,,
harvest,183,668211,0.0-54.0-1.0,,null,run_exp/static/images/task_images/gems/22.jpg,null,,,,,,4,,,9,,,,,22,0.190302686,0.181818182,,,,,,,
decision,184,668866,0.0-54.0-2.0,,654.735,run_exp/static/images/task_images/land.jpg,76,,,,,,4,,,9,,,,,,,,249984,1,1,TRUE,,,
travel,185,678218,0.0-55.0-0.0,,,,,,,,,,,"[{""stimulus"":""run_exp/static/images/task_images/rocket-01.jpg"",""time"":0.07500004721805453},{""stimulus"":""run_exp/static/images/task_images/rocket-02.jpg"",""time"":1041.730000055395},{""stimulus"":""run_exp/static/images/task_images/rocket-03.jpg"",""time"":2083.9100000448525},{""stimulus"":""run_exp/static/images/task_images/rocket-04.jpg"",""time"":3130.3700000280514},{""stimulus"":""run_exp/static/images/task_images/rocket-05.jpg"",""time"":4155.055000039283},{""stimulus"":""run_exp/static/images/task_images/rocket-06.jpg"",""time"":5199.200000031851},{""stimulus"":""run_exp/static/images/task_images/rocket-07.jpg"",""time"":6238.040000025649},{""stimulus"":""run_exp/static/images/task_images/rocket-08.jpg"",""time"":7281.44000004977},{""stimulus"":""run_exp/static/images/task_images/rocket-09.jpg"",""time"":8310.510000039358}]",[],9,,,,,,,,,,,,,,
alien_welcome,186,683227,0.0-55.0-1.0,,null,run_exp/static/images/task_images/aliens/old_aliens/planet/alien_planet-63.jpg,null,,,,,,,,,,,,63,"56,14,19,42,64,26,72,22,36,63,76,59,34,39,24,4,44,41,33,54,71,58,15,75,12,3,57,20,40,43,16,27,50,77,60,79,67,55,48,78,65,74,25,68,62,66,30,7",,,,,,,,,,
land,187,683744,0.0-55.0-2.0,,null,run_exp/static/images/task_images/land.jpg,null,,,,,,93,,,10,,,,,,,,,,,,,,
dig,188,685749,0.0-55.0-3.0,,,,,,,,,,,"[{""stimulus"":""run_exp/static/images/task_images/dig.jpg"",""time"":0.22499996703118086},{""stimulus"":""run_exp/static/images/task_images/land.jpg"",""time"":668.5750000178814},{""stimulus"":""run_exp/static/images/task_images/dig.jpg"",""time"":1337.3649999848567}]",[],10,,,,,,,,,,,,,,
harvest,189,686759,0.0-55.0-4.0,,null,run_exp/static/images/task_images/gems/93.jpg,null,,,,,,12,,,10,,,,,93,0.129522625,0.129032258,,,,,,,
decision,190,687334,0.0-55.0-5.0,,573.825,run_exp/static/images/task_images/land.jpg,65,,,,,,12,,,10,,,,,,,,268452,1,0,FALSE,,,
dig,191,689765,0.0-56.0-0.0,,,,,,,,,,,"[{""stimulus"":""run_exp/static/images/task_images/dig.jpg"",""time"":0.10499998461455107},{""stimulus"":""run_exp/static/images/task_images/land.jpg"",""time"":823.9549999707378},{""stimulus"":""run_exp/static/images/task_images/dig.jpg"",""time"":1620.0049999752082}]",[],10,,,,,,,,,,,,,,
harvest,192,690778,0.0-56.0-1.0,,null,run_exp/static/images/task_images/gems/12.jpg,null,,,,,,3,,,10,,,,,12,0.210047268,0.25,,,,,,,
decision,193,691288,0.0-56.0-2.0,,509.59,run_exp/static/images/task_images/land.jpg,76,,,,,,3,,,10,,,,,,,,272406,1,1,TRUE,,,
travel,194,700788,0.0-57.0-0.0,,,,,,,,,,,"[{""stimulus"":""run_exp/static/images/task_images/rocket-01.jpg"",""time"":0.07000000914558768},{""stimulus"":""run_exp/static/images/task_images/rocket-02.jpg"",""time"":1063.109999988228},{""stimulus"":""run_exp/static/images/task_images/rocket-03.jpg"",""time"":2120.21000002278},{""stimulus"":""run_exp/static/images/task_images/rocket-04.jpg"",""time"":3174.7550000436604},{""stimulus"":""run_exp/static/images/task_images/rocket-05.jpg"",""time"":4228.159999998752},{""stimulus"":""run_exp/static/images/task_images/rocket-06.jpg"",""time"":5274.124999996275},{""stimulus"":""run_exp/static/images/task_images/rocket-07.jpg"",""time"":6330.230000021402},{""stimulus"":""run_exp/static/images/task_images/rocket-08.jpg"",""time"":7390.500000037719},{""stimulus"":""run_exp/static/images/task_images/rocket-09.jpg"",""time"":8435.12500001816}]",[],10,,,,,,,,,,,,,,
alien_welcome,195,705804,0.0-57.0-1.0,,null,run_exp/static/images/task_images/aliens/old_aliens/planet/alien_planet-76.jpg,null,,,,,,,,,,,,76,"56,14,19,42,64,26,72,22,36,63,76,59,34,39,24,4,44,41,33,54,71,58,15,75,12,3,57,20,40,43,16,27,50,77,60,79,67,55,48,78,65,74,25,68,62,66,30,7",,,,,,,,,,
land,196,706315,0.0-57.0-2.0,,null,run_exp/static/images/task_images/land.jpg,null,,,,,,97,,,11,,,,,,,,,,,,,,
dig,197,708319,0.0-57.0-3.0,,,,,,,,,,,"[{""stimulus"":""run_exp/static/images/task_images/dig.jpg"",""time"":0.1700000138953328},{""stimulus"":""run_exp/static/images/task_images/land.jpg"",""time"":682.6950000249781},{""stimulus"":""run_exp/static/images/task_images/dig.jpg"",""time"":1349.2800000240095}]",[],11,,,,,,,,,,,,,,
harvest,198,709330,0.0-57.0-4.0,,null,run_exp/static/images/task_images/gems/97.jpg,null,,,,,,19,,,11,,,,,97,0.190915755,0.195876289,,,,,,,
decision,199,709797,0.0-57.0-5.0,,465.44,run_exp/static/images/task_images/land.jpg,65,,,,,,19,,,11,,,,,,,,290915,1,0,FALSE,,,
dig,200,712347,0.0-58.0-0.0,,,,,,,,,,,"[{""stimulus"":""run_exp/static/images/task_images/dig.jpg"",""time"":0.07000000914558768},{""stimulus"":""run_exp/static/images/task_images/land.jpg"",""time"":854.2400000151247},{""stimulus"":""run_exp/static/images/task_images/dig.jpg"",""time"":1695.6999999820255}]",[],11,,,,,,,,,,,,,,
harvest,201,713363,0.0-58.0-1.0,,null,run_exp/static/images/task_images/gems/19.jpg,null,,,,,,4,,,11,,,,,19,0.222366801,0.210526316,,,,,,,
decision,202,713757,0.0-58.0-2.0,,392.73,run_exp/static/images/task_images/land.jpg,76,,,,,,4,,,11,,,,,,,,294875,1,1,TRUE,,,
travel,203,723365,0.0-59.0-0.0,,,,,,,,,,,"[{""stimulus"":""run_exp/static/images/task_images/rocket-01.jpg"",""time"":0.11000002268701792},{""stimulus"":""run_exp/static/images/task_images/rocket-02.jpg"",""time"":1068.4350000228733},{""stimulus"":""run_exp/static/images/task_images/rocket-03.jpg"",""time"":2142.1749999863096},{""stimulus"":""run_exp/static/images/task_images/rocket-04.jpg"",""time"":3217.420000000857},{""stimulus"":""run_exp/static/images/task_images/rocket-05.jpg"",""time"":4275.64499998698},{""stimulus"":""run_exp/static/images/task_images/rocket-06.jpg"",""time"":5348.394999979064},{""stimulus"":""run_exp/static/images/task_images/rocket-07.jpg"",""time"":6405.414999986533},{""stimulus"":""run_exp/static/images/task_images/rocket-08.jpg"",""time"":7480.265000020154},{""stimulus"":""run_exp/static/images/task_images/rocket-09.jpg"",""time"":8537.40500001004}]",[],11,,,,,,,,,,,,,,
alien_welcome,204,728381,0.0-59.0-1.0,,null,run_exp/static/images/task_images/aliens/old_aliens/planet/alien_planet-59.jpg,null,,,,,,,,,,,,59,"56,14,19,42,64,26,72,22,36,63,76,59,34,39,24,4,44,41,33,54,71,58,15,75,12,3,57,20,40,43,16,27,50,77,60,79,67,55,48,78,65,74,25,68,62,66,30,7",,,,,,,,,,
land,205,728891,0.0-59.0-2.0,,null,run_exp/static/images/task_images/land.jpg,null,,,,,,96,,,12,,,,,,,,,,,,,,
dig,206,730900,0.0-59.0-3.0,,,,,,,,,,,"[{""stimulus"":""run_exp/static/images/task_images/dig.jpg"",""time"":0.1550000160932541},{""stimulus"":""run_exp/static/images/task_images/land.jpg"",""time"":674.094999965746},{""stimulus"":""run_exp/static/images/task_images/dig.jpg"",""time"":1337.9749999730848}]",[],12,,,,,,,,,,,,,,
harvest,207,731908,0.0-59.0-4.0,,null,run_exp/static/images/task_images/gems/96.jpg,null,,,,,,23,,,12,,,,,96,0.242894579,0.239583333,,,,,,,
decision,208,732369,0.0-59.0-5.0,,460.34,run_exp/static/images/task_images/land.jpg,65,,,,,,23,,,12,,,,,,,,313487,1,0,TRUE,,,
end_of_block_continue,209,737776,0.0-60.0-0.0,,5404.545,run_exp/static/audio/clip_32_block_end.m4a,,,,,,0,,,,,,,,,,,,,,,,,,
alien_welcome,210,742781,0.0-61.0-0.0,,null,run_exp/static/images/task_images/aliens/old_aliens/planet/alien_planet-34.jpg,null,,,,,,,,,,,,34,"56,14,19,42,64,26,72,22,36,63,76,59,34,39,24,4,44,41,33,54,71,58,15,75,12,3,57,20,40,43,16,27,50,77,60,79,67,55,48,78,65,74,25,68,62,66,30,7",,,,,,,,,,
land,211,743295,0.0-61.0-1.0,,null,run_exp/static/images/task_images/land.jpg,null,,,,,,100,,,13,,,,,,,,,,,,,,
dig,212,745302,0.0-61.0-2.0,,,,,,,,,,,"[{""stimulus"":""run_exp/static/images/task_images/dig.jpg"",""time"":0.15999999595806003},{""stimulus"":""run_exp/static/images/task_images/land.jpg"",""time"":673.2399999746121},{""stimulus"":""run_exp/static/images/task_images/dig.jpg"",""time"":1340.985000017099}]",[],13,,,,,,,,,,,,,,
harvest,213,746308,0.0-61.0-3.0,,null,run_exp/static/images/task_images/gems/100.jpg,null,,,,,,11,,,13,,,,,100,0.113607677,0.11,,,,,,,
decision,214,746719,0.0-61.0-4.0,,410.07,run_exp/static/images/task_images/land.jpg,65,,,,,,11,,,13,,,,,,,,8941,2,0,FALSE,,,
dig,215,749317,0.0-62.0-0.0,,,,,,,,,,,"[{""stimulus"":""run_exp/static/images/task_images/dig.jpg"",""time"":0.0950000248849392},{""stimulus"":""run_exp/static/images/task_images/land.jpg"",""time"":865.7550000352785},{""stimulus"":""run_exp/static/images/task_images/dig.jpg"",""time"":1737.7200000337325}]",[],13,,,,,,,,,,,,,,
harvest,216,750329,0.0-62.0-1.0,,null,run_exp/static/images/task_images/gems/11.jpg,null,,,,,,2,,,13,,,,,11,0.178434182,0.181818182,,,,,,,
decision,217,750700,0.0-62.0-2.0,,369.695,run_exp/static/images/task_images/land.jpg,76,,,,,,2,,,13,,,,,,,,12922,2,1,TRUE,,,
travel,218,760344,0.0-63.0-0.0,,,,,,,,,,,"[{""stimulus"":""run_exp/static/images/task_images/rocket-01.jpg"",""time"":0.08999998681247234},{""stimulus"":""run_exp/static/images/task_images/rocket-02.jpg"",""time"":1071.334999985993},{""stimulus"":""run_exp/static/images/task_images/rocket-03.jpg"",""time"":2147.0700000063516},{""stimulus"":""run_exp/static/images/task_images/rocket-04.jpg"",""time"":3216.2499999976717},{""stimulus"":""run_exp/static/images/task_images/rocket-05.jpg"",""time"":4288.0549999536015},{""stimulus"":""run_exp/static/images/task_images/rocket-06.jpg"",""time"":5365.469999960624},{""stimulus"":""run_exp/static/images/task_images/rocket-07.jpg"",""time"":6427.999999956228},{""stimulus"":""run_exp/static/images/task_images/rocket-08.jpg"",""time"":7498.254999984056},{""stimulus"":""run_exp/static/images/task_images/rocket-09.jpg"",""time"":8573.615000001155}]",[],13,,,,,,,,,,,,,,
alien_welcome,219,765351,0.0-63.0-1.0,,null,run_exp/static/images/task_images/aliens/old_aliens/planet/alien_planet-39.jpg,null,,,,,,,,,,,,39,"56,14,19,42,64,26,72,22,36,63,76,59,34,39,24,4,44,41,33,54,71,58,15,75,12,3,57,20,40,43,16,27,50,77,60,79,67,55,48,78,65,74,25,68,62,66,30,7",,,,,,,,,,
land,220,765863,0.0-63.0-2.0,,null,run_exp/static/images/task_images/land.jpg,null,,,,,,103,,,14,,,,,,,,,,,,,,
dig,221,767880,0.0-63.0-3.0,,,,,,,,,,,"[{""stimulus"":""run_exp/static/images/task_images/dig.jpg"",""time"":0.15499995788559318},{""stimulus"":""run_exp/static/images/task_images/land.jpg"",""time"":683.0949999857694},{""stimulus"":""run_exp/static/images/task_images/dig.jpg"",""time"":1336.2299999571405}]",[],14,,,,,,,,,,,,,,
harvest,222,768891,0.0-63.0-4.0,,null,run_exp/static/images/task_images/gems/103.jpg,null,,,,,,22,,,14,,,,,103,0.213086509,0.213592233,,,,,,,
decision,223,769251,0.0-63.0-5.0,,359.23,run_exp/static/images/task_images/land.jpg,65,,,,,,22,,,14,,,,,,,,31473,2,0,FALSE,,,
dig,224,771906,0.0-64.0-0.0,,,,,,,,,,,"[{""stimulus"":""run_exp/static/images/task_images/dig.jpg"",""time"":0.08999998681247234},{""stimulus"":""run_exp/static/images/task_images/land.jpg"",""time"":892.9050000151619},{""stimulus"":""run_exp/static/images/task_images/dig.jpg"",""time"":1766.7399999918416}]",[],14,,,,,,,,,,,,,,
harvest,225,772913,0.0-64.0-1.0,,null,run_exp/static/images/task_images/gems/22.jpg,null,,,,,,4,,,14,,,,,22,0.182736894,0.181818182,,,,,,,
decision,226,773278,0.0-64.0-2.0,,364.16,run_exp/static/images/task_images/land.jpg,76,,,,,,4,,,14,,,,,,,,35500,2,1,TRUE,,,
travel,227,782914,0.0-65.0-0.0,,,,,,,,,,,"[{""stimulus"":""run_exp/static/images/task_images/rocket-01.jpg"",""time"":0.09499996667727828},{""stimulus"":""run_exp/static/images/task_images/rocket-02.jpg"",""time"":1084.0449999668635},{""stimulus"":""run_exp/static/images/task_images/rocket-03.jpg"",""time"":2143.0549999931827},{""stimulus"":""run_exp/static/images/task_images/rocket-04.jpg"",""time"":3215.574999980163},{""stimulus"":""run_exp/static/images/task_images/rocket-05.jpg"",""time"":4293.724999995902},{""stimulus"":""run_exp/static/images/task_images/rocket-06.jpg"",""time"":5352.034999988973},{""stimulus"":""run_exp/static/images/task_images/rocket-07.jpg"",""time"":6427.649999968708},{""stimulus"":""run_exp/static/images/task_images/rocket-08.jpg"",""time"":7505.574999959208},{""stimulus"":""run_exp/static/images/task_images/rocket-09.jpg"",""time"":8564.02499997057}]",[],14,,,,,,,,,,,,,,
alien_welcome,228,787922,0.0-65.0-1.0,,null,run_exp/static/images/task_images/aliens/old_aliens/planet/alien_planet-24.jpg,null,,,,,,,,,,,,24,"56,14,19,42,64,26,72,22,36,63,76,59,34,39,24,4,44,41,33,54,71,58,15,75,12,3,57,20,40,43,16,27,50,77,60,79,67,55,48,78,65,74,25,68,62,66,30,7",,,,,,,,,,
land,229,788435,0.0-65.0-2.0,,null,run_exp/static/images/task_images/land.jpg,null,,,,,,107,,,15,,,,,,,,,,,,,,
dig,230,790448,0.0-65.0-3.0,,,,,,,,,,,"[{""stimulus"":""run_exp/static/images/task_images/dig.jpg"",""time"":0.17499999376013875},{""stimulus"":""run_exp/static/images/task_images/land.jpg"",""time"":671.3800000143237},{""stimulus"":""run_exp/static/images/task_images/dig.jpg"",""time"":1340.6700000050478}]",[],15,,,,,,,,,,,,,,
harvest,231,791450,0.0-65.0-4.0,,null,run_exp/static/images/task_images/gems/107.jpg,null,,,,,,34,,,15,,,,,107,0.315265313,0.317757009,,,,,,,
decision,232,791987,0.0-65.0-5.0,,536.11,run_exp/static/images/task_images/land.jpg,65,,,,,,34,,,15,,,,,,,,54210,2,0,FALSE,,,
dig,233,794457,0.0-66.0-0.0,,,,,,,,,,,"[{""stimulus"":""run_exp/static/images/task_images/dig.jpg"",""time"":0.07499998901039362},{""stimulus"":""run_exp/static/images/task_images/land.jpg"",""time"":831.804999965243},{""stimulus"":""run_exp/static/images/task_images/dig.jpg"",""time"":1657.584999979008}]",[],15,,,,,,,,,,,,,,
harvest,234,795465,0.0-66.0-1.0,,null,run_exp/static/images/task_images/gems/34.jpg,null,,,,,,8,,,15,,,,,34,0.244608459,0.235294118,,,,,,,
decision,235,796062,0.0-66.0-2.0,,596.195,run_exp/static/images/task_images/land.jpg,76,,,,,,8,,,15,,,,,,,,58285,2,1,TRUE,,,
travel,236,805470,0.0-67.0-0.0,,,,,,,,,,,"[{""stimulus"":""run_exp/static/images/task_images/rocket-01.jpg"",""time"":0.1449999981559813},{""stimulus"":""run_exp/static/images/task_images/rocket-02.jpg"",""time"":1054.6750000212342},{""stimulus"":""run_exp/static/images/task_images/rocket-03.jpg"",""time"":2095.7650000345893},{""stimulus"":""run_exp/static/images/task_images/rocket-04.jpg"",""time"":3137.7100000390783},{""stimulus"":""run_exp/static/images/task_images/rocket-05.jpg"",""time"":4179.4450000161305},{""stimulus"":""run_exp/static/images/task_images/rocket-06.jpg"",""time"":5235.855000035372},{""stimulus"":""run_exp/static/images/task_images/rocket-07.jpg"",""time"":6277.159999997821},{""stimulus"":""run_exp/static/images/task_images/rocket-08.jpg"",""time"":7317.184999992605},{""stimulus"":""run_exp/static/images/task_images/rocket-09.jpg"",""time"":8363.285000028554}]",[],15,,,,,,,,,,,,,,
alien_welcome,237,810486,0.0-67.0-1.0,,null,run_exp/static/images/task_images/aliens/old_aliens/planet/alien_planet-4.jpg,null,,,,,,,,,,,,4,"56,14,19,42,64,26,72,22,36,63,76,59,34,39,24,4,44,41,33,54,71,58,15,75,12,3,57,20,40,43,16,27,50,77,60,79,67,55,48,78,65,74,25,68,62,66,30,7",,,,,,,,,,
land,238,811000,0.0-67.0-2.0,,null,run_exp/static/images/task_images/land.jpg,null,,,,,,104,,,16,,,,,,,,,,,,,,
dig,239,813017,0.0-67.0-3.0,,,,,,,,,,,"[{""stimulus"":""run_exp/static/images/task_images/dig.jpg"",""time"":0.18499995348975062},{""stimulus"":""run_exp/static/images/task_images/land.jpg"",""time"":669.484999962151},{""stimulus"":""run_exp/static/images/task_images/dig.jpg"",""time"":1336.8949999567121}]",[],16,,,,,,,,,,,,,,
harvest,240,814030,0.0-67.0-4.0,,null,run_exp/static/images/task_images/gems/104.jpg,null,,,,,,88,,,16,,,,,104,0.849098727,0.846153846,,,,,,,
decision,241,814326,0.0-67.0-5.0,,295,run_exp/static/images/task_images/land.jpg,65,,,,,,88,,,16,,,,,,,,76548,2,0,FALSE,,,
dig,242,817045,0.0-68.0-0.0,,,,,,,,,,,"[{""stimulus"":""run_exp/static/images/task_images/dig.jpg"",""time"":0.08000002708286047},{""stimulus"":""run_exp/static/images/task_images/land.jpg"",""time"":916.7749999905936},{""stimulus"":""run_exp/static/images/task_images/dig.jpg"",""time"":1816.1050000344403}]",[],16,,,,,,,,,,,,,,
harvest,243,818059,0.0-68.0-1.0,,null,run_exp/static/images/task_images/gems/88.jpg,null,,,,,,69,,,16,,,,,88,0.782540693,0.784090909,,,,,,,
decision,244,818396,0.0-68.0-2.0,,335.76,run_exp/static/images/task_images/land.jpg,65,,,,,,69,,,16,,,,,,,,80618,2,1,FALSE,,,
dig,245,821065,0.0-69.0-0.0,,,,,,,,,,,"[{""stimulus"":""run_exp/static/images/task_images/dig.jpg"",""time"":0.07000000914558768},{""stimulus"":""run_exp/static/images/task_images/land.jpg"",""time"":891.3349999929778},{""stimulus"":""run_exp/static/images/task_images/dig.jpg"",""time"":1779.4949999661185}]",[],16,,,,,,,,,,,,,,
harvest,246,822074,0.0-69.0-1.0,,null,run_exp/static/images/task_images/gems/69.jpg,null,,,,,,54,,,16,,,,,69,0.786149607,0.782608696,,,,,,,
decision,247,822402,0.0-69.0-2.0,,326.365,run_exp/static/images/task_images/land.jpg,65,,,,,,54,,,16,,,,,,,,84624,2,2,FALSE,,,
dig,248,825077,0.0-70.0-0.0,,,,,,,,,,,"[{""stimulus"":""run_exp/static/images/task_images/dig.jpg"",""time"":0.08999998681247234},{""stimulus"":""run_exp/static/images/task_images/land.jpg"",""time"":901.1000000173226},{""stimulus"":""run_exp/static/images/task_images/dig.jpg"",""time"":1787.7299999818206}]",[],16,,,,,,,,,,,,,,
harvest,249,826087,0.0-70.0-1.0,,null,run_exp/static/images/task_images/gems/54.jpg,null,,,,,,44,,,16,,,,,54,0.807692413,0.814814815,,,,,,,
decision,250,826417,0.0-70.0-2.0,,328.735,run_exp/static/images/task_images/land.jpg,76,,,,,,44,,,16,,,,,,,,88639,2,3,TRUE,,,
travel,251,836091,0.0-71.0-0.0,,,,,,,,,,,"[{""stimulus"":""run_exp/static/images/task_images/rocket-01.jpg"",""time"":0.10000000474974513},{""stimulus"":""run_exp/static/images/task_images/rocket-02.jpg"",""time"":1081.815000041388},{""stimulus"":""run_exp/static/images/task_images/rocket-03.jpg"",""time"":2158.225000021048},{""stimulus"":""run_exp/static/images/task_images/rocket-04.jpg"",""time"":3233.585000038147},{""stimulus"":""run_exp/static/images/task_images/rocket-05.jpg"",""time"":4309.42500004312},{""stimulus"":""run_exp/static/images/task_images/rocket-06.jpg"",""time"":5371.415000001434},{""stimulus"":""run_exp/static/images/task_images/rocket-07.jpg"",""time"":6458.665000041947},{""stimulus"":""run_exp/static/images/task_images/rocket-08.jpg"",""time"":7530.235000012908},{""stimulus"":""run_exp/static/images/task_images/rocket-09.jpg"",""time"":8600.350000022445}]",[],16,,,,,,,,,,,,,,
alien_welcome,252,841099,0.0-71.0-1.0,,null,run_exp/static/images/task_images/aliens/old_aliens/planet/alien_planet-44.jpg,null,,,,,,,,,,,,44,"56,14,19,42,64,26,72,22,36,63,76,59,34,39,24,4,44,41,33,54,71,58,15,75,12,3,57,20,40,43,16,27,50,77,60,79,67,55,48,78,65,74,25,68,62,66,30,7",,,,,,,,,,
land,253,841612,0.0-71.0-2.0,,null,run_exp/static/images/task_images/land.jpg,null,,,,,,101,,,17,,,,,,,,,,,,,,
dig,254,843615,0.0-71.0-3.0,,,,,,,,,,,"[{""stimulus"":""run_exp/static/images/task_images/dig.jpg"",""time"":0.1699999556876719},{""stimulus"":""run_exp/static/images/task_images/land.jpg"",""time"":668.1649999809451},{""stimulus"":""run_exp/static/images/task_images/dig.jpg"",""time"":1335.5999999912456}]",[],17,,,,,,,,,,,,,,
harvest,255,844620,0.0-71.0-4.0,,null,run_exp/static/images/task_images/gems/101.jpg,null,,,,,,87,,,17,,,,,101,0.858734042,0.861386139,,,,,,,
decision,256,845149,0.0-71.0-5.0,,527.6,run_exp/static/images/task_images/land.jpg,65,,,,,,87,,,17,,,,,,,,107371,2,0,FALSE,,,
dig,257,847627,0.0-72.0-0.0,,,,,,,,,,,"[{""stimulus"":""run_exp/static/images/task_images/dig.jpg"",""time"":0.07499998901039362},{""stimulus"":""run_exp/static/images/task_images/land.jpg"",""time"":825.3299999632873},{""stimulus"":""run_exp/static/images/task_images/dig.jpg"",""time"":1649.5699999504723}]",[],17,,,,,,,,,,,,,,
harvest,258,848639,0.0-72.0-1.0,,null,run_exp/static/images/task_images/gems/87.jpg,null,,,,,,70,,,17,,,,,87,0.809717242,0.804597701,,,,,,,
decision,259,849095,0.0-72.0-2.0,,454.725,run_exp/static/images/task_images/land.jpg,65,,,,,,70,,,17,,,,,,,,111317,2,1,FALSE,,,
dig,260,851655,0.0-73.0-0.0,,,,,,,,,,,"[{""stimulus"":""run_exp/static/images/task_images/dig.jpg"",""time"":0.17499999376013875},{""stimulus"":""run_exp/static/images/task_images/land.jpg"",""time"":850.9150000172667},{""stimulus"":""run_exp/static/images/task_images/dig.jpg"",""time"":1706.0850000125356}]",[],17,,,,,,,,,,,,,,
harvest,261,852668,0.0-73.0-1.0,,null,run_exp/static/images/task_images/gems/70.jpg,null,,,,,,59,,,17,,,,,70,0.846809564,0.842857143,,,,,,,
decision,262,853620,0.0-73.0-2.0,,950.955,run_exp/static/images/task_images/land.jpg,65,,,,,,59,,,17,,,,,,,,115842,2,2,FALSE,,,
dig,263,855684,0.0-74.0-0.0,,,,,,,,,,,"[{""stimulus"":""run_exp/static/images/task_images/dig.jpg"",""time"":0.07499998901039362},{""stimulus"":""run_exp/static/images/task_images/land.jpg"",""time"":693.3650000137277},{""stimulus"":""run_exp/static/images/task_images/dig.jpg"",""time"":1378.450000018347}]",[],17,,,,,,,,,,,,,,
harvest,264,856695,0.0-74.0-1.0,,null,run_exp/static/images/task_images/gems/59.jpg,null,,,,,,47,,,17,,,,,59,0.803954591,0.796610169,,,,,,,
decision,265,857817,0.0-74.0-2.0,,1120.45,run_exp/static/images/task_images/land.jpg,76,,,,,,47,,,17,,,,,,,,120039,2,3,TRUE,,,
travel,266,866705,0.0-75.0-0.0,,,,,,,,,,,"[{""stimulus"":""run_exp/static/images/task_images/rocket-01.jpg"",""time"":0.07999996887519956},{""stimulus"":""run_exp/static/images/task_images/rocket-02.jpg"",""time"":992.4299999838695},{""stimulus"":""run_exp/static/images/task_images/rocket-03.jpg"",""time"":1974.4599999976344},{""stimulus"":""run_exp/static/images/task_images/rocket-04.jpg"",""time"":2971.1200000019744},{""stimulus"":""run_exp/static/images/task_images/rocket-05.jpg"",""time"":3954.4849999947473},{""stimulus"":""run_exp/static/images/task_images/rocket-06.jpg"",""time"":4934.359999955632},{""stimulus"":""run_exp/static/images/task_images/rocket-07.jpg"",""time"":5929.3349999934435},{""stimulus"":""run_exp/static/images/task_images/rocket-08.jpg"",""time"":6912.139999971259},{""stimulus"":""run_exp/static/images/task_images/rocket-09.jpg"",""time"":7892.084999999497}]",[],17,,,,,,,,,,,,,,
alien_welcome,267,871713,0.0-75.0-1.0,,null,run_exp/static/images/task_images/aliens/old_aliens/planet/alien_planet-41.jpg,null,,,,,,,,,,,,41,"56,14,19,42,64,26,72,22,36,63,76,59,34,39,24,4,44,41,33,54,71,58,15,75,12,3,57,20,40,43,16,27,50,77,60,79,67,55,48,78,65,74,25,68,62,66,30,7",,,,,,,,,,
land,268,872214,0.0-75.0-2.0,,null,run_exp/static/images/task_images/land.jpg,null,,,,,,93,,,18,,,,,,,,,,,,,,
dig,269,874222,0.0-75.0-3.0,,,,,,,,,,,"[{""stimulus"":""run_exp/static/images/task_images/dig.jpg"",""time"":0.16499997582286596},{""stimulus"":""run_exp/static/images/task_images/land.jpg"",""time"":681.574999995064},{""stimulus"":""run_exp/static/images/task_images/dig.jpg"",""time"":1336.249999993015}]",[],18,,,,,,,,,,,,,,
harvest,270,875233,0.0-75.0-4.0,,null,run_exp/static/images/task_images/gems/93.jpg,null,,,,,,80,,,18,,,,,93,0.861498939,0.860215054,,,,,,,
decision,271,876166,0.0-75.0-5.0,,931.77,run_exp/static/images/task_images/land.jpg,65,,,,,,80,,,18,,,,,,,,138388,2,0,FALSE,,,
dig,272,878251,0.0-76.0-0.0,,,,,,,,,,,"[{""stimulus"":""run_exp/static/images/task_images/dig.jpg"",""time"":0.07999996887519956},{""stimulus"":""run_exp/static/images/task_images/land.jpg"",""time"":694.8299999930896},{""stimulus"":""run_exp/static/images/task_images/dig.jpg"",""time"":1380.0399999599904}]",[],18,,,,,,,,,,,,,,
harvest,273,879259,0.0-76.0-1.0,,null,run_exp/static/images/task_images/gems/80.jpg,null,,,,,,66,,,18,,,,,80,0.820645739,0.825,,,,,,,
decision,274,880200,0.0-76.0-2.0,,939.83,run_exp/static/images/task_images/land.jpg,65,,,,,,66,,,18,,,,,,,,142422,2,1,FALSE,,,
dig,275,882267,0.0-77.0-0.0,,,,,,,,,,,"[{""stimulus"":""run_exp/static/images/task_images/dig.jpg"",""time"":0.07500004721805453},{""stimulus"":""run_exp/static/images/task_images/land.jpg"",""time"":693.085000035353},{""stimulus"":""run_exp/static/images/task_images/dig.jpg"",""time"":1382.9200000036508}]",[],18,,,,,,,,,,,,,,
harvest,276,883277,0.0-77.0-1.0,,null,run_exp/static/images/task_images/gems/66.jpg,null,,,,,,49,,,18,,,,,66,0.737860709,0.742424242,,,,,,,
decision,277,884198,0.0-77.0-2.0,,919.96,run_exp/static/images/task_images/land.jpg,65,,,,,,49,,,18,,,,,,,,146420,2,2,FALSE,,,
dig,278,886292,0.0-78.0-0.0,,,,,,,,,,,"[{""stimulus"":""run_exp/static/images/task_images/dig.jpg"",""time"":0.11999998241662979},{""stimulus"":""run_exp/static/images/task_images/land.jpg"",""time"":693.7899999902584},{""stimulus"":""run_exp/static/images/task_images/dig.jpg"",""time"":1392.9750000243075}]",[],18,,,,,,,,,,,,,,
harvest,279,887303,0.0-78.0-1.0,,null,run_exp/static/images/task_images/gems/49.jpg,null,,,,,,41,,,18,,,,,49,0.835835618,0.836734694,,,,,,,
decision,280,890305,0.0-78.0-2.0,,null,run_exp/static/images/task_images/land.jpg,null,,,,,,41,,,18,,,,,,,,152527,2,3,FALSE,,,
time_out,281,892314,0.0-79.0-0.0,,null,run_exp/static/images/task_images/time_out.jpg,null,,,,,,41,,,,,,,,,,,,,,,,,
decision,282,893027,0.0-79.0-1.0,,711.15,run_exp/static/images/task_images/land.jpg,76,,,,,,41,,,18,,,,,,,,155249,2,3,TRUE,,,
travel,283,902331,0.0-80.0-0.0,,,,,,,,,,,"[{""stimulus"":""run_exp/static/images/task_images/rocket-01.jpg"",""time"":0.08999998681247234},{""stimulus"":""run_exp/static/images/task_images/rocket-02.jpg"",""time"":1036.0299999592826},{""stimulus"":""run_exp/static/images/task_images/rocket-03.jpg"",""time"":2065.4499999945983},{""stimulus"":""run_exp/static/images/task_images/rocket-04.jpg"",""time"":3107.849999971222},{""stimulus"":""run_exp/static/images/task_images/rocket-05.jpg"",""time"":4136.009999958333},{""stimulus"":""run_exp/static/images/task_images/rocket-06.jpg"",""time"":5162.089999997988},{""stimulus"":""run_exp/static/images/task_images/rocket-07.jpg"",""time"":6208.064999955241},{""stimulus"":""run_exp/static/images/task_images/rocket-08.jpg"",""time"":7236.679999972694},{""stimulus"":""run_exp/static/images/task_images/rocket-09.jpg"",""time"":8265.319999947678}]",[],18,,,,,,,,,,,,,,
alien_welcome,284,907335,0.0-80.0-1.0,,null,run_exp/static/images/task_images/aliens/old_aliens/planet/alien_planet-33.jpg,null,,,,,,,,,,,,33,"56,14,19,42,64,26,72,22,36,63,76,59,34,39,24,4,44,41,33,54,71,58,15,75,12,3,57,20,40,43,16,27,50,77,60,79,67,55,48,78,65,74,25,68,62,66,30,7",,,,,,,,,,
land,285,907846,0.0-80.0-2.0,,null,run_exp/static/images/task_images/land.jpg,null,,,,,,98,,,19,,,,,,,,,,,,,,
dig,286,909862,0.0-80.0-3.0,,,,,,,,,,,"[{""stimulus"":""run_exp/static/images/task_images/dig.jpg"",""time"":0.16499997582286596},{""stimulus"":""run_exp/static/images/task_images/land.jpg"",""time"":680.869999981951},{""stimulus"":""run_exp/static/images/task_images/dig.jpg"",""time"":1348.7949999980628}]",[],19,,,,,,,,,,,,,,
harvest,287,910877,0.0-80.0-4.0,,null,run_exp/static/images/task_images/gems/98.jpg,null,,,,,,71,,,19,,,,,98,0.720481886,0.724489796,,,,,,,
decision,288,912280,0.0-80.0-5.0,,1401.29,run_exp/static/images/task_images/land.jpg,65,,,,,,71,,,19,,,,,,,,174502,2,0,FALSE,,,
dig,289,913881,0.0-81.0-0.0,,,,,,,,,,,"[{""stimulus"":""run_exp/static/images/task_images/dig.jpg"",""time"":0.07000000914558768},{""stimulus"":""run_exp/static/images/task_images/land.jpg"",""time"":540.8700000261888},{""stimulus"":""run_exp/static/images/task_images/dig.jpg"",""time"":1069.420000014361}]",[],19,,,,,,,,,,,,,,
harvest,290,914895,0.0-81.0-1.0,,null,run_exp/static/images/task_images/gems/71.jpg,null,,,,,,58,,,19,,,,,71,0.822025781,0.816901408,,,,,,,
decision,291,915477,0.0-81.0-2.0,,581.485,run_exp/static/images/task_images/land.jpg,76,,,,,,58,,,19,,,,,,,,177700,2,1,TRUE,,,
travel,292,924900,0.0-82.0-0.0,,,,,,,,,,,"[{""stimulus"":""run_exp/static/images/task_images/rocket-01.jpg"",""time"":0.07499998901039362},{""stimulus"":""run_exp/static/images/task_images/rocket-02.jpg"",""time"":1062.0600000256673},{""stimulus"":""run_exp/static/images/task_images/rocket-03.jpg"",""time"":2093.3749999967404},{""stimulus"":""run_exp/static/images/task_images/rocket-04.jpg"",""time"":3152.1150000044145},{""stimulus"":""run_exp/static/images/task_images/rocket-05.jpg"",""time"":4196.980000007898},{""stimulus"":""run_exp/static/images/task_images/rocket-06.jpg"",""time"":5239.285000017844},{""stimulus"":""run_exp/static/images/task_images/rocket-07.jpg"",""time"":6278.7050000042655},{""stimulus"":""run_exp/static/images/task_images/rocket-08.jpg"",""time"":7334.970000025351},{""stimulus"":""run_exp/static/images/task_images/rocket-09.jpg"",""time"":8376.660000008997}]",[],19,,,,,,,,,,,,,,
alien_welcome,293,929912,0.0-82.0-1.0,,null,run_exp/static/images/task_images/aliens/old_aliens/planet/alien_planet-54.jpg,null,,,,,,,,,,,,54,"56,14,19,42,64,26,72,22,36,63,76,59,34,39,24,4,44,41,33,54,71,58,15,75,12,3,57,20,40,43,16,27,50,77,60,79,67,55,48,78,65,74,25,68,62,66,30,7",,,,,,,,,,
land,294,930414,0.0-82.0-2.0,,null,run_exp/static/images/task_images/land.jpg,null,,,,,,103,,,20,,,,,,,,,,,,,,
dig,295,932430,0.0-82.0-3.0,,,,,,,,,,,"[{""stimulus"":""run_exp/static/images/task_images/dig.jpg"",""time"":0.1700000138953328},{""stimulus"":""run_exp/static/images/task_images/land.jpg"",""time"":680.4500000434928},{""stimulus"":""run_exp/static/images/task_images/dig.jpg"",""time"":1349.6350000496022}]",[],20,,,,,,,,,,,,,,
harvest,296,933440,0.0-82.0-4.0,,null,run_exp/static/images/task_images/gems/103.jpg,null,,,,,,82,,,20,,,,,103,0.797409935,0.796116505,,,,,,,
decision,297,933810,0.0-82.0-5.0,,368.605,run_exp/static/images/task_images/land.jpg,65,,,,,,82,,,20,,,,,,,,196032,2,0,FALSE,,,
dig,298,936453,0.0-83.0-0.0,,,,,,,,,,,"[{""stimulus"":""run_exp/static/images/task_images/dig.jpg"",""time"":0.15000003622844815},{""stimulus"":""run_exp/static/images/task_images/land.jpg"",""time"":884.5650000148453},{""stimulus"":""run_exp/static/images/task_images/dig.jpg"",""time"":1770.920000039041}]",[],20,,,,,,,,,,,,,,
harvest,299,937463,0.0-83.0-1.0,,null,run_exp/static/images/task_images/gems/82.jpg,null,,,,,,65,,,20,,,,,82,0.791285724,0.792682927,,,,,,,
decision,300,937895,0.0-83.0-2.0,,430.52,run_exp/static/images/task_images/land.jpg,65,,,,,,65,,,20,,,,,,,,200117,2,1,FALSE,,,
dig,301,940480,0.0-84.0-0.0,,,,,,,,,,,"[{""stimulus"":""run_exp/static/images/task_images/dig.jpg"",""time"":0.15000003622844815},{""stimulus"":""run_exp/static/images/task_images/land.jpg"",""time"":857.7650000224821},{""stimulus"":""run_exp/static/images/task_images/dig.jpg"",""time"":1725.655000016559}]",[],20,,,,,,,,,,,,,,
harvest,302,941492,0.0-84.0-1.0,,null,run_exp/static/images/task_images/gems/65.jpg,null,,,,,,55,,,20,,,,,65,0.844420869,0.846153846,,,,,,,
decision,303,942117,0.0-84.0-2.0,,624.21,run_exp/static/images/task_images/land.jpg,65,,,,,,55,,,20,,,,,,,,204339,2,2,FALSE,,,
dig,304,944498,0.0-85.0-0.0,,,,,,,,,,,"[{""stimulus"":""run_exp/static/images/task_images/dig.jpg"",""time"":0.07000000914558768},{""stimulus"":""run_exp/static/images/task_images/land.jpg"",""time"":792.0500000473112},{""stimulus"":""run_exp/static/images/task_images/dig.jpg"",""time"":1586.6850000456907}]",[],20,,,,,,,,,,,,,,
harvest,305,945510,0.0-85.0-1.0,,null,run_exp/static/images/task_images/gems/55.jpg,null,,,,,,48,,,20,,,,,55,0.87228007,0.872727273,,,,,,,
decision,306,945904,0.0-85.0-2.0,,392.945,run_exp/static/images/task_images/land.jpg,76,,,,,,48,,,20,,,,,,,,208126,2,3,TRUE,,,
travel,307,955511,0.0-86.0-0.0,,,,,,,,,,,"[{""stimulus"":""run_exp/static/images/task_images/rocket-01.jpg"",""time"":0.09499996667727828},{""stimulus"":""run_exp/static/images/task_images/rocket-02.jpg"",""time"":1078.9049999439158},{""stimulus"":""run_exp/static/images/task_images/rocket-03.jpg"",""time"":2137.7449999563396},{""stimulus"":""run_exp/static/images/task_images/rocket-04.jpg"",""time"":3214.49499996379},{""stimulus"":""run_exp/static/images/task_images/rocket-05.jpg"",""time"":4269.189999962691},{""stimulus"":""run_exp/static/images/task_images/rocket-06.jpg"",""time"":5338.1850000005215},{""stimulus"":""run_exp/static/images/task_images/rocket-07.jpg"",""time"":6412.729999981821},{""stimulus"":""run_exp/static/images/task_images/rocket-08.jpg"",""time"":7472.234999993816},{""stimulus"":""run_exp/static/images/task_images/rocket-09.jpg"",""time"":8544.399999955203}]",[],20,,,,,,,,,,,,,,
alien_welcome,308,960518,0.0-86.0-1.0,,null,run_exp/static/images/task_images/aliens/old_aliens/planet/alien_planet-71.jpg,null,,,,,,,,,,,,71,"56,14,19,42,64,26,72,22,36,63,76,59,34,39,24,4,44,41,33,54,71,58,15,75,12,3,57,20,40,43,16,27,50,77,60,79,67,55,48,78,65,74,25,68,62,66,30,7",,,,,,,,,,
land,309,961032,0.0-86.0-2.0,,null,run_exp/static/images/task_images/land.jpg,null,,,,,,90,,,21,,,,,,,,,,,,,,
dig,310,963039,0.0-86.0-3.0,,,,,,,,,,,"[{""stimulus"":""run_exp/static/images/task_images/dig.jpg"",""time"":0.15000003622844815},{""stimulus"":""run_exp/static/images/task_images/land.jpg"",""time"":682.1300000301562},{""stimulus"":""run_exp/static/images/task_images/dig.jpg"",""time"":1336.3200000021607}]",[],21,,,,,,,,,,,,,,
harvest,311,964051,0.0-86.0-4.0,,null,run_exp/static/images/task_images/gems/90.jpg,null,,,,,,52,,,21,,,,,90,0.577766972,0.577777778,,,,,,,
decision,312,965017,0.0-86.0-5.0,,964.855,run_exp/static/images/task_images/land.jpg,65,,,,,,52,,,21,,,,,,,,227239,2,0,FALSE,,,
dig,313,967055,0.0-87.0-0.0,,,,,,,,,,,"[{""stimulus"":""run_exp/static/images/task_images/dig.jpg"",""time"":0.07999996887519956},{""stimulus"":""run_exp/static/images/task_images/land.jpg"",""time"":679.6549999853596},{""stimulus"":""run_exp/static/images/task_images/dig.jpg"",""time"":1367.5950000179}]",[],21,,,,,,,,,,,,,,
harvest,314,968066,0.0-87.0-1.0,,null,run_exp/static/images/task_images/gems/52.jpg,null,,,,,,27,,,21,,,,,52,0.516684074,0.519230769,,,,,,,
decision,315,969021,0.0-87.0-2.0,,954.225,run_exp/static/images/task_images/land.jpg,76,,,,,,27,,,21,,,,,,,,231243,2,1,TRUE,,,
travel,316,978072,0.0-88.0-0.0,,,,,,,,,,,"[{""stimulus"":""run_exp/static/images/task_images/rocket-01.jpg"",""time"":0.07499998901039362},{""stimulus"":""run_exp/static/images/task_images/rocket-02.jpg"",""time"":1016.170000017155},{""stimulus"":""run_exp/static/images/task_images/rocket-03.jpg"",""time"":2012.7649999922141},{""stimulus"":""run_exp/static/images/task_images/rocket-04.jpg"",""time"":3024.009999993723},{""stimulus"":""run_exp/static/images/task_images/rocket-05.jpg"",""time"":4020.859999989625},{""stimulus"":""run_exp/static/images/task_images/rocket-06.jpg"",""time"":5030.969999963418},{""stimulus"":""run_exp/static/images/task_images/rocket-07.jpg"",""time"":6039.509999973234},{""stimulus"":""run_exp/static/images/task_images/rocket-08.jpg"",""time"":7043.839999998454},{""stimulus"":""run_exp/static/images/task_images/rocket-09.jpg"",""time"":8052.934999985155}]",[],21,,,,,,,,,,,,,,
alien_welcome,317,983081,0.0-88.0-1.0,,null,run_exp/static/images/task_images/aliens/old_aliens/planet/alien_planet-58.jpg,null,,,,,,,,,,,,58,"56,14,19,42,64,26,72,22,36,63,76,59,34,39,24,4,44,41,33,54,71,58,15,75,12,3,57,20,40,43,16,27,50,77,60,79,67,55,48,78,65,74,25,68,62,66,30,7",,,,,,,,,,
land,318,983594,0.0-88.0-2.0,,null,run_exp/static/images/task_images/land.jpg,null,,,,,,99,,,22,,,,,,,,,,,,,,
dig,319,985599,0.0-88.0-3.0,,,,,,,,,,,"[{""stimulus"":""run_exp/static/images/task_images/dig.jpg"",""time"":0.1550000160932541},{""stimulus"":""run_exp/static/images/task_images/land.jpg"",""time"":683.0850000260398},{""stimulus"":""run_exp/static/images/task_images/dig.jpg"",""time"":1337.9100000020117}]",[],22,,,,,,,,,,,,,,
harvest,320,986610,0.0-88.0-4.0,,null,run_exp/static/images/task_images/gems/99.jpg,null,,,,,,67,,,22,,,,,99,0.673157437,0.676767677,,,,,,,
decision,321,986996,0.0-88.0-5.0,,385.395,run_exp/static/images/task_images/land.jpg,65,,,,,,67,,,22,,,,,,,,249219,2,0,FALSE,,,
dig,322,989622,0.0-89.0-0.0,,,,,,,,,,,"[{""stimulus"":""run_exp/static/images/task_images/dig.jpg"",""time"":0.13999996008351445},{""stimulus"":""run_exp/static/images/task_images/land.jpg"",""time"":884.5449999789707},{""stimulus"":""run_exp/static/images/task_images/dig.jpg"",""time"":1755.6299999705516}]",[],22,,,,,,,,,,,,,,
harvest,323,990637,0.0-89.0-1.0,,null,run_exp/static/images/task_images/gems/67.jpg,null,,,,,,46,,,22,,,,,67,0.682427772,0.686567164,,,,,,,
decision,324,991353,0.0-89.0-2.0,,715.255,run_exp/static/images/task_images/land.jpg,76,,,,,,46,,,22,,,,,,,,253575,2,1,TRUE,,,
travel,325,1000649,0.0-90.0-0.0,,,,,,,,,,,"[{""stimulus"":""run_exp/static/images/task_images/rocket-01.jpg"",""time"":0.07499998901039362},{""stimulus"":""run_exp/static/images/task_images/rocket-02.jpg"",""time"":1037.0349999866448},{""stimulus"":""run_exp/static/images/task_images/rocket-03.jpg"",""time"":2065.8600000315346},{""stimulus"":""run_exp/static/images/task_images/rocket-04.jpg"",""time"":3094.5300000021234},{""stimulus"":""run_exp/static/images/task_images/rocket-05.jpg"",""time"":4135.975000041071},{""stimulus"":""run_exp/static/images/task_images/rocket-06.jpg"",""time"":5156.530000036582},{""stimulus"":""run_exp/static/images/task_images/rocket-07.jpg"",""time"":6199.569999997038},{""stimulus"":""run_exp/static/images/task_images/rocket-08.jpg"",""time"":7225.25499999756},{""stimulus"":""run_exp/static/images/task_images/rocket-09.jpg"",""time"":8250.095000024885}]",[],22,,,,,,,,,,,,,,
alien_welcome,326,1005664,0.0-90.0-1.0,,null,run_exp/static/images/task_images/aliens/old_aliens/planet/alien_planet-15.jpg,null,,,,,,,,,,,,15,"56,14,19,42,64,26,72,22,36,63,76,59,34,39,24,4,44,41,33,54,71,58,15,75,12,3,57,20,40,43,16,27,50,77,60,79,67,55,48,78,65,74,25,68,62,66,30,7",,,,,,,,,,
land,327,1006175,0.0-90.0-2.0,,null,run_exp/static/images/task_images/land.jpg,null,,,,,,101,,,23,,,,,,,,,,,,,,
dig,328,1008191,0.0-90.0-3.0,,,,,,,,,,,"[{""stimulus"":""run_exp/static/images/task_images/dig.jpg"",""time"":0.18500001169741154},{""stimulus"":""run_exp/static/images/task_images/land.jpg"",""time"":679.0449999971315},{""stimulus"":""run_exp/static/images/task_images/dig.jpg"",""time"":1347.6050000172108}]",[],23,,,,,,,,,,,,,,
harvest,329,1009200,0.0-90.0-4.0,,null,run_exp/static/images/task_images/gems/101.jpg,null,,,,,,75,,,23,,,,,101,0.738654503,0.742574257,,,,,,,
decision,330,1009289,0.0-90.0-5.0,,87.77499996,run_exp/static/images/task_images/land.jpg,65,,,,,,75,,,23,,,,,,,,271511,2,0,FALSE,,,
dig,331,1012202,0.0-91.0-0.0,,,,,,,,,,,"[{""stimulus"":""run_exp/static/images/task_images/dig.jpg"",""time"":0.07499998901039362},{""stimulus"":""run_exp/static/images/task_images/land.jpg"",""time"":982.2500000009313},{""stimulus"":""run_exp/static/images/task_images/dig.jpg"",""time"":1951.1850000126287}]",[],23,,,,,,,,,,,,,,
harvest,332,1013214,0.0-91.0-1.0,,null,run_exp/static/images/task_images/gems/75.jpg,null,,,,,,64,,,23,,,,,75,0.856672156,0.853333333,,,,,,,
decision,333,1013543,0.0-91.0-2.0,,328.15,run_exp/static/images/task_images/land.jpg,65,,,,,,64,,,23,,,,,,,,275765,2,1,FALSE,,,
dig,334,1016228,0.0-92.0-0.0,,,,,,,,,,,"[{""stimulus"":""run_exp/static/images/task_images/dig.jpg"",""time"":0.07000000914558768},{""stimulus"":""run_exp/static/images/task_images/land.jpg"",""time"":896.3849999709055},{""stimulus"":""run_exp/static/images/task_images/dig.jpg"",""time"":1783.4799999836832}]",[],23,,,,,,,,,,,,,,
harvest,335,1017243,0.0-92.0-1.0,,null,run_exp/static/images/task_images/gems/64.jpg,null,,,,,,47,,,23,,,,,64,0.741191388,0.734375,,,,,,,
decision,336,1017812,0.0-92.0-2.0,,568.515,run_exp/static/images/task_images/land.jpg,65,,,,,,47,,,23,,,,,,,,280034,2,2,FALSE,,,
dig,337,1020251,0.0-93.0-0.0,,,,,,,,,,,"[{""stimulus"":""run_exp/static/images/task_images/dig.jpg"",""time"":0.07499998901039362},{""stimulus"":""run_exp/static/images/task_images/land.jpg"",""time"":817.5499999779277},{""stimulus"":""run_exp/static/images/task_images/dig.jpg"",""time"":1626.5000000130385}]",[],23,,,,,,,,,,,,,,
harvest,338,1021264,0.0-93.0-1.0,,null,run_exp/static/images/task_images/gems/47.jpg,null,,,,,,41,,,23,,,,,47,0.879161674,0.872340426,,,,,,,
decision,339,1021851,0.0-93.0-2.0,,586.04,run_exp/static/images/task_images/land.jpg,76,,,,,,41,,,23,,,,,,,,284073,2,3,TRUE,,,
travel,340,1031274,0.0-94.0-0.0,,,,,,,,,,,"[{""stimulus"":""run_exp/static/images/task_images/rocket-01.jpg"",""time"":0.08000002708286047},{""stimulus"":""run_exp/static/images/task_images/rocket-02.jpg"",""time"":1045.8750000107102},{""stimulus"":""run_exp/static/images/task_images/rocket-03.jpg"",""time"":2105.8049999992363},{""stimulus"":""run_exp/static/images/task_images/rocket-04.jpg"",""time"":3151.3250000425614},{""stimulus"":""run_exp/static/images/task_images/rocket-05.jpg"",""time"":4195.27000002563},{""stimulus"":""run_exp/static/images/task_images/rocket-06.jpg"",""time"":5237.200000032317},{""stimulus"":""run_exp/static/images/task_images/rocket-07.jpg"",""time"":6276.355000038166},{""stimulus"":""run_exp/static/images/task_images/rocket-08.jpg"",""time"":7321.809999994002},{""stimulus"":""run_exp/static/images/task_images/rocket-09.jpg"",""time"":8376.280000025872}]",[],23,,,,,,,,,,,,,,
alien_welcome,341,1036284,0.0-94.0-1.0,,null,run_exp/static/images/task_images/aliens/old_aliens/planet/alien_planet-75.jpg,null,,,,,,,,,,,,75,"56,14,19,42,64,26,72,22,36,63,76,59,34,39,24,4,44,41,33,54,71,58,15,75,12,3,57,20,40,43,16,27,50,77,60,79,67,55,48,78,65,74,25,68,62,66,30,7",,,,,,,,,,
land,342,1036786,0.0-94.0-2.0,,null,run_exp/static/images/task_images/land.jpg,null,,,,,,97,,,24,,,,,,,,,,,,,,
dig,343,1038792,0.0-94.0-3.0,,,,,,,,,,,"[{""stimulus"":""run_exp/static/images/task_images/dig.jpg"",""time"":0.15999999595806003},{""stimulus"":""run_exp/static/images/task_images/land.jpg"",""time"":680.0899999798276},{""stimulus"":""run_exp/static/images/task_images/dig.jpg"",""time"":1336.8999999947846}]",[],24,,,,,,,,,,,,,,
harvest,344,1039802,0.0-94.0-4.0,,null,run_exp/static/images/task_images/gems/97.jpg,null,,,,,,19,,,24,,,,,97,0.198565736,0.195876289,,,,,,,
decision,345,1040434,0.0-94.0-5.0,,630.2,run_exp/static/images/task_images/land.jpg,65,,,,,,19,,,24,,,,,,,,302656,2,0,TRUE,,,
end_of_block_continue,346,1043059,0.0-95.0-0.0,,2623.58,run_exp/static/audio/clip_32_block_end.m4a,,,,,,0,,,,,,,,,,,,,,,,,,
alien_welcome,347,1048067,0.0-96.0-0.0,,null,run_exp/static/images/task_images/aliens/old_aliens/planet/alien_planet-12.jpg,null,,,,,,,,,,,,12,"56,14,19,42,64,26,72,22,36,63,76,59,34,39,24,4,44,41,33,54,71,58,15,75,12,3,57,20,40,43,16,27,50,77,60,79,67,55,48,78,65,74,25,68,62,66,30,7",,,,,,,,,,
land,348,1048579,0.0-96.0-1.0,,null,run_exp/static/images/task_images/land.jpg,null,,,,,,98,,,25,,,,,,,,,,,,,,
dig,349,1050587,0.0-96.0-2.0,,,,,,,,,,,"[{""stimulus"":""run_exp/static/images/task_images/dig.jpg"",""time"":0.21500000730156898},{""stimulus"":""run_exp/static/images/task_images/land.jpg"",""time"":670.795000041835},{""stimulus"":""run_exp/static/images/task_images/dig.jpg"",""time"":1337.0600000489503}]",[],25,,,,,,,,,,,,,,
harvest,350,1051594,0.0-96.0-3.0,,null,run_exp/static/images/task_images/gems/98.jpg,null,,,,,,57,,,25,,,,,98,0.581702572,0.581632653,,,,,,,
decision,351,1052414,0.0-96.0-4.0,,818.89,run_exp/static/images/task_images/land.jpg,65,,,,,,57,,,25,,,,,,,,9353,3,0,FALSE,,,
dig,352,1054612,0.0-97.0-0.0,,,,,,,,,,,"[{""stimulus"":""run_exp/static/images/task_images/dig.jpg"",""time"":0.07999996887519956},{""stimulus"":""run_exp/static/images/task_images/land.jpg"",""time"":731.5049999742769},{""stimulus"":""run_exp/static/images/task_images/dig.jpg"",""time"":1464.6799999754876}]",[],25,,,,,,,,,,,,,,
harvest,353,1055625,0.0-97.0-1.0,,null,run_exp/static/images/task_images/gems/57.jpg,null,,,,,,30,,,25,,,,,57,0.529062082,0.526315789,,,,,,,
decision,354,1056113,0.0-97.0-2.0,,486.925,run_exp/static/images/task_images/land.jpg,76,,,,,,30,,,25,,,,,,,,13052,3,1,TRUE,,,
travel,355,1065644,0.0-98.0-0.0,,,,,,,,,,,"[{""stimulus"":""run_exp/static/images/task_images/rocket-01.jpg"",""time"":0.07000000914558768},{""stimulus"":""run_exp/static/images/task_images/rocket-02.jpg"",""time"":1069.8450000490993},{""stimulus"":""run_exp/static/images/task_images/rocket-03.jpg"",""time"":2129.6950000105426},{""stimulus"":""run_exp/static/images/task_images/rocket-04.jpg"",""time"":3186.180000018794},{""stimulus"":""run_exp/static/images/task_images/rocket-05.jpg"",""time"":4242.340000055265},{""stimulus"":""run_exp/static/images/task_images/rocket-06.jpg"",""time"":5288.435000053141},{""stimulus"":""run_exp/static/images/task_images/rocket-07.jpg"",""time"":6343.195000023115},{""stimulus"":""run_exp/static/images/task_images/rocket-08.jpg"",""time"":7413.215000007767},{""stimulus"":""run_exp/static/images/task_images/rocket-09.jpg"",""time"":8459.800000011455}]",[],25,,,,,,,,,,,,,,
alien_welcome,356,1070660,0.0-98.0-1.0,,null,run_exp/static/images/task_images/aliens/old_aliens/planet/alien_planet-3.jpg,null,,,,,,,,,,,,3,"56,14,19,42,64,26,72,22,36,63,76,59,34,39,24,4,44,41,33,54,71,58,15,75,12,3,57,20,40,43,16,27,50,77,60,79,67,55,48,78,65,74,25,68,62,66,30,7",,,,,,,,,,
land,357,1071174,0.0-98.0-2.0,,null,run_exp/static/images/task_images/land.jpg,null,,,,,,95,,,26,,,,,,,,,,,,,,
dig,358,1073177,0.0-98.0-3.0,,,,,,,,,,,"[{""stimulus"":""run_exp/static/images/task_images/dig.jpg"",""time"":0.1449999981559813},{""stimulus"":""run_exp/static/images/task_images/land.jpg"",""time"":681.8699999712408},{""stimulus"":""run_exp/static/images/task_images/dig.jpg"",""time"":1350.0899999635294}]",[],26,,,,,,,,,,,,,,
harvest,359,1074188,0.0-98.0-4.0,,null,run_exp/static/images/task_images/gems/95.jpg,null,,,,,,76,,,26,,,,,95,0.802954069,0.8,,,,,,,
decision,360,1075306,0.0-98.0-5.0,,1116.795,run_exp/static/images/task_images/land.jpg,65,,,,,,76,,,26,,,,,,,,32245,3,0,FALSE,,,
dig,361,1077193,0.0-99.0-0.0,,,,,,,,,,,"[{""stimulus"":""run_exp/static/images/task_images/dig.jpg"",""time"":0.07000000914558768},{""stimulus"":""run_exp/static/images/task_images/land.jpg"",""time"":636.7600000230595},{""stimulus"":""run_exp/static/images/task_images/dig.jpg"",""time"":1256.8000000319444}]",[],26,,,,,,,,,,,,,,
harvest,362,1078207,0.0-99.0-1.0,,null,run_exp/static/images/task_images/gems/76.jpg,null,,,,,,58,,,26,,,,,76,0.768088118,0.763157895,,,,,,,
decision,363,1078757,0.0-99.0-2.0,,548.86,run_exp/static/images/task_images/land.jpg,65,,,,,,58,,,26,,,,,,,,35696,3,1,FALSE,,,
dig,364,1081227,0.0-100.0-0.0,,,,,,,,,,,"[{""stimulus"":""run_exp/static/images/task_images/dig.jpg"",""time"":0.10499998461455107},{""stimulus"":""run_exp/static/images/task_images/land.jpg"",""time"":819.2099999869242},{""stimulus"":""run_exp/static/images/task_images/dig.jpg"",""time"":1642.935000010766}]",[],26,,,,,,,,,,,,,,
harvest,365,1082236,0.0-100.0-1.0,,null,run_exp/static/images/task_images/gems/58.jpg,null,,,,,,45,,,26,,,,,58,0.770043308,0.775862069,,,,,,,
decision,366,1082742,0.0-100.0-2.0,,505.31,run_exp/static/images/task_images/land.jpg,76,,,,,,45,,,26,,,,,,,,39681,3,2,TRUE,,,
travel,367,1092244,0.0-101.0-0.0,,,,,,,,,,,"[{""stimulus"":""run_exp/static/images/task_images/rocket-01.jpg"",""time"":0.07499998901039362},{""stimulus"":""run_exp/static/images/task_images/rocket-02.jpg"",""time"":1060.9549999935552},{""stimulus"":""run_exp/static/images/task_images/rocket-03.jpg"",""time"":2120.9900000249036},{""stimulus"":""run_exp/static/images/task_images/rocket-04.jpg"",""time"":3177.910000027623},{""stimulus"":""run_exp/static/images/task_images/rocket-05.jpg"",""time"":4221.699999994598},{""stimulus"":""run_exp/static/images/task_images/rocket-06.jpg"",""time"":5279.07500002766},{""stimulus"":""run_exp/static/images/task_images/rocket-07.jpg"",""time"":6324.720000033267},{""stimulus"":""run_exp/static/images/task_images/rocket-08.jpg"",""time"":7385.085000016261},{""stimulus"":""run_exp/static/images/task_images/rocket-09.jpg"",""time"":8440.869999991264}]",[],26,,,,,,,,,,,,,,
alien_welcome,368,1097248,0.0-101.0-1.0,,null,run_exp/static/images/task_images/aliens/old_aliens/planet/alien_planet-57.jpg,null,,,,,,,,,,,,57,"56,14,19,42,64,26,72,22,36,63,76,59,34,39,24,4,44,41,33,54,71,58,15,75,12,3,57,20,40,43,16,27,50,77,60,79,67,55,48,78,65,74,25,68,62,66,30,7",,,,,,,,,,
land,369,1097750,0.0-101.0-2.0,,null,run_exp/static/images/task_images/land.jpg,null,,,,,,104,,,27,,,,,,,,,,,,,,
dig,370,1099763,0.0-101.0-3.0,,,,,,,,,,,"[{""stimulus"":""run_exp/static/images/task_images/dig.jpg"",""time"":0.16499997582286596},{""stimulus"":""run_exp/static/images/task_images/land.jpg"",""time"":679.4799999915995},{""stimulus"":""run_exp/static/images/task_images/dig.jpg"",""time"":1346.880000026431}]",[],27,,,,,,,,,,,,,,
harvest,371,1100773,0.0-101.0-4.0,,null,run_exp/static/images/task_images/gems/104.jpg,null,,,,,,44,,,27,,,,,104,0.426701417,0.423076923,,,,,,,
