trial_type,trial_index,time_elapsed,internal_node_id,success,rt,stimulus,key_press,prompt,subject_id,age,gender,button_pressed,next_reward,animation_sequence,responses,planet,curr_prac_trial,n_prac_rounds,alien,aliens,reward_received,decay_rate_actual,decay_rate_exp,time_in_block,block_num,prt,last_trial_on_planet,button_html,bonus,num_failures
pavlovia,0,14,0.0-0.0,,,,,,,,,,,,,,,,,,,,,,,,,,,
fullscreen,1,10066,0.0-1.0,TRUE,,,,,,,,,,,,,,,,,,,,,,,,,,
instruc_welcome,2,19956,0.0-2.0,,null,run_exp/static/audio/clip_1_welcome.m4a,null,"<p>Howdy! In this experiment, you’ll be an explorer traveling through space to collect space treasure.</p><p>Your mission is to collect as much treasure as possible.</p><br><br><p><img src='run_exp/static/images/task_images/opening_img-01.jpg' height='300' width='auto'></p>",K38qO4bEzOy6M8P_1Y3uCvx5VSxv8Zo_MLRP_9REsZA93owVOkpU,14.75,female,,,,,,,,,,,,,,,,,,,
audio-keyboard-response,3,36974,0.0-3.0,,null,run_exp/static/audio/clip_2_move.m4a,null,,,,,,,,,,,,,,,,,,,,,,,
welcome_dec,4,39066,0.0-4.0,,2081,"<p>Howdy! In this experiment, you’ll be an explorer traveling through space to collect space treasure.</p><p>Your mission is to collect as much treasure as possible.</p><br><br><p><img src='run_exp/static/images/task_images/opening_img-01.jpg' height='300' width='auto'></p>",,,,,,0,,,,,,,,,,,,,,,,,,
html-keyboard-response,5,39677,0.0-5.0,,600.4,"<p>Howdy! In this experiment, you’ll be an explorer traveling through space to collect space treasure.</p><p>Your mission is to collect as much treasure as possible.</p><br><br><p><img src='run_exp/static/images/task_images/opening_img-01.jpg' height='300' width='auto'></p><button class=""jspsych-html-btn-chosen""><img src=""run_exp/static/images/task_images/planet-01.jpg"" height=""50""></button><button class=""jspsych-html-btn-unchosen""><img src=""run_exp/static/images/task_images/planet-02.jpg"" height=""50""></button><p><b>[press the space bar to lock in your answer]<b><br></p>",32,,,,,,,,,,,,,,,,,,,,,,,
instruc_welcome,6,49766,0.0-6.0-0.0,,null,run_exp/static/audio/clip_1_welcome.m4a,null,"<p>Howdy! In this experiment, you’ll be an explorer traveling through space to collect space treasure.</p><p>Your mission is to collect as much treasure as possible.</p><br><br><p><img src='run_exp/static/images/task_images/opening_img-01.jpg' height='300' width='auto'></p>",K38qO4bEzOy6M8P_1Y3uCvx5VSxv8Zo_MLRP_9REsZA93owVOkpU,,,,,,,,,,,,,,,,,,,,,
audio-keyboard-response,7,66780,0.0-6.0-1.0,,null,run_exp/static/audio/clip_2_move.m4a,null,,,,,,,,,,,,,,,,,,,,,,,
welcome_dec,8,68064,0.0-6.0-2.0,,1275.9,"<p>Howdy! In this experiment, you’ll be an explorer traveling through space to collect space treasure.</p><p>Your mission is to collect as much treasure as possible.</p><br><br><p><img src='run_exp/static/images/task_images/opening_img-01.jpg' height='300' width='auto'></p>",,,,,,1,,,,,,,,,,,,,,,,,,
html-keyboard-response,9,68444,0.0-6.0-3.0,,374.8,"<p>Howdy! In this experiment, you’ll be an explorer traveling through space to collect space treasure.</p><p>Your mission is to collect as much treasure as possible.</p><br><br><p><img src='run_exp/static/images/task_images/opening_img-01.jpg' height='300' width='auto'></p><button class=""jspsych-html-btn-unchosen""><img src=""run_exp/static/images/task_images/planet-01.jpg"" height=""50""></button><button class=""jspsych-html-btn-chosen""><img src=""run_exp/static/images/task_images/planet-02.jpg"" height=""50""></button><p><b>[press the space bar to lock in your answer]<b><br></p>",32,,,,,,,,,,,,,,,,,,,,,,,
instruc_goal,10,78935,0.0-7.0-0.0,,null,run_exp/static/audio/clip_3_goal.m4a,null,"<p> As a space explorer, you’ll visit different planets to dig for space treasure, these pink gems.</p> <p> The more treasure you dig up, the more bonus money you’ll win! </p><br><br><p><img src='run_exp/static/images/task_images/pink_gem.jpg' height='300' width='auto'></p>",,,,,,,,,,,,,,,,,,,,,,
instruc_goal,11,82902,0.0-7.0-1.0,,3956.7,"<p> As a space explorer, you’ll visit different planets to dig for space treasure, these pink gems.</p> <p> The more treasure you dig up, the more bonus money you’ll win! </p><br><br><p><img src='run_exp/static/images/task_images/pink_gem.jpg' height='300' width='auto'></p>",,,,,,1,,,,,,,,,,,,,,,,,,
html-keyboard-response,12,83444,0.0-7.0-2.0,,536.4,"<p> As a space explorer, you’ll visit different planets to dig for space treasure, these pink gems.</p> <p> The more treasure you dig up, the more bonus money you’ll win! </p><br><br><p><img src='run_exp/static/images/task_images/pink_gem.jpg' height='300' width='auto'></p><button class=""jspsych-html-btn-unchosen""><img src=""run_exp/static/images/task_images/planet-01.jpg"" height=""50""></button><button class=""jspsych-html-btn-chosen""><img src=""run_exp/static/images/task_images/planet-02.jpg"" height=""50""></button><p><b>[press the space bar to lock in your answer]<b><br></p>",32,,,,,,,,,,,,,,,,,,,,,,,
instruc_dig,13,99789,0.0-8.0-0.0,,null,run_exp/static/audio/clip_4_dig.m4a,null,,,,,,100,,,,,,,,,,,,,,,,,
instruc_dig_try,14,100423,0.0-8.0-1.0,,626.7,"<p> When you’ve arrived at a new planet, you will dig once. </p> <p>Then, you get to decide if you want to stay on the planet and dig again or travel to a new planet and dig there.</p> <p> To stay and dig, press the letter <strong>‘A’</strong> on your keyboard. Try pressing it now! </p><p><img src='run_exp/static/images/task_images/land.jpg'  height='700' width='auto'></p>",65,"<p> When you’ve arrived at a new planet, you will dig once. </p> <p>Then, you get to decide if you want to stay on the planet and dig again or travel to a new planet and dig there.</p> <p> To stay and dig, press the letter <strong>‘A’</strong> on your keyboard. Try pressing it now! </p><p><img src='run_exp/static/images/task_images/land.jpg'  height='700' width='auto'></p>",,,,,100,,,,,,,,,,,,,,,,,
dig_prac,15,103115,0.0-8.0-2.0,,,,,,,,,,,"[{""stimulus"":""run_exp/static/images/task_images/dig.jpg"",""time"":0.8999999999068677},{""stimulus"":""run_exp/static/images/task_images/land.jpg"",""time"":671.7000000001863},{""stimulus"":""run_exp/static/images/task_images/dig.jpg"",""time"":2402}]",[],,,,,,,,,,,,,,,
instruc_travel,16,139708,0.0-8.0-3.0,,null,run_exp/static/audio/clip_5_travel.m4a,null,"<p>Every time you dig up gems, there are less gems on the planet, so the more you dig on a planet the fewer gems you’ll get with each dig.</p><p>When gems are running low, you may want to travel to a new planet. </p> <p>  Planets are very far apart in this galaxy, so it will take some time to travel between them. </p> <br><p>There are lots and lots of planets for you to visit, so you won’t be able to return to any planets you’ve seen before. </p><br><p>To leave this planet and travel to a new one, press the letter <strong>‘L’</strong> on your keyboard. Try pressing it now! </p><p><img src='run_exp/static/images/task_images/rocket-01.jpg'  height='600' width='auto'></p>",,,,,,,,,,,,,,,,,,,,,,
instruc_travel_try,17,141892,0.0-8.0-4.0,,2174.4,"<p>Every time you dig up gems, there are less gems on the planet, so the more you dig on a planet the fewer gems you’ll get with each dig.</p><p>When gems are running low, you may want to travel to a new planet. </p> <p>  Planets are very far apart in this galaxy, so it will take some time to travel between them. </p> <br><p>There are lots and lots of planets for you to visit, so you won’t be able to return to any planets you’ve seen before. </p><br><p>To leave this planet and travel to a new one, press the letter <strong>‘L’</strong> on your keyboard. Try pressing it now! </p><p><img src='run_exp/static/images/task_images/rocket-01.jpg'  height='600' width='auto'></p>",76,"<p>Every time you dig up gems, there are less gems on the planet, so the more you dig on a planet the fewer gems you’ll get with each dig.</p><p>When gems are running low, you may want to travel to a new planet. </p> <p>  Planets are very far apart in this galaxy, so it will take some time to travel between them. </p> <br><p>There are lots and lots of planets for you to visit, so you won’t be able to return to any planets you’ve seen before. </p><br><p>To leave this planet and travel to a new one, press the letter <strong>‘L’</strong> on your keyboard. Try pressing it now! </p><p><img src='run_exp/static/images/task_images/rocket-01.jpg'  height='600' width='auto'></p>",,,,,,,,,,,,,,,,,,,,,,
travel_prac,18,151906,0.0-8.0-5.0,,,,,,,,,,,"[{""stimulus"":""run_exp/static/images/task_images/rocket-01.jpg"",""time"":0.7999999998137355},{""stimulus"":""run_exp/static/images/task_images/rocket-02.jpg"",""time"":1115.6999999997206},{""stimulus"":""run_exp/static/images/task_images/rocket-03.jpg"",""time"":2226.1999999997206},{""stimulus"":""run_exp/static/images/task_images/rocket-04.jpg"",""time"":3340.5},{""stimulus"":""run_exp/static/images/task_images/rocket-05.jpg"",""time"":4450},{""stimulus"":""run_exp/static/images/task_images/rocket-06.jpg"",""time"":5560.600000000093},{""stimulus"":""run_exp/static/images/task_images/rocket-07.jpg"",""time"":6673.600000000093},{""stimulus"":""run_exp/static/images/task_images/rocket-08.jpg"",""time"":7783.899999999907},{""stimulus"":""run_exp/static/images/task_images/rocket-09.jpg"",""time"":8894.600000000093}]",[],0,,,,,,,,,,,,,,
instruc_alien_greet,19,179324,0.0-8.0-6.0,,null,run_exp/static/audio/clip_6_alien.m4a,null,"<p>When you arrive at a new planet, the alien who owns the treasure mine on that planet will greet you!</p><p>The better an alien takes care of their mine the easier it is to dig for gems. Some aliens take better care of their mine than others. So, you won’t get exactly the same amount of gems on each planet.</p><p>What the alien looks like does not tell you anything about how many gems there are on the planet.</p><br><p><img src=""run_exp/static/images/task_images/aliens/instructions_aliens/planet/alien_planet-1.jpg""  height=""600"" width=""auto""></p>",,,,,,,,,,,,,,,,,,,,,,
instruc_alien_greet,20,182091,0.0-8.0-7.0,,2757.1,"<p>When you arrive at a new planet, the alien who owns the treasure mine on that planet will greet you!</p><p>The better an alien takes care of their mine the easier it is to dig for gems. Some aliens take better care of their mine than others. So, you won’t get exactly the same amount of gems on each planet.</p><p>What the alien looks like does not tell you anything about how many gems there are on the planet.</p><br><p><img src=""run_exp/static/images/task_images/aliens/instructions_aliens/planet/alien_planet-1.jpg""  height=""600"" width=""auto""></p>",,,,,,1,,,,,,,,,,,,,,,,,,
html-keyboard-response,21,182248,0.0-8.0-8.0,,151.1,"<p>When you arrive at a new planet, the alien who owns the treasure mine on that planet will greet you!</p><p>The better an alien takes care of their mine the easier it is to dig for gems. Some aliens take better care of their mine than others. So, you won’t get exactly the same amount of gems on each planet.</p><p>What the alien looks like does not tell you anything about how many gems there are on the planet.</p><br><p><img src=""run_exp/static/images/task_images/aliens/instructions_aliens/planet/alien_planet-1.jpg""  height=""600"" width=""auto""></p><button class=""jspsych-html-btn-unchosen""><img src=""run_exp/static/images/task_images/planet-01.jpg"" height=""50""></button><button class=""jspsych-html-btn-chosen""><img src=""run_exp/static/images/task_images/planet-02.jpg"" height=""50""></button><p><b>[press the space bar to lock in your answer]<b><br></p>",32,,,,,,,,,,,,,,,,,,,,,,,
time_out,22,193780,0.0-9.0-0.0,,null,run_exp/static/audio/clip_7_timeout.m4a,null,"<p>If you don't make your choice fast enough, you’ll have to wait a few seconds before you can make another one.</p><p>You can’t dig for more gems or travel to new planets. You just have to sit and wait.</p><br><p><img src='run_exp/static/images/task_images/time_out.jpg'  height='600' width='auto'></p>",,,,,,,,,,,,,,,,,,,,,,
time_out,23,196959,0.0-9.0-1.0,,3169.8,"<p>If you don't make your choice fast enough, you’ll have to wait a few seconds before you can make another one.</p><p>You can’t dig for more gems or travel to new planets. You just have to sit and wait.</p><br><p><img src='run_exp/static/images/task_images/time_out.jpg'  height='600' width='auto'></p>",,,,,,1,,,,,,,,,,,,,,,,,,
html-keyboard-response,24,197129,0.0-9.0-2.0,,163,"<p>If you don't make your choice fast enough, you’ll have to wait a few seconds before you can make another one.</p><p>You can’t dig for more gems or travel to new planets. You just have to sit and wait.</p><br><p><img src='run_exp/static/images/task_images/time_out.jpg'  height='600' width='auto'></p><button class=""jspsych-html-btn-unchosen""><img src=""run_exp/static/images/task_images/planet-01.jpg"" height=""50""></button><button class=""jspsych-html-btn-chosen""><img src=""run_exp/static/images/task_images/planet-02.jpg"" height=""50""></button><p><b>[press the space bar to lock in your answer]<b><br></p>",32,,,,,,,,,,,,,,,,,,,,,,,
instruc_break,25,213098,0.0-10.0-0.0,,null,run_exp/static/audio/clip_8_break.m4a,null,"<p> After digging and traveling for a while, you’ll be able to take a break at home base. </p><p>The game will last 20 minutes no matter what.</p><p>You will visit home base every 5 minutes, so, you will visit home base three times during the game.</p><br><p><img src='run_exp/static/images/task_images/home_base.jpg' height='600' width='auto'></p>",,,,,,,,,,,,,,,,,,,,,,
instruc_break,26,216718,0.0-10.0-1.0,,3609.5,"<p> After digging and traveling for a while, you’ll be able to take a break at home base. </p><p>The game will last 20 minutes no matter what.</p><p>You will visit home base every 5 minutes, so, you will visit home base three times during the game.</p><br><p><img src='run_exp/static/images/task_images/home_base.jpg' height='600' width='auto'></p>",,,,,,1,,,,,,,,,,,,,,,,,,
html-keyboard-response,27,217125,0.0-10.0-2.0,,400.5,"<p> After digging and traveling for a while, you’ll be able to take a break at home base. </p><p>The game will last 20 minutes no matter what.</p><p>You will visit home base every 5 minutes, so, you will visit home base three times during the game.</p><br><p><img src='run_exp/static/images/task_images/home_base.jpg' height='600' width='auto'></p><button class=""jspsych-html-btn-unchosen""><img src=""run_exp/static/images/task_images/planet-01.jpg"" height=""50""></button><button class=""jspsych-html-btn-chosen""><img src=""run_exp/static/images/task_images/planet-02.jpg"" height=""50""></button><p><b>[press the space bar to lock in your answer]<b><br></p>",32,,,,,,,,,,,,,,,,,,,,,,,
instruc_prac_game,28,227552,0.0-11.0-0.0,,null,run_exp/static/audio/clip_9_practice.m4a,null,"<p> Are you ready to play a practice game? </p> <p>In this practice game, you'll be digging up barrels of gems. But, in the real game, you'll be digging up the gems themselves. </p>",,,,,,,,,,,,,,,,,,,,,,
html-button-response,29,228911,0.0-11.0-1.0,,1354.6,"<p> Are you ready to play a practice game? </p> <p>In this practice game, you'll be digging up barrels of gems. But, in the real game, you'll be digging up the gems themselves. </p>",,,,,,0,,,,,,,,,,,,,,,,,,
alien_welcome_prac,30,233923,0.0-12.0-0.0,,null,run_exp/static/images/task_images/aliens/practice_aliens/planet/alien_planet-5.jpg,null,,,,,,,,,,,,,,,,,,,,,,,
land_prac,31,234433,0.0-12.0-1.0,,null,run_exp/static/images/task_images/land.jpg,null,,,,,,107,,,0,,,,,,,,,,,,,,
dig_prac,32,236449,0.0-12.0-2.0,,,,,,,,,,,"[{""stimulus"":""run_exp/static/images/task_images/dig.jpg"",""time"":0.7999999998137355},{""stimulus"":""run_exp/static/images/task_images/land.jpg"",""time"":672.3999999999069},{""stimulus"":""run_exp/static/images/task_images/dig.jpg"",""time"":1338.1999999997206}]",[],,,,,,,,,,,,,,,
harvest_prac,33,237457,0.0-12.0-3.0,,null,run_exp/static/images/task_images/barrel_text.jpg,null,,,,,,,,,,,,,,,,,,,,,,,
decision_prac,34,239954,0.0-12.0-4.0,,2491.6,run_exp/static/images/task_images/land.jpg,76,,,,,,,,,,1,,,,,,,,,,,,,
travel,35,247476,0.0-13.0-0.0,,,,,,,,,,,"[{""stimulus"":""run_exp/static/images/task_images/rocket-01.jpg"",""time"":0.8999999999068677},{""stimulus"":""run_exp/static/images/task_images/rocket-02.jpg"",""time"":839},{""stimulus"":""run_exp/static/images/task_images/rocket-03.jpg"",""time"":1671.3999999999069},{""stimulus"":""run_exp/static/images/task_images/rocket-04.jpg"",""time"":2508.0999999996275},{""stimulus"":""run_exp/static/images/task_images/rocket-05.jpg"",""time"":3341.899999999907},{""stimulus"":""run_exp/static/images/task_images/rocket-06.jpg"",""time"":4175.299999999814},{""stimulus"":""run_exp/static/images/task_images/rocket-07.jpg"",""time"":5007.399999999907},{""stimulus"":""run_exp/static/images/task_images/rocket-08.jpg"",""time"":5844.299999999814},{""stimulus"":""run_exp/static/images/task_images/rocket-09.jpg"",""time"":6676.699999999721}]",[],0,,,,,,,,,,,,,,
alien_welcome_prac,36,252487,0.0-13.0-1.0,,null,run_exp/static/images/task_images/aliens/practice_aliens/planet/alien_planet-4.jpg,null,,,,,,,,,,,,,,,,,,,,,,,
land_prac,37,252999,0.0-13.0-2.0,,null,run_exp/static/images/task_images/land.jpg,null,,,,,,93,,,0,,,,,,,,,,,,,,
dig_prac,38,255014,0.0-13.0-3.0,,,,,,,,,,,"[{""stimulus"":""run_exp/static/images/task_images/dig.jpg"",""time"":0.8999999999068677},{""stimulus"":""run_exp/static/images/task_images/land.jpg"",""time"":672.5},{""stimulus"":""run_exp/static/images/task_images/dig.jpg"",""time"":1339.1000000000931}]",[],,,,,,,,,,,,,,,
harvest_prac,39,256021,0.0-13.0-4.0,,null,run_exp/static/images/task_images/barrel_text.jpg,null,,,,,,,,,,,,,,,,,,,,,,,
decision_prac,40,256244,0.0-13.0-5.0,,217.4,run_exp/static/images/task_images/land.jpg,65,,,,,,,,,,2,,,,,,,,,,,,,
dig_prac,41,258262,0.0-14.0-0.0,,,,,,,,,,,"[{""stimulus"":""run_exp/static/images/task_images/dig.jpg"",""time"":0.900000000372529},{""stimulus"":""run_exp/static/images/task_images/land.jpg"",""time"":673},{""stimulus"":""run_exp/static/images/task_images/dig.jpg"",""time"":1340}]",[],,,,,,,,,,,,,,,
harvest_prac,42,259272,0.0-14.0-1.0,,null,run_exp/static/images/task_images/barrel_text.jpg,null,,,,,,,,,,,,,,,,,,,,,,,
decision_prac,43,261735,0.0-14.0-2.0,,2452.6,run_exp/static/images/task_images/land.jpg,76,,,,,,,,,,3,,,,,,,,,,,,,
travel,44,269305,0.0-15.0-0.0,,,,,,,,,,,"[{""stimulus"":""run_exp/static/images/task_images/rocket-01.jpg"",""time"":0.8000000002793968},{""stimulus"":""run_exp/static/images/task_images/rocket-02.jpg"",""time"":843.5},{""stimulus"":""run_exp/static/images/task_images/rocket-03.jpg"",""time"":1682.3999999999069},{""stimulus"":""run_exp/static/images/task_images/rocket-04.jpg"",""time"":2520.100000000093},{""stimulus"":""run_exp/static/images/task_images/rocket-05.jpg"",""time"":3357.399999999907},{""stimulus"":""run_exp/static/images/task_images/rocket-06.jpg"",""time"":4195.800000000279},{""stimulus"":""run_exp/static/images/task_images/rocket-07.jpg"",""time"":5033.800000000279},{""stimulus"":""run_exp/static/images/task_images/rocket-08.jpg"",""time"":5870.300000000279},{""stimulus"":""run_exp/static/images/task_images/rocket-09.jpg"",""time"":6707.399999999907}]",[],0,,,,,,,,,,,,,,
alien_welcome_prac,45,274310,0.0-15.0-1.0,,null,run_exp/static/images/task_images/aliens/practice_aliens/planet/alien_planet-3.jpg,null,,,,,,,,,,,,,,,,,,,,,,,
land_prac,46,274818,0.0-15.0-2.0,,null,run_exp/static/images/task_images/land.jpg,null,,,,,,87,,,0,,,,,,,,,,,,,,
dig_prac,47,276834,0.0-15.0-3.0,,,,,,,,,,,"[{""stimulus"":""run_exp/static/images/task_images/dig.jpg"",""time"":1.1000000000931323},{""stimulus"":""run_exp/static/images/task_images/land.jpg"",""time"":673.6000000000931},{""stimulus"":""run_exp/static/images/task_images/dig.jpg"",""time"":1339.8000000002794}]",[],,,,,,,,,,,,,,,
harvest_prac,48,277841,0.0-15.0-4.0,,null,run_exp/static/images/task_images/barrel_text.jpg,null,,,,,,,,,,,,,,,,,,,,,,,
decision_prac,49,280548,0.0-15.0-5.0,,2697.6,run_exp/static/images/task_images/land.jpg,65,,,,,,,,,,4,,,,,,,,,,,,,
dig_prac,50,282566,0.0-16.0-0.0,,,,,,,,,,,"[{""stimulus"":""run_exp/static/images/task_images/dig.jpg"",""time"":0.7000000001862645},{""stimulus"":""run_exp/static/images/task_images/land.jpg"",""time"":674},{""stimulus"":""run_exp/static/images/task_images/dig.jpg"",""time"":1340.5}]",[],,,,,,,,,,,,,,,
harvest_prac,51,283576,0.0-16.0-1.0,,null,run_exp/static/images/task_images/barrel_text.jpg,null,,,,,,,,,,,,,,,,,,,,,,,
decision_prac,52,286585,0.0-16.0-2.0,,null,run_exp/static/images/task_images/land.jpg,null,,,,,,,,,,,1,,,,,,,,,,,,
quiz_instruc,53,289397,0.0-17.0-0.0,,2792.2,run_exp/static/audio/clip_10_quiz.m4a,,,,,,0,,,,,,,,,,,,,,,,,,
instruc_repeat,54,332471,0.0-17.0-1.0,,null,"<p> Are you ready to play a practice game? </p> <p>In this practice game, you'll be digging up barrels of gems. But, in the real game, you'll be digging up the gems themselves. </p>",null,"<p>In this game, your goal is to collect as many gems as you can. That’s how you will win bonus money. </p> <p>The entire game will last 20 minutes no matter how many gems you collect or how many planets you visit. </p><p>To stay on a planet and dig again, press the letter A on your keyboard. To leave for a new planet, press the letter L.</p><p>The more you dig on a planet, the fewer gems you’ll get with each dig which is why you might consider leaving for a new planet. </p><p>When you arrive at a new planet, you’ll be greeted by an alien. What the alien looks like does not tell you anything about how much treasure is on the planet. </p>",,,,,,,,,,,,,,,,,,,,,,
instruc_repeat_continue,55,334088,0.0-17.0-2.0,,1608.2,"<p> Are you ready to play a practice game? </p> <p>In this practice game, you'll be digging up barrels of gems. But, in the real game, you'll be digging up the gems themselves. </p>",,,,,,0,,,,,,,,,,,,,,,,,,
quiz_q_1_ask,56,337387,0.0-17.0-3.0,,3293.2,run_exp/static/audio/clip_11_q1_ask.m4a,,,,,,2,,,,,,,,,,,,,,,,,,
quiz_q_1_fb_correct,57,341552,0.0-18.0-0.0,,null,run_exp/static/audio/clip_12_q1_corrrect.m4a,null,<p>That’s correct. You win extra money by collecting more gems.</p>,,,,,,,,,,,,,,,,,,,,,,
quiz_q_2_ask,58,344434,0.0-18.0-1.0,,2874.3,run_exp/static/audio/clip_14_q2_ask.m4a,,,,,,1,,,,,,,,,,,,,,,,,,
quiz_q_2_fb_correct,59,348590,0.0-19.0-0.0,,null,run_exp/static/audio/clip_15_q2_correct.m4a,null,<p>That’s correct. The experiment is 20 minutes no matter what.</p>,,,,,,,,,,,,,,,,,,,,,,
quiz_q_3_ask,60,351898,0.0-19.0-1.0,,3296.5,run_exp/static/audio/clip_17_q3_ask.m4a,,,,,,1,,,,,,,,,,,,,,,,,,
quiz_q_3_fb_correct,61,356266,0.0-20.0-0.0,,null,run_exp/static/audio/clip_18_q3_correct.m4a,null,<p> That’s correct. You press the letter L to travel to a new planet.</p>,,,,,,,,,,,,,,,,,,,,,,
quiz_q_4_ask,62,360098,0.0-20.0-1.0,,3822.7,run_exp/static/audio/clip_20_q4_ask.m4a,,,,,,0,,,,,,,,,,,,,,,,,,
quiz_q_4_fb_correct,63,365861,0.0-21.0-0.0,,null,run_exp/static/audio/clip_21_q4_correct.m4a,null,<p> That’s correct. The more you dig on a planet the fewer gems you’ll get with each dig. </p>,,,,,,,,,,,,,,,,,,,,,,
quiz_q_5_ask,64,368572,0.0-21.0-1.0,,2699,run_exp/static/audio/clip_23_q5_ask.m4a,,,,,,1,,,,,,,,,,,,,,,,,,
quiz_q_5_fb_correct,65,373924,0.0-22.0-0.0,,null,run_exp/static/audio/clip_24_q5_correct.m4a,null,<p> That’s correct. The alien tells you nothing about how much treasure is on the planet.</p>,,,,,,,,,,,,,,,,,,,,,,
quiz_correct,66,377759,0.0-23.0-0.0,,null,run_exp/static/audio/clip_26_correct_quiz.m4a,null,,,,,,,,,,,,,,,,,,,,,,,
quiz_correct_continue,67,379185,0.0-23.0-1.0,,1417.6,<p>Good job! You're now ready to move on to the real game!</p>,,,,,,0,,,,,,,,,,,,,,,,,,
audio-keyboard-response,68,389660,0.0-23.0-2.0,,null,run_exp/static/audio/clip_28_real_game.m4a,null,,,,,,,,,,,,,,,,,,,,,,,
instruc_begin_exp_contine,69,391320,0.0-23.0-3.0,,1646.6,"<p>Now that you know how  to dig for space treasure and travel to new planets,you can start exploring! </p><p>Do you want to go over the instructions again or get started with the real game?</p>",,,,,,1,,,,,,1,,,,,,,,,,,,
alien_welcome,70,396337,0.0-24.0-0.0,,null,run_exp/static/images/task_images/aliens/old_aliens/planet/alien_planet-2.jpg,null,,,,,,,,,,,,2,"2,34,21,33,55,8,24,60,46,42,39,63,30,78,37,25,5,49,40,70,36,80,26,65,12,1,14,15",,,,,,,,,,
land,71,396847,0.0-24.0-1.0,,null,run_exp/static/images/task_images/land.jpg,null,,,,,,101,,,1,,,,,,,,,,,,,,
dig,72,398868,0.0-24.0-2.0,,,,,,,,,,,"[{""stimulus"":""run_exp/static/images/task_images/dig.jpg"",""time"":0.8999999999068677},{""stimulus"":""run_exp/static/images/task_images/land.jpg"",""time"":673.2999999998137},{""stimulus"":""run_exp/static/images/task_images/dig.jpg"",""time"":1339.6999999997206}]",[],1,,,,,,,,,,,,,,
harvest,73,399877,0.0-24.0-3.0,,null,run_exp/static/images/task_images/gems/101.jpg,null,,,,,,20,,,1,,,,,101,0.197282607,0.198019802,,,,,,,
decision,74,402650,0.0-24.0-4.0,,2766.8,run_exp/static/images/task_images/land.jpg,65,,,,,,20,,,1,,,,,,,,11322,1,0,FALSE,,,
dig,75,402902,0.0-25.0-0.0,,,,,,,,,,,"[{""stimulus"":""run_exp/static/images/task_images/dig.jpg"",""time"":0.900000000372529},{""stimulus"":""run_exp/static/images/task_images/land.jpg"",""time"":81.40000000037253},{""stimulus"":""run_exp/static/images/task_images/dig.jpg"",""time"":160.10000000009313}]",[],1,,,,,,,,,,,,,,
harvest,76,404614,0.0-25.0-1.0,,null,run_exp/static/images/task_images/gems/20.jpg,null,,,,,,4,,,1,,,,,20,0.188778545,0.2,,,,,,,
decision,77,405685,0.0-25.0-2.0,,1066.8,run_exp/static/images/task_images/land.jpg,65,,,,,,4,,,1,,,,,,,,14355,1,1,FALSE,,,
dig,78,407639,0.0-26.0-0.0,,,,,,,,,,,"[{""stimulus"":""run_exp/static/images/task_images/dig.jpg"",""time"":0.8999999999068677},{""stimulus"":""run_exp/static/images/task_images/land.jpg"",""time"":649.2000000001863},{""stimulus"":""run_exp/static/images/task_images/dig.jpg"",""time"":1294.1000000000931}]",[],1,,,,,,,,,,,,,,
harvest,79,408649,0.0-26.0-1.0,,null,run_exp/static/images/task_images/gems/4.jpg,null,,,,,,1,,,1,,,,,4,0.206033304,0.25,,,,,,,
decision,80,411657,0.0-26.0-2.0,,null,run_exp/static/images/task_images/land.jpg,null,,,,,,1,,,1,,,,,,,,20327,1,2,FALSE,,,
time_out,81,413681,0.0-27.0-0.0,,null,run_exp/static/images/task_images/time_out.jpg,null,,,,,,1,,,,,,,,,,,,,,,,,
decision,82,414280,0.0-27.0-1.0,,587.5,run_exp/static/images/task_images/land.jpg,65,,,,,,1,,,1,,,,,,,,22949,1,2,FALSE,,,
dig,83,416709,0.0-28.0-0.0,,,,,,,,,,,"[{""stimulus"":""run_exp/static/images/task_images/dig.jpg"",""time"":1},{""stimulus"":""run_exp/static/images/task_images/land.jpg"",""time"":811.3999999999069},{""stimulus"":""run_exp/static/images/task_images/dig.jpg"",""time"":1615.6999999997206}]",[],1,,,,,,,,,,,,,,
harvest,84,418389,0.0-28.0-1.0,,null,run_exp/static/images/task_images/gems/1.jpg,null,,,,,,0,,,1,,,,,1,0.276520804,0,,,,,,,
decision,85,418599,0.0-28.0-2.0,,202.5,run_exp/static/images/task_images/land.jpg,76,,,,,,0,,,1,,,,,,,,27269,1,3,TRUE,,,
travel,86,428412,0.0-29.0-0.0,,,,,,,,,,,"[{""stimulus"":""run_exp/static/images/task_images/rocket-01.jpg"",""time"":0.900000000372529},{""stimulus"":""run_exp/static/images/task_images/rocket-02.jpg"",""time"":1092},{""stimulus"":""run_exp/static/images/task_images/rocket-03.jpg"",""time"":2182.7000000001863},{""stimulus"":""run_exp/static/images/task_images/rocket-04.jpg"",""time"":3270.4000000003725},{""stimulus"":""run_exp/static/images/task_images/rocket-05.jpg"",""time"":4359.5},{""stimulus"":""run_exp/static/images/task_images/rocket-06.jpg"",""time"":5444.5},{""stimulus"":""run_exp/static/images/task_images/rocket-07.jpg"",""time"":6535.300000000279},{""stimulus"":""run_exp/static/images/task_images/rocket-08.jpg"",""time"":7623.300000000279},{""stimulus"":""run_exp/static/images/task_images/rocket-09.jpg"",""time"":8711.5}]",[],1,,,,,,,,,,,,,,
alien_welcome,87,433421,0.0-29.0-1.0,,null,run_exp/static/images/task_images/aliens/old_aliens/planet/alien_planet-34.jpg,null,,,,,,,,,,,,34,"2,34,21,33,55,8,24,60,46,42,39,63,30,78,37,25,5,49,40,70,36,80,26,65,12,1,14,15",,,,,,,,,,
land,88,433932,0.0-29.0-2.0,,null,run_exp/static/images/task_images/land.jpg,null,,,,,,95,,,2,,,,,,,,,,,,,,
dig,89,435949,0.0-29.0-3.0,,,,,,,,,,,"[{""stimulus"":""run_exp/static/images/task_images/dig.jpg"",""time"":1},{""stimulus"":""run_exp/static/images/task_images/land.jpg"",""time"":672.2000000001863},{""stimulus"":""run_exp/static/images/task_images/dig.jpg"",""time"":1338.5}]",[],2,,,,,,,,,,,,,,
harvest,90,437748,0.0-29.0-4.0,,null,run_exp/static/images/task_images/gems/95.jpg,null,,,,,,13,,,2,,,,,95,0.140463798,0.136842105,,,,,,,
decision,91,438189,0.0-29.0-5.0,,433.6,run_exp/static/images/task_images/land.jpg,65,,,,,,13,,,2,,,,,,,,46858,1,0,FALSE,,,
dig,92,440771,0.0-30.0-0.0,,,,,,,,,,,"[{""stimulus"":""run_exp/static/images/task_images/dig.jpg"",""time"":0.7999999998137355},{""stimulus"":""run_exp/static/images/task_images/land.jpg"",""time"":861.1000000000931},{""stimulus"":""run_exp/static/images/task_images/dig.jpg"",""time"":1714.2999999998137}]",[],2,,,,,,,,,,,,,,
harvest,93,442447,0.0-30.0-1.0,,null,run_exp/static/images/task_images/gems/13.jpg,null,,,,,,3,,,2,,,,,13,0.194975595,0.230769231,,,,,,,
decision,94,443164,0.0-30.0-2.0,,711,run_exp/static/images/task_images/land.jpg,65,,,,,,3,,,2,,,,,,,,51834,1,1,FALSE,,,
dig,95,445471,0.0-31.0-0.0,,,,,,,,,,,"[{""stimulus"":""run_exp/static/images/task_images/dig.jpg"",""time"":0.6999999997206032},{""stimulus"":""run_exp/static/images/task_images/land.jpg"",""time"":766.6000000000931},{""stimulus"":""run_exp/static/images/task_images/dig.jpg"",""time"":1530.6999999997206}]",[],2,,,,,,,,,,,,,,
harvest,96,447147,0.0-31.0-1.0,,null,run_exp/static/images/task_images/gems/3.jpg,null,,,,,,0,,,2,,,,,3,0.132182693,0,,,,,,,
decision,97,447678,0.0-31.0-2.0,,525.2,run_exp/static/images/task_images/land.jpg,65,,,,,,0,,,2,,,,,,,,56347,1,2,FALSE,,,
dig,98,450164,0.0-32.0-0.0,,,,,,,,,,,"[{""stimulus"":""run_exp/static/images/task_images/dig.jpg"",""time"":0.7000000001862645},{""stimulus"":""run_exp/static/images/task_images/land.jpg"",""time"":826.8999999999069},{""stimulus"":""run_exp/static/images/task_images/dig.jpg"",""time"":1653}]",[],2,,,,,,,,,,,,,,
harvest,99,451826,0.0-32.0-1.0,,null,run_exp/static/images/task_images/gems/0.jpg,null,,,,,,0,,,2,,,,,0,0.269047368,NaN,,,,,,,
decision,100,454832,0.0-32.0-2.0,,null,run_exp/static/images/task_images/land.jpg,null,,,,,,0,,,2,,,,,,,,63502,1,3,FALSE,,,
time_out,101,456852,0.0-33.0-0.0,,null,run_exp/static/images/task_images/time_out.jpg,null,,,,,,0,,,,,,,,,,,,,,,,,
decision,102,459863,0.0-33.0-1.0,,null,run_exp/static/images/task_images/land.jpg,null,,,,,,0,,,2,,,,,,,,68532,1,3,FALSE,,,
time_out,103,461880,0.0-34.0-0.0,,null,run_exp/static/images/task_images/time_out.jpg,null,,,,,,0,,,,,,,,,,,,,,,,,
decision,104,464890,0.0-34.0-1.0,,null,run_exp/static/images/task_images/land.jpg,null,,,,,,0,,,2,,,,,,,,73560,1,3,FALSE,,,
time_out,105,466907,0.0-35.0-0.0,,null,run_exp/static/images/task_images/time_out.jpg,null,,,,,,0,,,,,,,,,,,,,,,,,
decision,106,469914,0.0-35.0-1.0,,null,run_exp/static/images/task_images/land.jpg,null,,,,,,0,,,2,,,,,,,,78583,1,3,FALSE,,,
time_out,107,471932,0.0-36.0-0.0,,null,run_exp/static/images/task_images/time_out.jpg,null,,,,,,0,,,,,,,,,,,,,,,,,
decision,108,472041,0.0-36.0-1.0,,103.6,run_exp/static/images/task_images/land.jpg,65,,,,,,0,,,2,,,,,,,,80711,1,3,FALSE,,,
dig,109,474953,0.0-37.0-0.0,,,,,,,,,,,"[{""stimulus"":""run_exp/static/images/task_images/dig.jpg"",""time"":0.7999999998137355},{""stimulus"":""run_exp/static/images/task_images/land.jpg"",""time"":972.1000000000931},{""stimulus"":""run_exp/static/images/task_images/dig.jpg"",""time"":1935}]",[],2,,,,,,,,,,,,,,
harvest,110,475961,0.0-37.0-1.0,,null,run_exp/static/images/task_images/gems/0.jpg,null,,,,,,0,,,2,,,,,0,0.175172392,NaN,,,,,,,
decision,111,476680,0.0-37.0-2.0,,709.4,run_exp/static/images/task_images/land.jpg,76,,,,,,0,,,2,,,,,,,,85350,1,4,TRUE,,,
travel,112,486004,0.0-38.0-0.0,,,,,,,,,,,"[{""stimulus"":""run_exp/static/images/task_images/rocket-01.jpg"",""time"":0.7999999998137355},{""stimulus"":""run_exp/static/images/task_images/rocket-02.jpg"",""time"":1036},{""stimulus"":""run_exp/static/images/task_images/rocket-03.jpg"",""time"":2068.5},{""stimulus"":""run_exp/static/images/task_images/rocket-04.jpg"",""time"":3102.1999999997206},{""stimulus"":""run_exp/static/images/task_images/rocket-05.jpg"",""time"":4132.199999999721},{""stimulus"":""run_exp/static/images/task_images/rocket-06.jpg"",""time"":5165.5},{""stimulus"":""run_exp/static/images/task_images/rocket-07.jpg"",""time"":6207},{""stimulus"":""run_exp/static/images/task_images/rocket-08.jpg"",""time"":7227.5999999996275},{""stimulus"":""run_exp/static/images/task_images/rocket-09.jpg"",""time"":8261.099999999627}]",[],2,,,,,,,,,,,,,,
alien_welcome,113,491010,0.0-38.0-1.0,,null,run_exp/static/images/task_images/aliens/old_aliens/planet/alien_planet-21.jpg,null,,,,,,,,,,,,21,"2,34,21,33,55,8,24,60,46,42,39,63,30,78,37,25,5,49,40,70,36,80,26,65,12,1,14,15",,,,,,,,,,
land,114,491520,0.0-38.0-2.0,,null,run_exp/static/images/task_images/land.jpg,null,,,,,,96,,,3,,,,,,,,,,,,,,
dig,115,493532,0.0-38.0-3.0,,,,,,,,,,,"[{""stimulus"":""run_exp/static/images/task_images/dig.jpg"",""time"":0.7000000001862645},{""stimulus"":""run_exp/static/images/task_images/land.jpg"",""time"":671.3999999999069},{""stimulus"":""run_exp/static/images/task_images/dig.jpg"",""time"":1338.3999999999069}]",[],3,,,,,,,,,,,,,,
harvest,116,494537,0.0-38.0-4.0,,null,run_exp/static/images/task_images/gems/96.jpg,null,,,,,,42,,,3,,,,,96,0.441054037,0.4375,,,,,,,
decision,117,495322,0.0-38.0-5.0,,776.9,run_exp/static/images/task_images/land.jpg,65,,,,,,42,,,3,,,,,,,,103991,1,0,FALSE,,,
dig,118,497567,0.0-39.0-0.0,,,,,,,,,,,"[{""stimulus"":""run_exp/static/images/task_images/dig.jpg"",""time"":0.900000000372529},{""stimulus"":""run_exp/static/images/task_images/land.jpg"",""time"":745.5},{""stimulus"":""run_exp/static/images/task_images/dig.jpg"",""time"":1485.5}]",[],3,,,,,,,,,,,,,,
harvest,119,499242,0.0-39.0-1.0,,null,run_exp/static/images/task_images/gems/42.jpg,null,,,,,,22,,,3,,,,,42,0.513610753,0.523809524,,,,,,,
decision,120,499706,0.0-39.0-2.0,,457.8,run_exp/static/images/task_images/land.jpg,65,,,,,,22,,,3,,,,,,,,108375,1,1,FALSE,,,
dig,121,502266,0.0-40.0-0.0,,,,,,,,,,,"[{""stimulus"":""run_exp/static/images/task_images/dig.jpg"",""time"":0.8000000002793968},{""stimulus"":""run_exp/static/images/task_images/land.jpg"",""time"":852.5},{""stimulus"":""run_exp/static/images/task_images/dig.jpg"",""time"":1699.2000000001863}]",[],3,,,,,,,,,,,,,,
harvest,122,503271,0.0-40.0-1.0,,null,run_exp/static/images/task_images/gems/22.jpg,null,,,,,,10,,,3,,,,,22,0.476769573,0.454545455,,,,,,,
decision,123,503944,0.0-40.0-2.0,,668.7,run_exp/static/images/task_images/land.jpg,65,,,,,,10,,,3,,,,,,,,112613,1,2,FALSE,,,
dig,124,506294,0.0-41.0-0.0,,,,,,,,,,,"[{""stimulus"":""run_exp/static/images/task_images/dig.jpg"",""time"":2},{""stimulus"":""run_exp/static/images/task_images/land.jpg"",""time"":783.3999999999069},{""stimulus"":""run_exp/static/images/task_images/dig.jpg"",""time"":1559.5999999996275}]",[],3,,,,,,,,,,,,,,
harvest,125,507991,0.0-41.0-1.0,,null,run_exp/static/images/task_images/gems/10.jpg,null,,,,,,5,,,3,,,,,10,0.492647499,0.5,,,,,,,
decision,126,509566,0.0-41.0-2.0,,1568.4,run_exp/static/images/task_images/land.jpg,76,,,,,,5,,,3,,,,,,,,118236,1,3,TRUE,,,
travel,127,518009,0.0-42.0-0.0,,,,,,,,,,,"[{""stimulus"":""run_exp/static/images/task_images/rocket-01.jpg"",""time"":0.8999999999068677},{""stimulus"":""run_exp/static/images/task_images/rocket-02.jpg"",""time"":941},{""stimulus"":""run_exp/static/images/task_images/rocket-03.jpg"",""time"":1878.5},{""stimulus"":""run_exp/static/images/task_images/rocket-04.jpg"",""time"":2812.7999999998137},{""stimulus"":""run_exp/static/images/task_images/rocket-05.jpg"",""time"":3747.7999999998137},{""stimulus"":""run_exp/static/images/task_images/rocket-06.jpg"",""time"":4685.699999999721},{""stimulus"":""run_exp/static/images/task_images/rocket-07.jpg"",""time"":5622.100000000093},{""stimulus"":""run_exp/static/images/task_images/rocket-08.jpg"",""time"":6557.399999999907},{""stimulus"":""run_exp/static/images/task_images/rocket-09.jpg"",""time"":7490.899999999907}]",[],3,,,,,,,,,,,,,,
alien_welcome,128,523021,0.0-42.0-1.0,,null,run_exp/static/images/task_images/aliens/old_aliens/planet/alien_planet-33.jpg,null,,,,,,,,,,,,33,"2,34,21,33,55,8,24,60,46,42,39,63,30,78,37,25,5,49,40,70,36,80,26,65,12,1,14,15",,,,,,,,,,
land,129,523531,0.0-42.0-2.0,,null,run_exp/static/images/task_images/land.jpg,null,,,,,,98,,,4,,,,,,,,,,,,,,
dig,130,525546,0.0-42.0-3.0,,,,,,,,,,,"[{""stimulus"":""run_exp/static/images/task_images/dig.jpg"",""time"":0.8999999999068677},{""stimulus"":""run_exp/static/images/task_images/land.jpg"",""time"":671},{""stimulus"":""run_exp/static/images/task_images/dig.jpg"",""time"":1339.1999999997206}]",[],4,,,,,,,,,,,,,,
harvest,131,527281,0.0-42.0-4.0,,null,run_exp/static/images/task_images/gems/98.jpg,null,,,,,,55,,,4,,,,,98,0.556662392,0.56122449,,,,,,,
decision,132,529622,0.0-42.0-5.0,,2334.5,run_exp/static/images/task_images/land.jpg,65,,,,,,55,,,4,,,,,,,,138292,1,0,FALSE,,,
dig,133,530304,0.0-43.0-0.0,,,,,,,,,,,"[{""stimulus"":""run_exp/static/images/task_images/dig.jpg"",""time"":0.8000000002793968},{""stimulus"":""run_exp/static/images/task_images/land.jpg"",""time"":227.20000000018626},{""stimulus"":""run_exp/static/images/task_images/dig.jpg"",""time"":445.70000000018626}]",[],4,,,,,,,,,,,,,,
harvest,134,531310,0.0-43.0-1.0,,null,run_exp/static/images/task_images/gems/55.jpg,null,,,,,,28,,,4,,,,,55,0.511946067,0.509090909,,,,,,,
decision,135,531987,0.0-43.0-2.0,,667.8,run_exp/static/images/task_images/land.jpg,65,,,,,,28,,,4,,,,,,,,140656,1,1,FALSE,,,
dig,136,534337,0.0-44.0-0.0,,,,,,,,,,,"[{""stimulus"":""run_exp/static/images/task_images/dig.jpg"",""time"":0.8999999999068677},{""stimulus"":""run_exp/static/images/task_images/land.jpg"",""time"":780},{""stimulus"":""run_exp/static/images/task_images/dig.jpg"",""time"":1558.8999999999069}]",[],4,,,,,,,,,,,,,,
harvest,137,535345,0.0-44.0-1.0,,null,run_exp/static/images/task_images/gems/28.jpg,null,,,,,,15,,,4,,,,,28,0.55278005,0.535714286,,,,,,,
decision,138,538350,0.0-44.0-2.0,,null,run_exp/static/images/task_images/land.jpg,null,,,,,,15,,,4,,,,,,,,147019,1,2,FALSE,,,
time_out,139,540368,0.0-45.0-0.0,,null,run_exp/static/images/task_images/time_out.jpg,null,,,,,,15,,,,,,,,,,,,,,,,,
decision,140,540581,0.0-45.0-1.0,,203.4,run_exp/static/images/task_images/land.jpg,76,,,,,,15,,,4,,,,,,,,149251,1,2,TRUE,,,
travel,141,550391,0.0-46.0-0.0,,,,,,,,,,,"[{""stimulus"":""run_exp/static/images/task_images/rocket-01.jpg"",""time"":0.900000000372529},{""stimulus"":""run_exp/static/images/task_images/rocket-02.jpg"",""time"":1092.3000000002794},{""stimulus"":""run_exp/static/images/task_images/rocket-03.jpg"",""time"":2180.4000000003725},{""stimulus"":""run_exp/static/images/task_images/rocket-04.jpg"",""time"":3268.100000000093},{""stimulus"":""run_exp/static/images/task_images/rocket-05.jpg"",""time"":4358},{""stimulus"":""run_exp/static/images/task_images/rocket-06.jpg"",""time"":5444.600000000093},{""stimulus"":""run_exp/static/images/task_images/rocket-07.jpg"",""time"":6533.9000000003725},{""stimulus"":""run_exp/static/images/task_images/rocket-08.jpg"",""time"":7621.200000000186},{""stimulus"":""run_exp/static/images/task_images/rocket-09.jpg"",""time"":8707.900000000373}]",[],4,,,,,,,,,,,,,,
alien_welcome,142,555401,0.0-46.0-1.0,,null,run_exp/static/images/task_images/aliens/old_aliens/planet/alien_planet-55.jpg,null,,,,,,,,,,,,55,"2,34,21,33,55,8,24,60,46,42,39,63,30,78,37,25,5,49,40,70,36,80,26,65,12,1,14,15",,,,,,,,,,
land,143,555911,0.0-46.0-2.0,,null,run_exp/static/images/task_images/land.jpg,null,,,,,,100,,,5,,,,,,,,,,,,,,
dig,144,557924,0.0-46.0-3.0,,,,,,,,,,,"[{""stimulus"":""run_exp/static/images/task_images/dig.jpg"",""time"":0.8999999999068677},{""stimulus"":""run_exp/static/images/task_images/land.jpg"",""time"":670.3999999999069},{""stimulus"":""run_exp/static/images/task_images/dig.jpg"",""time"":1339}]",[],5,,,,,,,,,,,,,,
harvest,145,558930,0.0-46.0-4.0,,null,run_exp/static/images/task_images/gems/100.jpg,null,,,,,,60,,,5,,,,,100,0.603091605,0.6,,,,,,,
decision,146,559710,0.0-46.0-5.0,,774,run_exp/static/images/task_images/land.jpg,65,,,,,,60,,,5,,,,,,,,168379,1,0,FALSE,,,
dig,147,561951,0.0-47.0-0.0,,,,,,,,,,,"[{""stimulus"":""run_exp/static/images/task_images/dig.jpg"",""time"":0.8999999999068677},{""stimulus"":""run_exp/static/images/task_images/land.jpg"",""time"":747.7000000001863},{""stimulus"":""run_exp/static/images/task_images/dig.jpg"",""time"":1489}]",[],5,,,,,,,,,,,,,,
harvest,148,563662,0.0-47.0-1.0,,null,run_exp/static/images/task_images/gems/60.jpg,null,,,,,,31,,,5,,,,,60,0.524361479,0.516666667,,,,,,,
decision,149,563940,0.0-47.0-2.0,,271.7,run_exp/static/images/task_images/land.jpg,65,,,,,,31,,,5,,,,,,,,172609,1,1,FALSE,,,
dig,150,566686,0.0-48.0-0.0,,,,,,,,,,,"[{""stimulus"":""run_exp/static/images/task_images/dig.jpg"",""time"":0.7000000001862645},{""stimulus"":""run_exp/static/images/task_images/land.jpg"",""time"":914.2999999998137},{""stimulus"":""run_exp/static/images/task_images/dig.jpg"",""time"":1823.3999999999069}]",[],5,,,,,,,,,,,,,,
harvest,151,567692,0.0-48.0-1.0,,null,run_exp/static/images/task_images/gems/31.jpg,null,,,,,,16,,,5,,,,,31,0.524106285,0.516129032,,,,,,,
decision,152,568421,0.0-48.0-2.0,,723.6,run_exp/static/images/task_images/land.jpg,65,,,,,,16,,,5,,,,,,,,177090,1,2,FALSE,,,
dig,153,570720,0.0-49.0-0.0,,,,,,,,,,,"[{""stimulus"":""run_exp/static/images/task_images/dig.jpg"",""time"":0.900000000372529},{""stimulus"":""run_exp/static/images/task_images/land.jpg"",""time"":763.7000000001863},{""stimulus"":""run_exp/static/images/task_images/dig.jpg"",""time"":1519.4000000003725}]",[],5,,,,,,,,,,,,,,
harvest,154,571729,0.0-49.0-1.0,,null,run_exp/static/images/task_images/gems/16.jpg,null,,,,,,8,,,5,,,,,16,0.47515396,0.5,,,,,,,
decision,155,572404,0.0-49.0-2.0,,671.7,run_exp/static/images/task_images/land.jpg,65,,,,,,8,,,5,,,,,,,,181074,1,3,FALSE,,,
dig,156,574754,0.0-50.0-0.0,,,,,,,,,,,"[{""stimulus"":""run_exp/static/images/task_images/dig.jpg"",""time"":0.8999999999068677},{""stimulus"":""run_exp/static/images/task_images/land.jpg"",""time"":780.6000000000931},{""stimulus"":""run_exp/static/images/task_images/dig.jpg"",""time"":1558.2000000001863}]",[],5,,,,,,,,,,,,,,
harvest,157,575762,0.0-50.0-1.0,,null,run_exp/static/images/task_images/gems/8.jpg,null,,,,,,4,,,5,,,,,8,0.48479168,0.5,,,,,,,
decision,158,576634,0.0-50.0-2.0,,866,run_exp/static/images/task_images/land.jpg,65,,,,,,4,,,5,,,,,,,,185303,1,4,FALSE,,,
dig,159,578785,0.0-51.0-0.0,,,,,,,,,,,"[{""stimulus"":""run_exp/static/images/task_images/dig.jpg"",""time"":0.8999999999068677},{""stimulus"":""run_exp/static/images/task_images/land.jpg"",""time"":717.1000000000931},{""stimulus"":""run_exp/static/images/task_images/dig.jpg"",""time"":1426.3999999999069}]",[],5,,,,,,,,,,,,,,
harvest,160,579794,0.0-51.0-1.0,,null,run_exp/static/images/task_images/gems/4.jpg,null,,,,,,2,,,5,,,,,4,0.533537427,0.5,,,,,,,
decision,161,580557,0.0-51.0-2.0,,758.3,run_exp/static/images/task_images/land.jpg,65,,,,,,2,,,5,,,,,,,,189226,1,5,FALSE,,,
dig,162,582830,0.0-52.0-0.0,,,,,,,,,,,"[{""stimulus"":""run_exp/static/images/task_images/dig.jpg"",""time"":0.7999999998137355},{""stimulus"":""run_exp/static/images/task_images/land.jpg"",""time"":751.7999999998137},{""stimulus"":""run_exp/static/images/task_images/dig.jpg"",""time"":1497.5999999996275}]",[],5,,,,,,,,,,,,,,
harvest,163,584562,0.0-52.0-1.0,,null,run_exp/static/images/task_images/gems/2.jpg,null,,,,,,1,,,5,,,,,2,0.48650886,0.5,,,,,,,
decision,164,585477,0.0-52.0-2.0,,909.4,run_exp/static/images/task_images/land.jpg,65,,,,,,1,,,5,,,,,,,,194146,1,6,FALSE,,,
dig,165,587583,0.0-53.0-0.0,,,,,,,,,,,"[{""stimulus"":""run_exp/static/images/task_images/dig.jpg"",""time"":0.7999999998137355},{""stimulus"":""run_exp/static/images/task_images/land.jpg"",""time"":700.2000000001863},{""stimulus"":""run_exp/static/images/task_images/dig.jpg"",""time"":1416.2000000001863}]",[],5,,,,,,,,,,,,,,
harvest,166,588590,0.0-53.0-1.0,,null,run_exp/static/images/task_images/gems/1.jpg,null,,,,,,0,,,5,,,,,1,0.479168824,0,,,,,,,
decision,167,588993,0.0-53.0-2.0,,397.5,run_exp/static/images/task_images/land.jpg,65,,,,,,0,,,5,,,,,,,,197663,1,7,FALSE,,,
dig,168,591611,0.0-54.0-0.0,,,,,,,,,,,"[{""stimulus"":""run_exp/static/images/task_images/dig.jpg"",""time"":0.8000000002793968},{""stimulus"":""run_exp/static/images/task_images/land.jpg"",""time"":870.4000000003725},{""stimulus"":""run_exp/static/images/task_images/dig.jpg"",""time"":1739}]",[],5,,,,,,,,,,,,,,
harvest,169,592616,0.0-54.0-1.0,,null,run_exp/static/images/task_images/gems/0.jpg,null,,,,,,0,,,5,,,,,0,0.498722654,NaN,,,,,,,
decision,170,592924,0.0-54.0-2.0,,301.1,run_exp/static/images/task_images/land.jpg,76,,,,,,0,,,5,,,,,,,,201593,1,8,TRUE,,,
travel,171,602643,0.0-55.0-0.0,,,,,,,,,,,"[{""stimulus"":""run_exp/static/images/task_images/rocket-01.jpg"",""time"":0.8000000002793968},{""stimulus"":""run_exp/static/images/task_images/rocket-02.jpg"",""time"":1081.5},{""stimulus"":""run_exp/static/images/task_images/rocket-03.jpg"",""time"":2159.399999999907},{""stimulus"":""run_exp/static/images/task_images/rocket-04.jpg"",""time"":3236.100000000093},{""stimulus"":""run_exp/static/images/task_images/rocket-05.jpg"",""time"":4312.600000000093},{""stimulus"":""run_exp/static/images/task_images/rocket-06.jpg"",""time"":5390.800000000279},{""stimulus"":""run_exp/static/images/task_images/rocket-07.jpg"",""time"":6466.899999999907},{""stimulus"":""run_exp/static/images/task_images/rocket-08.jpg"",""time"":7545.600000000093},{""stimulus"":""run_exp/static/images/task_images/rocket-09.jpg"",""time"":8620.700000000186}]",[],5,,,,,,,,,,,,,,
alien_welcome,172,607655,0.0-55.0-1.0,,null,run_exp/static/images/task_images/aliens/old_aliens/planet/alien_planet-8.jpg,null,,,,,,,,,,,,8,"2,34,21,33,55,8,24,60,46,42,39,63,30,78,37,25,5,49,40,70,36,80,26,65,12,1,14,15",,,,,,,,,,
land,173,608168,0.0-55.0-2.0,,null,run_exp/static/images/task_images/land.jpg,null,,,,,,98,,,6,,,,,,,,,,,,,,
dig,174,610180,0.0-55.0-3.0,,,,,,,,,,,"[{""stimulus"":""run_exp/static/images/task_images/dig.jpg"",""time"":0.8000000002793968},{""stimulus"":""run_exp/static/images/task_images/land.jpg"",""time"":674.1000000000931},{""stimulus"":""run_exp/static/images/task_images/dig.jpg"",""time"":1336.8999999999069}]",[],6,,,,,,,,,,,,,,
harvest,175,611184,0.0-55.0-4.0,,null,run_exp/static/images/task_images/gems/98.jpg,null,,,,,,83,,,6,,,,,98,0.844957246,0.846938776,,,,,,,
decision,176,614188,0.0-55.0-5.0,,null,run_exp/static/images/task_images/land.jpg,null,,,,,,83,,,6,,,,,,,,222857,1,0,FALSE,,,
time_out,177,616201,0.0-56.0-0.0,,null,run_exp/static/images/task_images/time_out.jpg,null,,,,,,83,,,,,,,,,,,,,,,,,
decision,178,616389,0.0-56.0-1.0,,177.7,run_exp/static/images/task_images/land.jpg,65,,,,,,83,,,6,,,,,,,,225059,1,0,FALSE,,,
dig,179,619225,0.0-57.0-0.0,,,,,,,,,,,"[{""stimulus"":""run_exp/static/images/task_images/dig.jpg"",""time"":0.8000000002793968},{""stimulus"":""run_exp/static/images/task_images/land.jpg"",""time"":944.6000000000931},{""stimulus"":""run_exp/static/images/task_images/dig.jpg"",""time"":1884.1000000000931}]",[],6,,,,,,,,,,,,,,
harvest,180,620232,0.0-57.0-1.0,,null,run_exp/static/images/task_images/gems/83.jpg,null,,,,,,70,,,6,,,,,83,0.84923089,0.843373494,,,,,,,
decision,181,621019,0.0-57.0-2.0,,782.6,run_exp/static/images/task_images/land.jpg,65,,,,,,70,,,6,,,,,,,,229688,1,1,FALSE,,,
dig,182,623258,0.0-58.0-0.0,,,,,,,,,,,"[{""stimulus"":""run_exp/static/images/task_images/dig.jpg"",""time"":1},{""stimulus"":""run_exp/static/images/task_images/land.jpg"",""time"":744.1000000000931},{""stimulus"":""run_exp/static/images/task_images/dig.jpg"",""time"":1488.3999999999069}]",[],6,,,,,,,,,,,,,,
harvest,183,624264,0.0-58.0-1.0,,null,run_exp/static/images/task_images/gems/70.jpg,null,,,,,,55,,,6,,,,,70,0.789613553,0.785714286,,,,,,,
decision,184,625100,0.0-58.0-2.0,,827.1,run_exp/static/images/task_images/land.jpg,65,,,,,,55,,,6,,,,,,,,233769,1,2,FALSE,,,
dig,185,627290,0.0-59.0-0.0,,,,,,,,,,,"[{""stimulus"":""run_exp/static/images/task_images/dig.jpg"",""time"":0.6999999997206032},{""stimulus"":""run_exp/static/images/task_images/land.jpg"",""time"":727.6999999997206},{""stimulus"":""run_exp/static/images/task_images/dig.jpg"",""time"":1452.0999999996275}]",[],6,,,,,,,,,,,,,,
harvest,186,628297,0.0-59.0-1.0,,null,run_exp/static/images/task_images/gems/55.jpg,null,,,,,,45,,,6,,,,,55,0.823233509,0.818181818,,,,,,,
decision,187,629998,0.0-59.0-2.0,,1690.4,run_exp/static/images/task_images/land.jpg,65,,,,,,45,,,6,,,,,,,,238667,1,3,FALSE,,,
dig,188,631323,0.0-60.0-0.0,,,,,,,,,,,"[{""stimulus"":""run_exp/static/images/task_images/dig.jpg"",""time"":0.6999999997206032},{""stimulus"":""run_exp/static/images/task_images/land.jpg"",""time"":441.29999999981374},{""stimulus"":""run_exp/static/images/task_images/dig.jpg"",""time"":876.7999999998137}]",[],6,,,,,,,,,,,,,,
harvest,189,633012,0.0-60.0-1.0,,null,run_exp/static/images/task_images/gems/45.jpg,null,,,,,,37,,,6,,,,,45,0.824942433,0.822222222,,,,,,,
decision,190,633318,0.0-60.0-2.0,,297.7,run_exp/static/images/task_images/land.jpg,65,,,,,,37,,,6,,,,,,,,241988,1,4,FALSE,,,
dig,191,636035,0.0-61.0-0.0,,,,,,,,,,,"[{""stimulus"":""run_exp/static/images/task_images/dig.jpg"",""time"":0.7999999998137355},{""stimulus"":""run_exp/static/images/task_images/land.jpg"",""time"":905.7000000001863},{""stimulus"":""run_exp/static/images/task_images/dig.jpg"",""time"":1806.5}]",[],6,,,,,,,,,,,,,,
harvest,192,637731,0.0-61.0-1.0,,null,run_exp/static/images/task_images/gems/37.jpg,null,,,,,,30,,,6,,,,,37,0.811343389,0.810810811,,,,,,,
decision,193,637932,0.0-61.0-2.0,,195.4,run_exp/static/images/task_images/land.jpg,65,,,,,,30,,,6,,,,,,,,246601,1,5,FALSE,,,
dig,194,640751,0.0-62.0-0.0,,,,,,,,,,,"[{""stimulus"":""run_exp/static/images/task_images/dig.jpg"",""time"":0.6000000000931323},{""stimulus"":""run_exp/static/images/task_images/land.jpg"",""time"":938.3999999999069},{""stimulus"":""run_exp/static/images/task_images/dig.jpg"",""time"":1873.1000000000931}]",[],6,,,,,,,,,,,,,,
harvest,195,641756,0.0-62.0-1.0,,null,run_exp/static/images/task_images/gems/30.jpg,null,,,,,,25,,,6,,,,,30,0.81757032,0.833333333,,,,,,,
decision,196,644761,0.0-62.0-2.0,,null,run_exp/static/images/task_images/land.jpg,null,,,,,,25,,,6,,,,,,,,253431,1,6,FALSE,,,
time_out,197,646784,0.0-63.0-0.0,,null,run_exp/static/images/task_images/time_out.jpg,null,,,,,,25,,,,,,,,,,,,,,,,,
decision,198,647128,0.0-63.0-1.0,,335.7,run_exp/static/images/task_images/land.jpg,76,,,,,,25,,,6,,,,,,,,255798,1,6,TRUE,,,
travel,199,656806,0.0-64.0-0.0,,,,,,,,,,,"[{""stimulus"":""run_exp/static/images/task_images/rocket-01.jpg"",""time"":0.7999999998137355},{""stimulus"":""run_exp/static/images/task_images/rocket-02.jpg"",""time"":1078.5},{""stimulus"":""run_exp/static/images/task_images/rocket-03.jpg"",""time"":2152.6999999997206},{""stimulus"":""run_exp/static/images/task_images/rocket-04.jpg"",""time"":3225.0999999996275},{""stimulus"":""run_exp/static/images/task_images/rocket-05.jpg"",""time"":4297.5999999996275},{""stimulus"":""run_exp/static/images/task_images/rocket-06.jpg"",""time"":5371.5999999996275},{""stimulus"":""run_exp/static/images/task_images/rocket-07.jpg"",""time"":6443},{""stimulus"":""run_exp/static/images/task_images/rocket-08.jpg"",""time"":7516.5},{""stimulus"":""run_exp/static/images/task_images/rocket-09.jpg"",""time"":8587.599999999627}]",[],6,,,,,,,,,,,,,,
alien_welcome,200,661817,0.0-64.0-1.0,,null,run_exp/static/images/task_images/aliens/old_aliens/planet/alien_planet-24.jpg,null,,,,,,,,,,,,24,"2,34,21,33,55,8,24,60,46,42,39,63,30,78,37,25,5,49,40,70,36,80,26,65,12,1,14,15",,,,,,,,,,
land,201,662326,0.0-64.0-2.0,,null,run_exp/static/images/task_images/land.jpg,null,,,,,,104,,,7,,,,,,,,,,,,,,
dig,202,664341,0.0-64.0-3.0,,,,,,,,,,,"[{""stimulus"":""run_exp/static/images/task_images/dig.jpg"",""time"":0.8000000002793968},{""stimulus"":""run_exp/static/images/task_images/land.jpg"",""time"":687.8999999999069},{""stimulus"":""run_exp/static/images/task_images/dig.jpg"",""time"":1337.8000000002794}]",[],7,,,,,,,,,,,,,,
harvest,203,665348,0.0-64.0-4.0,,null,run_exp/static/images/task_images/gems/104.jpg,null,,,,,,79,,,7,,,,,104,0.763007493,0.759615385,,,,,,,
decision,204,666108,0.0-64.0-5.0,,756.3,run_exp/static/images/task_images/land.jpg,65,,,,,,79,,,7,,,,,,,,274777,1,0,FALSE,,,
dig,205,668369,0.0-65.0-0.0,,,,,,,,,,,"[{""stimulus"":""run_exp/static/images/task_images/dig.jpg"",""time"":0.7000000001862645},{""stimulus"":""run_exp/static/images/task_images/land.jpg"",""time"":752.2000000001863},{""stimulus"":""run_exp/static/images/task_images/dig.jpg"",""time"":1498.5}]",[],7,,,,,,,,,,,,,,
harvest,206,670047,0.0-65.0-1.0,,null,run_exp/static/images/task_images/gems/79.jpg,null,,,,,,64,,,7,,,,,79,0.815694948,0.810126582,,,,,,,
decision,207,671069,0.0-65.0-2.0,,1017.6,run_exp/static/images/task_images/land.jpg,65,,,,,,64,,,7,,,,,,,,279739,1,1,FALSE,,,
dig,208,673069,0.0-66.0-0.0,,,,,,,,,,,"[{""stimulus"":""run_exp/static/images/task_images/dig.jpg"",""time"":0.8999999999068677},{""stimulus"":""run_exp/static/images/task_images/land.jpg"",""time"":686.1999999997206},{""stimulus"":""run_exp/static/images/task_images/dig.jpg"",""time"":1324.1999999997206}]",[],7,,,,,,,,,,,,,,
harvest,209,674744,0.0-66.0-1.0,,null,run_exp/static/images/task_images/gems/64.jpg,null,,,,,,54,,,7,,,,,64,0.838953635,0.84375,,,,,,,
decision,210,676014,0.0-66.0-2.0,,1262.1,run_exp/static/images/task_images/land.jpg,65,,,,,,54,,,7,,,,,,,,284684,1,2,FALSE,,,
dig,211,677773,0.0-67.0-0.0,,,,,,,,,,,"[{""stimulus"":""run_exp/static/images/task_images/dig.jpg"",""time"":0.8999999999068677},{""stimulus"":""run_exp/static/images/task_images/land.jpg"",""time"":583.7999999998137},{""stimulus"":""run_exp/static/images/task_images/dig.jpg"",""time"":1193.2000000001863}]",[],7,,,,,,,,,,,,,,
harvest,212,679455,0.0-67.0-1.0,,null,run_exp/static/images/task_images/gems/54.jpg,null,,,,,,46,,,7,,,,,54,0.851364344,0.851851852,,,,,,,
decision,213,681107,0.0-67.0-2.0,,1645.9,run_exp/static/images/task_images/land.jpg,76,,,,,,46,,,7,,,,,,,,289777,1,3,TRUE,,,
travel,214,689494,0.0-68.0-0.0,,,,,,,,,,,"[{""stimulus"":""run_exp/static/images/task_images/rocket-01.jpg"",""time"":0.8999999999068677},{""stimulus"":""run_exp/static/images/task_images/rocket-02.jpg"",""time"":933.3000000002794},{""stimulus"":""run_exp/static/images/task_images/rocket-03.jpg"",""time"":1886.6000000000931},{""stimulus"":""run_exp/static/images/task_images/rocket-04.jpg"",""time"":2789.7000000001863},{""stimulus"":""run_exp/static/images/task_images/rocket-05.jpg"",""time"":3717.600000000093},{""stimulus"":""run_exp/static/images/task_images/rocket-06.jpg"",""time"":4645.899999999907},{""stimulus"":""run_exp/static/images/task_images/rocket-07.jpg"",""time"":5574.100000000093},{""stimulus"":""run_exp/static/images/task_images/rocket-08.jpg"",""time"":6521.800000000279},{""stimulus"":""run_exp/static/images/task_images/rocket-09.jpg"",""time"":7453.300000000279}]",[],7,,,,,,,,,,,,,,
alien_welcome,215,694500,0.0-68.0-1.0,,null,run_exp/static/images/task_images/aliens/old_aliens/planet/alien_planet-60.jpg,null,,,,,,,,,,,,60,"2,34,21,33,55,8,24,60,46,42,39,63,30,78,37,25,5,49,40,70,36,80,26,65,12,1,14,15",,,,,,,,,,
land,216,695011,0.0-68.0-2.0,,null,run_exp/static/images/task_images/land.jpg,null,,,,,,104,,,8,,,,,,,,,,,,,,
dig,217,697026,0.0-68.0-3.0,,,,,,,,,,,"[{""stimulus"":""run_exp/static/images/task_images/dig.jpg"",""time"":0.7999999998137355},{""stimulus"":""run_exp/static/images/task_images/land.jpg"",""time"":690.5},{""stimulus"":""run_exp/static/images/task_images/dig.jpg"",""time"":1338.5}]",[],8,,,,,,,,,,,,,,
harvest,218,698037,0.0-68.0-4.0,,null,run_exp/static/images/task_images/gems/104.jpg,null,,,,,,80,,,8,,,,,104,0.772683431,0.769230769,,,,,,,
decision,219,699905,0.0-68.0-5.0,,1859.8,run_exp/static/images/task_images/land.jpg,65,,,,,,80,,,8,,,,,,,,308574,1,0,TRUE,,,
end_of_block_continue,220,708959,0.0-69.0-0.0,,null,run_exp/static/audio/clip_32_block_end.m4a,,,,,,null,,,,,,,,,,,,,,,,,,
alien_welcome,221,713973,0.0-70.0-0.0,,null,run_exp/static/images/task_images/aliens/old_aliens/planet/alien_planet-46.jpg,null,,,,,,,,,,,,46,"2,34,21,33,55,8,24,60,46,42,39,63,30,78,37,25,5,49,40,70,36,80,26,65,12,1,14,15",,,,,,,,,,
land,222,714481,0.0-70.0-1.0,,null,run_exp/static/images/task_images/land.jpg,null,,,,,,95,,,9,,,,,,,,,,,,,,
dig,223,716498,0.0-70.0-2.0,,,,,,,,,,,"[{""stimulus"":""run_exp/static/images/task_images/dig.jpg"",""time"":0.8999999999068677},{""stimulus"":""run_exp/static/images/task_images/land.jpg"",""time"":698.6000000000931},{""stimulus"":""run_exp/static/images/task_images/dig.jpg"",""time"":1338.5}]",[],9,,,,,,,,,,,,,,
harvest,224,717508,0.0-70.0-3.0,,null,run_exp/static/images/task_images/gems/95.jpg,null,,,,,,18,,,9,,,,,95,0.193299161,0.189473684,,,,,,,
decision,225,717918,0.0-70.0-4.0,,399.6,run_exp/static/images/task_images/land.jpg,65,,,,,,18,,,9,,,,,,,,8948,2,0,FALSE,,,
dig,226,720538,0.0-71.0-0.0,,,,,,,,,,,"[{""stimulus"":""run_exp/static/images/task_images/dig.jpg"",""time"":0.8999999999068677},{""stimulus"":""run_exp/static/images/task_images/land.jpg"",""time"":882.6000000000931},{""stimulus"":""run_exp/static/images/task_images/dig.jpg"",""time"":1741.1999999997206}]",[],9,,,,,,,,,,,,,,
harvest,227,721545,0.0-71.0-1.0,,null,run_exp/static/images/task_images/gems/18.jpg,null,,,,,,2,,,9,,,,,18,0.116779861,0.111111111,,,,,,,
decision,228,722317,0.0-71.0-2.0,,762.9,run_exp/static/images/task_images/land.jpg,65,,,,,,2,,,9,,,,,,,,13347,2,1,FALSE,,,
dig,229,724577,0.0-72.0-0.0,,,,,,,,,,,"[{""stimulus"":""run_exp/static/images/task_images/dig.jpg"",""time"":1},{""stimulus"":""run_exp/static/images/task_images/land.jpg"",""time"":750.8999999999069},{""stimulus"":""run_exp/static/images/task_images/dig.jpg"",""time"":1494}]",[],9,,,,,,,,,,,,,,
harvest,230,725588,0.0-72.0-1.0,,null,run_exp/static/images/task_images/gems/2.jpg,null,,,,,,1,,,9,,,,,2,0.250022302,0.5,,,,,,,
decision,231,727044,0.0-72.0-2.0,,1449.4,run_exp/static/images/task_images/land.jpg,76,,,,,,1,,,9,,,,,,,,18075,2,2,TRUE,,,
travel,232,735615,0.0-73.0-0.0,,,,,,,,,,,"[{""stimulus"":""run_exp/static/images/task_images/rocket-01.jpg"",""time"":1},{""stimulus"":""run_exp/static/images/task_images/rocket-02.jpg"",""time"":955.6999999997206},{""stimulus"":""run_exp/static/images/task_images/rocket-03.jpg"",""time"":1905.0999999996275},{""stimulus"":""run_exp/static/images/task_images/rocket-04.jpg"",""time"":2871.2999999998137},{""stimulus"":""run_exp/static/images/task_images/rocket-05.jpg"",""time"":3806},{""stimulus"":""run_exp/static/images/task_images/rocket-06.jpg"",""time"":4765.0999999996275},{""stimulus"":""run_exp/static/images/task_images/rocket-07.jpg"",""time"":5707.199999999721},{""stimulus"":""run_exp/static/images/task_images/rocket-08.jpg"",""time"":6656.5},{""stimulus"":""run_exp/static/images/task_images/rocket-09.jpg"",""time"":7633.399999999907}]",[],9,,,,,,,,,,,,,,
alien_welcome,233,740628,0.0-73.0-1.0,,null,run_exp/static/images/task_images/aliens/old_aliens/planet/alien_planet-42.jpg,null,,,,,,,,,,,,42,"2,34,21,33,55,8,24,60,46,42,39,63,30,78,37,25,5,49,40,70,36,80,26,65,12,1,14,15",,,,,,,,,,
land,234,741136,0.0-73.0-2.0,,null,run_exp/static/images/task_images/land.jpg,null,,,,,,109,,,10,,,,,,,,,,,,,,
dig,235,743150,0.0-73.0-3.0,,,,,,,,,,,"[{""stimulus"":""run_exp/static/images/task_images/dig.jpg"",""time"":1},{""stimulus"":""run_exp/static/images/task_images/land.jpg"",""time"":696.2000000001863},{""stimulus"":""run_exp/static/images/task_images/dig.jpg"",""time"":1338.2000000001863}]",[],10,,,,,,,,,,,,,,
harvest,236,744159,0.0-73.0-4.0,,null,run_exp/static/images/task_images/gems/109.jpg,null,,,,,,11,,,10,,,,,109,0.096484919,0.100917431,,,,,,,
decision,237,744863,0.0-73.0-5.0,,695.2,run_exp/static/images/task_images/land.jpg,65,,,,,,11,,,10,,,,,,,,35893,2,0,FALSE,,,
dig,238,747193,0.0-74.0-0.0,,,,,,,,,,,"[{""stimulus"":""run_exp/static/images/task_images/dig.jpg"",""time"":1.1999999997206032},{""stimulus"":""run_exp/static/images/task_images/land.jpg"",""time"":772.2999999998137},{""stimulus"":""run_exp/static/images/task_images/dig.jpg"",""time"":1540.6999999997206}]",[],10,,,,,,,,,,,,,,
harvest,239,748867,0.0-74.0-1.0,,null,run_exp/static/images/task_images/gems/11.jpg,null,,,,,,4,,,10,,,,,11,0.330165291,0.363636364,,,,,,,
decision,240,751431,0.0-74.0-2.0,,2558.1,run_exp/static/images/task_images/land.jpg,65,,,,,,4,,,10,,,,,,,,42461,2,1,FALSE,,,
dig,241,751898,0.0-75.0-0.0,,,,,,,,,,,"[{""stimulus"":""run_exp/static/images/task_images/dig.jpg"",""time"":1},{""stimulus"":""run_exp/static/images/task_images/land.jpg"",""time"":151},{""stimulus"":""run_exp/static/images/task_images/dig.jpg"",""time"":297.5}]",[],10,,,,,,,,,,,,,,
harvest,242,752905,0.0-75.0-1.0,,null,run_exp/static/images/task_images/gems/4.jpg,null,,,,,,0,,,10,,,,,4,0.112466674,0,,,,,,,
decision,243,753658,0.0-75.0-2.0,,745.7,run_exp/static/images/task_images/land.jpg,65,,,,,,0,,,10,,,,,,,,44688,2,2,FALSE,,,
dig,244,755930,0.0-76.0-0.0,,,,,,,,,,,"[{""stimulus"":""run_exp/static/images/task_images/dig.jpg"",""time"":0.7999999998137355},{""stimulus"":""run_exp/static/images/task_images/land.jpg"",""time"":756.6999999997206},{""stimulus"":""run_exp/static/images/task_images/dig.jpg"",""time"":1521}]",[],10,,,,,,,,,,,,,,
harvest,245,756938,0.0-76.0-1.0,,null,run_exp/static/images/task_images/gems/0.jpg,null,,,,,,0,,,10,,,,,0,0.121369268,NaN,,,,,,,
decision,246,759181,0.0-76.0-2.0,,2234.1,run_exp/static/images/task_images/land.jpg,76,,,,,,0,,,10,,,,,,,,50213,2,3,TRUE,,,
travel,247,766958,0.0-77.0-0.0,,,,,,,,,,,"[{""stimulus"":""run_exp/static/images/task_images/rocket-01.jpg"",""time"":0.6999999997206032},{""stimulus"":""run_exp/static/images/task_images/rocket-02.jpg"",""time"":887.8999999999069},{""stimulus"":""run_exp/static/images/task_images/rocket-03.jpg"",""time"":1727.5},{""stimulus"":""run_exp/static/images/task_images/rocket-04.jpg"",""time"":2589.6999999997206},{""stimulus"":""run_exp/static/images/task_images/rocket-05.jpg"",""time"":3451.2999999998137},{""stimulus"":""run_exp/static/images/task_images/rocket-06.jpg"",""time"":4316.799999999814},{""stimulus"":""run_exp/static/images/task_images/rocket-07.jpg"",""time"":5176.699999999721},{""stimulus"":""run_exp/static/images/task_images/rocket-08.jpg"",""time"":6037.199999999721},{""stimulus"":""run_exp/static/images/task_images/rocket-09.jpg"",""time"":6901}]",[],10,,,,,,,,,,,,,,
alien_welcome,248,771965,0.0-77.0-1.0,,null,run_exp/static/images/task_images/aliens/old_aliens/planet/alien_planet-39.jpg,null,,,,,,,,,,,,39,"2,34,21,33,55,8,24,60,46,42,39,63,30,78,37,25,5,49,40,70,36,80,26,65,12,1,14,15",,,,,,,,,,
land,249,772470,0.0-77.0-2.0,,null,run_exp/static/images/task_images/land.jpg,null,,,,,,105,,,11,,,,,,,,,,,,,,
dig,250,774483,0.0-77.0-3.0,,,,,,,,,,,"[{""stimulus"":""run_exp/static/images/task_images/dig.jpg"",""time"":0.8000000002793968},{""stimulus"":""run_exp/static/images/task_images/land.jpg"",""time"":671.6000000000931},{""stimulus"":""run_exp/static/images/task_images/dig.jpg"",""time"":1338.8999999999069}]",[],11,,,,,,,,,,,,,,
harvest,251,775491,0.0-77.0-4.0,,null,run_exp/static/images/task_images/gems/105.jpg,null,,,,,,21,,,11,,,,,105,0.197169711,0.2,,,,,,,
decision,252,776181,0.0-77.0-5.0,,685.8,run_exp/static/images/task_images/land.jpg,65,,,,,,21,,,11,,,,,,,,67212,2,0,FALSE,,,
dig,253,778515,0.0-78.0-0.0,,,,,,,,,,,"[{""stimulus"":""run_exp/static/images/task_images/dig.jpg"",""time"":1.7000000001862645},{""stimulus"":""run_exp/static/images/task_images/land.jpg"",""time"":776.1000000000931},{""stimulus"":""run_exp/static/images/task_images/dig.jpg"",""time"":1548.6000000000931}]",[],11,,,,,,,,,,,,,,
harvest,254,779523,0.0-78.0-1.0,,null,run_exp/static/images/task_images/gems/21.jpg,null,,,,,,7,,,11,,,,,21,0.316399133,0.333333333,,,,,,,
decision,255,780221,0.0-78.0-2.0,,694.6,run_exp/static/images/task_images/land.jpg,65,,,,,,7,,,11,,,,,,,,71251,2,1,FALSE,,,
dig,256,782544,0.0-79.0-0.0,,,,,,,,,,,"[{""stimulus"":""run_exp/static/images/task_images/dig.jpg"",""time"":1},{""stimulus"":""run_exp/static/images/task_images/land.jpg"",""time"":771.5},{""stimulus"":""run_exp/static/images/task_images/dig.jpg"",""time"":1540.2999999998137}]",[],11,,,,,,,,,,,,,,
harvest,257,784284,0.0-79.0-1.0,,null,run_exp/static/images/task_images/gems/7.jpg,null,,,,,,2,,,11,,,,,7,0.217846006,0.285714286,,,,,,,
decision,258,785348,0.0-79.0-2.0,,1057.8,run_exp/static/images/task_images/land.jpg,65,,,,,,2,,,11,,,,,,,,76379,2,2,FALSE,,,
dig,259,787311,0.0-80.0-0.0,,,,,,,,,,,"[{""stimulus"":""run_exp/static/images/task_images/dig.jpg"",""time"":0.6999999997206032},{""stimulus"":""run_exp/static/images/task_images/land.jpg"",""time"":652},{""stimulus"":""run_exp/static/images/task_images/dig.jpg"",""time"":1297.1999999997206}]",[],11,,,,,,,,,,,,,,
harvest,260,788321,0.0-80.0-1.0,,null,run_exp/static/images/task_images/gems/2.jpg,null,,,,,,0,,,11,,,,,2,0.148664977,0,,,,,,,
decision,261,789033,0.0-80.0-2.0,,701.9,run_exp/static/images/task_images/land.jpg,76,,,,,,0,,,11,,,,,,,,80064,2,3,TRUE,,,
travel,262,798351,0.0-81.0-0.0,,,,,,,,,,,"[{""stimulus"":""run_exp/static/images/task_images/rocket-01.jpg"",""time"":0.7999999998137355},{""stimulus"":""run_exp/static/images/task_images/rocket-02.jpg"",""time"":1037.5999999996275},{""stimulus"":""run_exp/static/images/task_images/rocket-03.jpg"",""time"":2071.2999999998137},{""stimulus"":""run_exp/static/images/task_images/rocket-04.jpg"",""time"":3103},{""stimulus"":""run_exp/static/images/task_images/rocket-05.jpg"",""time"":4137.5},{""stimulus"":""run_exp/static/images/task_images/rocket-06.jpg"",""time"":5170.399999999907},{""stimulus"":""run_exp/static/images/task_images/rocket-07.jpg"",""time"":6202.0999999996275},{""stimulus"":""run_exp/static/images/task_images/rocket-08.jpg"",""time"":7236.199999999721},{""stimulus"":""run_exp/static/images/task_images/rocket-09.jpg"",""time"":8267.5}]",[],11,,,,,,,,,,,,,,
alien_welcome,263,803359,0.0-81.0-1.0,,null,run_exp/static/images/task_images/aliens/old_aliens/planet/alien_planet-63.jpg,null,,,,,,,,,,,,63,"2,34,21,33,55,8,24,60,46,42,39,63,30,78,37,25,5,49,40,70,36,80,26,65,12,1,14,15",,,,,,,,,,
land,264,803869,0.0-81.0-2.0,,null,run_exp/static/images/task_images/land.jpg,null,,,,,,99,,,12,,,,,,,,,,,,,,
dig,265,805884,0.0-81.0-3.0,,,,,,,,,,,"[{""stimulus"":""run_exp/static/images/task_images/dig.jpg"",""time"":0.7000000001862645},{""stimulus"":""run_exp/static/images/task_images/land.jpg"",""time"":670.9000000003725},{""stimulus"":""run_exp/static/images/task_images/dig.jpg"",""time"":1336.8000000002794}]",[],12,,,,,,,,,,,,,,
harvest,266,807590,0.0-81.0-4.0,,null,run_exp/static/images/task_images/gems/99.jpg,null,,,,,,85,,,12,,,,,99,0.856378267,0.858585859,,,,,,,
decision,267,808537,0.0-81.0-5.0,,940,run_exp/static/images/task_images/land.jpg,65,,,,,,85,,,12,,,,,,,,99568,2,0,FALSE,,,
dig,268,810614,0.0-82.0-0.0,,,,,,,,,,,"[{""stimulus"":""run_exp/static/images/task_images/dig.jpg"",""time"":0.8000000002793968},{""stimulus"":""run_exp/static/images/task_images/land.jpg"",""time"":726.1000000000931},{""stimulus"":""run_exp/static/images/task_images/dig.jpg"",""time"":1377.4000000003725}]",[],12,,,,,,,,,,,,,,
harvest,269,811621,0.0-82.0-1.0,,null,run_exp/static/images/task_images/gems/85.jpg,null,,,,,,69,,,12,,,,,85,0.814055446,0.811764706,,,,,,,
decision,270,813546,0.0-82.0-2.0,,1918.4,run_exp/static/images/task_images/land.jpg,65,,,,,,69,,,12,,,,,,,,104576,2,1,FALSE,,,
dig,271,814645,0.0-83.0-0.0,,,,,,,,,,,"[{""stimulus"":""run_exp/static/images/task_images/dig.jpg"",""time"":0.8000000002793968},{""stimulus"":""run_exp/static/images/task_images/land.jpg"",""time"":364.5},{""stimulus"":""run_exp/static/images/task_images/dig.jpg"",""time"":726.5}]",[],12,,,,,,,,,,,,,,
harvest,272,816354,0.0-83.0-1.0,,null,run_exp/static/images/task_images/gems/69.jpg,null,,,,,,59,,,12,,,,,69,0.861703538,0.855072464,,,,,,,
decision,273,817205,0.0-83.0-2.0,,844.1,run_exp/static/images/task_images/land.jpg,65,,,,,,59,,,12,,,,,,,,108236,2,2,FALSE,,,
dig,274,819379,0.0-84.0-0.0,,,,,,,,,,,"[{""stimulus"":""run_exp/static/images/task_images/dig.jpg"",""time"":0.7999999998137355},{""stimulus"":""run_exp/static/images/task_images/land.jpg"",""time"":721.3999999999069},{""stimulus"":""run_exp/static/images/task_images/dig.jpg"",""time"":1475.7999999998137}]",[],12,,,,,,,,,,,,,,
harvest,275,821058,0.0-84.0-1.0,,null,run_exp/static/images/task_images/gems/59.jpg,null,,,,,,49,,,12,,,,,59,0.834044701,0.830508475,,,,,,,
decision,276,823889,0.0-84.0-2.0,,2824.5,run_exp/static/images/task_images/land.jpg,65,,,,,,49,,,12,,,,,,,,114919,2,3,FALSE,,,
dig,277,824121,0.0-85.0-0.0,,,,,,,,,,,"[{""stimulus"":""run_exp/static/images/task_images/dig.jpg"",""time"":0.8999999999068677},{""stimulus"":""run_exp/static/images/task_images/land.jpg"",""time"":101.1999999997206},{""stimulus"":""run_exp/static/images/task_images/dig.jpg"",""time"":156.60000000009313}]",[],12,,,,,,,,,,,,,,
harvest,278,825126,0.0-85.0-1.0,,null,run_exp/static/images/task_images/gems/49.jpg,null,,,,,,40,,,12,,,,,49,0.807087222,0.816326531,,,,,,,
decision,279,826416,0.0-85.0-2.0,,1284.8,run_exp/static/images/task_images/land.jpg,65,,,,,,40,,,12,,,,,,,,117447,2,4,FALSE,,,
dig,280,828146,0.0-86.0-0.0,,,,,,,,,,,"[{""stimulus"":""run_exp/static/images/task_images/dig.jpg"",""time"":0.8999999999068677},{""stimulus"":""run_exp/static/images/task_images/land.jpg"",""time"":574},{""stimulus"":""run_exp/static/images/task_images/dig.jpg"",""time"":1173.2000000001863}]",[],12,,,,,,,,,,,,,,
harvest,281,829812,0.0-86.0-1.0,,null,run_exp/static/images/task_images/gems/40.jpg,null,,,,,,35,,,12,,,,,40,0.86990127,0.875,,,,,,,
decision,282,831529,0.0-86.0-2.0,,1709.8,run_exp/static/images/task_images/land.jpg,65,,,,,,35,,,12,,,,,,,,122559,2,5,FALSE,,,
dig,283,832838,0.0-87.0-0.0,,,,,,,,,,,"[{""stimulus"":""run_exp/static/images/task_images/dig.jpg"",""time"":0.6999999997206032},{""stimulus"":""run_exp/static/images/task_images/land.jpg"",""time"":436.10000000009313},{""stimulus"":""run_exp/static/images/task_images/dig.jpg"",""time"":863.3999999999069}]",[],12,,,,,,,,,,,,,,
harvest,284,834524,0.0-87.0-1.0,,null,run_exp/static/images/task_images/gems/35.jpg,null,,,,,,28,,,12,,,,,35,0.802424746,0.8,,,,,,,
decision,285,835577,0.0-87.0-2.0,,1043,run_exp/static/images/task_images/land.jpg,65,,,,,,28,,,12,,,,,,,,126607,2,6,FALSE,,,
dig,286,837551,0.0-88.0-0.0,,,,,,,,,,,"[{""stimulus"":""run_exp/static/images/task_images/dig.jpg"",""time"":0.7999999998137355},{""stimulus"":""run_exp/static/images/task_images/land.jpg"",""time"":657.5},{""stimulus"":""run_exp/static/images/task_images/dig.jpg"",""time"":1308}]",[],12,,,,,,,,,,,,,,
harvest,287,838557,0.0-88.0-1.0,,null,run_exp/static/images/task_images/gems/28.jpg,null,,,,,,23,,,12,,,,,28,0.818033466,0.821428571,,,,,,,
decision,288,840184,0.0-88.0-2.0,,1617.2,run_exp/static/images/task_images/land.jpg,65,,,,,,23,,,12,,,,,,,,131214,2,7,FALSE,,,
dig,289,841583,0.0-89.0-0.0,,,,,,,,,,,"[{""stimulus"":""run_exp/static/images/task_images/dig.jpg"",""time"":0.8000000002793968},{""stimulus"":""run_exp/static/images/task_images/land.jpg"",""time"":466},{""stimulus"":""run_exp/static/images/task_images/dig.jpg"",""time"":926.3000000002794}]",[],12,,,,,,,,,,,,,,
harvest,290,843373,0.0-89.0-1.0,,null,run_exp/static/images/task_images/gems/23.jpg,null,,,,,,19,,,12,,,,,23,0.821631007,0.826086957,,,,,,,
decision,291,845445,0.0-89.0-2.0,,2065.4,run_exp/static/images/task_images/land.jpg,65,,,,,,19,,,12,,,,,,,,136476,2,8,FALSE,,,
dig,292,846404,0.0-90.0-0.0,,,,,,,,,,,"[{""stimulus"":""run_exp/static/images/task_images/dig.jpg"",""time"":0.8999999999068677},{""stimulus"":""run_exp/static/images/task_images/land.jpg"",""time"":316.6999999997206},{""stimulus"":""run_exp/static/images/task_images/dig.jpg"",""time"":626.5}]",[],12,,,,,,,,,,,,,,
harvest,293,847413,0.0-90.0-1.0,,null,run_exp/static/images/task_images/gems/19.jpg,null,,,,,,15,,,12,,,,,19,0.812748741,0.789473684,,,,,,,
decision,294,848102,0.0-90.0-2.0,,679.9,run_exp/static/images/task_images/land.jpg,65,,,,,,15,,,12,,,,,,,,139132,2,9,FALSE,,,
dig,295,850443,0.0-91.0-0.0,,,,,,,,,,,"[{""stimulus"":""run_exp/static/images/task_images/dig.jpg"",""time"":0.8999999999068677},{""stimulus"":""run_exp/static/images/task_images/land.jpg"",""time"":780.3999999999069},{""stimulus"":""run_exp/static/images/task_images/dig.jpg"",""time"":1550}]",[],12,,,,,,,,,,,,,,
harvest,296,852167,0.0-91.0-1.0,,null,run_exp/static/images/task_images/gems/15.jpg,null,,,,,,12,,,12,,,,,15,0.792583252,0.8,,,,,,,
decision,297,854403,0.0-91.0-2.0,,2230,run_exp/static/images/task_images/land.jpg,65,,,,,,12,,,12,,,,,,,,145433,2,10,FALSE,,,
dig,298,855189,0.0-92.0-0.0,,,,,,,,,,,"[{""stimulus"":""run_exp/static/images/task_images/dig.jpg"",""time"":0.7999999998137355},{""stimulus"":""run_exp/static/images/task_images/land.jpg"",""time"":261.6999999997206},{""stimulus"":""run_exp/static/images/task_images/dig.jpg"",""time"":515.7999999998137}]",[],12,,,,,,,,,,,,,,
harvest,299,856908,0.0-92.0-1.0,,null,run_exp/static/images/task_images/gems/12.jpg,null,,,,,,9,,,12,,,,,12,0.732986672,0.75,,,,,,,
decision,300,858685,0.0-92.0-2.0,,1768.3,run_exp/static/images/task_images/land.jpg,65,,,,,,9,,,12,,,,,,,,149716,2,11,FALSE,,,
dig,301,859957,0.0-93.0-0.0,,,,,,,,,,,"[{""stimulus"":""run_exp/static/images/task_images/dig.jpg"",""time"":0.7999999998137355},{""stimulus"":""run_exp/static/images/task_images/land.jpg"",""time"":416},{""stimulus"":""run_exp/static/images/task_images/dig.jpg"",""time"":825.3999999999069}]",[],12,,,,,,,,,,,,,,
harvest,302,861621,0.0-93.0-1.0,,null,run_exp/static/images/task_images/gems/9.jpg,null,,,,,,7,,,12,,,,,9,0.755690068,0.777777778,,,,,,,
decision,303,862248,0.0-93.0-2.0,,622,run_exp/static/images/task_images/land.jpg,65,,,,,,7,,,12,,,,,,,,153278,2,12,FALSE,,,
dig,304,864643,0.0-94.0-0.0,,,,,,,,,,,"[{""stimulus"":""run_exp/static/images/task_images/dig.jpg"",""time"":0.8999999999068677},{""stimulus"":""run_exp/static/images/task_images/land.jpg"",""time"":798.8999999999069},{""stimulus"":""run_exp/static/images/task_images/dig.jpg"",""time"":1589}]",[],12,,,,,,,,,,,,,,
harvest,305,865650,0.0-94.0-1.0,,null,run_exp/static/images/task_images/gems/7.jpg,null,,,,,,6,,,12,,,,,7,0.851619732,0.857142857,,,,,,,
decision,306,867304,0.0-94.0-2.0,,1646.8,run_exp/static/images/task_images/land.jpg,65,,,,,,6,,,12,,,,,,,,158335,2,13,FALSE,,,
dig,307,868673,0.0-95.0-0.0,,,,,,,,,,,"[{""stimulus"":""run_exp/static/images/task_images/dig.jpg"",""time"":0.6999999997206032},{""stimulus"":""run_exp/static/images/task_images/land.jpg"",""time"":456.59999999962747},{""stimulus"":""run_exp/static/images/task_images/dig.jpg"",""time"":906.2999999998137}]",[],12,,,,,,,,,,,,,,
harvest,308,869677,0.0-95.0-1.0,,null,run_exp/static/images/task_images/gems/6.jpg,null,,,,,,4,,,12,,,,,6,0.739471597,0.666666667,,,,,,,
decision,309,870386,0.0-95.0-2.0,,701,run_exp/static/images/task_images/land.jpg,65,,,,,,4,,,12,,,,,,,,161417,2,14,FALSE,,,
dig,310,872704,0.0-96.0-0.0,,,,,,,,,,,"[{""stimulus"":""run_exp/static/images/task_images/dig.jpg"",""time"":0.7999999998137355},{""stimulus"":""run_exp/static/images/task_images/land.jpg"",""time"":770.5},{""stimulus"":""run_exp/static/images/task_images/dig.jpg"",""time"":1535.6000000000931}]",[],12,,,,,,,,,,,,,,
harvest,311,873712,0.0-96.0-1.0,,null,run_exp/static/images/task_images/gems/4.jpg,null,,,,,,3,,,12,,,,,4,0.807208044,0.75,,,,,,,
decision,312,874813,0.0-96.0-2.0,,1091,run_exp/static/images/task_images/land.jpg,65,,,,,,3,,,12,,,,,,,,165844,2,15,FALSE,,,
dig,313,876743,0.0-97.0-0.0,,,,,,,,,,,"[{""stimulus"":""run_exp/static/images/task_images/dig.jpg"",""time"":1.1999999997206032},{""stimulus"":""run_exp/static/images/task_images/land.jpg"",""time"":641.8999999999069},{""stimulus"":""run_exp/static/images/task_images/dig.jpg"",""time"":1276.5999999996275}]",[],12,,,,,,,,,,,,,,
harvest,314,877753,0.0-97.0-1.0,,null,run_exp/static/images/task_images/gems/3.jpg,null,,,,,,2,,,12,,,,,3,0.735352985,0.666666667,,,,,,,
decision,315,878416,0.0-97.0-2.0,,653.7,run_exp/static/images/task_images/land.jpg,65,,,,,,2,,,12,,,,,,,,169447,2,16,FALSE,,,
dig,316,880780,0.0-98.0-0.0,,,,,,,,,,,"[{""stimulus"":""run_exp/static/images/task_images/dig.jpg"",""time"":0.7999999998137355},{""stimulus"":""run_exp/static/images/task_images/land.jpg"",""time"":785.3999999999069},{""stimulus"":""run_exp/static/images/task_images/dig.jpg"",""time"":1567.7999999998137}]",[],12,,,,,,,,,,,,,,
harvest,317,881785,0.0-98.0-1.0,,null,run_exp/static/images/task_images/gems/2.jpg,null,,,,,,2,,,12,,,,,2,0.79990428,1,,,,,,,
decision,318,881849,0.0-98.0-2.0,,57.3,run_exp/static/images/task_images/land.jpg,65,,,,,,2,,,12,,,,,,,,172880,2,17,FALSE,,,
dig,319,884805,0.0-99.0-0.0,,,,,,,,,,,"[{""stimulus"":""run_exp/static/images/task_images/dig.jpg"",""time"":0.8000000002793968},{""stimulus"":""run_exp/static/images/task_images/land.jpg"",""time"":984.7000000001863},{""stimulus"":""run_exp/static/images/task_images/dig.jpg"",""time"":1966.2000000001863}]",[],12,,,,,,,,,,,,,,
harvest,320,885813,0.0-99.0-1.0,,null,run_exp/static/images/task_images/gems/2.jpg,null,,,,,,2,,,12,,,,,2,0.824533185,1,,,,,,,
decision,321,888133,0.0-99.0-2.0,,2314.5,run_exp/static/images/task_images/land.jpg,65,,,,,,0,,,12,,,,,,,,179164,2,18,FALSE,,,
dig,322,888868,0.0-100.0-0.0,,,,,,,,,,,"[{""stimulus"":""run_exp/static/images/task_images/dig.jpg"",""time"":0.8999999999068677},{""stimulus"":""run_exp/static/images/task_images/land.jpg"",""time"":233.10000000009313},{""stimulus"":""run_exp/static/images/task_images/dig.jpg"",""time"":476.6999999997206}]",[],12,,,,,,,,,,,,,,
harvest,323,889874,0.0-100.0-1.0,,null,run_exp/static/images/task_images/gems/0.jpg,null,,,,,,0,,,12,,,,,0,0.783199927,NaN,,,,,,,
decision,324,890865,0.0-100.0-2.0,,981.5,run_exp/static/images/task_images/land.jpg,76,,,,,,0,,,12,,,,,,,,181895,2,19,TRUE,,,
travel,325,899906,0.0-101.0-0.0,,,,,,,,,,,"[{""stimulus"":""run_exp/static/images/task_images/rocket-01.jpg"",""time"":1.8000000002793968},{""stimulus"":""run_exp/static/images/task_images/rocket-02.jpg"",""time"":1007.8999999999069},{""stimulus"":""run_exp/static/images/task_images/rocket-03.jpg"",""time"":2022.8999999999069},{""stimulus"":""run_exp/static/images/task_images/rocket-04.jpg"",""time"":3022.100000000093},{""stimulus"":""run_exp/static/images/task_images/rocket-05.jpg"",""time"":4021.399999999907},{""stimulus"":""run_exp/static/images/task_images/rocket-06.jpg"",""time"":5031.700000000186},{""stimulus"":""run_exp/static/images/task_images/rocket-07.jpg"",""time"":6021.100000000093},{""stimulus"":""run_exp/static/images/task_images/rocket-08.jpg"",""time"":7031.899999999907},{""stimulus"":""run_exp/static/images/task_images/rocket-09.jpg"",""time"":8021.5}]",[],12,,,,,,,,,,,,,,
alien_welcome,326,904919,0.0-101.0-1.0,,null,run_exp/static/images/task_images/aliens/old_aliens/planet/alien_planet-30.jpg,null,,,,,,,,,,,,30,"2,34,21,33,55,8,24,60,46,42,39,63,30,78,37,25,5,49,40,70,36,80,26,65,12,1,14,15",,,,,,,,,,
land,327,905436,0.0-101.0-2.0,,null,run_exp/static/images/task_images/land.jpg,null,,,,,,100,,,13,,,,,,,,,,,,,,
dig,328,907452,0.0-101.0-3.0,,,,,,,,,,,"[{""stimulus"":""run_exp/static/images/task_images/dig.jpg"",""time"":0.8000000002793968},{""stimulus"":""run_exp/static/images/task_images/land.jpg"",""time"":670.9000000003725},{""stimulus"":""run_exp/static/images/task_images/dig.jpg"",""time"":1338.1000000000931}]",[],13,,,,,,,,,,,,,,
harvest,329,908461,0.0-101.0-4.0,,null,run_exp/static/images/task_images/gems/100.jpg,null,,,,,,79,,,13,,,,,100,0.789319172,0.79,,,,,,,
decision,330,909437,0.0-101.0-5.0,,968.7,run_exp/static/images/task_images/land.jpg,65,,,,,,79,,,13,,,,,,,,200467,2,0,FALSE,,,
dig,331,911504,0.0-102.0-0.0,,,,,,,,,,,"[{""stimulus"":""run_exp/static/images/task_images/dig.jpg"",""time"":0.900000000372529},{""stimulus"":""run_exp/static/images/task_images/land.jpg"",""time"":681.1000000000931},{""stimulus"":""run_exp/static/images/task_images/dig.jpg"",""time"":1358.6000000000931}]",[],13,,,,,,,,,,,,,,
harvest,332,912512,0.0-102.0-1.0,,null,run_exp/static/images/task_images/gems/79.jpg,null,,,,,,63,,,13,,,,,79,0.802908568,0.797468354,,,,,,,
decision,333,913582,0.0-102.0-2.0,,1064.8,run_exp/static/images/task_images/land.jpg,65,,,,,,63,,,13,,,,,,,,204614,2,1,FALSE,,,
dig,334,915536,0.0-103.0-0.0,,,,,,,,,,,"[{""stimulus"":""run_exp/static/images/task_images/dig.jpg"",""time"":1.3000000002793968},{""stimulus"":""run_exp/static/images/task_images/land.jpg"",""time"":650.3999999999069},{""stimulus"":""run_exp/static/images/task_images/dig.jpg"",""time"":1295.1000000000931}]",[],13,,,,,,,,,,,,,,
harvest,335,917303,0.0-103.0-1.0,,null,run_exp/static/images/task_images/gems/63.jpg,null,,,,,,50,,,13,,,,,63,0.794263128,0.793650794,,,,,,,
decision,336,918170,0.0-103.0-2.0,,861.2,run_exp/static/images/task_images/land.jpg,65,,,,,,50,,,13,,,,,,,,209201,2,2,FALSE,,,
dig,337,920326,0.0-104.0-0.0,,,,,,,,,,,"[{""stimulus"":""run_exp/static/images/task_images/dig.jpg"",""time"":0.7999999998137355},{""stimulus"":""run_exp/static/images/task_images/land.jpg"",""time"":745.7999999998137},{""stimulus"":""run_exp/static/images/task_images/dig.jpg"",""time"":1428.1999999997206}]",[],13,,,,,,,,,,,,,,
harvest,338,921996,0.0-104.0-1.0,,null,run_exp/static/images/task_images/gems/50.jpg,null,,,,,,38,,,13,,,,,50,0.763997314,0.76,,,,,,,
decision,339,925002,0.0-104.0-2.0,,null,run_exp/static/images/task_images/land.jpg,null,,,,,,38,,,13,,,,,,,,216033,2,3,FALSE,,,
time_out,340,927024,0.0-105.0-0.0,,null,run_exp/static/images/task_images/time_out.jpg,null,,,,,,38,,,,,,,,,,,,,,,,,
decision,341,927265,0.0-105.0-1.0,,233.7,run_exp/static/images/task_images/land.jpg,76,,,,,,38,,,13,,,,,,,,218295,2,3,TRUE,,,
travel,342,937048,0.0-106.0-0.0,,,,,,,,,,,"[{""stimulus"":""run_exp/static/images/task_images/rocket-01.jpg"",""time"":0.7000000001862645},{""stimulus"":""run_exp/static/images/task_images/rocket-02.jpg"",""time"":1090.8000000002794},{""stimulus"":""run_exp/static/images/task_images/rocket-03.jpg"",""time"":2175.7000000001863},{""stimulus"":""run_exp/static/images/task_images/rocket-04.jpg"",""time"":3259.9000000003725},{""stimulus"":""run_exp/static/images/task_images/rocket-05.jpg"",""time"":4344.4000000003725},{""stimulus"":""run_exp/static/images/task_images/rocket-06.jpg"",""time"":5431.700000000186},{""stimulus"":""run_exp/static/images/task_images/rocket-07.jpg"",""time"":6515.200000000186},{""stimulus"":""run_exp/static/images/task_images/rocket-08.jpg"",""time"":7599.700000000186},{""stimulus"":""run_exp/static/images/task_images/rocket-09.jpg"",""time"":8685}]",[],13,,,,,,,,,,,,,,
alien_welcome,343,942057,0.0-106.0-1.0,,null,run_exp/static/images/task_images/aliens/old_aliens/planet/alien_planet-78.jpg,null,,,,,,,,,,,,78,"2,34,21,33,55,8,24,60,46,42,39,63,30,78,37,25,5,49,40,70,36,80,26,65,12,1,14,15",,,,,,,,,,
land,344,942565,0.0-106.0-2.0,,null,run_exp/static/images/task_images/land.jpg,null,,,,,,95,,,14,,,,,,,,,,,,,,
dig,345,944580,0.0-106.0-3.0,,,,,,,,,,,"[{""stimulus"":""run_exp/static/images/task_images/dig.jpg"",""time"":0.8000000002793968},{""stimulus"":""run_exp/static/images/task_images/land.jpg"",""time"":672.8999999999069},{""stimulus"":""run_exp/static/images/task_images/dig.jpg"",""time"":1337.6000000000931}]",[],14,,,,,,,,,,,,,,
harvest,346,945591,0.0-106.0-4.0,,null,run_exp/static/images/task_images/gems/95.jpg,null,,,,,,82,,,14,,,,,95,0.8647986,0.863157895,,,,,,,
decision,347,947486,0.0-106.0-5.0,,1882.2,run_exp/static/images/task_images/land.jpg,65,,,,,,82,,,14,,,,,,,,238517,2,0,FALSE,,,
dig,348,948622,0.0-107.0-0.0,,,,,,,,,,,"[{""stimulus"":""run_exp/static/images/task_images/dig.jpg"",""time"":1},{""stimulus"":""run_exp/static/images/task_images/land.jpg"",""time"":377},{""stimulus"":""run_exp/static/images/task_images/dig.jpg"",""time"":749.6000000000931}]",[],14,,,,,,,,,,,,,,
harvest,349,949629,0.0-107.0-1.0,,null,run_exp/static/images/task_images/gems/82.jpg,null,,,,,,68,,,14,,,,,82,0.824601574,0.829268293,,,,,,,
decision,350,951541,0.0-107.0-2.0,,1903.7,run_exp/static/images/task_images/land.jpg,65,,,,,,68,,,14,,,,,,,,242571,2,1,FALSE,,,
dig,351,952655,0.0-108.0-0.0,,,,,,,,,,,"[{""stimulus"":""run_exp/static/images/task_images/dig.jpg"",""time"":0.7999999998137355},{""stimulus"":""run_exp/static/images/task_images/land.jpg"",""time"":369.89999999990687},{""stimulus"":""run_exp/static/images/task_images/dig.jpg"",""time"":735.3999999999069}]",[],14,,,,,,,,,,,,,,
harvest,352,953660,0.0-108.0-1.0,,null,run_exp/static/images/task_images/gems/68.jpg,null,,,,,,47,,,14,,,,,68,0.685804927,0.691176471,,,,,,,
decision,353,955859,0.0-108.0-2.0,,2195.2,run_exp/static/images/task_images/land.jpg,65,,,,,,47,,,14,,,,,,,,246890,2,2,FALSE,,,
dig,354,956686,0.0-109.0-0.0,,,,,,,,,,,"[{""stimulus"":""run_exp/static/images/task_images/dig.jpg"",""time"":1.1000000000931323},{""stimulus"":""run_exp/static/images/task_images/land.jpg"",""time"":273},{""stimulus"":""run_exp/static/images/task_images/dig.jpg"",""time"":540.5}]",[],14,,,,,,,,,,,,,,
harvest,355,957691,0.0-109.0-1.0,,null,run_exp/static/images/task_images/gems/47.jpg,null,,,,,,38,,,14,,,,,47,0.805017583,0.808510638,,,,,,,
decision,356,959022,0.0-109.0-2.0,,1320.3,run_exp/static/images/task_images/land.jpg,65,,,,,,38,,,14,,,,,,,,250053,2,3,FALSE,,,
dig,357,960721,0.0-110.0-0.0,,,,,,,,,,,"[{""stimulus"":""run_exp/static/images/task_images/dig.jpg"",""time"":0.8999999999068677},{""stimulus"":""run_exp/static/images/task_images/land.jpg"",""time"":562},{""stimulus"":""run_exp/static/images/task_images/dig.jpg"",""time"":1122.1999999997206}]",[],14,,,,,,,,,,,,,,
harvest,358,961729,0.0-110.0-1.0,,null,run_exp/static/images/task_images/gems/38.jpg,null,,,,,,32,,,14,,,,,38,0.851830073,0.842105263,,,,,,,
decision,359,964414,0.0-110.0-2.0,,2679.8,run_exp/static/images/task_images/land.jpg,65,,,,,,32,,,14,,,,,,,,255444,2,4,FALSE,,,
dig,360,964750,0.0-111.0-0.0,,,,,,,,,,,"[{""stimulus"":""run_exp/static/images/task_images/dig.jpg"",""time"":0.8000000002793968},{""stimulus"":""run_exp/static/images/task_images/land.jpg"",""time"":118.10000000009313},{""stimulus"":""run_exp/static/images/task_images/dig.jpg"",""time"":215.5}]",[],14,,,,,,,,,,,,,,
harvest,361,966457,0.0-111.0-1.0,,null,run_exp/static/images/task_images/gems/32.jpg,null,,,,,,27,,,14,,,,,32,0.84303427,0.84375,,,,,,,
decision,362,967077,0.0-111.0-2.0,,612.6,run_exp/static/images/task_images/land.jpg,65,,,,,,27,,,14,,,,,,,,258108,2,5,FALSE,,,
dig,363,969485,0.0-112.0-0.0,,,,,,,,,,,"[{""stimulus"":""run_exp/static/images/task_images/dig.jpg"",""time"":0.900000000372529},{""stimulus"":""run_exp/static/images/task_images/land.jpg"",""time"":799.6000000000931},{""stimulus"":""run_exp/static/images/task_images/dig.jpg"",""time"":1595.3000000002794}]",[],14,,,,,,,,,,,,,,
harvest,364,971171,0.0-112.0-1.0,,null,run_exp/static/images/task_images/gems/27.jpg,null,,,,,,22,,,14,,,,,27,0.79935839,0.814814815,,,,,,,
decision,365,972507,0.0-112.0-2.0,,1328.5,run_exp/static/images/task_images/land.jpg,65,,,,,,22,,,14,,,,,,,,263538,2,6,FALSE,,,
dig,366,974198,0.0-113.0-0.0,,,,,,,,,,,"[{""stimulus"":""run_exp/static/images/task_images/dig.jpg"",""time"":0.8000000002793968},{""stimulus"":""run_exp/static/images/task_images/land.jpg"",""time"":569.3999999999069},{""stimulus"":""run_exp/static/images/task_images/dig.jpg"",""time"":1119.3000000002794}]",[],14,,,,,,,,,,,,,,
harvest,367,975211,0.0-113.0-1.0,,null,run_exp/static/images/task_images/gems/22.jpg,null,,,,,,19,,,14,,,,,22,0.850106372,0.863636364,,,,,,,
decision,368,978221,0.0-113.0-2.0,,null,run_exp/static/images/task_images/land.jpg,null,,,,,,19,,,14,,,,,,,,269252,2,7,FALSE,,,
time_out,369,980251,0.0-114.0-0.0,,null,run_exp/static/images/task_images/time_out.jpg,null,,,,,,19,,,,,,,,,,,,,,,,,
decision,370,981481,0.0-114.0-1.0,,1222.1,run_exp/static/images/task_images/land.jpg,76,,,,,,19,,,14,,,,,,,,272512,2,7,TRUE,,,
travel,371,990330,0.0-115.0-0.0,,,,,,,,,,,"[{""stimulus"":""run_exp/static/images/task_images/rocket-01.jpg"",""time"":0.8000000002793968},{""stimulus"":""run_exp/static/images/task_images/rocket-02.jpg"",""time"":980.4000000003725},{""stimulus"":""run_exp/static/images/task_images/rocket-03.jpg"",""time"":1953.6000000000931},{""stimulus"":""run_exp/static/images/task_images/rocket-04.jpg"",""time"":2931},{""stimulus"":""run_exp/static/images/task_images/rocket-05.jpg"",""time"":3906},{""stimulus"":""run_exp/static/images/task_images/rocket-06.jpg"",""time"":4879},{""stimulus"":""run_exp/static/images/task_images/rocket-07.jpg"",""time"":5856.5},{""stimulus"":""run_exp/static/images/task_images/rocket-08.jpg"",""time"":6830.300000000279},{""stimulus"":""run_exp/static/images/task_images/rocket-09.jpg"",""time"":7804.600000000093}]",[],14,,,,,,,,,,,,,,
alien_welcome,372,995336,0.0-115.0-1.0,,null,run_exp/static/images/task_images/aliens/old_aliens/planet/alien_planet-37.jpg,null,,,,,,,,,,,,37,"2,34,21,33,55,8,24,60,46,42,39,63,30,78,37,25,5,49,40,70,36,80,26,65,12,1,14,15",,,,,,,,,,
land,373,995843,0.0-115.0-2.0,,null,run_exp/static/images/task_images/land.jpg,null,,,,,,104,,,15,,,,,,,,,,,,,,
dig,374,997856,0.0-115.0-3.0,,,,,,,,,,,"[{""stimulus"":""run_exp/static/images/task_images/dig.jpg"",""time"":1},{""stimulus"":""run_exp/static/images/task_images/land.jpg"",""time"":673.5},{""stimulus"":""run_exp/static/images/task_images/dig.jpg"",""time"":1337.6000000000931}]",[],15,,,,,,,,,,,,,,
harvest,375,998864,0.0-115.0-4.0,,null,run_exp/static/images/task_images/gems/104.jpg,null,,,,,,90,,,15,,,,,104,0.869377132,0.865384615,,,,,,,
decision,376,999793,0.0-115.0-5.0,,918.8,run_exp/static/images/task_images/land.jpg,65,,,,,,90,,,15,,,,,,,,290823,2,0,FALSE,,,
dig,377,1001894,0.0-116.0-0.0,,,,,,,,,,,"[{""stimulus"":""run_exp/static/images/task_images/dig.jpg"",""time"":0.8999999999068677},{""stimulus"":""run_exp/static/images/task_images/land.jpg"",""time"":699.2000000001863},{""stimulus"":""run_exp/static/images/task_images/dig.jpg"",""time"":1392.2000000001863}]",[],15,,,,,,,,,,,,,,
harvest,378,1002899,0.0-116.0-1.0,,null,run_exp/static/images/task_images/gems/90.jpg,null,,,,,,72,,,15,,,,,90,0.799170513,0.8,,,,,,,
decision,379,1003639,0.0-116.0-2.0,,734.8,run_exp/static/images/task_images/land.jpg,65,,,,,,72,,,15,,,,,,,,294669,2,1,FALSE,,,
dig,380,1005932,0.0-117.0-0.0,,,,,,,,,,,"[{""stimulus"":""run_exp/static/images/task_images/dig.jpg"",""time"":1.1999999997206032},{""stimulus"":""run_exp/static/images/task_images/land.jpg"",""time"":798.2999999998137},{""stimulus"":""run_exp/static/images/task_images/dig.jpg"",""time"":1550.1999999997206}]",[],15,,,,,,,,,,,,,,
harvest,381,1006948,0.0-117.0-1.0,,null,run_exp/static/images/task_images/gems/72.jpg,null,,,,,,60,,,15,,,,,72,0.840174744,0.833333333,,,,,,,
decision,382,1007900,0.0-117.0-2.0,,947.9,run_exp/static/images/task_images/land.jpg,65,,,,,,60,,,15,,,,,,,,298931,2,2,FALSE,,,
dig,383,1009972,0.0-118.0-0.0,,,,,,,,,,,"[{""stimulus"":""run_exp/static/images/task_images/dig.jpg"",""time"":0.7999999998137355},{""stimulus"":""run_exp/static/images/task_images/land.jpg"",""time"":688.6999999997206},{""stimulus"":""run_exp/static/images/task_images/dig.jpg"",""time"":1371.5999999996275}]",[],15,,,,,,,,,,,,,,
harvest,384,1010984,0.0-118.0-1.0,,null,run_exp/static/images/task_images/gems/60.jpg,null,,,,,,44,,,15,,,,,60,0.737897244,0.733333333,,,,,,,
decision,385,1013994,0.0-118.0-2.0,,null,run_exp/static/images/task_images/land.jpg,null,,,,,,44,,,15,,,,,,,,305024,2,3,TRUE,,,
end_of_block_continue,386,1023027,0.0-119.0-0.0,,null,run_exp/static/audio/clip_32_block_end.m4a,,,,,,null,,,,,,,,,,,,,,,,,,
alien_welcome,387,1028044,0.0-120.0-0.0,,null,run_exp/static/images/task_images/aliens/old_aliens/planet/alien_planet-25.jpg,null,,,,,,,,,,,,25,"2,34,21,33,55,8,24,60,46,42,39,63,30,78,37,25,5,49,40,70,36,80,26,65,12,1,14,15",,,,,,,,,,
land,388,1028551,0.0-120.0-1.0,,null,run_exp/static/images/task_images/land.jpg,null,,,,,,106,,,16,,,,,,,,,,,,,,
dig,389,1030566,0.0-120.0-2.0,,,,,,,,,,,"[{""stimulus"":""run_exp/static/images/task_images/dig.jpg"",""time"":0.8000000002793968},{""stimulus"":""run_exp/static/images/task_images/land.jpg"",""time"":671.3000000002794},{""stimulus"":""run_exp/static/images/task_images/dig.jpg"",""time"":1337.5}]",[],16,,,,,,,,,,,,,,
harvest,390,1031572,0.0-120.0-3.0,,null,run_exp/static/images/task_images/gems/106.jpg,null,,,,,,51,,,16,,,,,106,0.47766227,0.481132075,,,,,,,
decision,391,1033991,0.0-120.0-4.0,,2411.3,run_exp/static/images/task_images/land.jpg,65,,,,,,51,,,16,,,,,,,,10953,3,0,FALSE,,,
dig,392,1034599,0.0-121.0-0.0,,,,,,,,,,,"[{""stimulus"":""run_exp/static/images/task_images/dig.jpg"",""time"":0.8000000002793968},{""stimulus"":""run_exp/static/images/task_images/land.jpg"",""time"":198.89999999990687},{""stimulus"":""run_exp/static/images/task_images/dig.jpg"",""time"":395.70000000018626}]",[],16,,,,,,,,,,,,,,
harvest,393,1035606,0.0-121.0-1.0,,null,run_exp/static/images/task_images/gems/51.jpg,null,,,,,,29,,,16,,,,,51,0.56497039,0.568627451,,,,,,,
decision,394,1037020,0.0-121.0-2.0,,1408,run_exp/static/images/task_images/land.jpg,65,,,,,,29,,,16,,,,,,,,13982,3,1,FALSE,,,
dig,395,1038632,0.0-122.0-0.0,,,,,,,,,,,"[{""stimulus"":""run_exp/static/images/task_images/dig.jpg"",""time"":0.8000000002793968},{""stimulus"":""run_exp/static/images/task_images/land.jpg"",""time"":575.3999999999069},{""stimulus"":""run_exp/static/images/task_images/dig.jpg"",""time"":1063.3999999999069}]",[],16,,,,,,,,,,,,,,
harvest,396,1039639,0.0-122.0-1.0,,null,run_exp/static/images/task_images/gems/29.jpg,null,,,,,,13,,,16,,,,,29,0.464289737,0.448275862,,,,,,,
decision,397,1041486,0.0-122.0-2.0,,1842.1,run_exp/static/images/task_images/land.jpg,65,,,,,,13,,,16,,,,,,,,18447,3,2,FALSE,,,
dig,398,1042660,0.0-123.0-0.0,,,,,,,,,,,"[{""stimulus"":""run_exp/static/images/task_images/dig.jpg"",""time"":0.8000000002793968},{""stimulus"":""run_exp/static/images/task_images/land.jpg"",""time"":388.60000000009313},{""stimulus"":""run_exp/static/images/task_images/dig.jpg"",""time"":775.4000000003725}]",[],16,,,,,,,,,,,,,,
harvest,399,1043668,0.0-123.0-1.0,,null,run_exp/static/images/task_images/gems/13.jpg,null,,,,,,8,,,16,,,,,13,0.602054865,0.615384615,,,,,,,
decision,400,1044308,0.0-123.0-2.0,,632.6,run_exp/static/images/task_images/land.jpg,65,,,,,,8,,,16,,,,,,,,21270,3,3,FALSE,,,
dig,401,1046695,0.0-124.0-0.0,,,,,,,,,,,"[{""stimulus"":""run_exp/static/images/task_images/dig.jpg"",""time"":0.8000000002793968},{""stimulus"":""run_exp/static/images/task_images/land.jpg"",""time"":807.8999999999069},{""stimulus"":""run_exp/static/images/task_images/dig.jpg"",""time"":1582.3000000002794}]",[],16,,,,,,,,,,,,,,
harvest,402,1047703,0.0-124.0-1.0,,null,run_exp/static/images/task_images/gems/8.jpg,null,,,,,,5,,,16,,,,,8,0.593298613,0.625,,,,,,,
decision,403,1048493,0.0-124.0-2.0,,779.2,run_exp/static/images/task_images/land.jpg,65,,,,,,5,,,16,,,,,,,,25455,3,4,FALSE,,,
dig,404,1050733,0.0-125.0-0.0,,,,,,,,,,,"[{""stimulus"":""run_exp/static/images/task_images/dig.jpg"",""time"":0.8000000002793968},{""stimulus"":""run_exp/static/images/task_images/land.jpg"",""time"":781.5},{""stimulus"":""run_exp/static/images/task_images/dig.jpg"",""time"":1484}]",[],16,,,,,,,,,,,,,,
harvest,405,1051741,0.0-125.0-1.0,,null,run_exp/static/images/task_images/gems/5.jpg,null,,,,,,2,,,16,,,,,5,0.480157873,0.4,,,,,,,
decision,406,1054287,0.0-125.0-2.0,,2542.9,run_exp/static/images/task_images/land.jpg,65,,,,,,2,,,16,,,,,,,,31248,3,5,FALSE,,,
dig,407,1054764,0.0-126.0-0.0,,,,,,,,,,,"[{""stimulus"":""run_exp/static/images/task_images/dig.jpg"",""time"":1},{""stimulus"":""run_exp/static/images/task_images/land.jpg"",""time"":182.70000000018626},{""stimulus"":""run_exp/static/images/task_images/dig.jpg"",""time"":309.10000000009313}]",[],16,,,,,,,,,,,,,,
harvest,408,1055818,0.0-126.0-1.0,,null,run_exp/static/images/task_images/gems/2.jpg,null,,,,,,1,,,16,,,,,2,0.476668081,0.5,,,,,,,
decision,409,1057159,0.0-126.0-2.0,,1335.2,run_exp/static/images/task_images/land.jpg,76,,,,,,1,,,16,,,,,,,,34121,3,6,TRUE,,,
travel,410,1065835,0.0-127.0-0.0,,,,,,,,,,,"[{""stimulus"":""run_exp/static/images/task_images/rocket-01.jpg"",""time"":0.8000000002793968},{""stimulus"":""run_exp/static/images/task_images/rocket-02.jpg"",""time"":986.8999999999069},{""stimulus"":""run_exp/static/images/task_images/rocket-03.jpg"",""time"":1931.6000000000931},{""stimulus"":""run_exp/static/images/task_images/rocket-04.jpg"",""time"":2891.5},{""stimulus"":""run_exp/static/images/task_images/rocket-05.jpg"",""time"":3852.5},{""stimulus"":""run_exp/static/images/task_images/rocket-06.jpg"",""time"":4816.300000000279},{""stimulus"":""run_exp/static/images/task_images/rocket-07.jpg"",""time"":5777.300000000279},{""stimulus"":""run_exp/static/images/task_images/rocket-08.jpg"",""time"":6739.399999999907},{""stimulus"":""run_exp/static/images/task_images/rocket-09.jpg"",""time"":7702.399999999907}]",[],16,,,,,,,,,,,,,,
alien_welcome,411,1070842,0.0-127.0-1.0,,null,run_exp/static/images/task_images/aliens/old_aliens/planet/alien_planet-5.jpg,null,,,,,,,,,,,,5,"2,34,21,33,55,8,24,60,46,42,39,63,30,78,37,25,5,49,40,70,36,80,26,65,12,1,14,15",,,,,,,,,,
land,412,1071354,0.0-127.0-2.0,,null,run_exp/static/images/task_images/land.jpg,null,,,,,,95,,,17,,,,,,,,,,,,,,
dig,413,1073368,0.0-127.0-3.0,,,,,,,,,,,"[{""stimulus"":""run_exp/static/images/task_images/dig.jpg"",""time"":1},{""stimulus"":""run_exp/static/images/task_images/land.jpg"",""time"":674.3999999999069},{""stimulus"":""run_exp/static/images/task_images/dig.jpg"",""time"":1337.7999999998137}]",[],17,,,,,,,,,,,,,,
harvest,414,1074378,0.0-127.0-4.0,,null,run_exp/static/images/task_images/gems/95.jpg,null,,,,,,77,,,17,,,,,95,0.810153145,0.810526316,,,,,,,
decision,415,1075085,0.0-127.0-5.0,,700.2,run_exp/static/images/task_images/land.jpg,65,,,,,,77,,,17,,,,,,,,52047,3,0,FALSE,,,
dig,416,1077406,0.0-128.0-0.0,,,,,,,,,,,"[{""stimulus"":""run_exp/static/images/task_images/dig.jpg"",""time"":0.6999999997206032},{""stimulus"":""run_exp/static/images/task_images/land.jpg"",""time"":797.7999999998137},{""stimulus"":""run_exp/static/images/task_images/dig.jpg"",""time"":1543.6000000000931}]",[],17,,,,,,,,,,,,,,
harvest,417,1079120,0.0-128.0-1.0,,null,run_exp/static/images/task_images/gems/77.jpg,null,,,,,,62,,,17,,,,,77,0.809489533,0.805194805,,,,,,,
decision,418,1081032,0.0-128.0-2.0,,1905,run_exp/static/images/task_images/land.jpg,65,,,,,,62,,,17,,,,,,,,57993,3,1,FALSE,,,
dig,419,1082152,0.0-129.0-0.0,,,,,,,,,,,"[{""stimulus"":""run_exp/static/images/task_images/dig.jpg"",""time"":0.8000000002793968},{""stimulus"":""run_exp/static/images/task_images/land.jpg"",""time"":368},{""stimulus"":""run_exp/static/images/task_images/dig.jpg"",""time"":734.8000000002794}]",[],17,,,,,,,,,,,,,,
harvest,420,1083911,0.0-129.0-1.0,,null,run_exp/static/images/task_images/gems/62.jpg,null,,,,,,52,,,17,,,,,62,0.832114477,0.838709677,,,,,,,
decision,421,1085139,0.0-129.0-2.0,,1218.4,run_exp/static/images/task_images/land.jpg,65,,,,,,52,,,17,,,,,,,,62100,3,2,FALSE,,,
