trial_type,trial_index,time_elapsed,internal_node_id,interactions,blur_events,focus_events,fullscreenenter_events,fullscreenexit_events,success,rt,stimulus,key_press,prompt,subject_id,participant_id,age,gender,button_pressed,next_reward,animation_sequence,responses,planet,curr_prac_trial,n_prac_rounds,alien,aliens,reward_received,decay_rate_actual,decay_rate_exp,time_in_block,block_num,prt,last_trial_on_planet,button_html,bonus,num_failures
pavlovia,0,5,0.0-0.0,"""event"",""trial"",""time""
""fullscreenenter"",""1"",""2049""
","
","
","""event"",""trial"",""time""
""fullscreenenter"",""1"",""2049""
","
",,,,,,,,,,,,,,,,,,,,,,,,,,,,
fullscreen,1,2995,0.0-1.0,"""event"",""trial"",""time""
""fullscreenenter"",""1"",""2049""
","
","
","""event"",""trial"",""time""
""fullscreenenter"",""1"",""2049""
","
",TRUE,,,,,,,,,,,,,,,,,,,,,,,,,,,
instruc_welcome,2,12732,0.0-2.0,"""event"",""trial"",""time""
""fullscreenenter"",""1"",""2049""
","
","
","""event"",""trial"",""time""
""fullscreenenter"",""1"",""2049""
","
",,null,run_exp/static/audio/clip_1_welcome.m4a,null,"<p>Howdy! In this experiment, you’ll be an explorer traveling through space to collect space treasure.</p><p>Your mission is to collect as much treasure as possible.</p><br><br><p><img src='run_exp/static/images/task_images/opening_img-01.jpg' height='300' width='auto'></p>",8016,3859,14.02,Female,,,,,,,,,,,,,,,,,,,
audio-keyboard-response,3,29313,0.0-3.0,"""event"",""trial"",""time""
""fullscreenenter"",""1"",""2049""
","
","
","""event"",""trial"",""time""
""fullscreenenter"",""1"",""2049""
","
",,null,run_exp/static/audio/clip_2_move.m4a,null,,,,,,,,,,,,,,,,,,,,,,,,
welcome_dec,4,30681,0.0-4.0,"""event"",""trial"",""time""
""fullscreenenter"",""1"",""2049""
","
","
","""event"",""trial"",""time""
""fullscreenenter"",""1"",""2049""
","
",,1365,"<p>Howdy! In this experiment, you’ll be an explorer traveling through space to collect space treasure.</p><p>Your mission is to collect as much treasure as possible.</p><br><br><p><img src='run_exp/static/images/task_images/opening_img-01.jpg' height='300' width='auto'></p>",,,,,,,1,,,,,,,,,,,,,,,,,,
html-keyboard-response,5,33295,0.0-5.0,"""event"",""trial"",""time""
""fullscreenenter"",""1"",""2049""
","
","
","""event"",""trial"",""time""
""fullscreenenter"",""1"",""2049""
","
",,2612.2,"<p>Howdy! In this experiment, you’ll be an explorer traveling through space to collect space treasure.</p><p>Your mission is to collect as much treasure as possible.</p><br><br><p><img src='run_exp/static/images/task_images/opening_img-01.jpg' height='300' width='auto'></p><button class=""jspsych-html-btn-unchosen""><img src=""run_exp/static/images/task_images/planet-01.jpg"" height=""50""></button><button class=""jspsych-html-btn-chosen""><img src=""run_exp/static/images/task_images/planet-02.jpg"" height=""50""></button><p><b>[press the space bar to lock in your answer]<b><br></p>",32,,,,,,,,,,,,,,,,,,,,,,,,
instruc_goal,6,43352,0.0-6.0-0.0,"""event"",""trial"",""time""
""fullscreenenter"",""1"",""2049""
","
","
","""event"",""trial"",""time""
""fullscreenenter"",""1"",""2049""
","
",,null,run_exp/static/audio/clip_3_goal.m4a,null,"<p> As a space explorer, you’ll visit different planets to dig for space treasure, these pink gems.</p> <p> The more treasure you dig up, the more bonus money you’ll win! </p><br><br><p><img src='run_exp/static/images/task_images/pink_gem.jpg' height='300' width='auto'></p>",,,,,,,,,,,,,,,,,,,,,,,
instruc_goal,7,44094,0.0-6.0-1.0,"""event"",""trial"",""time""
""fullscreenenter"",""1"",""2049""
","
","
","""event"",""trial"",""time""
""fullscreenenter"",""1"",""2049""
","
",,740.2,"<p> As a space explorer, you’ll visit different planets to dig for space treasure, these pink gems.</p> <p> The more treasure you dig up, the more bonus money you’ll win! </p><br><br><p><img src='run_exp/static/images/task_images/pink_gem.jpg' height='300' width='auto'></p>",,,,,,,1,,,,,,,,,,,,,,,,,,
html-keyboard-response,8,44823,0.0-6.0-2.0,"""event"",""trial"",""time""
""fullscreenenter"",""1"",""2049""
","
","
","""event"",""trial"",""time""
""fullscreenenter"",""1"",""2049""
","
",,726.7,"<p> As a space explorer, you’ll visit different planets to dig for space treasure, these pink gems.</p> <p> The more treasure you dig up, the more bonus money you’ll win! </p><br><br><p><img src='run_exp/static/images/task_images/pink_gem.jpg' height='300' width='auto'></p><button class=""jspsych-html-btn-unchosen""><img src=""run_exp/static/images/task_images/planet-01.jpg"" height=""50""></button><button class=""jspsych-html-btn-chosen""><img src=""run_exp/static/images/task_images/planet-02.jpg"" height=""50""></button><p><b>[press the space bar to lock in your answer]<b><br></p>",32,,,,,,,,,,,,,,,,,,,,,,,,
instruc_dig,9,60831,0.0-7.0-0.0,"""event"",""trial"",""time""
""fullscreenenter"",""1"",""2049""
","
","
","""event"",""trial"",""time""
""fullscreenenter"",""1"",""2049""
","
",,null,run_exp/static/audio/clip_4_dig.m4a,null,,,,,,,100,,,,,,,,,,,,,,,,,
instruc_dig_try,10,61810,0.0-7.0-1.0,"""event"",""trial"",""time""
""fullscreenenter"",""1"",""2049""
","
","
","""event"",""trial"",""time""
""fullscreenenter"",""1"",""2049""
","
",,976.4000001,"<p> When you’ve arrived at a new planet, you will dig once. </p> <p>Then, you get to decide if you want to stay on the planet and dig again or travel to a new planet and dig there.</p> <p> To stay and dig, press the letter <strong>‘A’</strong> on your keyboard. Try pressing it now! </p><p><img src='run_exp/static/images/task_images/land.jpg'  height='700' width='auto'></p>",65,"<p> When you’ve arrived at a new planet, you will dig once. </p> <p>Then, you get to decide if you want to stay on the planet and dig again or travel to a new planet and dig there.</p> <p> To stay and dig, press the letter <strong>‘A’</strong> on your keyboard. Try pressing it now! </p><p><img src='run_exp/static/images/task_images/land.jpg'  height='700' width='auto'></p>",,,,,,100,,,,,,,,,,,,,,,,,
dig_prac,11,63820,0.0-7.0-2.0,"""event"",""trial"",""time""
""fullscreenenter"",""1"",""2049""
","
","
","""event"",""trial"",""time""
""fullscreenenter"",""1"",""2049""
","
",,,,,,,,,,,,"[{""stimulus"":""run_exp/static/images/task_images/dig.jpg"",""time"":0.20000004768371582},{""stimulus"":""run_exp/static/images/task_images/land.jpg"",""time"":683.7000000476837},{""stimulus"":""run_exp/static/images/task_images/dig.jpg"",""time"":1343.3999999761581}]",[],,,,,,,,,,,,,,,
instruc_travel,12,100071,0.0-7.0-3.0,"""event"",""trial"",""time""
""fullscreenenter"",""1"",""2049""
","
","
","""event"",""trial"",""time""
""fullscreenenter"",""1"",""2049""
","
",,null,run_exp/static/audio/clip_5_travel.m4a,null,"<p>Every time you dig up gems, there are less gems on the planet, so the more you dig on a planet the fewer gems you’ll get with each dig.</p><p>When gems are running low, you may want to travel to a new planet. </p> <p>  Planets are very far apart in this galaxy, so it will take some time to travel between them. </p> <br><p>There are lots and lots of planets for you to visit, so you won’t be able to return to any planets you’ve seen before. </p><br><p>To leave this planet and travel to a new one, press the letter <strong>‘L’</strong> on your keyboard. Try pressing it now! </p><p><img src='run_exp/static/images/task_images/rocket-01.jpg'  height='600' width='auto'></p>",,,,,,,,,,,,,,,,,,,,,,,
instruc_travel_try,13,100130,0.0-7.0-4.0,"""event"",""trial"",""time""
""fullscreenenter"",""1"",""2049""
","
","
","""event"",""trial"",""time""
""fullscreenenter"",""1"",""2049""
","
",,55.9000001,"<p>Every time you dig up gems, there are less gems on the planet, so the more you dig on a planet the fewer gems you’ll get with each dig.</p><p>When gems are running low, you may want to travel to a new planet. </p> <p>  Planets are very far apart in this galaxy, so it will take some time to travel between them. </p> <br><p>There are lots and lots of planets for you to visit, so you won’t be able to return to any planets you’ve seen before. </p><br><p>To leave this planet and travel to a new one, press the letter <strong>‘L’</strong> on your keyboard. Try pressing it now! </p><p><img src='run_exp/static/images/task_images/rocket-01.jpg'  height='600' width='auto'></p>",76,"<p>Every time you dig up gems, there are less gems on the planet, so the more you dig on a planet the fewer gems you’ll get with each dig.</p><p>When gems are running low, you may want to travel to a new planet. </p> <p>  Planets are very far apart in this galaxy, so it will take some time to travel between them. </p> <br><p>There are lots and lots of planets for you to visit, so you won’t be able to return to any planets you’ve seen before. </p><br><p>To leave this planet and travel to a new one, press the letter <strong>‘L’</strong> on your keyboard. Try pressing it now! </p><p><img src='run_exp/static/images/task_images/rocket-01.jpg'  height='600' width='auto'></p>",,,,,,,,,,,,,,,,,,,,,,,
travel_prac,14,110149,0.0-7.0-5.0,"""event"",""trial"",""time""
""fullscreenenter"",""1"",""2049""
","
","
","""event"",""trial"",""time""
""fullscreenenter"",""1"",""2049""
","
",,,,,,,,,,,,"[{""stimulus"":""run_exp/static/images/task_images/rocket-01.jpg"",""time"":0.2999999523162842},{""stimulus"":""run_exp/static/images/task_images/rocket-02.jpg"",""time"":1119.1000000238419},{""stimulus"":""run_exp/static/images/task_images/rocket-03.jpg"",""time"":2239},{""stimulus"":""run_exp/static/images/task_images/rocket-04.jpg"",""time"":3339.399999976158},{""stimulus"":""run_exp/static/images/task_images/rocket-05.jpg"",""time"":4447.5},{""stimulus"":""run_exp/static/images/task_images/rocket-06.jpg"",""time"":5559.399999976158},{""stimulus"":""run_exp/static/images/task_images/rocket-07.jpg"",""time"":6668.899999976158},{""stimulus"":""run_exp/static/images/task_images/rocket-08.jpg"",""time"":7788.899999976158},{""stimulus"":""run_exp/static/images/task_images/rocket-09.jpg"",""time"":8909.100000023842}]",[],0,,,,,,,,,,,,,,
instruc_alien_greet,15,137333,0.0-7.0-6.0,"""event"",""trial"",""time""
""fullscreenenter"",""1"",""2049""
","
","
","""event"",""trial"",""time""
""fullscreenenter"",""1"",""2049""
","
",,null,run_exp/static/audio/clip_6_alien.m4a,null,"<p>When you arrive at a new planet, the alien who owns the treasure mine on that planet will greet you!</p><p>The better an alien takes care of their mine the easier it is to dig for gems. Some aliens take better care of their mine than others. So, you won’t get exactly the same amount of gems on each planet.</p><p>What the alien looks like does not tell you anything about how many gems there are on the planet.</p><br><p><img src=""run_exp/static/images/task_images/aliens/instructions_aliens/planet/alien_planet-1.jpg""  height=""600"" width=""auto""></p>",,,,,,,,,,,,,,,,,,,,,,,
instruc_alien_greet,16,139981,0.0-7.0-7.0,"""event"",""trial"",""time""
""fullscreenenter"",""1"",""2049""
","
","
","""event"",""trial"",""time""
""fullscreenenter"",""1"",""2049""
","
",,2645.1,"<p>When you arrive at a new planet, the alien who owns the treasure mine on that planet will greet you!</p><p>The better an alien takes care of their mine the easier it is to dig for gems. Some aliens take better care of their mine than others. So, you won’t get exactly the same amount of gems on each planet.</p><p>What the alien looks like does not tell you anything about how many gems there are on the planet.</p><br><p><img src=""run_exp/static/images/task_images/aliens/instructions_aliens/planet/alien_planet-1.jpg""  height=""600"" width=""auto""></p>",,,,,,,1,,,,,,,,,,,,,,,,,,
html-keyboard-response,17,142819,0.0-7.0-8.0,"""event"",""trial"",""time""
""fullscreenenter"",""1"",""2049""
","
","
","""event"",""trial"",""time""
""fullscreenenter"",""1"",""2049""
","
",,2837,"<p>When you arrive at a new planet, the alien who owns the treasure mine on that planet will greet you!</p><p>The better an alien takes care of their mine the easier it is to dig for gems. Some aliens take better care of their mine than others. So, you won’t get exactly the same amount of gems on each planet.</p><p>What the alien looks like does not tell you anything about how many gems there are on the planet.</p><br><p><img src=""run_exp/static/images/task_images/aliens/instructions_aliens/planet/alien_planet-1.jpg""  height=""600"" width=""auto""></p><button class=""jspsych-html-btn-unchosen""><img src=""run_exp/static/images/task_images/planet-01.jpg"" height=""50""></button><button class=""jspsych-html-btn-chosen""><img src=""run_exp/static/images/task_images/planet-02.jpg"" height=""50""></button><p><b>[press the space bar to lock in your answer]<b><br></p>",32,,,,,,,,,,,,,,,,,,,,,,,,
time_out,18,153893,0.0-8.0-0.0,"""event"",""trial"",""time""
""fullscreenenter"",""1"",""2049""
","
","
","""event"",""trial"",""time""
""fullscreenenter"",""1"",""2049""
","
",,null,run_exp/static/audio/clip_7_timeout.m4a,null,"<p>If you don't make your choice fast enough, you’ll have to wait a few seconds before you can make another one.</p><p>You can’t dig for more gems or travel to new planets. You just have to sit and wait.</p><br><p><img src='run_exp/static/images/task_images/time_out.jpg'  height='600' width='auto'></p>",,,,,,,,,,,,,,,,,,,,,,,
time_out,19,154946,0.0-8.0-1.0,"""event"",""trial"",""time""
""fullscreenenter"",""1"",""2049""
","
","
","""event"",""trial"",""time""
""fullscreenenter"",""1"",""2049""
","
",,1049.7,"<p>If you don't make your choice fast enough, you’ll have to wait a few seconds before you can make another one.</p><p>You can’t dig for more gems or travel to new planets. You just have to sit and wait.</p><br><p><img src='run_exp/static/images/task_images/time_out.jpg'  height='600' width='auto'></p>",,,,,,,1,,,,,,,,,,,,,,,,,,
html-keyboard-response,20,155423,0.0-8.0-2.0,"""event"",""trial"",""time""
""fullscreenenter"",""1"",""2049""
","
","
","""event"",""trial"",""time""
""fullscreenenter"",""1"",""2049""
","
",,475.6,"<p>If you don't make your choice fast enough, you’ll have to wait a few seconds before you can make another one.</p><p>You can’t dig for more gems or travel to new planets. You just have to sit and wait.</p><br><p><img src='run_exp/static/images/task_images/time_out.jpg'  height='600' width='auto'></p><button class=""jspsych-html-btn-unchosen""><img src=""run_exp/static/images/task_images/planet-01.jpg"" height=""50""></button><button class=""jspsych-html-btn-chosen""><img src=""run_exp/static/images/task_images/planet-02.jpg"" height=""50""></button><p><b>[press the space bar to lock in your answer]<b><br></p>",32,,,,,,,,,,,,,,,,,,,,,,,,
instruc_break,21,171092,0.0-9.0-0.0,"""event"",""trial"",""time""
""fullscreenenter"",""1"",""2049""
","
","
","""event"",""trial"",""time""
""fullscreenenter"",""1"",""2049""
","
",,null,run_exp/static/audio/clip_8_break.m4a,null,"<p> After digging and traveling for a while, you’ll be able to take a break at home base. </p><p>The game will last 20 minutes no matter what.</p><p>You will visit home base every 5 minutes, so, you will visit home base three times during the game.</p><br><p><img src='run_exp/static/images/task_images/home_base.jpg' height='600' width='auto'></p>",,,,,,,,,,,,,,,,,,,,,,,
instruc_break,22,172356,0.0-9.0-1.0,"""event"",""trial"",""time""
""fullscreenenter"",""1"",""2049""
","
","
","""event"",""trial"",""time""
""fullscreenenter"",""1"",""2049""
","
",,1261.7,"<p> After digging and traveling for a while, you’ll be able to take a break at home base. </p><p>The game will last 20 minutes no matter what.</p><p>You will visit home base every 5 minutes, so, you will visit home base three times during the game.</p><br><p><img src='run_exp/static/images/task_images/home_base.jpg' height='600' width='auto'></p>",,,,,,,1,,,,,,,,,,,,,,,,,,
html-keyboard-response,23,172887,0.0-9.0-2.0,"""event"",""trial"",""time""
""fullscreenenter"",""1"",""2049""
","
","
","""event"",""trial"",""time""
""fullscreenenter"",""1"",""2049""
","
",,530.1,"<p> After digging and traveling for a while, you’ll be able to take a break at home base. </p><p>The game will last 20 minutes no matter what.</p><p>You will visit home base every 5 minutes, so, you will visit home base three times during the game.</p><br><p><img src='run_exp/static/images/task_images/home_base.jpg' height='600' width='auto'></p><button class=""jspsych-html-btn-unchosen""><img src=""run_exp/static/images/task_images/planet-01.jpg"" height=""50""></button><button class=""jspsych-html-btn-chosen""><img src=""run_exp/static/images/task_images/planet-02.jpg"" height=""50""></button><p><b>[press the space bar to lock in your answer]<b><br></p>",32,,,,,,,,,,,,,,,,,,,,,,,,
instruc_prac_game,24,183013,0.0-10.0-0.0,"""event"",""trial"",""time""
""fullscreenenter"",""1"",""2049""
","
","
","""event"",""trial"",""time""
""fullscreenenter"",""1"",""2049""
","
",,null,run_exp/static/audio/clip_9_practice.m4a,null,"<p> Are you ready to play a practice game? </p> <p>In this practice game, you'll be digging up barrels of gems. But, in the real game, you'll be digging up the gems themselves. </p>",,,,,,,,,,,,,,,,,,,,,,,
html-button-response,25,184100,0.0-10.0-1.0,"""event"",""trial"",""time""
""fullscreenenter"",""1"",""2049""
","
","
","""event"",""trial"",""time""
""fullscreenenter"",""1"",""2049""
","
",,1085.3,"<p> Are you ready to play a practice game? </p> <p>In this practice game, you'll be digging up barrels of gems. But, in the real game, you'll be digging up the gems themselves. </p>",,,,,,,0,,,,,,,,,,,,,,,,,,
alien_welcome_prac,26,189109,0.0-11.0-0.0,"""event"",""trial"",""time""
""fullscreenenter"",""1"",""2049""
","
","
","""event"",""trial"",""time""
""fullscreenenter"",""1"",""2049""
","
",,null,run_exp/static/images/task_images/aliens/practice_aliens/planet/alien_planet-5.jpg,null,,,,,,,,,,,,,,,,,,,,,,,,
land_prac,27,189611,0.0-11.0-1.0,"""event"",""trial"",""time""
""fullscreenenter"",""1"",""2049""
","
","
","""event"",""trial"",""time""
""fullscreenenter"",""1"",""2049""
","
",,null,run_exp/static/images/task_images/land.jpg,null,,,,,,,103,,,0,,,,,,,,,,,,,,
dig_prac,28,191622,0.0-11.0-2.0,"""event"",""trial"",""time""
""fullscreenenter"",""1"",""2049""
","
","
","""event"",""trial"",""time""
""fullscreenenter"",""1"",""2049""
","
",,,,,,,,,,,,"[{""stimulus"":""run_exp/static/images/task_images/dig.jpg"",""time"":0.2999999523162842},{""stimulus"":""run_exp/static/images/task_images/land.jpg"",""time"":668.8999999761581},{""stimulus"":""run_exp/static/images/task_images/dig.jpg"",""time"":1348.2999999523163}]",[],,,,,,,,,,,,,,,
harvest_prac,29,192632,0.0-11.0-3.0,"""event"",""trial"",""time""
""fullscreenenter"",""1"",""2049""
","
","
","""event"",""trial"",""time""
""fullscreenenter"",""1"",""2049""
","
",,null,run_exp/static/images/task_images/barrel_text.jpg,null,,,,,,,,,,,,,,,,,,,,,,,,
decision_prac,30,193529,0.0-11.0-4.0,"""event"",""trial"",""time""
""fullscreenenter"",""1"",""2049""
","
","
","""event"",""trial"",""time""
""fullscreenenter"",""1"",""2049""
","
",,895.4,run_exp/static/images/task_images/land.jpg,65,,,,,,,,,,,1,,,,,,,,,,,,,
dig_prac,31,195551,0.0-12.0-0.0,"""event"",""trial"",""time""
""fullscreenenter"",""1"",""2049""
","
","
","""event"",""trial"",""time""
""fullscreenenter"",""1"",""2049""
","
",,,,,,,,,,,,"[{""stimulus"":""run_exp/static/images/task_images/dig.jpg"",""time"":0.19999992847442627},{""stimulus"":""run_exp/static/images/task_images/land.jpg"",""time"":669.3999999761581},{""stimulus"":""run_exp/static/images/task_images/dig.jpg"",""time"":1349.2999999523163}]",[],,,,,,,,,,,,,,,
harvest_prac,32,196561,0.0-12.0-1.0,"""event"",""trial"",""time""
""fullscreenenter"",""1"",""2049""
","
","
","""event"",""trial"",""time""
""fullscreenenter"",""1"",""2049""
","
",,null,run_exp/static/images/task_images/barrel_text.jpg,null,,,,,,,,,,,,,,,,,,,,,,,,
decision_prac,33,197279,0.0-12.0-2.0,"""event"",""trial"",""time""
""fullscreenenter"",""1"",""2049""
","
","
","""event"",""trial"",""time""
""fullscreenenter"",""1"",""2049""
","
",,715.9,run_exp/static/images/task_images/land.jpg,65,,,,,,,,,,,2,,,,,,,,,,,,,
dig_prac,34,199291,0.0-13.0-0.0,"""event"",""trial"",""time""
""fullscreenenter"",""1"",""2049""
","
","
","""event"",""trial"",""time""
""fullscreenenter"",""1"",""2049""
","
",,,,,,,,,,,,"[{""stimulus"":""run_exp/static/images/task_images/dig.jpg"",""time"":0.19999992847442627},{""stimulus"":""run_exp/static/images/task_images/land.jpg"",""time"":679.6000000238419},{""stimulus"":""run_exp/static/images/task_images/dig.jpg"",""time"":1335.5}]",[],,,,,,,,,,,,,,,
harvest_prac,35,200301,0.0-13.0-1.0,"""event"",""trial"",""time""
""fullscreenenter"",""1"",""2049""
","
","
","""event"",""trial"",""time""
""fullscreenenter"",""1"",""2049""
","
",,null,run_exp/static/images/task_images/barrel_text.jpg,null,,,,,,,,,,,,,,,,,,,,,,,,
decision_prac,36,200671,0.0-13.0-2.0,"""event"",""trial"",""time""
""fullscreenenter"",""1"",""2049""
","
","
","""event"",""trial"",""time""
""fullscreenenter"",""1"",""2049""
","
",,367.5,run_exp/static/images/task_images/land.jpg,65,,,,,,,,,,,3,,,,,,,,,,,,,
dig_prac,37,202692,0.0-14.0-0.0,"""event"",""trial"",""time""
""fullscreenenter"",""1"",""2049""
","
","
","""event"",""trial"",""time""
""fullscreenenter"",""1"",""2049""
","
",,,,,,,,,,,,"[{""stimulus"":""run_exp/static/images/task_images/dig.jpg"",""time"":0.20000004768371582},{""stimulus"":""run_exp/static/images/task_images/land.jpg"",""time"":688.3000000715256},{""stimulus"":""run_exp/static/images/task_images/dig.jpg"",""time"":1347.6000000238419}]",[],,,,,,,,,,,,,,,
harvest_prac,38,203697,0.0-14.0-1.0,"""event"",""trial"",""time""
""fullscreenenter"",""1"",""2049""
","
","
","""event"",""trial"",""time""
""fullscreenenter"",""1"",""2049""
","
",,null,run_exp/static/images/task_images/barrel_text.jpg,null,,,,,,,,,,,,,,,,,,,,,,,,
decision_prac,39,204231,0.0-14.0-2.0,"""event"",""trial"",""time""
""fullscreenenter"",""1"",""2049""
","
","
","""event"",""trial"",""time""
""fullscreenenter"",""1"",""2049""
","
",,532.1,run_exp/static/images/task_images/land.jpg,65,,,,,,,,,,,4,,,,,,,,,,,,,
dig_prac,40,206241,0.0-15.0-0.0,"""event"",""trial"",""time""
""fullscreenenter"",""1"",""2049""
","
","
","""event"",""trial"",""time""
""fullscreenenter"",""1"",""2049""
","
",,,,,,,,,,,,"[{""stimulus"":""run_exp/static/images/task_images/dig.jpg"",""time"":0.19999992847442627},{""stimulus"":""run_exp/static/images/task_images/land.jpg"",""time"":675.3999999761581},{""stimulus"":""run_exp/static/images/task_images/dig.jpg"",""time"":1342.6999999284744}]",[],,,,,,,,,,,,,,,
harvest_prac,41,207262,0.0-15.0-1.0,"""event"",""trial"",""time""
""fullscreenenter"",""1"",""2049""
","
","
","""event"",""trial"",""time""
""fullscreenenter"",""1"",""2049""
","
",,null,run_exp/static/images/task_images/barrel_text.jpg,null,,,,,,,,,,,,,,,,,,,,,,,,
decision_prac,42,207562,0.0-15.0-2.0,"""event"",""trial"",""time""
""fullscreenenter"",""1"",""2049""
","
","
","""event"",""trial"",""time""
""fullscreenenter"",""1"",""2049""
","
",,299,run_exp/static/images/task_images/land.jpg,65,,,,,,,,,,,,1,,,,,,,,,,,,
quiz_instruc,43,218978,0.0-16.0-0.0,"""event"",""trial"",""time""
""fullscreenenter"",""1"",""2049""
","
","
","""event"",""trial"",""time""
""fullscreenenter"",""1"",""2049""
","
",,11411.7,run_exp/static/audio/clip_10_quiz.m4a,,,,,,,0,,,,,,,,,,,,,,,,,,
instruc_repeat,44,261742,0.0-16.0-1.0,"""event"",""trial"",""time""
""fullscreenenter"",""1"",""2049""
","
","
","""event"",""trial"",""time""
""fullscreenenter"",""1"",""2049""
","
",,null,"<p> Are you ready to play a practice game? </p> <p>In this practice game, you'll be digging up barrels of gems. But, in the real game, you'll be digging up the gems themselves. </p>",null,"<p>In this game, your goal is to collect as many gems as you can. That’s how you will win bonus money. </p> <p>The entire game will last 20 minutes no matter how many gems you collect or how many planets you visit. </p><p>To stay on a planet and dig again, press the letter A on your keyboard. To leave for a new planet, press the letter L.</p><p>The more you dig on a planet, the fewer gems you’ll get with each dig which is why you might consider leaving for a new planet. </p><p>When you arrive at a new planet, you’ll be greeted by an alien. What the alien looks like does not tell you anything about how much treasure is on the planet. </p>",,,,,,,,,,,,,,,,,,,,,,,
instruc_repeat_continue,45,267781,0.0-16.0-2.0,"""event"",""trial"",""time""
""fullscreenenter"",""1"",""2049""
","
","
","""event"",""trial"",""time""
""fullscreenenter"",""1"",""2049""
","
",,6037.2,"<p> Are you ready to play a practice game? </p> <p>In this practice game, you'll be digging up barrels of gems. But, in the real game, you'll be digging up the gems themselves. </p>",,,,,,,0,,,,,,,,,,,,,,,,,,
quiz_q_1_ask,46,271651,0.0-16.0-3.0,"""event"",""trial"",""time""
""fullscreenenter"",""1"",""2049""
","
","
","""event"",""trial"",""time""
""fullscreenenter"",""1"",""2049""
","
",,3868.2,run_exp/static/audio/clip_11_q1_ask.m4a,,,,,,,2,,,,,,,,,,,,,,,,,,
quiz_q_1_fb_correct,47,275502,0.0-17.0-0.0,"""event"",""trial"",""time""
""fullscreenenter"",""1"",""2049""
","
","
","""event"",""trial"",""time""
""fullscreenenter"",""1"",""2049""
","
",,null,run_exp/static/audio/clip_12_q1_correct.m4a,null,<p>That’s correct. You win extra money by collecting more gems.</p>,,,,,,,,,,,,,,,,,,,,,,,
quiz_q_2_ask,48,283089,0.0-17.0-1.0,"""event"",""trial"",""time""
""fullscreenenter"",""1"",""2049""
","
","
","""event"",""trial"",""time""
""fullscreenenter"",""1"",""2049""
","
",,7584.5,run_exp/static/audio/clip_14_q2_ask.m4a,,,,,,,1,,,,,,,,,,,,,,,,,,
quiz_q_2_fb_correct,49,287102,0.0-18.0-0.0,"""event"",""trial"",""time""
""fullscreenenter"",""1"",""2049""
","
","
","""event"",""trial"",""time""
""fullscreenenter"",""1"",""2049""
","
",,null,run_exp/static/audio/clip_15_q2_correct.m4a,null,<p>That’s correct. The experiment is 20 minutes no matter what.</p>,,,,,,,,,,,,,,,,,,,,,,,
quiz_q_3_ask,50,289355,0.0-18.0-1.0,"""event"",""trial"",""time""
""fullscreenenter"",""1"",""2049""
","
","
","""event"",""trial"",""time""
""fullscreenenter"",""1"",""2049""
","
",,2250.9,run_exp/static/audio/clip_17_q3_ask.m4a,,,,,,,1,,,,,,,,,,,,,,,,,,
quiz_q_3_fb_correct,51,293342,0.0-19.0-0.0,"""event"",""trial"",""time""
""fullscreenenter"",""1"",""2049""
","
","
","""event"",""trial"",""time""
""fullscreenenter"",""1"",""2049""
","
",,null,run_exp/static/audio/clip_18_q3_correct.m4a,null,<p> That’s correct. You press the letter L to travel to a new planet.</p>,,,,,,,,,,,,,,,,,,,,,,,
quiz_q_4_ask,52,296400,0.0-19.0-1.0,"""event"",""trial"",""time""
""fullscreenenter"",""1"",""2049""
","
","
","""event"",""trial"",""time""
""fullscreenenter"",""1"",""2049""
","
",,3056.3,run_exp/static/audio/clip_20_q4_ask.m4a,,,,,,,0,,,,,,,,,,,,,,,,,,
quiz_q_4_fb_correct,53,301722,0.0-20.0-0.0,"""event"",""trial"",""time""
""fullscreenenter"",""1"",""2049""
","
","
","""event"",""trial"",""time""
""fullscreenenter"",""1"",""2049""
","
",,null,run_exp/static/audio/clip_21_q4_correct.m4a,null,<p> That’s correct. The more you dig on a planet the fewer gems you’ll get with each dig. </p>,,,,,,,,,,,,,,,,,,,,,,,
quiz_q_5_ask,54,303499,0.0-20.0-1.0,"""event"",""trial"",""time""
""fullscreenenter"",""1"",""2049""
","
","
","""event"",""trial"",""time""
""fullscreenenter"",""1"",""2049""
","
",,1774.7,run_exp/static/audio/clip_23_q5_ask.m4a,,,,,,,1,,,,,,,,,,,,,,,,,,
quiz_q_5_fb_correct,55,308503,0.0-21.0-0.0,"""event"",""trial"",""time""
""fullscreenenter"",""1"",""2049""
","
","
","""event"",""trial"",""time""
""fullscreenenter"",""1"",""2049""
","
",,null,run_exp/static/audio/clip_24_q5_correct.m4a,null,<p> That’s correct. The alien tells you nothing about how much treasure is on the planet.</p>,,,,,,,,,,,,,,,,,,,,,,,
quiz_correct,56,311962,0.0-22.0-0.0,"""event"",""trial"",""time""
""fullscreenenter"",""1"",""2049""
","
","
","""event"",""trial"",""time""
""fullscreenenter"",""1"",""2049""
","
",,null,run_exp/static/audio/clip_26_correct_quiz.m4a,null,,,,,,,,,,,,,,,,,,,,,,,,
quiz_correct_continue,57,313159,0.0-22.0-1.0,"""event"",""trial"",""time""
""fullscreenenter"",""1"",""2049""
","
","
","""event"",""trial"",""time""
""fullscreenenter"",""1"",""2049""
","
",,1195.6,<p>Good job! You're now ready to move on to the real game!</p>,,,,,,,0,,,,,,,,,,,,,,,,,,
audio-keyboard-response,58,323282,0.0-22.0-2.0,"""event"",""trial"",""time""
""fullscreenenter"",""1"",""2049""
","
","
","""event"",""trial"",""time""
""fullscreenenter"",""1"",""2049""
","
",,null,run_exp/static/audio/clip_28_real_game.m4a,null,,,,,,,,,,,,,,,,,,,,,,,,
instruc_begin_exp_contine,59,324439,0.0-22.0-3.0,"""event"",""trial"",""time""
""fullscreenenter"",""1"",""2049""
","
","
","""event"",""trial"",""time""
""fullscreenenter"",""1"",""2049""
","
",,1155,"<p>Now that you know how  to dig for space treasure and travel to new planets,you can start exploring! </p><p>Do you want to go over the instructions again or get started with the real game?</p>",,,,,,,1,,,,,,1,,,,,,,,,,,,
alien_welcome,60,329461,0.0-23.0-0.0,"""event"",""trial"",""time""
""fullscreenenter"",""1"",""2049""
","
","
","""event"",""trial"",""time""
""fullscreenenter"",""1"",""2049""
","
",,null,run_exp/static/images/task_images/aliens/old_aliens/planet/alien_planet-28.jpg,null,,,,,,,,,,,,,28,"28,48,59,5,17,66,4,70,1,6,31,23,77,27,12,62,67,73,37,41,65,80,42,74,18,15,75,21,40,54,50,51,36,52,46,55,64,69,14,49,11,33,39,61,68,2,76,8,72",,,,,,,,,,
land,61,329971,0.0-23.0-1.0,"""event"",""trial"",""time""
""fullscreenenter"",""1"",""2049""
","
","
","""event"",""trial"",""time""
""fullscreenenter"",""1"",""2049""
","
",,null,run_exp/static/images/task_images/land.jpg,null,,,,,,,95,,,1,,,,,,,,,,,,,,
dig,62,331991,0.0-23.0-2.0,"""event"",""trial"",""time""
""fullscreenenter"",""1"",""2049""
","
","
","""event"",""trial"",""time""
""fullscreenenter"",""1"",""2049""
","
",,,,,,,,,,,,"[{""stimulus"":""run_exp/static/images/task_images/dig.jpg"",""time"":0.40000009536743164},{""stimulus"":""run_exp/static/images/task_images/land.jpg"",""time"":668.8000000715256},{""stimulus"":""run_exp/static/images/task_images/dig.jpg"",""time"":1338.6000000238419}]",[],1,,,,,,,,,,,,,,
harvest,63,333001,0.0-23.0-3.0,"""event"",""trial"",""time""
""fullscreenenter"",""1"",""2049""
","
","
","""event"",""trial"",""time""
""fullscreenenter"",""1"",""2049""
","
",,null,run_exp/static/images/task_images/gems/95.jpg,null,,,,,,,18,,,1,,,,,95,0.193586882,0.189473684,,,,,,,
decision,64,334562,0.0-23.0-4.0,"""event"",""trial"",""time""
""fullscreenenter"",""1"",""2049""
","
","
","""event"",""trial"",""time""
""fullscreenenter"",""1"",""2049""
","
",,1557.9,run_exp/static/images/task_images/land.jpg,65,,,,,,,18,,,1,,,,,,,,10121,1,0,FALSE,,,
dig,65,336011,0.0-24.0-0.0,"""event"",""trial"",""time""
""fullscreenenter"",""1"",""2049""
","
","
","""event"",""trial"",""time""
""fullscreenenter"",""1"",""2049""
","
",,,,,,,,,,,,"[{""stimulus"":""run_exp/static/images/task_images/dig.jpg"",""time"":0.19999992847442627},{""stimulus"":""run_exp/static/images/task_images/land.jpg"",""time"":487.09999990463257},{""stimulus"":""run_exp/static/images/task_images/dig.jpg"",""time"":972.2999999523163}]",[],1,,,,,,,,,,,,,,
harvest,66,337021,0.0-24.0-1.0,"""event"",""trial"",""time""
""fullscreenenter"",""1"",""2049""
","
","
","""event"",""trial"",""time""
""fullscreenenter"",""1"",""2049""
","
",,null,run_exp/static/images/task_images/gems/18.jpg,null,,,,,,,3,,,1,,,,,18,0.181417682,0.166666667,,,,,,,
decision,67,338481,0.0-24.0-2.0,"""event"",""trial"",""time""
""fullscreenenter"",""1"",""2049""
","
","
","""event"",""trial"",""time""
""fullscreenenter"",""1"",""2049""
","
",,1458.2,run_exp/static/images/task_images/land.jpg,65,,,,,,,3,,,1,,,,,,,,14040,1,1,FALSE,,,
dig,68,340041,0.0-25.0-0.0,"""event"",""trial"",""time""
""fullscreenenter"",""1"",""2049""
","
","
","""event"",""trial"",""time""
""fullscreenenter"",""1"",""2049""
","
",,,,,,,,,,,,"[{""stimulus"":""run_exp/static/images/task_images/dig.jpg"",""time"":0.2999999523162842},{""stimulus"":""run_exp/static/images/task_images/land.jpg"",""time"":526.1000000238419},{""stimulus"":""run_exp/static/images/task_images/dig.jpg"",""time"":1044.5}]",[],1,,,,,,,,,,,,,,
harvest,69,341051,0.0-25.0-1.0,"""event"",""trial"",""time""
""fullscreenenter"",""1"",""2049""
","
","
","""event"",""trial"",""time""
""fullscreenenter"",""1"",""2049""
","
",,null,run_exp/static/images/task_images/gems/3.jpg,null,,,,,,,1,,,1,,,,,3,0.219938335,0.333333333,,,,,,,
decision,70,341783,0.0-25.0-2.0,"""event"",""trial"",""time""
""fullscreenenter"",""1"",""2049""
","
","
","""event"",""trial"",""time""
""fullscreenenter"",""1"",""2049""
","
",,729.3,run_exp/static/images/task_images/land.jpg,65,,,,,,,1,,,1,,,,,,,,17342,1,2,FALSE,,,
dig,71,344071,0.0-26.0-0.0,"""event"",""trial"",""time""
""fullscreenenter"",""1"",""2049""
","
","
","""event"",""trial"",""time""
""fullscreenenter"",""1"",""2049""
","
",,,,,,,,,,,,"[{""stimulus"":""run_exp/static/images/task_images/dig.jpg"",""time"":0.20000004768371582},{""stimulus"":""run_exp/static/images/task_images/land.jpg"",""time"":765.2000000476837},{""stimulus"":""run_exp/static/images/task_images/dig.jpg"",""time"":1515.7000000476837}]",[],1,,,,,,,,,,,,,,
harvest,72,345073,0.0-26.0-1.0,"""event"",""trial"",""time""
""fullscreenenter"",""1"",""2049""
","
","
","""event"",""trial"",""time""
""fullscreenenter"",""1"",""2049""
","
",,null,run_exp/static/images/task_images/gems/1.jpg,null,,,,,,,0,,,1,,,,,1,0.1974278,0,,,,,,,
decision,73,347593,0.0-26.0-2.0,"""event"",""trial"",""time""
""fullscreenenter"",""1"",""2049""
","
","
","""event"",""trial"",""time""
""fullscreenenter"",""1"",""2049""
","
",,2518.7,run_exp/static/images/task_images/land.jpg,76,,,,,,,0,,,1,,,,,,,,23152,1,3,TRUE,,,
travel,74,355091,0.0-27.0-0.0,"""event"",""trial"",""time""
""fullscreenenter"",""1"",""2049""
","
","
","""event"",""trial"",""time""
""fullscreenenter"",""1"",""2049""
","
",,,,,,,,,,,,"[{""stimulus"":""run_exp/static/images/task_images/rocket-01.jpg"",""time"":0.10000002384185791},{""stimulus"":""run_exp/static/images/task_images/rocket-02.jpg"",""time"":835.3000000715256},{""stimulus"":""run_exp/static/images/task_images/rocket-03.jpg"",""time"":1664.8999999761581},{""stimulus"":""run_exp/static/images/task_images/rocket-04.jpg"",""time"":2505.399999976158},{""stimulus"":""run_exp/static/images/task_images/rocket-05.jpg"",""time"":3344.600000023842},{""stimulus"":""run_exp/static/images/task_images/rocket-06.jpg"",""time"":4174.5},{""stimulus"":""run_exp/static/images/task_images/rocket-07.jpg"",""time"":4994.800000071526},{""stimulus"":""run_exp/static/images/task_images/rocket-08.jpg"",""time"":5834.800000071526},{""stimulus"":""run_exp/static/images/task_images/rocket-09.jpg"",""time"":6664.600000023842}]",[],1,,,,,,,,,,,,,,
alien_welcome,75,360111,0.0-27.0-1.0,"""event"",""trial"",""time""
""fullscreenenter"",""1"",""2049""
","
","
","""event"",""trial"",""time""
""fullscreenenter"",""1"",""2049""
","
",,null,run_exp/static/images/task_images/aliens/old_aliens/planet/alien_planet-48.jpg,null,,,,,,,,,,,,,48,"28,48,59,5,17,66,4,70,1,6,31,23,77,27,12,62,67,73,37,41,65,80,42,74,18,15,75,21,40,54,50,51,36,52,46,55,64,69,14,49,11,33,39,61,68,2,76,8,72",,,,,,,,,,
land,76,360629,0.0-27.0-2.0,"""event"",""trial"",""time""
""fullscreenenter"",""1"",""2049""
","
","
","""event"",""trial"",""time""
""fullscreenenter"",""1"",""2049""
","
",,null,run_exp/static/images/task_images/land.jpg,null,,,,,,,96,,,2,,,,,,,,,,,,,,
dig,77,362651,0.0-27.0-3.0,"""event"",""trial"",""time""
""fullscreenenter"",""1"",""2049""
","
","
","""event"",""trial"",""time""
""fullscreenenter"",""1"",""2049""
","
",,,,,,,,,,,,"[{""stimulus"":""run_exp/static/images/task_images/dig.jpg"",""time"":0.40000009536743164},{""stimulus"":""run_exp/static/images/task_images/land.jpg"",""time"":680.6000000238419},{""stimulus"":""run_exp/static/images/task_images/dig.jpg"",""time"":1346.6000000238419}]",[],2,,,,,,,,,,,,,,
harvest,78,363671,0.0-27.0-4.0,"""event"",""trial"",""time""
""fullscreenenter"",""1"",""2049""
","
","
","""event"",""trial"",""time""
""fullscreenenter"",""1"",""2049""
","
",,null,run_exp/static/images/task_images/gems/96.jpg,null,,,,,,,18,,,2,,,,,96,0.188683649,0.1875,,,,,,,
decision,79,364199,0.0-27.0-5.0,"""event"",""trial"",""time""
""fullscreenenter"",""1"",""2049""
","
","
","""event"",""trial"",""time""
""fullscreenenter"",""1"",""2049""
","
",,526.3000001,run_exp/static/images/task_images/land.jpg,65,,,,,,,18,,,2,,,,,,,,39758,1,0,FALSE,,,
dig,80,366681,0.0-28.0-0.0,"""event"",""trial"",""time""
""fullscreenenter"",""1"",""2049""
","
","
","""event"",""trial"",""time""
""fullscreenenter"",""1"",""2049""
","
",,,,,,,,,,,,"[{""stimulus"":""run_exp/static/images/task_images/dig.jpg"",""time"":0.19999992847442627},{""stimulus"":""run_exp/static/images/task_images/land.jpg"",""time"":828.8999999761581},{""stimulus"":""run_exp/static/images/task_images/dig.jpg"",""time"":1668.6999999284744}]",[],2,,,,,,,,,,,,,,
harvest,81,367701,0.0-28.0-1.0,"""event"",""trial"",""time""
""fullscreenenter"",""1"",""2049""
","
","
","""event"",""trial"",""time""
""fullscreenenter"",""1"",""2049""
","
",,null,run_exp/static/images/task_images/gems/18.jpg,null,,,,,,,3,,,2,,,,,18,0.192626439,0.166666667,,,,,,,
decision,82,368207,0.0-28.0-2.0,"""event"",""trial"",""time""
""fullscreenenter"",""1"",""2049""
","
","
","""event"",""trial"",""time""
""fullscreenenter"",""1"",""2049""
","
",,504.2,run_exp/static/images/task_images/land.jpg,65,,,,,,,3,,,2,,,,,,,,43766,1,1,FALSE,,,
dig,83,370711,0.0-29.0-0.0,"""event"",""trial"",""time""
""fullscreenenter"",""1"",""2049""
","
","
","""event"",""trial"",""time""
""fullscreenenter"",""1"",""2049""
","
",,,,,,,,,,,,"[{""stimulus"":""run_exp/static/images/task_images/dig.jpg"",""time"":0.20000004768371582},{""stimulus"":""run_exp/static/images/task_images/land.jpg"",""time"":850.6000000238419},{""stimulus"":""run_exp/static/images/task_images/dig.jpg"",""time"":1670.7000000476837}]",[],2,,,,,,,,,,,,,,
harvest,84,371731,0.0-29.0-1.0,"""event"",""trial"",""time""
""fullscreenenter"",""1"",""2049""
","
","
","""event"",""trial"",""time""
""fullscreenenter"",""1"",""2049""
","
",,null,run_exp/static/images/task_images/gems/3.jpg,null,,,,,,,1,,,2,,,,,3,0.191281353,0.333333333,,,,,,,
decision,85,372471,0.0-29.0-2.0,"""event"",""trial"",""time""
""fullscreenenter"",""1"",""2049""
","
","
","""event"",""trial"",""time""
""fullscreenenter"",""1"",""2049""
","
",,739,run_exp/static/images/task_images/land.jpg,76,,,,,,,1,,,2,,,,,,,,48030,1,2,TRUE,,,
travel,86,381751,0.0-30.0-0.0,"""event"",""trial"",""time""
""fullscreenenter"",""1"",""2049""
","
","
","""event"",""trial"",""time""
""fullscreenenter"",""1"",""2049""
","
",,,,,,,,,,,,"[{""stimulus"":""run_exp/static/images/task_images/rocket-01.jpg"",""time"":0.20000004768371582},{""stimulus"":""run_exp/static/images/task_images/rocket-02.jpg"",""time"":1036.8999999761581},{""stimulus"":""run_exp/static/images/task_images/rocket-03.jpg"",""time"":2076.7999999523163},{""stimulus"":""run_exp/static/images/task_images/rocket-04.jpg"",""time"":3106.7000000476837},{""stimulus"":""run_exp/static/images/task_images/rocket-05.jpg"",""time"":4136.600000023842},{""stimulus"":""run_exp/static/images/task_images/rocket-06.jpg"",""time"":5148},{""stimulus"":""run_exp/static/images/task_images/rocket-07.jpg"",""time"":6176.5},{""stimulus"":""run_exp/static/images/task_images/rocket-08.jpg"",""time"":7206.899999976158},{""stimulus"":""run_exp/static/images/task_images/rocket-09.jpg"",""time"":8236.5}]",[],2,,,,,,,,,,,,,,
alien_welcome,87,386761,0.0-30.0-1.0,"""event"",""trial"",""time""
""fullscreenenter"",""1"",""2049""
","
","
","""event"",""trial"",""time""
""fullscreenenter"",""1"",""2049""
","
",,null,run_exp/static/images/task_images/aliens/old_aliens/planet/alien_planet-59.jpg,null,,,,,,,,,,,,,59,"28,48,59,5,17,66,4,70,1,6,31,23,77,27,12,62,67,73,37,41,65,80,42,74,18,15,75,21,40,54,50,51,36,52,46,55,64,69,14,49,11,33,39,61,68,2,76,8,72",,,,,,,,,,
land,88,387271,0.0-30.0-2.0,"""event"",""trial"",""time""
""fullscreenenter"",""1"",""2049""
","
","
","""event"",""trial"",""time""
""fullscreenenter"",""1"",""2049""
","
",,null,run_exp/static/images/task_images/land.jpg,null,,,,,,,98,,,3,,,,,,,,,,,,,,
dig,89,389291,0.0-30.0-3.0,"""event"",""trial"",""time""
""fullscreenenter"",""1"",""2049""
","
","
","""event"",""trial"",""time""
""fullscreenenter"",""1"",""2049""
","
",,,,,,,,,,,,"[{""stimulus"":""run_exp/static/images/task_images/dig.jpg"",""time"":0.20000004768371582},{""stimulus"":""run_exp/static/images/task_images/land.jpg"",""time"":678.3000000715256},{""stimulus"":""run_exp/static/images/task_images/dig.jpg"",""time"":1342.2000000476837}]",[],3,,,,,,,,,,,,,,
harvest,90,390296,0.0-30.0-4.0,"""event"",""trial"",""time""
""fullscreenenter"",""1"",""2049""
","
","
","""event"",""trial"",""time""
""fullscreenenter"",""1"",""2049""
","
",,null,run_exp/static/images/task_images/gems/98.jpg,null,,,,,,,55,,,3,,,,,98,0.556441649,0.56122449,,,,,,,
decision,91,390855,0.0-30.0-5.0,"""event"",""trial"",""time""
""fullscreenenter"",""1"",""2049""
","
","
","""event"",""trial"",""time""
""fullscreenenter"",""1"",""2049""
","
",,557.3000001,run_exp/static/images/task_images/land.jpg,65,,,,,,,55,,,3,,,,,,,,66414,1,0,FALSE,,,
dig,92,393311,0.0-31.0-0.0,"""event"",""trial"",""time""
""fullscreenenter"",""1"",""2049""
","
","
","""event"",""trial"",""time""
""fullscreenenter"",""1"",""2049""
","
",,,,,,,,,,,,"[{""stimulus"":""run_exp/static/images/task_images/dig.jpg"",""time"":0.30000007152557373},{""stimulus"":""run_exp/static/images/task_images/land.jpg"",""time"":823.4000000953674},{""stimulus"":""run_exp/static/images/task_images/dig.jpg"",""time"":1633.1000000238419}]",[],3,,,,,,,,,,,,,,
harvest,93,394331,0.0-31.0-1.0,"""event"",""trial"",""time""
""fullscreenenter"",""1"",""2049""
","
","
","""event"",""trial"",""time""
""fullscreenenter"",""1"",""2049""
","
",,null,run_exp/static/images/task_images/gems/55.jpg,null,,,,,,,21,,,3,,,,,55,0.386253256,0.381818182,,,,,,,
decision,94,394655,0.0-31.0-2.0,"""event"",""trial"",""time""
""fullscreenenter"",""1"",""2049""
","
","
","""event"",""trial"",""time""
""fullscreenenter"",""1"",""2049""
","
",,321.5,run_exp/static/images/task_images/land.jpg,65,,,,,,,21,,,3,,,,,,,,70214,1,1,FALSE,,,
dig,95,397351,0.0-32.0-0.0,"""event"",""trial"",""time""
""fullscreenenter"",""1"",""2049""
","
","
","""event"",""trial"",""time""
""fullscreenenter"",""1"",""2049""
","
",,,,,,,,,,,,"[{""stimulus"":""run_exp/static/images/task_images/dig.jpg"",""time"":0.20000004768371582},{""stimulus"":""run_exp/static/images/task_images/land.jpg"",""time"":899},{""stimulus"":""run_exp/static/images/task_images/dig.jpg"",""time"":1800.8000000715256}]",[],3,,,,,,,,,,,,,,
harvest,96,398371,0.0-32.0-1.0,"""event"",""trial"",""time""
""fullscreenenter"",""1"",""2049""
","
","
","""event"",""trial"",""time""
""fullscreenenter"",""1"",""2049""
","
",,null,run_exp/static/images/task_images/gems/21.jpg,null,,,,,,,11,,,3,,,,,21,0.501687204,0.523809524,,,,,,,
decision,97,398967,0.0-32.0-2.0,"""event"",""trial"",""time""
""fullscreenenter"",""1"",""2049""
","
","
","""event"",""trial"",""time""
""fullscreenenter"",""1"",""2049""
","
",,594.1999999,run_exp/static/images/task_images/land.jpg,76,,,,,,,11,,,3,,,,,,,,74526,1,2,TRUE,,,
travel,98,408381,0.0-33.0-0.0,"""event"",""trial"",""time""
""fullscreenenter"",""1"",""2049""
","
","
","""event"",""trial"",""time""
""fullscreenenter"",""1"",""2049""
","
",,,,,,,,,,,,"[{""stimulus"":""run_exp/static/images/task_images/rocket-01.jpg"",""time"":0},{""stimulus"":""run_exp/static/images/task_images/rocket-02.jpg"",""time"":1061.6000000238419},{""stimulus"":""run_exp/static/images/task_images/rocket-03.jpg"",""time"":2101.7999999523163},{""stimulus"":""run_exp/static/images/task_images/rocket-04.jpg"",""time"":3142.2999999523163},{""stimulus"":""run_exp/static/images/task_images/rocket-05.jpg"",""time"":4182.199999928474},{""stimulus"":""run_exp/static/images/task_images/rocket-06.jpg"",""time"":5227},{""stimulus"":""run_exp/static/images/task_images/rocket-07.jpg"",""time"":6281.799999952316},{""stimulus"":""run_exp/static/images/task_images/rocket-08.jpg"",""time"":7322},{""stimulus"":""run_exp/static/images/task_images/rocket-09.jpg"",""time"":8362.100000023842}]",[],3,,,,,,,,,,,,,,
alien_welcome,99,413396,0.0-33.0-1.0,"""event"",""trial"",""time""
""fullscreenenter"",""1"",""2049""
","
","
","""event"",""trial"",""time""
""fullscreenenter"",""1"",""2049""
","
",,null,run_exp/static/images/task_images/aliens/old_aliens/planet/alien_planet-5.jpg,null,,,,,,,,,,,,,5,"28,48,59,5,17,66,4,70,1,6,31,23,77,27,12,62,67,73,37,41,65,80,42,74,18,15,75,21,40,54,50,51,36,52,46,55,64,69,14,49,11,33,39,61,68,2,76,8,72",,,,,,,,,,
land,100,413911,0.0-33.0-2.0,"""event"",""trial"",""time""
""fullscreenenter"",""1"",""2049""
","
","
","""event"",""trial"",""time""
""fullscreenenter"",""1"",""2049""
","
",,null,run_exp/static/images/task_images/land.jpg,null,,,,,,,107,,,4,,,,,,,,,,,,,,
dig,101,415931,0.0-33.0-3.0,"""event"",""trial"",""time""
""fullscreenenter"",""1"",""2049""
","
","
","""event"",""trial"",""time""
""fullscreenenter"",""1"",""2049""
","
",,,,,,,,,,,,"[{""stimulus"":""run_exp/static/images/task_images/dig.jpg"",""time"":0.2999999523162842},{""stimulus"":""run_exp/static/images/task_images/land.jpg"",""time"":669.0999999046326},{""stimulus"":""run_exp/static/images/task_images/dig.jpg"",""time"":1336.5}]",[],4,,,,,,,,,,,,,,
harvest,102,416951,0.0-33.0-4.0,"""event"",""trial"",""time""
""fullscreenenter"",""1"",""2049""
","
","
","""event"",""trial"",""time""
""fullscreenenter"",""1"",""2049""
","
",,null,run_exp/static/images/task_images/gems/107.jpg,null,,,,,,,48,,,4,,,,,107,0.449483719,0.448598131,,,,,,,
decision,103,417791,0.0-33.0-5.0,"""event"",""trial"",""time""
""fullscreenenter"",""1"",""2049""
","
","
","""event"",""trial"",""time""
""fullscreenenter"",""1"",""2049""
","
",,838.3000001,run_exp/static/images/task_images/land.jpg,65,,,,,,,48,,,4,,,,,,,,93350,1,0,FALSE,,,
dig,104,419961,0.0-34.0-0.0,"""event"",""trial"",""time""
""fullscreenenter"",""1"",""2049""
","
","
","""event"",""trial"",""time""
""fullscreenenter"",""1"",""2049""
","
",,,,,,,,,,,,"[{""stimulus"":""run_exp/static/images/task_images/dig.jpg"",""time"":0.20000004768371582},{""stimulus"":""run_exp/static/images/task_images/land.jpg"",""time"":737.1000000238419},{""stimulus"":""run_exp/static/images/task_images/dig.jpg"",""time"":1447.6000000238419}]",[],4,,,,,,,,,,,,,,
harvest,105,420971,0.0-34.0-1.0,"""event"",""trial"",""time""
""fullscreenenter"",""1"",""2049""
","
","
","""event"",""trial"",""time""
""fullscreenenter"",""1"",""2049""
","
",,null,run_exp/static/images/task_images/gems/48.jpg,null,,,,,,,25,,,4,,,,,48,0.516021854,0.520833333,,,,,,,
decision,106,421494,0.0-34.0-2.0,"""event"",""trial"",""time""
""fullscreenenter"",""1"",""2049""
","
","
","""event"",""trial"",""time""
""fullscreenenter"",""1"",""2049""
","
",,521.9,run_exp/static/images/task_images/land.jpg,65,,,,,,,25,,,4,,,,,,,,97054,1,1,FALSE,,,
dig,107,423991,0.0-35.0-0.0,"""event"",""trial"",""time""
""fullscreenenter"",""1"",""2049""
","
","
","""event"",""trial"",""time""
""fullscreenenter"",""1"",""2049""
","
",,,,,,,,,,,,"[{""stimulus"":""run_exp/static/images/task_images/dig.jpg"",""time"":0.19999992847442627},{""stimulus"":""run_exp/static/images/task_images/land.jpg"",""time"":842.6000000238419},{""stimulus"":""run_exp/static/images/task_images/dig.jpg"",""time"":1672.5}]",[],4,,,,,,,,,,,,,,
harvest,108,425001,0.0-35.0-1.0,"""event"",""trial"",""time""
""fullscreenenter"",""1"",""2049""
","
","
","""event"",""trial"",""time""
""fullscreenenter"",""1"",""2049""
","
",,null,run_exp/static/images/task_images/gems/25.jpg,null,,,,,,,13,,,4,,,,,25,0.515504682,0.52,,,,,,,
decision,109,425471,0.0-35.0-2.0,"""event"",""trial"",""time""
""fullscreenenter"",""1"",""2049""
","
","
","""event"",""trial"",""time""
""fullscreenenter"",""1"",""2049""
","
",,468.1999999,run_exp/static/images/task_images/land.jpg,76,,,,,,,13,,,4,,,,,,,,101030,1,2,TRUE,,,
travel,110,435021,0.0-36.0-0.0,"""event"",""trial"",""time""
""fullscreenenter"",""1"",""2049""
","
","
","""event"",""trial"",""time""
""fullscreenenter"",""1"",""2049""
","
",,,,,,,,,,,,"[{""stimulus"":""run_exp/static/images/task_images/rocket-01.jpg"",""time"":0.20000004768371582},{""stimulus"":""run_exp/static/images/task_images/rocket-02.jpg"",""time"":1067.9000000953674},{""stimulus"":""run_exp/static/images/task_images/rocket-03.jpg"",""time"":2126.9000000953674},{""stimulus"":""run_exp/static/images/task_images/rocket-04.jpg"",""time"":3197},{""stimulus"":""run_exp/static/images/task_images/rocket-05.jpg"",""time"":4246.900000095367},{""stimulus"":""run_exp/static/images/task_images/rocket-06.jpg"",""time"":5306.400000095367},{""stimulus"":""run_exp/static/images/task_images/rocket-07.jpg"",""time"":6356.200000047684},{""stimulus"":""run_exp/static/images/task_images/rocket-08.jpg"",""time"":7427},{""stimulus"":""run_exp/static/images/task_images/rocket-09.jpg"",""time"":8477}]",[],4,,,,,,,,,,,,,,
alien_welcome,111,440031,0.0-36.0-1.0,"""event"",""trial"",""time""
""fullscreenenter"",""1"",""2049""
","
","
","""event"",""trial"",""time""
""fullscreenenter"",""1"",""2049""
","
",,null,run_exp/static/images/task_images/aliens/old_aliens/planet/alien_planet-17.jpg,null,,,,,,,,,,,,,17,"28,48,59,5,17,66,4,70,1,6,31,23,77,27,12,62,67,73,37,41,65,80,42,74,18,15,75,21,40,54,50,51,36,52,46,55,64,69,14,49,11,33,39,61,68,2,76,8,72",,,,,,,,,,
land,112,440536,0.0-36.0-2.0,"""event"",""trial"",""time""
""fullscreenenter"",""1"",""2049""
","
","
","""event"",""trial"",""time""
""fullscreenenter"",""1"",""2049""
","
",,null,run_exp/static/images/task_images/land.jpg,null,,,,,,,98,,,5,,,,,,,,,,,,,,
dig,113,442551,0.0-36.0-3.0,"""event"",""trial"",""time""
""fullscreenenter"",""1"",""2049""
","
","
","""event"",""trial"",""time""
""fullscreenenter"",""1"",""2049""
","
",,,,,,,,,,,,"[{""stimulus"":""run_exp/static/images/task_images/dig.jpg"",""time"":0.2999999523162842},{""stimulus"":""run_exp/static/images/task_images/land.jpg"",""time"":673.7999999523163},{""stimulus"":""run_exp/static/images/task_images/dig.jpg"",""time"":1353.7000000476837}]",[],5,,,,,,,,,,,,,,
harvest,114,443561,0.0-36.0-4.0,"""event"",""trial"",""time""
""fullscreenenter"",""1"",""2049""
","
","
","""event"",""trial"",""time""
""fullscreenenter"",""1"",""2049""
","
",,null,run_exp/static/images/task_images/gems/98.jpg,null,,,,,,,51,,,5,,,,,98,0.523682959,0.520408163,,,,,,,
decision,115,443927,0.0-36.0-5.0,"""event"",""trial"",""time""
""fullscreenenter"",""1"",""2049""
","
","
","""event"",""trial"",""time""
""fullscreenenter"",""1"",""2049""
","
",,364.1999999,run_exp/static/images/task_images/land.jpg,65,,,,,,,51,,,5,,,,,,,,119486,1,0,FALSE,,,
dig,116,446581,0.0-37.0-0.0,"""event"",""trial"",""time""
""fullscreenenter"",""1"",""2049""
","
","
","""event"",""trial"",""time""
""fullscreenenter"",""1"",""2049""
","
",,,,,,,,,,,,"[{""stimulus"":""run_exp/static/images/task_images/dig.jpg"",""time"":0.10000002384185791},{""stimulus"":""run_exp/static/images/task_images/land.jpg"",""time"":890.5},{""stimulus"":""run_exp/static/images/task_images/dig.jpg"",""time"":1769.7999999523163}]",[],5,,,,,,,,,,,,,,
harvest,117,447591,0.0-37.0-1.0,"""event"",""trial"",""time""
""fullscreenenter"",""1"",""2049""
","
","
","""event"",""trial"",""time""
""fullscreenenter"",""1"",""2049""
","
",,null,run_exp/static/images/task_images/gems/51.jpg,null,,,,,,,27,,,5,,,,,51,0.529974392,0.529411765,,,,,,,
decision,118,447935,0.0-37.0-2.0,"""event"",""trial"",""time""
""fullscreenenter"",""1"",""2049""
","
","
","""event"",""trial"",""time""
""fullscreenenter"",""1"",""2049""
","
",,342.1,run_exp/static/images/task_images/land.jpg,76,,,,,,,27,,,5,,,,,,,,123494,1,1,TRUE,,,
travel,119,457611,0.0-38.0-0.0,"""event"",""trial"",""time""
""fullscreenenter"",""1"",""2049""
","
","
","""event"",""trial"",""time""
""fullscreenenter"",""1"",""2049""
","
",,,,,,,,,,,,"[{""stimulus"":""run_exp/static/images/task_images/rocket-01.jpg"",""time"":0.20000004768371582},{""stimulus"":""run_exp/static/images/task_images/rocket-02.jpg"",""time"":1093.3000000715256},{""stimulus"":""run_exp/static/images/task_images/rocket-03.jpg"",""time"":2160.3000000715256},{""stimulus"":""run_exp/static/images/task_images/rocket-04.jpg"",""time"":3223.8000000715256},{""stimulus"":""run_exp/static/images/task_images/rocket-05.jpg"",""time"":4293.5},{""stimulus"":""run_exp/static/images/task_images/rocket-06.jpg"",""time"":5383.200000047684},{""stimulus"":""run_exp/static/images/task_images/rocket-07.jpg"",""time"":6453.200000047684},{""stimulus"":""run_exp/static/images/task_images/rocket-08.jpg"",""time"":7513.600000023842},{""stimulus"":""run_exp/static/images/task_images/rocket-09.jpg"",""time"":8603.300000071526}]",[],5,,,,,,,,,,,,,,
alien_welcome,120,462621,0.0-38.0-1.0,"""event"",""trial"",""time""
""fullscreenenter"",""1"",""2049""
","
","
","""event"",""trial"",""time""
""fullscreenenter"",""1"",""2049""
","
",,null,run_exp/static/images/task_images/aliens/old_aliens/planet/alien_planet-66.jpg,null,,,,,,,,,,,,,66,"28,48,59,5,17,66,4,70,1,6,31,23,77,27,12,62,67,73,37,41,65,80,42,74,18,15,75,21,40,54,50,51,36,52,46,55,64,69,14,49,11,33,39,61,68,2,76,8,72",,,,,,,,,,
land,121,463141,0.0-38.0-2.0,"""event"",""trial"",""time""
""fullscreenenter"",""1"",""2049""
","
","
","""event"",""trial"",""time""
""fullscreenenter"",""1"",""2049""
","
",,null,run_exp/static/images/task_images/land.jpg,null,,,,,,,92,,,6,,,,,,,,,,,,,,
dig,122,465151,0.0-38.0-3.0,"""event"",""trial"",""time""
""fullscreenenter"",""1"",""2049""
","
","
","""event"",""trial"",""time""
""fullscreenenter"",""1"",""2049""
","
",,,,,,,,,,,,"[{""stimulus"":""run_exp/static/images/task_images/dig.jpg"",""time"":0.3999999761581421},{""stimulus"":""run_exp/static/images/task_images/land.jpg"",""time"":678.7999999523163},{""stimulus"":""run_exp/static/images/task_images/dig.jpg"",""time"":1338.6000000238419}]",[],6,,,,,,,,,,,,,,
harvest,123,466161,0.0-38.0-4.0,"""event"",""trial"",""time""
""fullscreenenter"",""1"",""2049""
","
","
","""event"",""trial"",""time""
""fullscreenenter"",""1"",""2049""
","
",,null,run_exp/static/images/task_images/gems/92.jpg,null,,,,,,,71,,,6,,,,,92,0.772467925,0.77173913,,,,,,,
decision,124,466639,0.0-38.0-5.0,"""event"",""trial"",""time""
""fullscreenenter"",""1"",""2049""
","
","
","""event"",""trial"",""time""
""fullscreenenter"",""1"",""2049""
","
",,476.1,run_exp/static/images/task_images/land.jpg,65,,,,,,,71,,,6,,,,,,,,142198,1,0,FALSE,,,
dig,125,469171,0.0-39.0-0.0,"""event"",""trial"",""time""
""fullscreenenter"",""1"",""2049""
","
","
","""event"",""trial"",""time""
""fullscreenenter"",""1"",""2049""
","
",,,,,,,,,,,,"[{""stimulus"":""run_exp/static/images/task_images/dig.jpg"",""time"":0.19999992847442627},{""stimulus"":""run_exp/static/images/task_images/land.jpg"",""time"":858.2999999523163},{""stimulus"":""run_exp/static/images/task_images/dig.jpg"",""time"":1688.2999999523163}]",[],6,,,,,,,,,,,,,,
harvest,126,470181,0.0-39.0-1.0,"""event"",""trial"",""time""
""fullscreenenter"",""1"",""2049""
","
","
","""event"",""trial"",""time""
""fullscreenenter"",""1"",""2049""
","
",,null,run_exp/static/images/task_images/gems/71.jpg,null,,,,,,,55,,,6,,,,,71,0.781010905,0.774647887,,,,,,,
decision,127,470279,0.0-39.0-2.0,"""event"",""trial"",""time""
""fullscreenenter"",""1"",""2049""
","
","
","""event"",""trial"",""time""
""fullscreenenter"",""1"",""2049""
","
",,95.9000001,run_exp/static/images/task_images/land.jpg,65,,,,,,,55,,,6,,,,,,,,145838,1,1,FALSE,,,
dig,128,473201,0.0-40.0-0.0,"""event"",""trial"",""time""
""fullscreenenter"",""1"",""2049""
","
","
","""event"",""trial"",""time""
""fullscreenenter"",""1"",""2049""
","
",,,,,,,,,,,,"[{""stimulus"":""run_exp/static/images/task_images/dig.jpg"",""time"":0.10000002384185791},{""stimulus"":""run_exp/static/images/task_images/land.jpg"",""time"":988.7000000476837},{""stimulus"":""run_exp/static/images/task_images/dig.jpg"",""time"":1948.8999999761581}]",[],6,,,,,,,,,,,,,,
harvest,129,474221,0.0-40.0-1.0,"""event"",""trial"",""time""
""fullscreenenter"",""1"",""2049""
","
","
","""event"",""trial"",""time""
""fullscreenenter"",""1"",""2049""
","
",,null,run_exp/static/images/task_images/gems/55.jpg,null,,,,,,,50,,,6,,,,,55,0.903891268,0.909090909,,,,,,,
decision,130,474463,0.0-40.0-2.0,"""event"",""trial"",""time""
""fullscreenenter"",""1"",""2049""
","
","
","""event"",""trial"",""time""
""fullscreenenter"",""1"",""2049""
","
",,240.1,run_exp/static/images/task_images/land.jpg,65,,,,,,,50,,,6,,,,,,,,150022,1,2,FALSE,,,
dig,131,477231,0.0-41.0-0.0,"""event"",""trial"",""time""
""fullscreenenter"",""1"",""2049""
","
","
","""event"",""trial"",""time""
""fullscreenenter"",""1"",""2049""
","
",,,,,,,,,,,,"[{""stimulus"":""run_exp/static/images/task_images/dig.jpg"",""time"":0.20000004768371582},{""stimulus"":""run_exp/static/images/task_images/land.jpg"",""time"":924.5},{""stimulus"":""run_exp/static/images/task_images/dig.jpg"",""time"":1844.8999999761581}]",[],6,,,,,,,,,,,,,,
harvest,132,478241,0.0-41.0-1.0,"""event"",""trial"",""time""
""fullscreenenter"",""1"",""2049""
","
","
","""event"",""trial"",""time""
""fullscreenenter"",""1"",""2049""
","
",,null,run_exp/static/images/task_images/gems/50.jpg,null,,,,,,,37,,,6,,,,,50,0.744372425,0.74,,,,,,,
decision,133,478535,0.0-41.0-2.0,"""event"",""trial"",""time""
""fullscreenenter"",""1"",""2049""
","
","
","""event"",""trial"",""time""
""fullscreenenter"",""1"",""2049""
","
",,292.4,run_exp/static/images/task_images/land.jpg,65,,,,,,,37,,,6,,,,,,,,154094,1,3,FALSE,,,
dig,134,481261,0.0-42.0-0.0,"""event"",""trial"",""time""
""fullscreenenter"",""1"",""2049""
","
","
","""event"",""trial"",""time""
""fullscreenenter"",""1"",""2049""
","
",,,,,,,,,,,,"[{""stimulus"":""run_exp/static/images/task_images/dig.jpg"",""time"":0.10000002384185791},{""stimulus"":""run_exp/static/images/task_images/land.jpg"",""time"":912.5},{""stimulus"":""run_exp/static/images/task_images/dig.jpg"",""time"":1822.6999999284744}]",[],6,,,,,,,,,,,,,,
harvest,135,482276,0.0-42.0-1.0,"""event"",""trial"",""time""
""fullscreenenter"",""1"",""2049""
","
","
","""event"",""trial"",""time""
""fullscreenenter"",""1"",""2049""
","
",,null,run_exp/static/images/task_images/gems/37.jpg,null,,,,,,,33,,,6,,,,,37,0.880030357,0.891891892,,,,,,,
decision,136,482662,0.0-42.0-2.0,"""event"",""trial"",""time""
""fullscreenenter"",""1"",""2049""
","
","
","""event"",""trial"",""time""
""fullscreenenter"",""1"",""2049""
","
",,385.3,run_exp/static/images/task_images/land.jpg,76,,,,,,,33,,,6,,,,,,,,158221,1,4,TRUE,,,
travel,137,492281,0.0-43.0-0.0,"""event"",""trial"",""time""
""fullscreenenter"",""1"",""2049""
","
","
","""event"",""trial"",""time""
""fullscreenenter"",""1"",""2049""
","
",,,,,,,,,,,,"[{""stimulus"":""run_exp/static/images/task_images/rocket-01.jpg"",""time"":0.10000002384185791},{""stimulus"":""run_exp/static/images/task_images/rocket-02.jpg"",""time"":1087.7000000476837},{""stimulus"":""run_exp/static/images/task_images/rocket-03.jpg"",""time"":2147.7000000476837},{""stimulus"":""run_exp/static/images/task_images/rocket-04.jpg"",""time"":3218},{""stimulus"":""run_exp/static/images/task_images/rocket-05.jpg"",""time"":4277.800000071526},{""stimulus"":""run_exp/static/images/task_images/rocket-06.jpg"",""time"":5347.900000095367},{""stimulus"":""run_exp/static/images/task_images/rocket-07.jpg"",""time"":6427.800000071526},{""stimulus"":""run_exp/static/images/task_images/rocket-08.jpg"",""time"":7497.800000071526},{""stimulus"":""run_exp/static/images/task_images/rocket-09.jpg"",""time"":8547.600000023842}]",[],6,,,,,,,,,,,,,,
alien_welcome,138,497301,0.0-43.0-1.0,"""event"",""trial"",""time""
""fullscreenenter"",""1"",""2049""
","
","
","""event"",""trial"",""time""
""fullscreenenter"",""1"",""2049""
","
",,null,run_exp/static/images/task_images/aliens/old_aliens/planet/alien_planet-4.jpg,null,,,,,,,,,,,,,4,"28,48,59,5,17,66,4,70,1,6,31,23,77,27,12,62,67,73,37,41,65,80,42,74,18,15,75,21,40,54,50,51,36,52,46,55,64,69,14,49,11,33,39,61,68,2,76,8,72",,,,,,,,,,
land,139,497811,0.0-43.0-2.0,"""event"",""trial"",""time""
""fullscreenenter"",""1"",""2049""
","
","
","""event"",""trial"",""time""
""fullscreenenter"",""1"",""2049""
","
",,null,run_exp/static/images/task_images/land.jpg,null,,,,,,,103,,,7,,,,,,,,,,,,,,
dig,140,499831,0.0-43.0-3.0,"""event"",""trial"",""time""
""fullscreenenter"",""1"",""2049""
","
","
","""event"",""trial"",""time""
""fullscreenenter"",""1"",""2049""
","
",,,,,,,,,,,,"[{""stimulus"":""run_exp/static/images/task_images/dig.jpg"",""time"":0.30000007152557373},{""stimulus"":""run_exp/static/images/task_images/land.jpg"",""time"":678.7000000476837},{""stimulus"":""run_exp/static/images/task_images/dig.jpg"",""time"":1348.8000000715256}]",[],7,,,,,,,,,,,,,,
harvest,141,500851,0.0-43.0-4.0,"""event"",""trial"",""time""
""fullscreenenter"",""1"",""2049""
","
","
","""event"",""trial"",""time""
""fullscreenenter"",""1"",""2049""
","
",,null,run_exp/static/images/task_images/gems/103.jpg,null,,,,,,,80,,,7,,,,,103,0.775007573,0.776699029,,,,,,,
decision,142,501430,0.0-43.0-5.0,"""event"",""trial"",""time""
""fullscreenenter"",""1"",""2049""
","
","
","""event"",""trial"",""time""
""fullscreenenter"",""1"",""2049""
","
",,578.4,run_exp/static/images/task_images/land.jpg,65,,,,,,,80,,,7,,,,,,,,176990,1,0,FALSE,,,
dig,143,503871,0.0-44.0-0.0,"""event"",""trial"",""time""
""fullscreenenter"",""1"",""2049""
","
","
","""event"",""trial"",""time""
""fullscreenenter"",""1"",""2049""
","
",,,,,,,,,,,,"[{""stimulus"":""run_exp/static/images/task_images/dig.jpg"",""time"":0.2999999523162842},{""stimulus"":""run_exp/static/images/task_images/land.jpg"",""time"":817.2000000476837},{""stimulus"":""run_exp/static/images/task_images/dig.jpg"",""time"":1617.3999999761581}]",[],7,,,,,,,,,,,,,,
harvest,144,504890,0.0-44.0-1.0,"""event"",""trial"",""time""
""fullscreenenter"",""1"",""2049""
","
","
","""event"",""trial"",""time""
""fullscreenenter"",""1"",""2049""
","
",,null,run_exp/static/images/task_images/gems/80.jpg,null,,,,,,,71,,,7,,,,,80,0.889222858,0.8875,,,,,,,
decision,145,505399,0.0-44.0-2.0,"""event"",""trial"",""time""
""fullscreenenter"",""1"",""2049""
","
","
","""event"",""trial"",""time""
""fullscreenenter"",""1"",""2049""
","
",,506.4,run_exp/static/images/task_images/land.jpg,65,,,,,,,71,,,7,,,,,,,,180958,1,1,FALSE,,,
dig,146,507901,0.0-45.0-0.0,"""event"",""trial"",""time""
""fullscreenenter"",""1"",""2049""
","
","
","""event"",""trial"",""time""
""fullscreenenter"",""1"",""2049""
","
",,,,,,,,,,,,"[{""stimulus"":""run_exp/static/images/task_images/dig.jpg"",""time"":0.19999992847442627},{""stimulus"":""run_exp/static/images/task_images/land.jpg"",""time"":839},{""stimulus"":""run_exp/static/images/task_images/dig.jpg"",""time"":1679.1000000238419}]",[],7,,,,,,,,,,,,,,
harvest,147,508921,0.0-45.0-1.0,"""event"",""trial"",""time""
""fullscreenenter"",""1"",""2049""
","
","
","""event"",""trial"",""time""
""fullscreenenter"",""1"",""2049""
","
",,null,run_exp/static/images/task_images/gems/71.jpg,null,,,,,,,61,,,7,,,,,71,0.852828095,0.85915493,,,,,,,
decision,148,509391,0.0-45.0-2.0,"""event"",""trial"",""time""
""fullscreenenter"",""1"",""2049""
","
","
","""event"",""trial"",""time""
""fullscreenenter"",""1"",""2049""
","
",,468.3,run_exp/static/images/task_images/land.jpg,65,,,,,,,61,,,7,,,,,,,,184950,1,2,FALSE,,,
dig,149,511931,0.0-46.0-0.0,"""event"",""trial"",""time""
""fullscreenenter"",""1"",""2049""
","
","
","""event"",""trial"",""time""
""fullscreenenter"",""1"",""2049""
","
",,,,,,,,,,,,"[{""stimulus"":""run_exp/static/images/task_images/dig.jpg"",""time"":0},{""stimulus"":""run_exp/static/images/task_images/land.jpg"",""time"":857},{""stimulus"":""run_exp/static/images/task_images/dig.jpg"",""time"":1706.5}]",[],7,,,,,,,,,,,,,,
harvest,150,512951,0.0-46.0-1.0,"""event"",""trial"",""time""
""fullscreenenter"",""1"",""2049""
","
","
","""event"",""trial"",""time""
""fullscreenenter"",""1"",""2049""
","
",,null,run_exp/static/images/task_images/gems/61.jpg,null,,,,,,,49,,,7,,,,,61,0.809982026,0.803278689,,,,,,,
decision,151,513279,0.0-46.0-2.0,"""event"",""trial"",""time""
""fullscreenenter"",""1"",""2049""
","
","
","""event"",""trial"",""time""
""fullscreenenter"",""1"",""2049""
","
",,326.4,run_exp/static/images/task_images/land.jpg,65,,,,,,,49,,,7,,,,,,,,188839,1,3,FALSE,,,
dig,152,515971,0.0-47.0-0.0,"""event"",""trial"",""time""
""fullscreenenter"",""1"",""2049""
","
","
","""event"",""trial"",""time""
""fullscreenenter"",""1"",""2049""
","
",,,,,,,,,,,,"[{""stimulus"":""run_exp/static/images/task_images/dig.jpg"",""time"":0.10000002384185791},{""stimulus"":""run_exp/static/images/task_images/land.jpg"",""time"":908.2999999523163},{""stimulus"":""run_exp/static/images/task_images/dig.jpg"",""time"":1796.2999999523163}]",[],7,,,,,,,,,,,,,,
harvest,153,516981,0.0-47.0-1.0,"""event"",""trial"",""time""
""fullscreenenter"",""1"",""2049""
","
","
","""event"",""trial"",""time""
""fullscreenenter"",""1"",""2049""
","
",,null,run_exp/static/images/task_images/gems/49.jpg,null,,,,,,,35,,,7,,,,,49,0.719711185,0.714285714,,,,,,,
decision,154,517367,0.0-47.0-2.0,"""event"",""trial"",""time""
""fullscreenenter"",""1"",""2049""
","
","
","""event"",""trial"",""time""
""fullscreenenter"",""1"",""2049""
","
",,384.0999999,run_exp/static/images/task_images/land.jpg,65,,,,,,,35,,,7,,,,,,,,192926,1,4,FALSE,,,
dig,155,520001,0.0-48.0-0.0,"""event"",""trial"",""time""
""fullscreenenter"",""1"",""2049""
","
","
","""event"",""trial"",""time""
""fullscreenenter"",""1"",""2049""
","
",,,,,,,,,,,,"[{""stimulus"":""run_exp/static/images/task_images/dig.jpg"",""time"":0.10000002384185791},{""stimulus"":""run_exp/static/images/task_images/land.jpg"",""time"":890.2999999523163},{""stimulus"":""run_exp/static/images/task_images/dig.jpg"",""time"":1750.2999999523163}]",[],7,,,,,,,,,,,,,,
harvest,156,521011,0.0-48.0-1.0,"""event"",""trial"",""time""
""fullscreenenter"",""1"",""2049""
","
","
","""event"",""trial"",""time""
""fullscreenenter"",""1"",""2049""
","
",,null,run_exp/static/images/task_images/gems/35.jpg,null,,,,,,,27,,,7,,,,,35,0.770016723,0.771428571,,,,,,,
decision,157,521991,0.0-48.0-2.0,"""event"",""trial"",""time""
""fullscreenenter"",""1"",""2049""
","
","
","""event"",""trial"",""time""
""fullscreenenter"",""1"",""2049""
","
",,977.8000001,run_exp/static/images/task_images/land.jpg,76,,,,,,,27,,,7,,,,,,,,197550,1,5,TRUE,,,
travel,158,531031,0.0-49.0-0.0,"""event"",""trial"",""time""
""fullscreenenter"",""1"",""2049""
","
","
","""event"",""trial"",""time""
""fullscreenenter"",""1"",""2049""
","
",,,,,,,,,,,,"[{""stimulus"":""run_exp/static/images/task_images/rocket-01.jpg"",""time"":0.09999990463256836},{""stimulus"":""run_exp/static/images/task_images/rocket-02.jpg"",""time"":1007},{""stimulus"":""run_exp/static/images/task_images/rocket-03.jpg"",""time"":2007.0999999046326},{""stimulus"":""run_exp/static/images/task_images/rocket-04.jpg"",""time"":3026.5},{""stimulus"":""run_exp/static/images/task_images/rocket-05.jpg"",""time"":4026.0999999046326},{""stimulus"":""run_exp/static/images/task_images/rocket-06.jpg"",""time"":5026.399999976158},{""stimulus"":""run_exp/static/images/task_images/rocket-07.jpg"",""time"":6016.099999904633},{""stimulus"":""run_exp/static/images/task_images/rocket-08.jpg"",""time"":7016.399999976158},{""stimulus"":""run_exp/static/images/task_images/rocket-09.jpg"",""time"":8026.299999952316}]",[],7,,,,,,,,,,,,,,
alien_welcome,159,536051,0.0-49.0-1.0,"""event"",""trial"",""time""
""fullscreenenter"",""1"",""2049""
","
","
","""event"",""trial"",""time""
""fullscreenenter"",""1"",""2049""
","
",,null,run_exp/static/images/task_images/aliens/old_aliens/planet/alien_planet-70.jpg,null,,,,,,,,,,,,,70,"28,48,59,5,17,66,4,70,1,6,31,23,77,27,12,62,67,73,37,41,65,80,42,74,18,15,75,21,40,54,50,51,36,52,46,55,64,69,14,49,11,33,39,61,68,2,76,8,72",,,,,,,,,,
land,160,536571,0.0-49.0-2.0,"""event"",""trial"",""time""
""fullscreenenter"",""1"",""2049""
","
","
","""event"",""trial"",""time""
""fullscreenenter"",""1"",""2049""
","
",,null,run_exp/static/images/task_images/land.jpg,null,,,,,,,100,,,8,,,,,,,,,,,,,,
dig,161,538581,0.0-49.0-3.0,"""event"",""trial"",""time""
""fullscreenenter"",""1"",""2049""
","
","
","""event"",""trial"",""time""
""fullscreenenter"",""1"",""2049""
","
",,,,,,,,,,,,"[{""stimulus"":""run_exp/static/images/task_images/dig.jpg"",""time"":0.3999999761581421},{""stimulus"":""run_exp/static/images/task_images/land.jpg"",""time"":688.7999999523163},{""stimulus"":""run_exp/static/images/task_images/dig.jpg"",""time"":1343.7000000476837}]",[],8,,,,,,,,,,,,,,
harvest,162,539591,0.0-49.0-4.0,"""event"",""trial"",""time""
""fullscreenenter"",""1"",""2049""
","
","
","""event"",""trial"",""time""
""fullscreenenter"",""1"",""2049""
","
",,null,run_exp/static/images/task_images/gems/100.jpg,null,,,,,,,92,,,8,,,,,100,0.922092359,0.92,,,,,,,
decision,163,540087,0.0-49.0-5.0,"""event"",""trial"",""time""
""fullscreenenter"",""1"",""2049""
","
","
","""event"",""trial"",""time""
""fullscreenenter"",""1"",""2049""
","
",,493.8000001,run_exp/static/images/task_images/land.jpg,65,,,,,,,92,,,8,,,,,,,,215646,1,0,FALSE,,,
dig,164,542611,0.0-50.0-0.0,"""event"",""trial"",""time""
""fullscreenenter"",""1"",""2049""
","
","
","""event"",""trial"",""time""
""fullscreenenter"",""1"",""2049""
","
",,,,,,,,,,,,"[{""stimulus"":""run_exp/static/images/task_images/dig.jpg"",""time"":0.10000002384185791},{""stimulus"":""run_exp/static/images/task_images/land.jpg"",""time"":841.3000000715256},{""stimulus"":""run_exp/static/images/task_images/dig.jpg"",""time"":1671.4000000953674}]",[],8,,,,,,,,,,,,,,
harvest,165,543631,0.0-50.0-1.0,"""event"",""trial"",""time""
""fullscreenenter"",""1"",""2049""
","
","
","""event"",""trial"",""time""
""fullscreenenter"",""1"",""2049""
","
",,null,run_exp/static/images/task_images/gems/92.jpg,null,,,,,,,71,,,8,,,,,92,0.776236295,0.77173913,,,,,,,
decision,166,544047,0.0-50.0-2.0,"""event"",""trial"",""time""
""fullscreenenter"",""1"",""2049""
","
","
","""event"",""trial"",""time""
""fullscreenenter"",""1"",""2049""
","
",,413.9,run_exp/static/images/task_images/land.jpg,65,,,,,,,71,,,8,,,,,,,,219606,1,1,FALSE,,,
dig,167,546651,0.0-51.0-0.0,"""event"",""trial"",""time""
""fullscreenenter"",""1"",""2049""
","
","
","""event"",""trial"",""time""
""fullscreenenter"",""1"",""2049""
","
",,,,,,,,,,,,"[{""stimulus"":""run_exp/static/images/task_images/dig.jpg"",""time"":0.09999990463256836},{""stimulus"":""run_exp/static/images/task_images/land.jpg"",""time"":872.7999999523163},{""stimulus"":""run_exp/static/images/task_images/dig.jpg"",""time"":1742.5}]",[],8,,,,,,,,,,,,,,
harvest,168,547671,0.0-51.0-1.0,"""event"",""trial"",""time""
""fullscreenenter"",""1"",""2049""
","
","
","""event"",""trial"",""time""
""fullscreenenter"",""1"",""2049""
","
",,null,run_exp/static/images/task_images/gems/71.jpg,null,,,,,,,60,,,8,,,,,71,0.8448406,0.845070423,,,,,,,
decision,169,548007,0.0-51.0-2.0,"""event"",""trial"",""time""
""fullscreenenter"",""1"",""2049""
","
","
","""event"",""trial"",""time""
""fullscreenenter"",""1"",""2049""
","
",,334.5,run_exp/static/images/task_images/land.jpg,65,,,,,,,60,,,8,,,,,,,,223566,1,2,FALSE,,,
dig,170,550691,0.0-52.0-0.0,"""event"",""trial"",""time""
""fullscreenenter"",""1"",""2049""
","
","
","""event"",""trial"",""time""
""fullscreenenter"",""1"",""2049""
","
",,,,,,,,,,,,"[{""stimulus"":""run_exp/static/images/task_images/dig.jpg"",""time"":0.2999999523162842},{""stimulus"":""run_exp/static/images/task_images/land.jpg"",""time"":904.2999999523163},{""stimulus"":""run_exp/static/images/task_images/dig.jpg"",""time"":1777.8999999761581}]",[],8,,,,,,,,,,,,,,
harvest,171,551711,0.0-52.0-1.0,"""event"",""trial"",""time""
""fullscreenenter"",""1"",""2049""
","
","
","""event"",""trial"",""time""
""fullscreenenter"",""1"",""2049""
","
",,null,run_exp/static/images/task_images/gems/60.jpg,null,,,,,,,51,,,8,,,,,60,0.848017984,0.85,,,,,,,
decision,172,552039,0.0-52.0-2.0,"""event"",""trial"",""time""
""fullscreenenter"",""1"",""2049""
","
","
","""event"",""trial"",""time""
""fullscreenenter"",""1"",""2049""
","
",,326.4000001,run_exp/static/images/task_images/land.jpg,65,,,,,,,51,,,8,,,,,,,,227598,1,3,FALSE,,,
dig,173,554732,0.0-53.0-0.0,"""event"",""trial"",""time""
""fullscreenenter"",""1"",""2049""
","
","
","""event"",""trial"",""time""
""fullscreenenter"",""1"",""2049""
","
",,,,,,,,,,,,"[{""stimulus"":""run_exp/static/images/task_images/dig.jpg"",""time"":0.20000004768371582},{""stimulus"":""run_exp/static/images/task_images/land.jpg"",""time"":907.4000000953674},{""stimulus"":""run_exp/static/images/task_images/dig.jpg"",""time"":1788}]",[],8,,,,,,,,,,,,,,
harvest,174,555741,0.0-53.0-1.0,"""event"",""trial"",""time""
""fullscreenenter"",""1"",""2049""
","
","
","""event"",""trial"",""time""
""fullscreenenter"",""1"",""2049""
","
",,null,run_exp/static/images/task_images/gems/51.jpg,null,,,,,,,41,,,8,,,,,51,0.802533802,0.803921569,,,,,,,
decision,175,555975,0.0-53.0-2.0,"""event"",""trial"",""time""
""fullscreenenter"",""1"",""2049""
","
","
","""event"",""trial"",""time""
""fullscreenenter"",""1"",""2049""
","
",,231.9,run_exp/static/images/task_images/land.jpg,65,,,,,,,41,,,8,,,,,,,,231534,1,4,FALSE,,,
dig,176,558761,0.0-54.0-0.0,"""event"",""trial"",""time""
""fullscreenenter"",""1"",""2049""
","
","
","""event"",""trial"",""time""
""fullscreenenter"",""1"",""2049""
","
",,,,,,,,,,,,"[{""stimulus"":""run_exp/static/images/task_images/dig.jpg"",""time"":0.19999992847442627},{""stimulus"":""run_exp/static/images/task_images/land.jpg"",""time"":942.5},{""stimulus"":""run_exp/static/images/task_images/dig.jpg"",""time"":1852.7999999523163}]",[],8,,,,,,,,,,,,,,
harvest,177,559781,0.0-54.0-1.0,"""event"",""trial"",""time""
""fullscreenenter"",""1"",""2049""
","
","
","""event"",""trial"",""time""
""fullscreenenter"",""1"",""2049""
","
",,null,run_exp/static/images/task_images/gems/41.jpg,null,,,,,,,35,,,8,,,,,41,0.85833421,0.853658537,,,,,,,
decision,178,560431,0.0-54.0-2.0,"""event"",""trial"",""time""
""fullscreenenter"",""1"",""2049""
","
","
","""event"",""trial"",""time""
""fullscreenenter"",""1"",""2049""
","
",,648.2,run_exp/static/images/task_images/land.jpg,76,,,,,,,35,,,8,,,,,,,,235990,1,5,TRUE,,,
travel,179,569801,0.0-55.0-0.0,"""event"",""trial"",""time""
""fullscreenenter"",""1"",""2049""
","
","
","""event"",""trial"",""time""
""fullscreenenter"",""1"",""2049""
","
",,,,,,,,,,,,"[{""stimulus"":""run_exp/static/images/task_images/rocket-01.jpg"",""time"":0.20000004768371582},{""stimulus"":""run_exp/static/images/task_images/rocket-02.jpg"",""time"":1056.7000000476837},{""stimulus"":""run_exp/static/images/task_images/rocket-03.jpg"",""time"":2086.3000000715256},{""stimulus"":""run_exp/static/images/task_images/rocket-04.jpg"",""time"":3126.7000000476837},{""stimulus"":""run_exp/static/images/task_images/rocket-05.jpg"",""time"":4176.700000047684},{""stimulus"":""run_exp/static/images/task_images/rocket-06.jpg"",""time"":5201.600000023842},{""stimulus"":""run_exp/static/images/task_images/rocket-07.jpg"",""time"":6236.600000023842},{""stimulus"":""run_exp/static/images/task_images/rocket-08.jpg"",""time"":7286.899999976158},{""stimulus"":""run_exp/static/images/task_images/rocket-09.jpg"",""time"":8326.600000023842}]",[],8,,,,,,,,,,,,,,
alien_welcome,180,574811,0.0-55.0-1.0,"""event"",""trial"",""time""
""fullscreenenter"",""1"",""2049""
","
","
","""event"",""trial"",""time""
""fullscreenenter"",""1"",""2049""
","
",,null,run_exp/static/images/task_images/aliens/old_aliens/planet/alien_planet-1.jpg,null,,,,,,,,,,,,,1,"28,48,59,5,17,66,4,70,1,6,31,23,77,27,12,62,67,73,37,41,65,80,42,74,18,15,75,21,40,54,50,51,36,52,46,55,64,69,14,49,11,33,39,61,68,2,76,8,72",,,,,,,,,,
land,181,575321,0.0-55.0-2.0,"""event"",""trial"",""time""
""fullscreenenter"",""1"",""2049""
","
","
","""event"",""trial"",""time""
""fullscreenenter"",""1"",""2049""
","
",,null,run_exp/static/images/task_images/land.jpg,null,,,,,,,97,,,9,,,,,,,,,,,,,,
dig,182,577331,0.0-55.0-3.0,"""event"",""trial"",""time""
""fullscreenenter"",""1"",""2049""
","
","
","""event"",""trial"",""time""
""fullscreenenter"",""1"",""2049""
","
",,,,,,,,,,,,"[{""stimulus"":""run_exp/static/images/task_images/dig.jpg"",""time"":0.30000007152557373},{""stimulus"":""run_exp/static/images/task_images/land.jpg"",""time"":687.8000000715256},{""stimulus"":""run_exp/static/images/task_images/dig.jpg"",""time"":1358}]",[],9,,,,,,,,,,,,,,
harvest,183,578341,0.0-55.0-4.0,"""event"",""trial"",""time""
""fullscreenenter"",""1"",""2049""
","
","
","""event"",""trial"",""time""
""fullscreenenter"",""1"",""2049""
","
",,null,run_exp/static/images/task_images/gems/97.jpg,null,,,,,,,21,,,9,,,,,97,0.213448206,0.216494845,,,,,,,
decision,184,578775,0.0-55.0-5.0,"""event"",""trial"",""time""
""fullscreenenter"",""1"",""2049""
","
","
","""event"",""trial"",""time""
""fullscreenenter"",""1"",""2049""
","
",,432.6,run_exp/static/images/task_images/land.jpg,65,,,,,,,21,,,9,,,,,,,,254335,1,0,FALSE,,,
dig,185,581351,0.0-56.0-0.0,"""event"",""trial"",""time""
""fullscreenenter"",""1"",""2049""
","
","
","""event"",""trial"",""time""
""fullscreenenter"",""1"",""2049""
","
",,,,,,,,,,,,"[{""stimulus"":""run_exp/static/images/task_images/dig.jpg"",""time"":0.10000002384185791},{""stimulus"":""run_exp/static/images/task_images/land.jpg"",""time"":873.1999999284744},{""stimulus"":""run_exp/static/images/task_images/dig.jpg"",""time"":1723.7999999523163}]",[],9,,,,,,,,,,,,,,
harvest,186,582371,0.0-56.0-1.0,"""event"",""trial"",""time""
""fullscreenenter"",""1"",""2049""
","
","
","""event"",""trial"",""time""
""fullscreenenter"",""1"",""2049""
","
",,null,run_exp/static/images/task_images/gems/21.jpg,null,,,,,,,3,,,9,,,,,21,0.161919857,0.142857143,,,,,,,
decision,187,582703,0.0-56.0-2.0,"""event"",""trial"",""time""
""fullscreenenter"",""1"",""2049""
","
","
","""event"",""trial"",""time""
""fullscreenenter"",""1"",""2049""
","
",,330.1,run_exp/static/images/task_images/land.jpg,76,,,,,,,3,,,9,,,,,,,,258262,1,1,TRUE,,,
travel,188,592391,0.0-57.0-0.0,"""event"",""trial"",""time""
""fullscreenenter"",""1"",""2049""
","
","
","""event"",""trial"",""time""
""fullscreenenter"",""1"",""2049""
","
",,,,,,,,,,,,"[{""stimulus"":""run_exp/static/images/task_images/rocket-01.jpg"",""time"":0.10000002384185791},{""stimulus"":""run_exp/static/images/task_images/rocket-02.jpg"",""time"":1085.7999999523163},{""stimulus"":""run_exp/static/images/task_images/rocket-03.jpg"",""time"":2155.899999976158},{""stimulus"":""run_exp/static/images/task_images/rocket-04.jpg"",""time"":3234.7000000476837},{""stimulus"":""run_exp/static/images/task_images/rocket-05.jpg"",""time"":4306.100000023842},{""stimulus"":""run_exp/static/images/task_images/rocket-06.jpg"",""time"":5375.899999976158},{""stimulus"":""run_exp/static/images/task_images/rocket-07.jpg"",""time"":6456.100000023842},{""stimulus"":""run_exp/static/images/task_images/rocket-08.jpg"",""time"":7536.200000047684},{""stimulus"":""run_exp/static/images/task_images/rocket-09.jpg"",""time"":8603.600000023842}]",[],9,,,,,,,,,,,,,,
alien_welcome,189,597411,0.0-57.0-1.0,"""event"",""trial"",""time""
""fullscreenenter"",""1"",""2049""
","
","
","""event"",""trial"",""time""
""fullscreenenter"",""1"",""2049""
","
",,null,run_exp/static/images/task_images/aliens/old_aliens/planet/alien_planet-6.jpg,null,,,,,,,,,,,,,6,"28,48,59,5,17,66,4,70,1,6,31,23,77,27,12,62,67,73,37,41,65,80,42,74,18,15,75,21,40,54,50,51,36,52,46,55,64,69,14,49,11,33,39,61,68,2,76,8,72",,,,,,,,,,
land,190,597931,0.0-57.0-2.0,"""event"",""trial"",""time""
""fullscreenenter"",""1"",""2049""
","
","
","""event"",""trial"",""time""
""fullscreenenter"",""1"",""2049""
","
",,null,run_exp/static/images/task_images/land.jpg,null,,,,,,,110,,,10,,,,,,,,,,,,,,
dig,191,599951,0.0-57.0-3.0,"""event"",""trial"",""time""
""fullscreenenter"",""1"",""2049""
","
","
","""event"",""trial"",""time""
""fullscreenenter"",""1"",""2049""
","
",,,,,,,,,,,,"[{""stimulus"":""run_exp/static/images/task_images/dig.jpg"",""time"":0.3999999761581421},{""stimulus"":""run_exp/static/images/task_images/land.jpg"",""time"":678.7999999523163},{""stimulus"":""run_exp/static/images/task_images/dig.jpg"",""time"":1338.8999999761581}]",[],10,,,,,,,,,,,,,,
harvest,192,600961,0.0-57.0-4.0,"""event"",""trial"",""time""
""fullscreenenter"",""1"",""2049""
","
","
","""event"",""trial"",""time""
""fullscreenenter"",""1"",""2049""
","
",,null,run_exp/static/images/task_images/gems/110.jpg,null,,,,,,,17,,,10,,,,,110,0.151434122,0.154545455,,,,,,,
decision,193,601255,0.0-57.0-5.0,"""event"",""trial"",""time""
""fullscreenenter"",""1"",""2049""
","
","
","""event"",""trial"",""time""
""fullscreenenter"",""1"",""2049""
","
",,292.3,run_exp/static/images/task_images/land.jpg,65,,,,,,,17,,,10,,,,,,,,276814,1,0,FALSE,,,
dig,194,603981,0.0-58.0-0.0,"""event"",""trial"",""time""
""fullscreenenter"",""1"",""2049""
","
","
","""event"",""trial"",""time""
""fullscreenenter"",""1"",""2049""
","
",,,,,,,,,,,,"[{""stimulus"":""run_exp/static/images/task_images/dig.jpg"",""time"":0.2999999523162842},{""stimulus"":""run_exp/static/images/task_images/land.jpg"",""time"":921.8999999761581},{""stimulus"":""run_exp/static/images/task_images/dig.jpg"",""time"":1811.7999999523163}]",[],10,,,,,,,,,,,,,,
harvest,195,604991,0.0-58.0-1.0,"""event"",""trial"",""time""
""fullscreenenter"",""1"",""2049""
","
","
","""event"",""trial"",""time""
""fullscreenenter"",""1"",""2049""
","
",,null,run_exp/static/images/task_images/gems/17.jpg,null,,,,,,,2,,,10,,,,,17,0.136597226,0.117647059,,,,,,,
decision,196,605287,0.0-58.0-2.0,"""event"",""trial"",""time""
""fullscreenenter"",""1"",""2049""
","
","
","""event"",""trial"",""time""
""fullscreenenter"",""1"",""2049""
","
",,294.2,run_exp/static/images/task_images/land.jpg,76,,,,,,,2,,,10,,,,,,,,280846,1,1,TRUE,,,
travel,197,615011,0.0-59.0-0.0,"""event"",""trial"",""time""
""fullscreenenter"",""1"",""2049""
","
","
","""event"",""trial"",""time""
""fullscreenenter"",""1"",""2049""
","
",,,,,,,,,,,,"[{""stimulus"":""run_exp/static/images/task_images/rocket-01.jpg"",""time"":0.2999999523162842},{""stimulus"":""run_exp/static/images/task_images/rocket-02.jpg"",""time"":1080.5},{""stimulus"":""run_exp/static/images/task_images/rocket-03.jpg"",""time"":2160.6999999284744},{""stimulus"":""run_exp/static/images/task_images/rocket-04.jpg"",""time"":3249.0999999046326},{""stimulus"":""run_exp/static/images/task_images/rocket-05.jpg"",""time"":4320.799999952316},{""stimulus"":""run_exp/static/images/task_images/rocket-06.jpg"",""time"":5401.099999904633},{""stimulus"":""run_exp/static/images/task_images/rocket-07.jpg"",""time"":6480.199999928474},{""stimulus"":""run_exp/static/images/task_images/rocket-08.jpg"",""time"":7550.699999928474},{""stimulus"":""run_exp/static/images/task_images/rocket-09.jpg"",""time"":8640.399999976158}]",[],10,,,,,,,,,,,,,,
alien_welcome,198,620031,0.0-59.0-1.0,"""event"",""trial"",""time""
""fullscreenenter"",""1"",""2049""
","
","
","""event"",""trial"",""time""
""fullscreenenter"",""1"",""2049""
","
",,null,run_exp/static/images/task_images/aliens/old_aliens/planet/alien_planet-31.jpg,null,,,,,,,,,,,,,31,"28,48,59,5,17,66,4,70,1,6,31,23,77,27,12,62,67,73,37,41,65,80,42,74,18,15,75,21,40,54,50,51,36,52,46,55,64,69,14,49,11,33,39,61,68,2,76,8,72",,,,,,,,,,
land,199,620551,0.0-59.0-2.0,"""event"",""trial"",""time""
""fullscreenenter"",""1"",""2049""
","
","
","""event"",""trial"",""time""
""fullscreenenter"",""1"",""2049""
","
",,null,run_exp/static/images/task_images/land.jpg,null,,,,,,,102,,,11,,,,,,,,,,,,,,
dig,200,622571,0.0-59.0-3.0,"""event"",""trial"",""time""
""fullscreenenter"",""1"",""2049""
","
","
","""event"",""trial"",""time""
""fullscreenenter"",""1"",""2049""
","
",,,,,,,,,,,,"[{""stimulus"":""run_exp/static/images/task_images/dig.jpg"",""time"":0.3999999761581421},{""stimulus"":""run_exp/static/images/task_images/land.jpg"",""time"":678.3999999761581},{""stimulus"":""run_exp/static/images/task_images/dig.jpg"",""time"":1339.0999999046326}]",[],11,,,,,,,,,,,,,,
harvest,201,623591,0.0-59.0-4.0,"""event"",""trial"",""time""
""fullscreenenter"",""1"",""2049""
","
","
","""event"",""trial"",""time""
""fullscreenenter"",""1"",""2049""
","
",,null,run_exp/static/images/task_images/gems/102.jpg,null,,,,,,,18,,,11,,,,,102,0.179014038,0.176470588,,,,,,,
decision,202,623911,0.0-59.0-5.0,"""event"",""trial"",""time""
""fullscreenenter"",""1"",""2049""
","
","
","""event"",""trial"",""time""
""fullscreenenter"",""1"",""2049""
","
",,318.1999999,run_exp/static/images/task_images/land.jpg,65,,,,,,,18,,,11,,,,,,,,299470,1,0,FALSE,,,
dig,203,626611,0.0-60.0-0.0,"""event"",""trial"",""time""
""fullscreenenter"",""1"",""2049""
","
","
","""event"",""trial"",""time""
""fullscreenenter"",""1"",""2049""
","
",,,,,,,,,,,,"[{""stimulus"":""run_exp/static/images/task_images/dig.jpg"",""time"":0.2999999523162842},{""stimulus"":""run_exp/static/images/task_images/land.jpg"",""time"":896.3999999761581},{""stimulus"":""run_exp/static/images/task_images/dig.jpg"",""time"":1796.5}]",[],11,,,,,,,,,,,,,,
harvest,204,627631,0.0-60.0-1.0,"""event"",""trial"",""time""
""fullscreenenter"",""1"",""2049""
","
","
","""event"",""trial"",""time""
""fullscreenenter"",""1"",""2049""
","
",,null,run_exp/static/images/task_images/gems/18.jpg,null,,,,,,,3,,,11,,,,,18,0.187231901,0.166666667,,,,,,,
decision,205,627975,0.0-60.0-2.0,"""event"",""trial"",""time""
""fullscreenenter"",""1"",""2049""
","
","
","""event"",""trial"",""time""
""fullscreenenter"",""1"",""2049""
","
",,342.1999999,run_exp/static/images/task_images/land.jpg,76,,,,,,,3,,,11,,,,,,,,303534,1,1,TRUE,,,
end_of_block_continue,206,636821,0.0-61.0-0.0,"""event"",""trial"",""time""
""fullscreenenter"",""1"",""2049""
","
","
","""event"",""trial"",""time""
""fullscreenenter"",""1"",""2049""
","
",,null,run_exp/static/audio/clip_32_block_end.m4a,,,,,,,null,,,,,,,,,,,,,,,,,,
alien_welcome,207,641838,0.0-62.0-0.0,"""event"",""trial"",""time""
""fullscreenenter"",""1"",""2049""
","
","
","""event"",""trial"",""time""
""fullscreenenter"",""1"",""2049""
","
",,null,run_exp/static/images/task_images/aliens/old_aliens/planet/alien_planet-23.jpg,null,,,,,,,,,,,,,23,"28,48,59,5,17,66,4,70,1,6,31,23,77,27,12,62,67,73,37,41,65,80,42,74,18,15,75,21,40,54,50,51,36,52,46,55,64,69,14,49,11,33,39,61,68,2,76,8,72",,,,,,,,,,
land,208,642348,0.0-62.0-1.0,"""event"",""trial"",""time""
""fullscreenenter"",""1"",""2049""
","
","
","""event"",""trial"",""time""
""fullscreenenter"",""1"",""2049""
","
",,null,run_exp/static/images/task_images/land.jpg,null,,,,,,,104,,,12,,,,,,,,,,,,,,
dig,209,644360,0.0-62.0-2.0,"""event"",""trial"",""time""
""fullscreenenter"",""1"",""2049""
","
","
","""event"",""trial"",""time""
""fullscreenenter"",""1"",""2049""
","
",,,,,,,,,,,,"[{""stimulus"":""run_exp/static/images/task_images/dig.jpg"",""time"":0.3999999761581421},{""stimulus"":""run_exp/static/images/task_images/land.jpg"",""time"":680.1999999284744},{""stimulus"":""run_exp/static/images/task_images/dig.jpg"",""time"":1340.2999999523163}]",[],12,,,,,,,,,,,,,,
harvest,210,645370,0.0-62.0-3.0,"""event"",""trial"",""time""
""fullscreenenter"",""1"",""2049""
","
","
","""event"",""trial"",""time""
""fullscreenenter"",""1"",""2049""
","
",,null,run_exp/static/images/task_images/gems/104.jpg,null,,,,,,,13,,,12,,,,,104,0.12591778,0.125,,,,,,,
decision,211,646261,0.0-62.0-4.0,"""event"",""trial"",""time""
""fullscreenenter"",""1"",""2049""
","
","
","""event"",""trial"",""time""
""fullscreenenter"",""1"",""2049""
","
",,889.9,run_exp/static/images/task_images/land.jpg,65,,,,,,,13,,,12,,,,,,,,9437,2,0,FALSE,,,
dig,212,648380,0.0-63.0-0.0,"""event"",""trial"",""time""
""fullscreenenter"",""1"",""2049""
","
","
","""event"",""trial"",""time""
""fullscreenenter"",""1"",""2049""
","
",,,,,,,,,,,,"[{""stimulus"":""run_exp/static/images/task_images/dig.jpg"",""time"":0.10000002384185791},{""stimulus"":""run_exp/static/images/task_images/land.jpg"",""time"":714.1000000238419},{""stimulus"":""run_exp/static/images/task_images/dig.jpg"",""time"":1424.1000000238419}]",[],12,,,,,,,,,,,,,,
harvest,213,649399,0.0-63.0-1.0,"""event"",""trial"",""time""
""fullscreenenter"",""1"",""2049""
","
","
","""event"",""trial"",""time""
""fullscreenenter"",""1"",""2049""
","
",,null,run_exp/static/images/task_images/gems/13.jpg,null,,,,,,,2,,,12,,,,,13,0.182167148,0.153846154,,,,,,,
decision,214,649910,0.0-63.0-2.0,"""event"",""trial"",""time""
""fullscreenenter"",""1"",""2049""
","
","
","""event"",""trial"",""time""
""fullscreenenter"",""1"",""2049""
","
",,508.9000001,run_exp/static/images/task_images/land.jpg,76,,,,,,,2,,,12,,,,,,,,13086,2,1,TRUE,,,
travel,215,659415,0.0-64.0-0.0,"""event"",""trial"",""time""
""fullscreenenter"",""1"",""2049""
","
","
","""event"",""trial"",""time""
""fullscreenenter"",""1"",""2049""
","
",,,,,,,,,,,,"[{""stimulus"":""run_exp/static/images/task_images/rocket-01.jpg"",""time"":0.20000004768371582},{""stimulus"":""run_exp/static/images/task_images/rocket-02.jpg"",""time"":1066.2000000476837},{""stimulus"":""run_exp/static/images/task_images/rocket-03.jpg"",""time"":2125.9000000953674},{""stimulus"":""run_exp/static/images/task_images/rocket-04.jpg"",""time"":3176.4000000953674},{""stimulus"":""run_exp/static/images/task_images/rocket-05.jpg"",""time"":4226.200000047684},{""stimulus"":""run_exp/static/images/task_images/rocket-06.jpg"",""time"":5275.800000071526},{""stimulus"":""run_exp/static/images/task_images/rocket-07.jpg"",""time"":6326.400000095367},{""stimulus"":""run_exp/static/images/task_images/rocket-08.jpg"",""time"":7385.700000047684},{""stimulus"":""run_exp/static/images/task_images/rocket-09.jpg"",""time"":8446.200000047684}]",[],12,,,,,,,,,,,,,,
alien_welcome,216,664420,0.0-64.0-1.0,"""event"",""trial"",""time""
""fullscreenenter"",""1"",""2049""
","
","
","""event"",""trial"",""time""
""fullscreenenter"",""1"",""2049""
","
",,null,run_exp/static/images/task_images/aliens/old_aliens/planet/alien_planet-77.jpg,null,,,,,,,,,,,,,77,"28,48,59,5,17,66,4,70,1,6,31,23,77,27,12,62,67,73,37,41,65,80,42,74,18,15,75,21,40,54,50,51,36,52,46,55,64,69,14,49,11,33,39,61,68,2,76,8,72",,,,,,,,,,
land,217,664929,0.0-64.0-2.0,"""event"",""trial"",""time""
""fullscreenenter"",""1"",""2049""
","
","
","""event"",""trial"",""time""
""fullscreenenter"",""1"",""2049""
","
",,null,run_exp/static/images/task_images/land.jpg,null,,,,,,,104,,,13,,,,,,,,,,,,,,
dig,218,666939,0.0-64.0-3.0,"""event"",""trial"",""time""
""fullscreenenter"",""1"",""2049""
","
","
","""event"",""trial"",""time""
""fullscreenenter"",""1"",""2049""
","
",,,,,,,,,,,,"[{""stimulus"":""run_exp/static/images/task_images/dig.jpg"",""time"":0.2999999523162842},{""stimulus"":""run_exp/static/images/task_images/land.jpg"",""time"":669.2000000476837},{""stimulus"":""run_exp/static/images/task_images/dig.jpg"",""time"":1339.1000000238419}]",[],13,,,,,,,,,,,,,,
harvest,219,667959,0.0-64.0-4.0,"""event"",""trial"",""time""
""fullscreenenter"",""1"",""2049""
","
","
","""event"",""trial"",""time""
""fullscreenenter"",""1"",""2049""
","
",,null,run_exp/static/images/task_images/gems/104.jpg,null,,,,,,,14,,,13,,,,,104,0.132966635,0.134615385,,,,,,,
decision,220,668638,0.0-64.0-5.0,"""event"",""trial"",""time""
""fullscreenenter"",""1"",""2049""
","
","
","""event"",""trial"",""time""
""fullscreenenter"",""1"",""2049""
","
",,676.6999999,run_exp/static/images/task_images/land.jpg,65,,,,,,,14,,,13,,,,,,,,31814,2,0,FALSE,,,
dig,221,670980,0.0-65.0-0.0,"""event"",""trial"",""time""
""fullscreenenter"",""1"",""2049""
","
","
","""event"",""trial"",""time""
""fullscreenenter"",""1"",""2049""
","
",,,,,,,,,,,,"[{""stimulus"":""run_exp/static/images/task_images/dig.jpg"",""time"":0.20000004768371582},{""stimulus"":""run_exp/static/images/task_images/land.jpg"",""time"":788.2999999523163},{""stimulus"":""run_exp/static/images/task_images/dig.jpg"",""time"":1558.6000000238419}]",[],13,,,,,,,,,,,,,,
harvest,222,672000,0.0-65.0-1.0,"""event"",""trial"",""time""
""fullscreenenter"",""1"",""2049""
","
","
","""event"",""trial"",""time""
""fullscreenenter"",""1"",""2049""
","
",,null,run_exp/static/images/task_images/gems/14.jpg,null,,,,,,,3,,,13,,,,,14,0.21437379,0.214285714,,,,,,,
decision,223,672317,0.0-65.0-2.0,"""event"",""trial"",""time""
""fullscreenenter"",""1"",""2049""
","
","
","""event"",""trial"",""time""
""fullscreenenter"",""1"",""2049""
","
",,316.3,run_exp/static/images/task_images/land.jpg,76,,,,,,,3,,,13,,,,,,,,35494,2,1,TRUE,,,
travel,224,681999,0.0-66.0-0.0,"""event"",""trial"",""time""
""fullscreenenter"",""1"",""2049""
","
","
","""event"",""trial"",""time""
""fullscreenenter"",""1"",""2049""
","
",,,,,,,,,,,,"[{""stimulus"":""run_exp/static/images/task_images/rocket-01.jpg"",""time"":0.20000004768371582},{""stimulus"":""run_exp/static/images/task_images/rocket-02.jpg"",""time"":1078},{""stimulus"":""run_exp/static/images/task_images/rocket-03.jpg"",""time"":2158.3000000715256},{""stimulus"":""run_exp/static/images/task_images/rocket-04.jpg"",""time"":3238},{""stimulus"":""run_exp/static/images/task_images/rocket-05.jpg"",""time"":4318.300000071526},{""stimulus"":""run_exp/static/images/task_images/rocket-06.jpg"",""time"":5387.200000047684},{""stimulus"":""run_exp/static/images/task_images/rocket-07.jpg"",""time"":6467.900000095367},{""stimulus"":""run_exp/static/images/task_images/rocket-08.jpg"",""time"":7537.700000047684},{""stimulus"":""run_exp/static/images/task_images/rocket-09.jpg"",""time"":8617.900000095367}]",[],13,,,,,,,,,,,,,,
alien_welcome,225,687010,0.0-66.0-1.0,"""event"",""trial"",""time""
""fullscreenenter"",""1"",""2049""
","
","
","""event"",""trial"",""time""
""fullscreenenter"",""1"",""2049""
","
",,null,run_exp/static/images/task_images/aliens/old_aliens/planet/alien_planet-27.jpg,null,,,,,,,,,,,,,27,"28,48,59,5,17,66,4,70,1,6,31,23,77,27,12,62,67,73,37,41,65,80,42,74,18,15,75,21,40,54,50,51,36,52,46,55,64,69,14,49,11,33,39,61,68,2,76,8,72",,,,,,,,,,
land,226,687520,0.0-66.0-2.0,"""event"",""trial"",""time""
""fullscreenenter"",""1"",""2049""
","
","
","""event"",""trial"",""time""
""fullscreenenter"",""1"",""2049""
","
",,null,run_exp/static/images/task_images/land.jpg,null,,,,,,,97,,,14,,,,,,,,,,,,,,
dig,227,689530,0.0-66.0-3.0,"""event"",""trial"",""time""
""fullscreenenter"",""1"",""2049""
","
","
","""event"",""trial"",""time""
""fullscreenenter"",""1"",""2049""
","
",,,,,,,,,,,,"[{""stimulus"":""run_exp/static/images/task_images/dig.jpg"",""time"":0.3999999761581421},{""stimulus"":""run_exp/static/images/task_images/land.jpg"",""time"":688},{""stimulus"":""run_exp/static/images/task_images/dig.jpg"",""time"":1348.6000000238419}]",[],14,,,,,,,,,,,,,,
harvest,228,690540,0.0-66.0-4.0,"""event"",""trial"",""time""
""fullscreenenter"",""1"",""2049""
","
","
","""event"",""trial"",""time""
""fullscreenenter"",""1"",""2049""
","
",,null,run_exp/static/images/task_images/gems/97.jpg,null,,,,,,,32,,,14,,,,,97,0.332194473,0.329896907,,,,,,,
decision,229,691646,0.0-66.0-5.0,"""event"",""trial"",""time""
""fullscreenenter"",""1"",""2049""
","
","
","""event"",""trial"",""time""
""fullscreenenter"",""1"",""2049""
","
",,1104.6,run_exp/static/images/task_images/land.jpg,65,,,,,,,32,,,14,,,,,,,,54822,2,0,FALSE,,,
dig,230,693556,0.0-67.0-0.0,"""event"",""trial"",""time""
""fullscreenenter"",""1"",""2049""
","
","
","""event"",""trial"",""time""
""fullscreenenter"",""1"",""2049""
","
",,,,,,,,,,,,"[{""stimulus"":""run_exp/static/images/task_images/dig.jpg"",""time"":0.19999992847442627},{""stimulus"":""run_exp/static/images/task_images/land.jpg"",""time"":635.7999999523163},{""stimulus"":""run_exp/static/images/task_images/dig.jpg"",""time"":1280.5999999046326}]",[],14,,,,,,,,,,,,,,
harvest,231,694570,0.0-67.0-1.0,"""event"",""trial"",""time""
""fullscreenenter"",""1"",""2049""
","
","
","""event"",""trial"",""time""
""fullscreenenter"",""1"",""2049""
","
",,null,run_exp/static/images/task_images/gems/32.jpg,null,,,,,,,8,,,14,,,,,32,0.234462559,0.25,,,,,,,
decision,232,695405,0.0-67.0-2.0,"""event"",""trial"",""time""
""fullscreenenter"",""1"",""2049""
","
","
","""event"",""trial"",""time""
""fullscreenenter"",""1"",""2049""
","
",,834.1,run_exp/static/images/task_images/land.jpg,65,,,,,,,8,,,14,,,,,,,,58582,2,1,FALSE,,,
dig,233,697581,0.0-68.0-0.0,"""event"",""trial"",""time""
""fullscreenenter"",""1"",""2049""
","
","
","""event"",""trial"",""time""
""fullscreenenter"",""1"",""2049""
","
",,,,,,,,,,,,"[{""stimulus"":""run_exp/static/images/task_images/dig.jpg"",""time"":0.19999992847442627},{""stimulus"":""run_exp/static/images/task_images/land.jpg"",""time"":726.0999999046326},{""stimulus"":""run_exp/static/images/task_images/dig.jpg"",""time"":1451}]",[],14,,,,,,,,,,,,,,
harvest,234,698601,0.0-68.0-1.0,"""event"",""trial"",""time""
""fullscreenenter"",""1"",""2049""
","
","
","""event"",""trial"",""time""
""fullscreenenter"",""1"",""2049""
","
",,null,run_exp/static/images/task_images/gems/8.jpg,null,,,,,,,2,,,14,,,,,8,0.227689929,0.25,,,,,,,
decision,235,699638,0.0-68.0-2.0,"""event"",""trial"",""time""
""fullscreenenter"",""1"",""2049""
","
","
","""event"",""trial"",""time""
""fullscreenenter"",""1"",""2049""
","
",,1035.3,run_exp/static/images/task_images/land.jpg,76,,,,,,,2,,,14,,,,,,,,62814,2,2,TRUE,,,
travel,236,708621,0.0-69.0-0.0,"""event"",""trial"",""time""
""fullscreenenter"",""1"",""2049""
","
","
","""event"",""trial"",""time""
""fullscreenenter"",""1"",""2049""
","
",,,,,,,,,,,,"[{""stimulus"":""run_exp/static/images/task_images/rocket-01.jpg"",""time"":0.19999992847442627},{""stimulus"":""run_exp/static/images/task_images/rocket-02.jpg"",""time"":998.6999999284744},{""stimulus"":""run_exp/static/images/task_images/rocket-03.jpg"",""time"":1998.7999999523163},{""stimulus"":""run_exp/static/images/task_images/rocket-04.jpg"",""time"":2998.7999999523163},{""stimulus"":""run_exp/static/images/task_images/rocket-05.jpg"",""time"":3998.6999999284744},{""stimulus"":""run_exp/static/images/task_images/rocket-06.jpg"",""time"":4998.399999976158},{""stimulus"":""run_exp/static/images/task_images/rocket-07.jpg"",""time"":5988.699999928474},{""stimulus"":""run_exp/static/images/task_images/rocket-08.jpg"",""time"":6978.799999952316},{""stimulus"":""run_exp/static/images/task_images/rocket-09.jpg"",""time"":7978.600000023842}]",[],14,,,,,,,,,,,,,,
alien_welcome,237,713640,0.0-69.0-1.0,"""event"",""trial"",""time""
""fullscreenenter"",""1"",""2049""
","
","
","""event"",""trial"",""time""
""fullscreenenter"",""1"",""2049""
","
",,null,run_exp/static/images/task_images/aliens/old_aliens/planet/alien_planet-12.jpg,null,,,,,,,,,,,,,12,"28,48,59,5,17,66,4,70,1,6,31,23,77,27,12,62,67,73,37,41,65,80,42,74,18,15,75,21,40,54,50,51,36,52,46,55,64,69,14,49,11,33,39,61,68,2,76,8,72",,,,,,,,,,
land,238,714151,0.0-69.0-2.0,"""event"",""trial"",""time""
""fullscreenenter"",""1"",""2049""
","
","
","""event"",""trial"",""time""
""fullscreenenter"",""1"",""2049""
","
",,null,run_exp/static/images/task_images/land.jpg,null,,,,,,,94,,,15,,,,,,,,,,,,,,
dig,239,716171,0.0-69.0-3.0,"""event"",""trial"",""time""
""fullscreenenter"",""1"",""2049""
","
","
","""event"",""trial"",""time""
""fullscreenenter"",""1"",""2049""
","
