trial_type,trial_index,time_elapsed,internal_node_id,interactions,blur_events,focus_events,fullscreenenter_events,fullscreenexit_events,success,rt,stimulus,key_press,prompt,subject_id,participant_id,age,gender,button_pressed,next_reward,animation_sequence,responses,planet,curr_prac_trial,n_prac_rounds,alien,aliens,reward_received,decay_rate_actual,decay_rate_exp,time_in_block,block_num,prt,last_trial_on_planet,button_html,bonus,num_failures
pavlovia,0,12,0.0-0.0,"""event"",""trial"",""time""
""fullscreenenter"",""1"",""7895""
","
","
","""event"",""trial"",""time""
""fullscreenenter"",""1"",""7895""
","
",,,,,,,,,,,,,,,,,,,,,,,,,,,,
fullscreen,1,8871,0.0-1.0,"""event"",""trial"",""time""
""fullscreenenter"",""1"",""7895""
","
","
","""event"",""trial"",""time""
""fullscreenenter"",""1"",""7895""
","
",TRUE,,,,,,,,,,,,,,,,,,,,,,,,,,,
instruc_welcome,2,18766,0.0-2.0,"""event"",""trial"",""time""
""fullscreenenter"",""1"",""7895""
","
","
","""event"",""trial"",""time""
""fullscreenenter"",""1"",""7895""
","
",,null,run_exp/static/audio/clip_1_welcome.m4a,null,"<p>Howdy! In this experiment, you’ll be an explorer traveling through space to collect space treasure.</p><p>Your mission is to collect as much treasure as possible.</p><br><br><p><img src='run_exp/static/images/task_images/opening_img-01.jpg' height='300' width='auto'></p>",9322,2386,14.67,Female,,,,,,,,,,,,,,,,,,,
audio-keyboard-response,3,35798,0.0-3.0,"""event"",""trial"",""time""
""fullscreenenter"",""1"",""7895""
","
","
","""event"",""trial"",""time""
""fullscreenenter"",""1"",""7895""
","
",,null,run_exp/static/audio/clip_2_move.m4a,null,,,,,,,,,,,,,,,,,,,,,,,,
welcome_dec,4,40609,0.0-4.0,"""event"",""trial"",""time""
""fullscreenenter"",""1"",""7895""
","
","
","""event"",""trial"",""time""
""fullscreenenter"",""1"",""7895""
","
",,4807.5,"<p>Howdy! In this experiment, you’ll be an explorer traveling through space to collect space treasure.</p><p>Your mission is to collect as much treasure as possible.</p><br><br><p><img src='run_exp/static/images/task_images/opening_img-01.jpg' height='300' width='auto'></p>",,,,,,,1,,,,,,,,,,,,,,,,,,
html-keyboard-response,5,41984,0.0-5.0,"""event"",""trial"",""time""
""fullscreenenter"",""1"",""7895""
","
","
","""event"",""trial"",""time""
""fullscreenenter"",""1"",""7895""
","
",,1372.4,"<p>Howdy! In this experiment, you’ll be an explorer traveling through space to collect space treasure.</p><p>Your mission is to collect as much treasure as possible.</p><br><br><p><img src='run_exp/static/images/task_images/opening_img-01.jpg' height='300' width='auto'></p><button class=""jspsych-html-btn-unchosen""><img src=""run_exp/static/images/task_images/planet-01.jpg"" height=""50""></button><button class=""jspsych-html-btn-chosen""><img src=""run_exp/static/images/task_images/planet-02.jpg"" height=""50""></button><p><b>[press the space bar to lock in your answer]<b><br></p>",32,,,,,,,,,,,,,,,,,,,,,,,,
instruc_goal,6,52447,0.0-6.0-0.0,"""event"",""trial"",""time""
""fullscreenenter"",""1"",""7895""
","
","
","""event"",""trial"",""time""
""fullscreenenter"",""1"",""7895""
","
",,null,run_exp/static/audio/clip_3_goal.m4a,null,"<p> As a space explorer, you’ll visit different planets to dig for space treasure, these pink gems.</p> <p> The more treasure you dig up, the more bonus money you’ll win! </p><br><br><p><img src='run_exp/static/images/task_images/pink_gem.jpg' height='300' width='auto'></p>",,,,,,,,,,,,,,,,,,,,,,,
instruc_goal,7,59188,0.0-6.0-1.0,"""event"",""trial"",""time""
""fullscreenenter"",""1"",""7895""
","
","
","""event"",""trial"",""time""
""fullscreenenter"",""1"",""7895""
","
",,6737.6,"<p> As a space explorer, you’ll visit different planets to dig for space treasure, these pink gems.</p> <p> The more treasure you dig up, the more bonus money you’ll win! </p><br><br><p><img src='run_exp/static/images/task_images/pink_gem.jpg' height='300' width='auto'></p>",,,,,,,1,,,,,,,,,,,,,,,,,,
html-keyboard-response,8,60063,0.0-6.0-2.0,"""event"",""trial"",""time""
""fullscreenenter"",""1"",""7895""
","
","
","""event"",""trial"",""time""
""fullscreenenter"",""1"",""7895""
","
",,871.8,"<p> As a space explorer, you’ll visit different planets to dig for space treasure, these pink gems.</p> <p> The more treasure you dig up, the more bonus money you’ll win! </p><br><br><p><img src='run_exp/static/images/task_images/pink_gem.jpg' height='300' width='auto'></p><button class=""jspsych-html-btn-unchosen""><img src=""run_exp/static/images/task_images/planet-01.jpg"" height=""50""></button><button class=""jspsych-html-btn-chosen""><img src=""run_exp/static/images/task_images/planet-02.jpg"" height=""50""></button><p><b>[press the space bar to lock in your answer]<b><br></p>",32,,,,,,,,,,,,,,,,,,,,,,,,
instruc_dig,9,76395,0.0-7.0-0.0,"""event"",""trial"",""time""
""fullscreenenter"",""1"",""7895""
","
","
","""event"",""trial"",""time""
""fullscreenenter"",""1"",""7895""
","
",,null,run_exp/static/audio/clip_4_dig.m4a,null,,,,,,,100,,,,,,,,,,,,,,,,,
instruc_dig_try,10,90907,0.0-7.0-1.0,"""event"",""trial"",""time""
""fullscreenenter"",""1"",""7895""
","
","
","""event"",""trial"",""time""
""fullscreenenter"",""1"",""7895""
","
",,14507.4,"<p> When you’ve arrived at a new planet, you will dig once. </p> <p>Then, you get to decide if you want to stay on the planet and dig again or travel to a new planet and dig there.</p> <p> To stay and dig, press the letter <strong>‘A’</strong> on your keyboard. Try pressing it now! </p><p><img src='run_exp/static/images/task_images/land.jpg'  height='700' width='auto'></p>",65,"<p> When you’ve arrived at a new planet, you will dig once. </p> <p>Then, you get to decide if you want to stay on the planet and dig again or travel to a new planet and dig there.</p> <p> To stay and dig, press the letter <strong>‘A’</strong> on your keyboard. Try pressing it now! </p><p><img src='run_exp/static/images/task_images/land.jpg'  height='700' width='auto'></p>",,,,,,100,,,,,,,,,,,,,,,,,
dig_prac,11,92919,0.0-7.0-2.0,"""event"",""trial"",""time""
""fullscreenenter"",""1"",""7895""
","
","
","""event"",""trial"",""time""
""fullscreenenter"",""1"",""7895""
","
",,,,,,,,,,,,"[{""stimulus"":""run_exp/static/images/task_images/dig.jpg"",""time"":0.5999999977648258},{""stimulus"":""run_exp/static/images/task_images/land.jpg"",""time"":668.6999999992549},{""stimulus"":""run_exp/static/images/task_images/dig.jpg"",""time"":1341.2999999970198}]",[],,,,,,,,,,,,,,,
instruc_travel,12,129373,0.0-7.0-3.0,"""event"",""trial"",""time""
""fullscreenenter"",""1"",""7895""
","
","
","""event"",""trial"",""time""
""fullscreenenter"",""1"",""7895""
","
",,null,run_exp/static/audio/clip_5_travel.m4a,null,"<p>Every time you dig up gems, there are less gems on the planet, so the more you dig on a planet the fewer gems you’ll get with each dig.</p><p>When gems are running low, you may want to travel to a new planet. </p> <p>  Planets are very far apart in this galaxy, so it will take some time to travel between them. </p> <br><p>There are lots and lots of planets for you to visit, so you won’t be able to return to any planets you’ve seen before. </p><br><p>To leave this planet and travel to a new one, press the letter <strong>‘L’</strong> on your keyboard. Try pressing it now! </p><p><img src='run_exp/static/images/task_images/rocket-01.jpg'  height='600' width='auto'></p>",,,,,,,,,,,,,,,,,,,,,,,
instruc_travel_try,13,134557,0.0-7.0-4.0,"""event"",""trial"",""time""
""fullscreenenter"",""1"",""7895""
","
","
","""event"",""trial"",""time""
""fullscreenenter"",""1"",""7895""
","
",,5179.3,"<p>Every time you dig up gems, there are less gems on the planet, so the more you dig on a planet the fewer gems you’ll get with each dig.</p><p>When gems are running low, you may want to travel to a new planet. </p> <p>  Planets are very far apart in this galaxy, so it will take some time to travel between them. </p> <br><p>There are lots and lots of planets for you to visit, so you won’t be able to return to any planets you’ve seen before. </p><br><p>To leave this planet and travel to a new one, press the letter <strong>‘L’</strong> on your keyboard. Try pressing it now! </p><p><img src='run_exp/static/images/task_images/rocket-01.jpg'  height='600' width='auto'></p>",76,"<p>Every time you dig up gems, there are less gems on the planet, so the more you dig on a planet the fewer gems you’ll get with each dig.</p><p>When gems are running low, you may want to travel to a new planet. </p> <p>  Planets are very far apart in this galaxy, so it will take some time to travel between them. </p> <br><p>There are lots and lots of planets for you to visit, so you won’t be able to return to any planets you’ve seen before. </p><br><p>To leave this planet and travel to a new one, press the letter <strong>‘L’</strong> on your keyboard. Try pressing it now! </p><p><img src='run_exp/static/images/task_images/rocket-01.jpg'  height='600' width='auto'></p>",,,,,,,,,,,,,,,,,,,,,,,
travel_prac,14,144567,0.0-7.0-5.0,"""event"",""trial"",""time""
""fullscreenenter"",""1"",""7895""
","
","
","""event"",""trial"",""time""
""fullscreenenter"",""1"",""7895""
","
",,,,,,,,,,,,"[{""stimulus"":""run_exp/static/images/task_images/rocket-01.jpg"",""time"":0.3999999985098839},{""stimulus"":""run_exp/static/images/task_images/rocket-02.jpg"",""time"":1112.8999999985099},{""stimulus"":""run_exp/static/images/task_images/rocket-03.jpg"",""time"":2223.7999999970198},{""stimulus"":""run_exp/static/images/task_images/rocket-04.jpg"",""time"":3335.89999999851},{""stimulus"":""run_exp/static/images/task_images/rocket-05.jpg"",""time"":4448.79999999702},{""stimulus"":""run_exp/static/images/task_images/rocket-06.jpg"",""time"":5559.79999999702},{""stimulus"":""run_exp/static/images/task_images/rocket-07.jpg"",""time"":6671.699999999255},{""stimulus"":""run_exp/static/images/task_images/rocket-08.jpg"",""time"":7784.099999997765},{""stimulus"":""run_exp/static/images/task_images/rocket-09.jpg"",""time"":8896}]",[],0,,,,,,,,,,,,,,
instruc_alien_greet,15,171936,0.0-7.0-6.0,"""event"",""trial"",""time""
""fullscreenenter"",""1"",""7895""
","
","
","""event"",""trial"",""time""
""fullscreenenter"",""1"",""7895""
","
",,null,run_exp/static/audio/clip_6_alien.m4a,null,"<p>When you arrive at a new planet, the alien who owns the treasure mine on that planet will greet you!</p><p>The better an alien takes care of their mine the easier it is to dig for gems. Some aliens take better care of their mine than others. So, you won’t get exactly the same amount of gems on each planet.</p><p>What the alien looks like does not tell you anything about how many gems there are on the planet.</p><br><p><img src=""run_exp/static/images/task_images/aliens/instructions_aliens/planet/alien_planet-1.jpg""  height=""600"" width=""auto""></p>",,,,,,,,,,,,,,,,,,,,,,,
instruc_alien_greet,16,178173,0.0-7.0-7.0,"""event"",""trial"",""time""
""fullscreenenter"",""1"",""7895""
","
","
","""event"",""trial"",""time""
""fullscreenenter"",""1"",""7895""
","
",,6234.6,"<p>When you arrive at a new planet, the alien who owns the treasure mine on that planet will greet you!</p><p>The better an alien takes care of their mine the easier it is to dig for gems. Some aliens take better care of their mine than others. So, you won’t get exactly the same amount of gems on each planet.</p><p>What the alien looks like does not tell you anything about how many gems there are on the planet.</p><br><p><img src=""run_exp/static/images/task_images/aliens/instructions_aliens/planet/alien_planet-1.jpg""  height=""600"" width=""auto""></p>",,,,,,,1,,,,,,,,,,,,,,,,,,
html-keyboard-response,17,198784,0.0-7.0-8.0,"""event"",""trial"",""time""
""fullscreenenter"",""1"",""7895""
","
","
","""event"",""trial"",""time""
""fullscreenenter"",""1"",""7895""
","
",,20607.8,"<p>When you arrive at a new planet, the alien who owns the treasure mine on that planet will greet you!</p><p>The better an alien takes care of their mine the easier it is to dig for gems. Some aliens take better care of their mine than others. So, you won’t get exactly the same amount of gems on each planet.</p><p>What the alien looks like does not tell you anything about how many gems there are on the planet.</p><br><p><img src=""run_exp/static/images/task_images/aliens/instructions_aliens/planet/alien_planet-1.jpg""  height=""600"" width=""auto""></p><button class=""jspsych-html-btn-unchosen""><img src=""run_exp/static/images/task_images/planet-01.jpg"" height=""50""></button><button class=""jspsych-html-btn-chosen""><img src=""run_exp/static/images/task_images/planet-02.jpg"" height=""50""></button><p><b>[press the space bar to lock in your answer]<b><br></p>",32,,,,,,,,,,,,,,,,,,,,,,,,
time_out,18,210160,0.0-8.0-0.0,"""event"",""trial"",""time""
""fullscreenenter"",""1"",""7895""
","
","
","""event"",""trial"",""time""
""fullscreenenter"",""1"",""7895""
","
",,null,run_exp/static/audio/clip_7_timeout.m4a,null,"<p>If you don't make your choice fast enough, you’ll have to wait a few seconds before you can make another one.</p><p>You can’t dig for more gems or travel to new planets. You just have to sit and wait.</p><br><p><img src='run_exp/static/images/task_images/time_out.jpg'  height='600' width='auto'></p>",,,,,,,,,,,,,,,,,,,,,,,
time_out,19,212274,0.0-8.0-1.0,"""event"",""trial"",""time""
""fullscreenenter"",""1"",""7895""
","
","
","""event"",""trial"",""time""
""fullscreenenter"",""1"",""7895""
","
",,2110.7,"<p>If you don't make your choice fast enough, you’ll have to wait a few seconds before you can make another one.</p><p>You can’t dig for more gems or travel to new planets. You just have to sit and wait.</p><br><p><img src='run_exp/static/images/task_images/time_out.jpg'  height='600' width='auto'></p>",,,,,,,1,,,,,,,,,,,,,,,,,,
html-keyboard-response,20,219349,0.0-8.0-2.0,"""event"",""trial"",""time""
""fullscreenenter"",""1"",""7895""
","
","
","""event"",""trial"",""time""
""fullscreenenter"",""1"",""7895""
","
",,7072.8,"<p>If you don't make your choice fast enough, you’ll have to wait a few seconds before you can make another one.</p><p>You can’t dig for more gems or travel to new planets. You just have to sit and wait.</p><br><p><img src='run_exp/static/images/task_images/time_out.jpg'  height='600' width='auto'></p><button class=""jspsych-html-btn-unchosen""><img src=""run_exp/static/images/task_images/planet-01.jpg"" height=""50""></button><button class=""jspsych-html-btn-chosen""><img src=""run_exp/static/images/task_images/planet-02.jpg"" height=""50""></button><p><b>[press the space bar to lock in your answer]<b><br></p>",32,,,,,,,,,,,,,,,,,,,,,,,,
instruc_break,21,235261,0.0-9.0-0.0,"""event"",""trial"",""time""
""fullscreenenter"",""1"",""7895""
","
","
","""event"",""trial"",""time""
""fullscreenenter"",""1"",""7895""
","
",,null,run_exp/static/audio/clip_8_break.m4a,null,"<p> After digging and traveling for a while, you’ll be able to take a break at home base. </p><p>The game will last 20 minutes no matter what.</p><p>You will visit home base every 5 minutes, so, you will visit home base three times during the game.</p><br><p><img src='run_exp/static/images/task_images/home_base.jpg' height='600' width='auto'></p>",,,,,,,,,,,,,,,,,,,,,,,
instruc_break,22,238142,0.0-9.0-1.0,"""event"",""trial"",""time""
""fullscreenenter"",""1"",""7895""
","
","
","""event"",""trial"",""time""
""fullscreenenter"",""1"",""7895""
","
",,2876.8,"<p> After digging and traveling for a while, you’ll be able to take a break at home base. </p><p>The game will last 20 minutes no matter what.</p><p>You will visit home base every 5 minutes, so, you will visit home base three times during the game.</p><br><p><img src='run_exp/static/images/task_images/home_base.jpg' height='600' width='auto'></p>",,,,,,,1,,,,,,,,,,,,,,,,,,
html-keyboard-response,23,249341,0.0-9.0-2.0,"""event"",""trial"",""time""
""fullscreenenter"",""1"",""7895""
","
","
","""event"",""trial"",""time""
""fullscreenenter"",""1"",""7895""
","
",,11196.3,"<p> After digging and traveling for a while, you’ll be able to take a break at home base. </p><p>The game will last 20 minutes no matter what.</p><p>You will visit home base every 5 minutes, so, you will visit home base three times during the game.</p><br><p><img src='run_exp/static/images/task_images/home_base.jpg' height='600' width='auto'></p><button class=""jspsych-html-btn-unchosen""><img src=""run_exp/static/images/task_images/planet-01.jpg"" height=""50""></button><button class=""jspsych-html-btn-chosen""><img src=""run_exp/static/images/task_images/planet-02.jpg"" height=""50""></button><p><b>[press the space bar to lock in your answer]<b><br></p>",32,,,,,,,,,,,,,,,,,,,,,,,,
instruc_prac_game,24,259601,0.0-10.0-0.0,"""event"",""trial"",""time""
""fullscreenenter"",""1"",""7895""
","
","
","""event"",""trial"",""time""
""fullscreenenter"",""1"",""7895""
","
",,null,run_exp/static/audio/clip_9_practice.m4a,null,"<p> Are you ready to play a practice game? </p> <p>In this practice game, you'll be digging up barrels of gems. But, in the real game, you'll be digging up the gems themselves. </p>",,,,,,,,,,,,,,,,,,,,,,,
html-button-response,25,263535,0.0-10.0-1.0,"""event"",""trial"",""time""
""fullscreenenter"",""1"",""7895""
","
","
","""event"",""trial"",""time""
""fullscreenenter"",""1"",""7895""
","
",,3929.5,"<p> Are you ready to play a practice game? </p> <p>In this practice game, you'll be digging up barrels of gems. But, in the real game, you'll be digging up the gems themselves. </p>",,,,,,,0,,,,,,,,,,,,,,,,,,
alien_welcome_prac,26,268543,0.0-11.0-0.0,"""event"",""trial"",""time""
""fullscreenenter"",""1"",""7895""
","
","
","""event"",""trial"",""time""
""fullscreenenter"",""1"",""7895""
","
",,null,run_exp/static/images/task_images/aliens/practice_aliens/planet/alien_planet-5.jpg,null,,,,,,,,,,,,,,,,,,,,,,,,
land_prac,27,269047,0.0-11.0-1.0,"""event"",""trial"",""time""
""fullscreenenter"",""1"",""7895""
","
","
","""event"",""trial"",""time""
""fullscreenenter"",""1"",""7895""
","
",,null,run_exp/static/images/task_images/land.jpg,null,,,,,,,101,,,0,,,,,,,,,,,,,,
dig_prac,28,271055,0.0-11.0-2.0,"""event"",""trial"",""time""
""fullscreenenter"",""1"",""7895""
","
","
","""event"",""trial"",""time""
""fullscreenenter"",""1"",""7895""
","
",,,,,,,,,,,,"[{""stimulus"":""run_exp/static/images/task_images/dig.jpg"",""time"":0.29999999701976776},{""stimulus"":""run_exp/static/images/task_images/land.jpg"",""time"":669.8999999985099},{""stimulus"":""run_exp/static/images/task_images/dig.jpg"",""time"":1342}]",[],,,,,,,,,,,,,,,
harvest_prac,29,272063,0.0-11.0-3.0,"""event"",""trial"",""time""
""fullscreenenter"",""1"",""7895""
","
","
","""event"",""trial"",""time""
""fullscreenenter"",""1"",""7895""
","
",,null,run_exp/static/images/task_images/barrel_text.jpg,null,,,,,,,,,,,,,,,,,,,,,,,,
decision_prac,30,272954,0.0-11.0-4.0,"""event"",""trial"",""time""
""fullscreenenter"",""1"",""7895""
","
","
","""event"",""trial"",""time""
""fullscreenenter"",""1"",""7895""
","
",,889.4,run_exp/static/images/task_images/land.jpg,65,,,,,,,,,,,1,,,,,,,,,,,,,
dig_prac,31,274967,0.0-12.0-0.0,"""event"",""trial"",""time""
""fullscreenenter"",""1"",""7895""
","
","
","""event"",""trial"",""time""
""fullscreenenter"",""1"",""7895""
","
",,,,,,,,,,,,"[{""stimulus"":""run_exp/static/images/task_images/dig.jpg"",""time"":0.30000000074505806},{""stimulus"":""run_exp/static/images/task_images/land.jpg"",""time"":672.5999999977648},{""stimulus"":""run_exp/static/images/task_images/dig.jpg"",""time"":1336.5999999977648}]",[],,,,,,,,,,,,,,,
harvest_prac,32,275975,0.0-12.0-1.0,"""event"",""trial"",""time""
""fullscreenenter"",""1"",""7895""
","
","
","""event"",""trial"",""time""
""fullscreenenter"",""1"",""7895""
","
",,null,run_exp/static/images/task_images/barrel_text.jpg,null,,,,,,,,,,,,,,,,,,,,,,,,
decision_prac,33,278132,0.0-12.0-2.0,"""event"",""trial"",""time""
""fullscreenenter"",""1"",""7895""
","
","
","""event"",""trial"",""time""
""fullscreenenter"",""1"",""7895""
","
",,2156,run_exp/static/images/task_images/land.jpg,65,,,,,,,,,,,2,,,,,,,,,,,,,
dig_prac,34,280143,0.0-13.0-0.0,"""event"",""trial"",""time""
""fullscreenenter"",""1"",""7895""
","
","
","""event"",""trial"",""time""
""fullscreenenter"",""1"",""7895""
","
",,,,,,,,,,,,"[{""stimulus"":""run_exp/static/images/task_images/dig.jpg"",""time"":0.19999999925494194},{""stimulus"":""run_exp/static/images/task_images/land.jpg"",""time"":671.5999999977648},{""stimulus"":""run_exp/static/images/task_images/dig.jpg"",""time"":1343.0999999977648}]",[],,,,,,,,,,,,,,,
harvest_prac,35,281151,0.0-13.0-1.0,"""event"",""trial"",""time""
""fullscreenenter"",""1"",""7895""
","
","
","""event"",""trial"",""time""
""fullscreenenter"",""1"",""7895""
","
",,null,run_exp/static/images/task_images/barrel_text.jpg,null,,,,,,,,,,,,,,,,,,,,,,,,
decision_prac,36,282636,0.0-13.0-2.0,"""event"",""trial"",""time""
""fullscreenenter"",""1"",""7895""
","
","
","""event"",""trial"",""time""
""fullscreenenter"",""1"",""7895""
","
",,1483.6,run_exp/static/images/task_images/land.jpg,65,,,,,,,,,,,3,,,,,,,,,,,,,
dig_prac,37,284647,0.0-14.0-0.0,"""event"",""trial"",""time""
""fullscreenenter"",""1"",""7895""
","
","
","""event"",""trial"",""time""
""fullscreenenter"",""1"",""7895""
","
",,,,,,,,,,,,"[{""stimulus"":""run_exp/static/images/task_images/dig.jpg"",""time"":0.30000000074505806},{""stimulus"":""run_exp/static/images/task_images/land.jpg"",""time"":672},{""stimulus"":""run_exp/static/images/task_images/dig.jpg"",""time"":1335.800000000745}]",[],,,,,,,,,,,,,,,
harvest_prac,38,285655,0.0-14.0-1.0,"""event"",""trial"",""time""
""fullscreenenter"",""1"",""7895""
","
","
","""event"",""trial"",""time""
""fullscreenenter"",""1"",""7895""
","
",,null,run_exp/static/images/task_images/barrel_text.jpg,null,,,,,,,,,,,,,,,,,,,,,,,,
decision_prac,39,288663,0.0-14.0-2.0,"""event"",""trial"",""time""
""fullscreenenter"",""1"",""7895""
","
","
","""event"",""trial"",""time""
""fullscreenenter"",""1"",""7895""
","
",,null,run_exp/static/images/task_images/land.jpg,null,,,,,,,,,,,4,,,,,,,,,,,,,
time_out,40,290672,0.0-15.0-0.0,"""event"",""trial"",""time""
""fullscreenenter"",""1"",""7895""
","
","
","""event"",""trial"",""time""
""fullscreenenter"",""1"",""7895""
","
",,null,run_exp/static/images/task_images/time_out.jpg,null,,,,,,,,,,,,,,,,,,,,,,,,
decision_prac,41,290722,0.0-15.0-1.0,"""event"",""trial"",""time""
""fullscreenenter"",""1"",""7895""
","
","
","""event"",""trial"",""time""
""fullscreenenter"",""1"",""7895""
","
",,48.7,run_exp/static/images/task_images/land.jpg,65,,,,,,,,,,,,1,,,,,,,,,,,,
quiz_instruc,42,294520,0.0-16.0-0.0,"""event"",""trial"",""time""
""fullscreenenter"",""1"",""7895""
","
","
","""event"",""trial"",""time""
""fullscreenenter"",""1"",""7895""
","
",,3791.7,run_exp/static/audio/clip_10_quiz.m4a,,,,,,,0,,,,,,,,,,,,,,,,,,
instruc_repeat,43,337637,0.0-16.0-1.0,"""event"",""trial"",""time""
""fullscreenenter"",""1"",""7895""
","
","
","""event"",""trial"",""time""
""fullscreenenter"",""1"",""7895""
","
",,null,"<p> Are you ready to play a practice game? </p> <p>In this practice game, you'll be digging up barrels of gems. But, in the real game, you'll be digging up the gems themselves. </p>",null,"<p>In this game, your goal is to collect as many gems as you can. That’s how you will win bonus money. </p> <p>The entire game will last 20 minutes no matter how many gems you collect or how many planets you visit. </p><p>To stay on a planet and dig again, press the letter A on your keyboard. To leave for a new planet, press the letter L.</p><p>The more you dig on a planet, the fewer gems you’ll get with each dig which is why you might consider leaving for a new planet. </p><p>When you arrive at a new planet, you’ll be greeted by an alien. What the alien looks like does not tell you anything about how much treasure is on the planet. </p>",,,,,,,,,,,,,,,,,,,,,,,
instruc_repeat_continue,44,340623,0.0-16.0-2.0,"""event"",""trial"",""time""
""fullscreenenter"",""1"",""7895""
","
","
","""event"",""trial"",""time""
""fullscreenenter"",""1"",""7895""
","
",,2981.4,"<p> Are you ready to play a practice game? </p> <p>In this practice game, you'll be digging up barrels of gems. But, in the real game, you'll be digging up the gems themselves. </p>",,,,,,,0,,,,,,,,,,,,,,,,,,
quiz_q_1_ask,45,345786,0.0-16.0-3.0,"""event"",""trial"",""time""
""fullscreenenter"",""1"",""7895""
","
","
","""event"",""trial"",""time""
""fullscreenenter"",""1"",""7895""
","
",,5160.1,run_exp/static/audio/clip_11_q1_ask.m4a,,,,,,,2,,,,,,,,,,,,,,,,,,
quiz_q_1_fb_correct,46,349931,0.0-17.0-0.0,"""event"",""trial"",""time""
""fullscreenenter"",""1"",""7895""
","
","
","""event"",""trial"",""time""
""fullscreenenter"",""1"",""7895""
","
",,null,run_exp/static/audio/clip_12_q1_correct.m4a,null,<p>That’s correct. You win extra money by collecting more gems.</p>,,,,,,,,,,,,,,,,,,,,,,,
quiz_q_2_ask,47,353052,0.0-17.0-1.0,"""event"",""trial"",""time""
""fullscreenenter"",""1"",""7895""
","
","
","""event"",""trial"",""time""
""fullscreenenter"",""1"",""7895""
","
",,3117.7,run_exp/static/audio/clip_14_q2_ask.m4a,,,,,,,1,,,,,,,,,,,,,,,,,,
quiz_q_2_fb_correct,48,357231,0.0-18.0-0.0,"""event"",""trial"",""time""
""fullscreenenter"",""1"",""7895""
","
","
","""event"",""trial"",""time""
""fullscreenenter"",""1"",""7895""
","
",,null,run_exp/static/audio/clip_15_q2_correct.m4a,null,<p>That’s correct. The experiment is 20 minutes no matter what.</p>,,,,,,,,,,,,,,,,,,,,,,,
quiz_q_3_ask,49,361769,0.0-18.0-1.0,"""event"",""trial"",""time""
""fullscreenenter"",""1"",""7895""
","
","
","""event"",""trial"",""time""
""fullscreenenter"",""1"",""7895""
","
",,4533.9,run_exp/static/audio/clip_17_q3_ask.m4a,,,,,,,1,,,,,,,,,,,,,,,,,,
quiz_q_3_fb_correct,50,366069,0.0-19.0-0.0,"""event"",""trial"",""time""
""fullscreenenter"",""1"",""7895""
","
","
","""event"",""trial"",""time""
""fullscreenenter"",""1"",""7895""
","
",,null,run_exp/static/audio/clip_18_q3_correct.m4a,null,<p> That’s correct. You press the letter L to travel to a new planet.</p>,,,,,,,,,,,,,,,,,,,,,,,
quiz_q_4_ask,51,372305,0.0-19.0-1.0,"""event"",""trial"",""time""
""fullscreenenter"",""1"",""7895""
","
","
","""event"",""trial"",""time""
""fullscreenenter"",""1"",""7895""
","
",,6224.9,run_exp/static/audio/clip_20_q4_ask.m4a,,,,,,,0,,,,,,,,,,,,,,,,,,
quiz_q_4_fb_correct,52,377850,0.0-20.0-0.0,"""event"",""trial"",""time""
""fullscreenenter"",""1"",""7895""
","
","
","""event"",""trial"",""time""
""fullscreenenter"",""1"",""7895""
","
",,null,run_exp/static/audio/clip_21_q4_correct.m4a,null,<p> That’s correct. The more you dig on a planet the fewer gems you’ll get with each dig. </p>,,,,,,,,,,,,,,,,,,,,,,,
quiz_q_5_ask,53,381103,0.0-20.0-1.0,"""event"",""trial"",""time""
""fullscreenenter"",""1"",""7895""
","
","
","""event"",""trial"",""time""
""fullscreenenter"",""1"",""7895""
","
",,3249.4,run_exp/static/audio/clip_23_q5_ask.m4a,,,,,,,1,,,,,,,,,,,,,,,,,,
quiz_q_5_fb_correct,54,386430,0.0-21.0-0.0,"""event"",""trial"",""time""
""fullscreenenter"",""1"",""7895""
","
","
","""event"",""trial"",""time""
""fullscreenenter"",""1"",""7895""
","
",,null,run_exp/static/audio/clip_24_q5_correct.m4a,null,<p> That’s correct. The alien tells you nothing about how much treasure is on the planet.</p>,,,,,,,,,,,,,,,,,,,,,,,
quiz_correct,55,390272,0.0-22.0-0.0,"""event"",""trial"",""time""
""fullscreenenter"",""1"",""7895""
","
","
","""event"",""trial"",""time""
""fullscreenenter"",""1"",""7895""
","
",,null,run_exp/static/audio/clip_26_correct_quiz.m4a,null,,,,,,,,,,,,,,,,,,,,,,,,
quiz_correct_continue,56,391686,0.0-22.0-1.0,"""event"",""trial"",""time""
""fullscreenenter"",""1"",""7895""
","
","
","""event"",""trial"",""time""
""fullscreenenter"",""1"",""7895""
","
",,1411.9,<p>Good job! You're now ready to move on to the real game!</p>,,,,,,,0,,,,,,,,,,,,,,,,,,
audio-keyboard-response,57,402182,0.0-22.0-2.0,"""event"",""trial"",""time""
""fullscreenenter"",""1"",""7895""
","
","
","""event"",""trial"",""time""
""fullscreenenter"",""1"",""7895""
","
",,null,run_exp/static/audio/clip_28_real_game.m4a,null,,,,,,,,,,,,,,,,,,,,,,,,
instruc_begin_exp_contine,58,404404,0.0-22.0-3.0,"""event"",""trial"",""time""
""fullscreenenter"",""1"",""7895""
","
","
","""event"",""trial"",""time""
""fullscreenenter"",""1"",""7895""
","
",,2219.7,"<p>Now that you know how  to dig for space treasure and travel to new planets,you can start exploring! </p><p>Do you want to go over the instructions again or get started with the real game?</p>",,,,,,,1,,,,,,1,,,,,,,,,,,,
alien_welcome,59,409415,0.0-23.0-0.0,"""event"",""trial"",""time""
""fullscreenenter"",""1"",""7895""
","
","
","""event"",""trial"",""time""
""fullscreenenter"",""1"",""7895""
","
",,null,run_exp/static/images/task_images/aliens/old_aliens/planet/alien_planet-35.jpg,null,,,,,,,,,,,,,35,"35,55,61,1,74,69,62,4,27,68,9,28,47,18,11,3,52,36,65,16,12,22,17,44,71,42,66",,,,,,,,,,
land,60,409919,0.0-23.0-1.0,"""event"",""trial"",""time""
""fullscreenenter"",""1"",""7895""
","
","
","""event"",""trial"",""time""
""fullscreenenter"",""1"",""7895""
","
",,null,run_exp/static/images/task_images/land.jpg,null,,,,,,,105,,,1,,,,,,,,,,,,,,
dig,61,411927,0.0-23.0-2.0,"""event"",""trial"",""time""
""fullscreenenter"",""1"",""7895""
","
","
","""event"",""trial"",""time""
""fullscreenenter"",""1"",""7895""
","
",,,,,,,,,,,,"[{""stimulus"":""run_exp/static/images/task_images/dig.jpg"",""time"":0.4000000022351742},{""stimulus"":""run_exp/static/images/task_images/land.jpg"",""time"":670},{""stimulus"":""run_exp/static/images/task_images/dig.jpg"",""time"":1342.2000000029802}]",[],1,,,,,,,,,,,,,,
harvest,62,412935,0.0-23.0-3.0,"""event"",""trial"",""time""
""fullscreenenter"",""1"",""7895""
","
","
","""event"",""trial"",""time""
""fullscreenenter"",""1"",""7895""
","
",,null,run_exp/static/images/task_images/gems/105.jpg,null,,,,,,,11,,,1,,,,,105,0.103619617,0.104761905,,,,,,,
decision,63,413545,0.0-23.0-4.0,"""event"",""trial"",""time""
""fullscreenenter"",""1"",""7895""
","
","
","""event"",""trial"",""time""
""fullscreenenter"",""1"",""7895""
","
",,608.3,run_exp/static/images/task_images/land.jpg,65,,,,,,,11,,,1,,,,,,,,9140,1,0,FALSE,,,
dig,64,415943,0.0-24.0-0.0,"""event"",""trial"",""time""
""fullscreenenter"",""1"",""7895""
","
","
","""event"",""trial"",""time""
""fullscreenenter"",""1"",""7895""
","
",,,,,,,,,,,,"[{""stimulus"":""run_exp/static/images/task_images/dig.jpg"",""time"":0.19999999925494194},{""stimulus"":""run_exp/static/images/task_images/land.jpg"",""time"":801.2999999970198},{""stimulus"":""run_exp/static/images/task_images/dig.jpg"",""time"":1601.5999999977648}]",[],1,,,,,,,,,,,,,,
harvest,65,416951,0.0-24.0-1.0,"""event"",""trial"",""time""
""fullscreenenter"",""1"",""7895""
","
","
","""event"",""trial"",""time""
""fullscreenenter"",""1"",""7895""
","
",,null,run_exp/static/images/task_images/gems/11.jpg,null,,,,,,,3,,,1,,,,,11,0.229174595,0.272727273,,,,,,,
decision,66,419959,0.0-24.0-2.0,"""event"",""trial"",""time""
""fullscreenenter"",""1"",""7895""
","
","
","""event"",""trial"",""time""
""fullscreenenter"",""1"",""7895""
","
",,null,run_exp/static/images/task_images/land.jpg,null,,,,,,,3,,,1,,,,,,,,15553,1,1,FALSE,,,
time_out,67,421967,0.0-25.0-0.0,"""event"",""trial"",""time""
""fullscreenenter"",""1"",""7895""
","
","
","""event"",""trial"",""time""
""fullscreenenter"",""1"",""7895""
","
",,null,run_exp/static/images/task_images/time_out.jpg,null,,,,,,,3,,,,,,,,,,,,,,,,,
decision,68,422528,0.0-25.0-1.0,"""event"",""trial"",""time""
""fullscreenenter"",""1"",""7895""
","
","
","""event"",""trial"",""time""
""fullscreenenter"",""1"",""7895""
","
",,559.3,run_exp/static/images/task_images/land.jpg,65,,,,,,,3,,,1,,,,,,,,18122,1,1,FALSE,,,
dig,69,424975,0.0-26.0-0.0,"""event"",""trial"",""time""
""fullscreenenter"",""1"",""7895""
","
","
","""event"",""trial"",""time""
""fullscreenenter"",""1"",""7895""
","
",,,,,,,,,,,,"[{""stimulus"":""run_exp/static/images/task_images/dig.jpg"",""time"":0.3999999985098839},{""stimulus"":""run_exp/static/images/task_images/land.jpg"",""time"":819.3000000007451},{""stimulus"":""run_exp/static/images/task_images/dig.jpg"",""time"":1636.300000000745}]",[],1,,,,,,,,,,,,,,
harvest,70,425983,0.0-26.0-1.0,"""event"",""trial"",""time""
""fullscreenenter"",""1"",""7895""
","
","
","""event"",""trial"",""time""
""fullscreenenter"",""1"",""7895""
","
",,null,run_exp/static/images/task_images/gems/3.jpg,null,,,,,,,1,,,1,,,,,3,0.182217221,0.333333333,,,,,,,
decision,71,426756,0.0-26.0-2.0,"""event"",""trial"",""time""
""fullscreenenter"",""1"",""7895""
","
","
","""event"",""trial"",""time""
""fullscreenenter"",""1"",""7895""
","
",,771,run_exp/static/images/task_images/land.jpg,65,,,,,,,1,,,1,,,,,,,,22350,1,2,FALSE,,,
dig,72,428991,0.0-27.0-0.0,"""event"",""trial"",""time""
""fullscreenenter"",""1"",""7895""
","
","
","""event"",""trial"",""time""
""fullscreenenter"",""1"",""7895""
","
",,,,,,,,,,,,"[{""stimulus"":""run_exp/static/images/task_images/dig.jpg"",""time"":0.30000000074505806},{""stimulus"":""run_exp/static/images/task_images/land.jpg"",""time"":751.6000000014901},{""stimulus"":""run_exp/static/images/task_images/dig.jpg"",""time"":1495.300000000745}]",[],1,,,,,,,,,,,,,,
harvest,73,429999,0.0-27.0-1.0,"""event"",""trial"",""time""
""fullscreenenter"",""1"",""7895""
","
","
","""event"",""trial"",""time""
""fullscreenenter"",""1"",""7895""
","
",,null,run_exp/static/images/task_images/gems/1.jpg,null,,,,,,,0,,,1,,,,,1,0.167526277,0,,,,,,,
decision,74,430757,0.0-27.0-2.0,"""event"",""trial"",""time""
""fullscreenenter"",""1"",""7895""
","
","
","""event"",""trial"",""time""
""fullscreenenter"",""1"",""7895""
","
",,756.7,run_exp/static/images/task_images/land.jpg,76,,,,,,,0,,,1,,,,,,,,26352,1,3,TRUE,,,
travel,75,440007,0.0-28.0-0.0,"""event"",""trial"",""time""
""fullscreenenter"",""1"",""7895""
","
","
","""event"",""trial"",""time""
""fullscreenenter"",""1"",""7895""
","
",,,,,,,,,,,,"[{""stimulus"":""run_exp/static/images/task_images/rocket-01.jpg"",""time"":0.29999999701976776},{""stimulus"":""run_exp/static/images/task_images/rocket-02.jpg"",""time"":1029.7999999970198},{""stimulus"":""run_exp/static/images/task_images/rocket-03.jpg"",""time"":2061.89999999851},{""stimulus"":""run_exp/static/images/task_images/rocket-04.jpg"",""time"":3085.39999999851},{""stimulus"":""run_exp/static/images/task_images/rocket-05.jpg"",""time"":4117.599999997765},{""stimulus"":""run_exp/static/images/task_images/rocket-06.jpg"",""time"":5141.699999999255},{""stimulus"":""run_exp/static/images/task_images/rocket-07.jpg"",""time"":6165.699999999255},{""stimulus"":""run_exp/static/images/task_images/rocket-08.jpg"",""time"":7190.699999999255},{""stimulus"":""run_exp/static/images/task_images/rocket-09.jpg"",""time"":8221.699999999255}]",[],1,,,,,,,,,,,,,,
alien_welcome,76,445015,0.0-28.0-1.0,"""event"",""trial"",""time""
""fullscreenenter"",""1"",""7895""
","
","
","""event"",""trial"",""time""
""fullscreenenter"",""1"",""7895""
","
",,null,run_exp/static/images/task_images/aliens/old_aliens/planet/alien_planet-55.jpg,null,,,,,,,,,,,,,55,"35,55,61,1,74,69,62,4,27,68,9,28,47,18,11,3,52,36,65,16,12,22,17,44,71,42,66",,,,,,,,,,
land,77,445519,0.0-28.0-2.0,"""event"",""trial"",""time""
""fullscreenenter"",""1"",""7895""
","
","
","""event"",""trial"",""time""
""fullscreenenter"",""1"",""7895""
","
",,null,run_exp/static/images/task_images/land.jpg,null,,,,,,,92,,,2,,,,,,,,,,,,,,
dig,78,447527,0.0-28.0-3.0,"""event"",""trial"",""time""
""fullscreenenter"",""1"",""7895""
","
","
","""event"",""trial"",""time""
""fullscreenenter"",""1"",""7895""
","
",,,,,,,,,,,,"[{""stimulus"":""run_exp/static/images/task_images/dig.jpg"",""time"":0.4000000022351742},{""stimulus"":""run_exp/static/images/task_images/land.jpg"",""time"":670.8000000007451},{""stimulus"":""run_exp/static/images/task_images/dig.jpg"",""time"":1335.4000000022352}]",[],2,,,,,,,,,,,,,,
harvest,79,448535,0.0-28.0-4.0,"""event"",""trial"",""time""
""fullscreenenter"",""1"",""7895""
","
","
","""event"",""trial"",""time""
""fullscreenenter"",""1"",""7895""
","
",,null,run_exp/static/images/task_images/gems/92.jpg,null,,,,,,,16,,,2,,,,,92,0.169408375,0.173913043,,,,,,,
decision,80,448812,0.0-28.0-5.0,"""event"",""trial"",""time""
""fullscreenenter"",""1"",""7895""
","
","
","""event"",""trial"",""time""
""fullscreenenter"",""1"",""7895""
","
",,275.3,run_exp/static/images/task_images/land.jpg,65,,,,,,,16,,,2,,,,,,,,44406,1,0,FALSE,,,
dig,81,451543,0.0-29.0-0.0,"""event"",""trial"",""time""
""fullscreenenter"",""1"",""7895""
","
","
","""event"",""trial"",""time""
""fullscreenenter"",""1"",""7895""
","
",,,,,,,,,,,,"[{""stimulus"":""run_exp/static/images/task_images/dig.jpg"",""time"":0.30000000074505806},{""stimulus"":""run_exp/static/images/task_images/land.jpg"",""time"":911.1999999992549},{""stimulus"":""run_exp/static/images/task_images/dig.jpg"",""time"":1822.8999999985099}]",[],2,,,,,,,,,,,,,,
harvest,82,452551,0.0-29.0-1.0,"""event"",""trial"",""time""
""fullscreenenter"",""1"",""7895""
","
","
","""event"",""trial"",""time""
""fullscreenenter"",""1"",""7895""
","
",,null,run_exp/static/images/task_images/gems/16.jpg,null,,,,,,,5,,,2,,,,,16,0.301606551,0.3125,,,,,,,
decision,83,453490,0.0-29.0-2.0,"""event"",""trial"",""time""
""fullscreenenter"",""1"",""7895""
","
","
","""event"",""trial"",""time""
""fullscreenenter"",""1"",""7895""
","
",,937.2,run_exp/static/images/task_images/land.jpg,65,,,,,,,5,,,2,,,,,,,,49084,1,1,FALSE,,,
dig,84,455559,0.0-30.0-0.0,"""event"",""trial"",""time""
""fullscreenenter"",""1"",""7895""
","
","
","""event"",""trial"",""time""
""fullscreenenter"",""1"",""7895""
","
",,,,,,,,,,,,"[{""stimulus"":""run_exp/static/images/task_images/dig.jpg"",""time"":0.29999999701976776},{""stimulus"":""run_exp/static/images/task_images/land.jpg"",""time"":689.7999999970198},{""stimulus"":""run_exp/static/images/task_images/dig.jpg"",""time"":1377.5}]",[],2,,,,,,,,,,,,,,
harvest,85,456567,0.0-30.0-1.0,"""event"",""trial"",""time""
""fullscreenenter"",""1"",""7895""
","
","
","""event"",""trial"",""time""
""fullscreenenter"",""1"",""7895""
","
",,null,run_exp/static/images/task_images/gems/5.jpg,null,,,,,,,1,,,2,,,,,5,0.227743225,0.2,,,,,,,
decision,86,456619,0.0-30.0-2.0,"""event"",""trial"",""time""
""fullscreenenter"",""1"",""7895""
","
","
","""event"",""trial"",""time""
""fullscreenenter"",""1"",""7895""
","
",,50,run_exp/static/images/task_images/land.jpg,76,,,,,,,1,,,2,,,,,,,,52213,1,2,TRUE,,,
travel,87,466575,0.0-31.0-0.0,"""event"",""trial"",""time""
""fullscreenenter"",""1"",""7895""
","
","
","""event"",""trial"",""time""
""fullscreenenter"",""1"",""7895""
","
",,,,,,,,,,,,"[{""stimulus"":""run_exp/static/images/task_images/rocket-01.jpg"",""time"":0.30000000074505806},{""stimulus"":""run_exp/static/images/task_images/rocket-02.jpg"",""time"":1112},{""stimulus"":""run_exp/static/images/task_images/rocket-03.jpg"",""time"":2216.39999999851},{""stimulus"":""run_exp/static/images/task_images/rocket-04.jpg"",""time"":3320.800000000745},{""stimulus"":""run_exp/static/images/task_images/rocket-05.jpg"",""time"":4424.599999997765},{""stimulus"":""run_exp/static/images/task_images/rocket-06.jpg"",""time"":5528.5},{""stimulus"":""run_exp/static/images/task_images/rocket-07.jpg"",""time"":6632.300000000745},{""stimulus"":""run_exp/static/images/task_images/rocket-08.jpg"",""time"":7744.199999999255},{""stimulus"":""run_exp/static/images/task_images/rocket-09.jpg"",""time"":8849.099999997765}]",[],2,,,,,,,,,,,,,,
alien_welcome,88,471583,0.0-31.0-1.0,"""event"",""trial"",""time""
""fullscreenenter"",""1"",""7895""
","
","
","""event"",""trial"",""time""
""fullscreenenter"",""1"",""7895""
","
",,null,run_exp/static/images/task_images/aliens/old_aliens/planet/alien_planet-61.jpg,null,,,,,,,,,,,,,61,"35,55,61,1,74,69,62,4,27,68,9,28,47,18,11,3,52,36,65,16,12,22,17,44,71,42,66",,,,,,,,,,
land,89,472091,0.0-31.0-2.0,"""event"",""trial"",""time""
""fullscreenenter"",""1"",""7895""
","
","
","""event"",""trial"",""time""
""fullscreenenter"",""1"",""7895""
","
",,null,run_exp/static/images/task_images/land.jpg,null,,,,,,,106,,,3,,,,,,,,,,,,,,
dig,90,474103,0.0-31.0-3.0,"""event"",""trial"",""time""
""fullscreenenter"",""1"",""7895""
","
","
","""event"",""trial"",""time""
""fullscreenenter"",""1"",""7895""
","
",,,,,,,,,,,,"[{""stimulus"":""run_exp/static/images/task_images/dig.jpg"",""time"":0.5},{""stimulus"":""run_exp/static/images/task_images/land.jpg"",""time"":674.5},{""stimulus"":""run_exp/static/images/task_images/dig.jpg"",""time"":1338.6000000014901}]",[],3,,,,,,,,,,,,,,
harvest,91,475111,0.0-31.0-4.0,"""event"",""trial"",""time""
""fullscreenenter"",""1"",""7895""
","
","
","""event"",""trial"",""time""
""fullscreenenter"",""1"",""7895""
","
",,null,run_exp/static/images/task_images/gems/106.jpg,null,,,,,,,51,,,3,,,,,106,0.483889815,0.481132075,,,,,,,
decision,92,475779,0.0-31.0-5.0,"""event"",""trial"",""time""
""fullscreenenter"",""1"",""7895""
","
","
","""event"",""trial"",""time""
""fullscreenenter"",""1"",""7895""
","
",,666.4,run_exp/static/images/task_images/land.jpg,65,,,,,,,51,,,3,,,,,,,,71373,1,0,FALSE,,,
dig,93,478127,0.0-32.0-0.0,"""event"",""trial"",""time""
""fullscreenenter"",""1"",""7895""
","
","
","""event"",""trial"",""time""
""fullscreenenter"",""1"",""7895""
","
",,,,,,,,,,,,"[{""stimulus"":""run_exp/static/images/task_images/dig.jpg"",""time"":0.4000000022351742},{""stimulus"":""run_exp/static/images/task_images/land.jpg"",""time"":779.7000000029802},{""stimulus"":""run_exp/static/images/task_images/dig.jpg"",""time"":1556}]",[],3,,,,,,,,,,,,,,
harvest,94,479135,0.0-32.0-1.0,"""event"",""trial"",""time""
""fullscreenenter"",""1"",""7895""
","
","
","""event"",""trial"",""time""
""fullscreenenter"",""1"",""7895""
","
",,null,run_exp/static/images/task_images/gems/51.jpg,null,,,,,,,29,,,3,,,,,51,0.576209803,0.568627451,,,,,,,
decision,95,479951,0.0-32.0-2.0,"""event"",""trial"",""time""
""fullscreenenter"",""1"",""7895""
","
","
","""event"",""trial"",""time""
""fullscreenenter"",""1"",""7895""
","
",,814.3,run_exp/static/images/task_images/land.jpg,65,,,,,,,29,,,3,,,,,,,,75545,1,1,FALSE,,,
dig,96,482143,0.0-33.0-0.0,"""event"",""trial"",""time""
""fullscreenenter"",""1"",""7895""
","
","
","""event"",""trial"",""time""
""fullscreenenter"",""1"",""7895""
","
",,,,,,,,,,,,"[{""stimulus"":""run_exp/static/images/task_images/dig.jpg"",""time"":0.20000000298023224},{""stimulus"":""run_exp/static/images/task_images/land.jpg"",""time"":732.1000000014901},{""stimulus"":""run_exp/static/images/task_images/dig.jpg"",""time"":1460.300000000745}]",[],3,,,,,,,,,,,,,,
harvest,97,483151,0.0-33.0-1.0,"""event"",""trial"",""time""
""fullscreenenter"",""1"",""7895""
","
","
","""event"",""trial"",""time""
""fullscreenenter"",""1"",""7895""
","
",,null,run_exp/static/images/task_images/gems/29.jpg,null,,,,,,,18,,,3,,,,,29,0.6160526,0.620689655,,,,,,,
decision,98,484034,0.0-33.0-2.0,"""event"",""trial"",""time""
""fullscreenenter"",""1"",""7895""
","
","
","""event"",""trial"",""time""
""fullscreenenter"",""1"",""7895""
","
",,881.8,run_exp/static/images/task_images/land.jpg,65,,,,,,,18,,,3,,,,,,,,79629,1,2,FALSE,,,
dig,99,486159,0.0-34.0-0.0,"""event"",""trial"",""time""
""fullscreenenter"",""1"",""7895""
","
","
","""event"",""trial"",""time""
""fullscreenenter"",""1"",""7895""
","
",,,,,,,,,,,,"[{""stimulus"":""run_exp/static/images/task_images/dig.jpg"",""time"":0.10000000149011612},{""stimulus"":""run_exp/static/images/task_images/land.jpg"",""time"":712.9000000022352},{""stimulus"":""run_exp/static/images/task_images/dig.jpg"",""time"":1417.2000000029802}]",[],3,,,,,,,,,,,,,,
harvest,100,487161,0.0-34.0-1.0,"""event"",""trial"",""time""
""fullscreenenter"",""1"",""7895""
","
","
","""event"",""trial"",""time""
""fullscreenenter"",""1"",""7895""
","
",,null,run_exp/static/images/task_images/gems/18.jpg,null,,,,,,,10,,,3,,,,,18,0.540066331,0.555555556,,,,,,,
decision,101,487297,0.0-34.0-2.0,"""event"",""trial"",""time""
""fullscreenenter"",""1"",""7895""
","
","
","""event"",""trial"",""time""
""fullscreenenter"",""1"",""7895""
","
",,134.6,run_exp/static/images/task_images/land.jpg,65,,,,,,,10,,,3,,,,,,,,82891,1,3,FALSE,,,
dig,102,490175,0.0-35.0-0.0,"""event"",""trial"",""time""
""fullscreenenter"",""1"",""7895""
","
","
","""event"",""trial"",""time""
""fullscreenenter"",""1"",""7895""
","
",,,,,,,,,,,,"[{""stimulus"":""run_exp/static/images/task_images/dig.jpg"",""time"":0.19999999925494194},{""stimulus"":""run_exp/static/images/task_images/land.jpg"",""time"":961.6000000014901},{""stimulus"":""run_exp/static/images/task_images/dig.jpg"",""time"":1914.1000000014901}]",[],3,,,,,,,,,,,,,,
harvest,103,491183,0.0-35.0-1.0,"""event"",""trial"",""time""
""fullscreenenter"",""1"",""7895""
","
","
","""event"",""trial"",""time""
""fullscreenenter"",""1"",""7895""
","
",,null,run_exp/static/images/task_images/gems/10.jpg,null,,,,,,,5,,,3,,,,,10,0.469653271,0.5,,,,,,,
decision,104,491312,0.0-35.0-2.0,"""event"",""trial"",""time""
""fullscreenenter"",""1"",""7895""
","
","
","""event"",""trial"",""time""
""fullscreenenter"",""1"",""7895""
","
",,127.3,run_exp/static/images/task_images/land.jpg,76,,,,,,,5,,,3,,,,,,,,86906,1,4,TRUE,,,
travel,105,501183,0.0-36.0-0.0,"""event"",""trial"",""time""
""fullscreenenter"",""1"",""7895""
","
","
","""event"",""trial"",""time""
""fullscreenenter"",""1"",""7895""
","
",,,,,,,,,,,,"[{""stimulus"":""run_exp/static/images/task_images/rocket-01.jpg"",""time"":0.30000000074505806},{""stimulus"":""run_exp/static/images/task_images/rocket-02.jpg"",""time"":1099.199999999255},{""stimulus"":""run_exp/static/images/task_images/rocket-03.jpg"",""time"":2195},{""stimulus"":""run_exp/static/images/task_images/rocket-04.jpg"",""time"":3291.300000000745},{""stimulus"":""run_exp/static/images/task_images/rocket-05.jpg"",""time"":4387.300000000745},{""stimulus"":""run_exp/static/images/task_images/rocket-06.jpg"",""time"":5483.199999999255},{""stimulus"":""run_exp/static/images/task_images/rocket-07.jpg"",""time"":6579.300000000745},{""stimulus"":""run_exp/static/images/task_images/rocket-08.jpg"",""time"":7675.300000000745},{""stimulus"":""run_exp/static/images/task_images/rocket-09.jpg"",""time"":8771.300000000745}]",[],3,,,,,,,,,,,,,,
alien_welcome,106,506191,0.0-36.0-1.0,"""event"",""trial"",""time""
""fullscreenenter"",""1"",""7895""
","
","
","""event"",""trial"",""time""
""fullscreenenter"",""1"",""7895""
","
",,null,run_exp/static/images/task_images/aliens/old_aliens/planet/alien_planet-1.jpg,null,,,,,,,,,,,,,1,"35,55,61,1,74,69,62,4,27,68,9,28,47,18,11,3,52,36,65,16,12,22,17,44,71,42,66",,,,,,,,,,
land,107,506695,0.0-36.0-2.0,"""event"",""trial"",""time""
""fullscreenenter"",""1"",""7895""
","
","
","""event"",""trial"",""time""
""fullscreenenter"",""1"",""7895""
","
",,null,run_exp/static/images/task_images/land.jpg,null,,,,,,,98,,,4,,,,,,,,,,,,,,
dig,108,508703,0.0-36.0-3.0,"""event"",""trial"",""time""
""fullscreenenter"",""1"",""7895""
","
","
","""event"",""trial"",""time""
""fullscreenenter"",""1"",""7895""
","
",,,,,,,,,,,,"[{""stimulus"":""run_exp/static/images/task_images/dig.jpg"",""time"":0.3999999985098839},{""stimulus"":""run_exp/static/images/task_images/land.jpg"",""time"":670.5},{""stimulus"":""run_exp/static/images/task_images/dig.jpg"",""time"":1336.699999999255}]",[],4,,,,,,,,,,,,,,
harvest,109,509711,0.0-36.0-4.0,"""event"",""trial"",""time""
""fullscreenenter"",""1"",""7895""
","
","
","""event"",""trial"",""time""
""fullscreenenter"",""1"",""7895""
","
",,null,run_exp/static/images/task_images/gems/98.jpg,null,,,,,,,40,,,4,,,,,98,0.410885336,0.408163265,,,,,,,
decision,110,510307,0.0-36.0-5.0,"""event"",""trial"",""time""
""fullscreenenter"",""1"",""7895""
","
","
","""event"",""trial"",""time""
""fullscreenenter"",""1"",""7895""
","
",,594.9,run_exp/static/images/task_images/land.jpg,65,,,,,,,40,,,4,,,,,,,,105902,1,0,FALSE,,,
dig,111,512719,0.0-37.0-0.0,"""event"",""trial"",""time""
""fullscreenenter"",""1"",""7895""
","
","
","""event"",""trial"",""time""
""fullscreenenter"",""1"",""7895""
","
",,,,,,,,,,,,"[{""stimulus"":""run_exp/static/images/task_images/dig.jpg"",""time"":0.19999999925494194},{""stimulus"":""run_exp/static/images/task_images/land.jpg"",""time"":807.8999999985099},{""stimulus"":""run_exp/static/images/task_images/dig.jpg"",""time"":1607.8999999985099}]",[],4,,,,,,,,,,,,,,
harvest,112,513727,0.0-37.0-1.0,"""event"",""trial"",""time""
""fullscreenenter"",""1"",""7895""
","
","
","""event"",""trial"",""time""
""fullscreenenter"",""1"",""7895""
","
",,null,run_exp/static/images/task_images/gems/40.jpg,null,,,,,,,20,,,4,,,,,40,0.498978761,0.5,,,,,,,
decision,113,514267,0.0-37.0-2.0,"""event"",""trial"",""time""
""fullscreenenter"",""1"",""7895""
","
","
","""event"",""trial"",""time""
""fullscreenenter"",""1"",""7895""
","
",,538.2,run_exp/static/images/task_images/land.jpg,65,,,,,,,20,,,4,,,,,,,,109861,1,1,FALSE,,,
dig,114,516735,0.0-38.0-0.0,"""event"",""trial"",""time""
""fullscreenenter"",""1"",""7895""
","
","
","""event"",""trial"",""time""
""fullscreenenter"",""1"",""7895""
","
",,,,,,,,,,,,"[{""stimulus"":""run_exp/static/images/task_images/dig.jpg"",""time"":0.19999999925494194},{""stimulus"":""run_exp/static/images/task_images/land.jpg"",""time"":824.3000000007451},{""stimulus"":""run_exp/static/images/task_images/dig.jpg"",""time"":1648.800000000745}]",[],4,,,,,,,,,,,,,,
harvest,115,517743,0.0-38.0-1.0,"""event"",""trial"",""time""
""fullscreenenter"",""1"",""7895""
","
","
","""event"",""trial"",""time""
""fullscreenenter"",""1"",""7895""
","
",,null,run_exp/static/images/task_images/gems/20.jpg,null,,,,,,,12,,,4,,,,,20,0.597134749,0.6,,,,,,,
decision,116,519350,0.0-38.0-2.0,"""event"",""trial"",""time""
""fullscreenenter"",""1"",""7895""
","
","
","""event"",""trial"",""time""
""fullscreenenter"",""1"",""7895""
","
",,1605.3,run_exp/static/images/task_images/land.jpg,65,,,,,,,12,,,4,,,,,,,,114944,1,2,FALSE,,,
dig,117,520751,0.0-39.0-0.0,"""event"",""trial"",""time""
""fullscreenenter"",""1"",""7895""
","
","
","""event"",""trial"",""time""
""fullscreenenter"",""1"",""7895""
","
",,,,,,,,,,,,"[{""stimulus"":""run_exp/static/images/task_images/dig.jpg"",""time"":0.30000000074505806},{""stimulus"":""run_exp/static/images/task_images/land.jpg"",""time"":469.8999999985099},{""stimulus"":""run_exp/static/images/task_images/dig.jpg"",""time"":933.5}]",[],4,,,,,,,,,,,,,,
harvest,118,521756,0.0-39.0-1.0,"""event"",""trial"",""time""
""fullscreenenter"",""1"",""7895""
","
","
","""event"",""trial"",""time""
""fullscreenenter"",""1"",""7895""
","
",,null,run_exp/static/images/task_images/gems/12.jpg,null,,,,,,,6,,,4,,,,,12,0.52183083,0.5,,,,,,,
decision,119,524637,0.0-39.0-2.0,"""event"",""trial"",""time""
""fullscreenenter"",""1"",""7895""
","
","
","""event"",""trial"",""time""
""fullscreenenter"",""1"",""7895""
","
",,2879.4,run_exp/static/images/task_images/land.jpg,65,,,,,,,6,,,4,,,,,,,,120231,1,3,FALSE,,,
dig,120,524767,0.0-40.0-0.0,"""event"",""trial"",""time""
""fullscreenenter"",""1"",""7895""
","
","
","""event"",""trial"",""time""
""fullscreenenter"",""1"",""7895""
","
",,,,,,,,,,,,"[{""stimulus"":""run_exp/static/images/task_images/dig.jpg"",""time"":0.30000000074505806},{""stimulus"":""run_exp/static/images/task_images/land.jpg"",""time"":45.80000000074506},{""stimulus"":""run_exp/static/images/task_images/dig.jpg"",""time"":86.30000000074506}]",[],4,,,,,,,,,,,,,,
harvest,121,525775,0.0-40.0-1.0,"""event"",""trial"",""time""
""fullscreenenter"",""1"",""7895""
","
","
","""event"",""trial"",""time""
""fullscreenenter"",""1"",""7895""
","
",,null,run_exp/static/images/task_images/gems/6.jpg,null,,,,,,,3,,,4,,,,,6,0.516457512,0.5,,,,,,,
decision,122,526179,0.0-40.0-2.0,"""event"",""trial"",""time""
""fullscreenenter"",""1"",""7895""
","
","
","""event"",""trial"",""time""
""fullscreenenter"",""1"",""7895""
","
",,402.5,run_exp/static/images/task_images/land.jpg,76,,,,,,,3,,,4,,,,,,,,121773,1,4,TRUE,,,
travel,123,535783,0.0-41.0-0.0,"""event"",""trial"",""time""
""fullscreenenter"",""1"",""7895""
","
","
","""event"",""trial"",""time""
""fullscreenenter"",""1"",""7895""
","
",,,,,,,,,,,,"[{""stimulus"":""run_exp/static/images/task_images/rocket-01.jpg"",""time"":0.30000000074505806},{""stimulus"":""run_exp/static/images/task_images/rocket-02.jpg"",""time"":1072.6000000014901},{""stimulus"":""run_exp/static/images/task_images/rocket-03.jpg"",""time"":2136.900000002235},{""stimulus"":""run_exp/static/images/task_images/rocket-04.jpg"",""time"":3200.300000000745},{""stimulus"":""run_exp/static/images/task_images/rocket-05.jpg"",""time"":4272.60000000149},{""stimulus"":""run_exp/static/images/task_images/rocket-06.jpg"",""time"":5336.400000002235},{""stimulus"":""run_exp/static/images/task_images/rocket-07.jpg"",""time"":6400.60000000149},{""stimulus"":""run_exp/static/images/task_images/rocket-08.jpg"",""time"":7464.400000002235},{""stimulus"":""run_exp/static/images/task_images/rocket-09.jpg"",""time"":8529.5}]",[],4,,,,,,,,,,,,,,
alien_welcome,124,540791,0.0-41.0-1.0,"""event"",""trial"",""time""
""fullscreenenter"",""1"",""7895""
","
","
","""event"",""trial"",""time""
""fullscreenenter"",""1"",""7895""
","
",,null,run_exp/static/images/task_images/aliens/old_aliens/planet/alien_planet-74.jpg,null,,,,,,,,,,,,,74,"35,55,61,1,74,69,62,4,27,68,9,28,47,18,11,3,52,36,65,16,12,22,17,44,71,42,66",,,,,,,,,,
land,125,541295,0.0-41.0-2.0,"""event"",""trial"",""time""
""fullscreenenter"",""1"",""7895""
","
","
","""event"",""trial"",""time""
""fullscreenenter"",""1"",""7895""
","
",,null,run_exp/static/images/task_images/land.jpg,null,,,,,,,102,,,5,,,,,,,,,,,,,,
dig,126,543303,0.0-41.0-3.0,"""event"",""trial"",""time""
""fullscreenenter"",""1"",""7895""
","
","
","""event"",""trial"",""time""
""fullscreenenter"",""1"",""7895""
","
",,,,,,,,,,,,"[{""stimulus"":""run_exp/static/images/task_images/dig.jpg"",""time"":0.3999999985098839},{""stimulus"":""run_exp/static/images/task_images/land.jpg"",""time"":670.5999999977648},{""stimulus"":""run_exp/static/images/task_images/dig.jpg"",""time"":1342.699999999255}]",[],5,,,,,,,,,,,,,,
harvest,127,544311,0.0-41.0-4.0,"""event"",""trial"",""time""
""fullscreenenter"",""1"",""7895""
","
","
","""event"",""trial"",""time""
""fullscreenenter"",""1"",""7895""
","
",,null,run_exp/static/images/task_images/gems/102.jpg,null,,,,,,,60,,,5,,,,,102,0.584236308,0.588235294,,,,,,,
decision,128,544729,0.0-41.0-5.0,"""event"",""trial"",""time""
""fullscreenenter"",""1"",""7895""
","
","
","""event"",""trial"",""time""
""fullscreenenter"",""1"",""7895""
","
",,416.6,run_exp/static/images/task_images/land.jpg,65,,,,,,,60,,,5,,,,,,,,140323,1,0,FALSE,,,
dig,129,547327,0.0-42.0-0.0,"""event"",""trial"",""time""
""fullscreenenter"",""1"",""7895""
","
","
","""event"",""trial"",""time""
""fullscreenenter"",""1"",""7895""
","
",,,,,,,,,,,,"[{""stimulus"":""run_exp/static/images/task_images/dig.jpg"",""time"":0.19999999925494194},{""stimulus"":""run_exp/static/images/task_images/land.jpg"",""time"":864},{""stimulus"":""run_exp/static/images/task_images/dig.jpg"",""time"":1728.300000000745}]",[],5,,,,,,,,,,,,,,
harvest,130,548335,0.0-42.0-1.0,"""event"",""trial"",""time""
""fullscreenenter"",""1"",""7895""
","
","
","""event"",""trial"",""time""
""fullscreenenter"",""1"",""7895""
","
",,null,run_exp/static/images/task_images/gems/60.jpg,null,,,,,,,32,,,5,,,,,60,0.536483373,0.533333333,,,,,,,
decision,131,548933,0.0-42.0-2.0,"""event"",""trial"",""time""
""fullscreenenter"",""1"",""7895""
","
","
","""event"",""trial"",""time""
""fullscreenenter"",""1"",""7895""
","
",,596.4,run_exp/static/images/task_images/land.jpg,65,,,,,,,32,,,5,,,,,,,,144527,1,1,FALSE,,,
dig,132,551343,0.0-43.0-0.0,"""event"",""trial"",""time""
""fullscreenenter"",""1"",""7895""
","
","
","""event"",""trial"",""time""
""fullscreenenter"",""1"",""7895""
","
",,,,,,,,,,,,"[{""stimulus"":""run_exp/static/images/task_images/dig.jpg"",""time"":0.19999999925494194},{""stimulus"":""run_exp/static/images/task_images/land.jpg"",""time"":806.1999999992549},{""stimulus"":""run_exp/static/images/task_images/dig.jpg"",""time"":1606}]",[],5,,,,,,,,,,,,,,
harvest,133,552351,0.0-43.0-1.0,"""event"",""trial"",""time""
""fullscreenenter"",""1"",""7895""
","
","
","""event"",""trial"",""time""
""fullscreenenter"",""1"",""7895""
","
",,null,run_exp/static/images/task_images/gems/32.jpg,null,,,,,,,19,,,5,,,,,32,0.585449895,0.59375,,,,,,,
decision,134,552934,0.0-43.0-2.0,"""event"",""trial"",""time""
""fullscreenenter"",""1"",""7895""
","
","
","""event"",""trial"",""time""
""fullscreenenter"",""1"",""7895""
","
",,581.2,run_exp/static/images/task_images/land.jpg,65,,,,,,,19,,,5,,,,,,,,148528,1,2,FALSE,,,
dig,135,555359,0.0-44.0-0.0,"""event"",""trial"",""time""
""fullscreenenter"",""1"",""7895""
","
","
","""event"",""trial"",""time""
""fullscreenenter"",""1"",""7895""
","
",,,,,,,,,,,,"[{""stimulus"":""run_exp/static/images/task_images/dig.jpg"",""time"":0.19999999925494194},{""stimulus"":""run_exp/static/images/task_images/land.jpg"",""time"":812.7999999970198},{""stimulus"":""run_exp/static/images/task_images/dig.jpg"",""time"":1620.7999999970198}]",[],5,,,,,,,,,,,,,,
harvest,136,556367,0.0-44.0-1.0,"""event"",""trial"",""time""
""fullscreenenter"",""1"",""7895""
","
","
","""event"",""trial"",""time""
""fullscreenenter"",""1"",""7895""
","
",,null,run_exp/static/images/task_images/gems/19.jpg,null,,,,,,,10,,,5,,,,,19,0.511381491,0.526315789,,,,,,,
decision,137,556828,0.0-44.0-2.0,"""event"",""trial"",""time""
""fullscreenenter"",""1"",""7895""
","
","
","""event"",""trial"",""time""
""fullscreenenter"",""1"",""7895""
","
",,459.3,run_exp/static/images/task_images/land.jpg,65,,,,,,,10,,,5,,,,,,,,152422,1,3,FALSE,,,
dig,138,559375,0.0-45.0-0.0,"""event"",""trial"",""time""
""fullscreenenter"",""1"",""7895""
","
","
","""event"",""trial"",""time""
""fullscreenenter"",""1"",""7895""
","
",,,,,,,,,,,,"[{""stimulus"":""run_exp/static/images/task_images/dig.jpg"",""time"":0.20000000298023224},{""stimulus"":""run_exp/static/images/task_images/land.jpg"",""time"":854.8000000007451},{""stimulus"":""run_exp/static/images/task_images/dig.jpg"",""time"":1695.800000000745}]",[],5,,,,,,,,,,,,,,
harvest,139,560383,0.0-45.0-1.0,"""event"",""trial"",""time""
""fullscreenenter"",""1"",""7895""
","
","
","""event"",""trial"",""time""
""fullscreenenter"",""1"",""7895""
","
",,null,run_exp/static/images/task_images/gems/10.jpg,null,,,,,,,5,,,5,,,,,10,0.469865447,0.5,,,,,,,
decision,140,561018,0.0-45.0-2.0,"""event"",""trial"",""time""
""fullscreenenter"",""1"",""7895""
","
","
","""event"",""trial"",""time""
""fullscreenenter"",""1"",""7895""
","
",,633.2,run_exp/static/images/task_images/land.jpg,65,,,,,,,5,,,5,,,,,,,,156612,1,4,FALSE,,,
dig,141,563391,0.0-46.0-0.0,"""event"",""trial"",""time""
""fullscreenenter"",""1"",""7895""
","
","
","""event"",""trial"",""time""
""fullscreenenter"",""1"",""7895""
","
",,,,,,,,,,,,"[{""stimulus"":""run_exp/static/images/task_images/dig.jpg"",""time"":0.20000000298023224},{""stimulus"":""run_exp/static/images/task_images/land.jpg"",""time"":793.1000000014901},{""stimulus"":""run_exp/static/images/task_images/dig.jpg"",""time"":1584.9000000022352}]",[],5,,,,,,,,,,,,,,
harvest,142,564402,0.0-46.0-1.0,"""event"",""trial"",""time""
""fullscreenenter"",""1"",""7895""
","
","
","""event"",""trial"",""time""
""fullscreenenter"",""1"",""7895""
","
",,null,run_exp/static/images/task_images/gems/5.jpg,null,,,,,,,2,,,5,,,,,5,0.489076926,0.4,,,,,,,
decision,143,565040,0.0-46.0-2.0,"""event"",""trial"",""time""
""fullscreenenter"",""1"",""7895""
","
","
","""event"",""trial"",""time""
""fullscreenenter"",""1"",""7895""
","
",,636.3,run_exp/static/images/task_images/land.jpg,76,,,,,,,2,,,5,,,,,,,,160635,1,5,TRUE,,,
travel,144,574415,0.0-47.0-0.0,"""event"",""trial"",""time""
""fullscreenenter"",""1"",""7895""
","
","
","""event"",""trial"",""time""
""fullscreenenter"",""1"",""7895""
","
",,,,,,,,,,,,"[{""stimulus"":""run_exp/static/images/task_images/rocket-01.jpg"",""time"":0.30000000074505806},{""stimulus"":""run_exp/static/images/task_images/rocket-02.jpg"",""time"":1049.6000000014901},{""stimulus"":""run_exp/static/images/task_images/rocket-03.jpg"",""time"":2081.60000000149},{""stimulus"":""run_exp/static/images/task_images/rocket-04.jpg"",""time"":3129.400000002235},{""stimulus"":""run_exp/static/images/task_images/rocket-05.jpg"",""time"":4162.20000000298},{""stimulus"":""run_exp/static/images/task_images/rocket-06.jpg"",""time"":5209.70000000298},{""stimulus"":""run_exp/static/images/task_images/rocket-07.jpg"",""time"":6249.300000000745},{""stimulus"":""run_exp/static/images/task_images/rocket-08.jpg"",""time"":7281.5},{""stimulus"":""run_exp/static/images/task_images/rocket-09.jpg"",""time"":8329.400000002235}]",[],5,,,,,,,,,,,,,,
alien_welcome,145,579423,0.0-47.0-1.0,"""event"",""trial"",""time""
""fullscreenenter"",""1"",""7895""
","
","
","""event"",""trial"",""time""
""fullscreenenter"",""1"",""7895""
","
",,null,run_exp/static/images/task_images/aliens/old_aliens/planet/alien_planet-69.jpg,null,,,,,,,,,,,,,69,"35,55,61,1,74,69,62,4,27,68,9,28,47,18,11,3,52,36,65,16,12,22,17,44,71,42,66",,,,,,,,,,
land,146,579927,0.0-47.0-2.0,"""event"",""trial"",""time""
""fullscreenenter"",""1"",""7895""
","
","
","""event"",""trial"",""time""
""fullscreenenter"",""1"",""7895""
","
",,null,run_exp/static/images/task_images/land.jpg,null,,,,,,,104,,,6,,,,,,,,,,,,,,
dig,147,581935,0.0-47.0-3.0,"""event"",""trial"",""time""
""fullscreenenter"",""1"",""7895""
","
","
","""event"",""trial"",""time""
""fullscreenenter"",""1"",""7895""
","
",,,,,,,,,,,,"[{""stimulus"":""run_exp/static/images/task_images/dig.jpg"",""time"":0.3999999985098839},{""stimulus"":""run_exp/static/images/task_images/land.jpg"",""time"":669.5},{""stimulus"":""run_exp/static/images/task_images/dig.jpg"",""time"":1341.8999999985099}]",[],6,,,,,,,,,,,,,,
harvest,148,582943,0.0-47.0-4.0,"""event"",""trial"",""time""
""fullscreenenter"",""1"",""7895""
","
","
","""event"",""trial"",""time""
""fullscreenenter"",""1"",""7895""
","
",,null,run_exp/static/images/task_images/gems/104.jpg,null,,,,,,,86,,,6,,,,,104,0.827853678,0.826923077,,,,,,,
decision,149,583054,0.0-47.0-5.0,"""event"",""trial"",""time""
""fullscreenenter"",""1"",""7895""
","
","
","""event"",""trial"",""time""
""fullscreenenter"",""1"",""7895""
","
",,109.8,run_exp/static/images/task_images/land.jpg,65,,,,,,,86,,,6,,,,,,,,178648,1,0,FALSE,,,
dig,150,585951,0.0-48.0-0.0,"""event"",""trial"",""time""
""fullscreenenter"",""1"",""7895""
","
","
","""event"",""trial"",""time""
""fullscreenenter"",""1"",""7895""
","
",,,,,,,,,,,,"[{""stimulus"":""run_exp/static/images/task_images/dig.jpg"",""time"":0.19999999925494194},{""stimulus"":""run_exp/static/images/task_images/land.jpg"",""time"":965.3000000007451},{""stimulus"":""run_exp/static/images/task_images/dig.jpg"",""time"":1933.1000000014901}]",[],6,,,,,,,,,,,,,,
harvest,151,586959,0.0-48.0-1.0,"""event"",""trial"",""time""
""fullscreenenter"",""1"",""7895""
","
","
","""event"",""trial"",""time""
""fullscreenenter"",""1"",""7895""
","
",,null,run_exp/static/images/task_images/gems/86.jpg,null,,,,,,,73,,,6,,,,,86,0.849528129,0.848837209,,,,,,,
decision,152,587402,0.0-48.0-2.0,"""event"",""trial"",""time""
""fullscreenenter"",""1"",""7895""
","
","
","""event"",""trial"",""time""
""fullscreenenter"",""1"",""7895""
","
",,441.6,run_exp/static/images/task_images/land.jpg,65,,,,,,,73,,,6,,,,,,,,182996,1,1,FALSE,,,
dig,153,589967,0.0-49.0-0.0,"""event"",""trial"",""time""
""fullscreenenter"",""1"",""7895""
","
","
","""event"",""trial"",""time""
""fullscreenenter"",""1"",""7895""
","
",,,,,,,,,,,,"[{""stimulus"":""run_exp/static/images/task_images/dig.jpg"",""time"":0.30000000074505806},{""stimulus"":""run_exp/static/images/task_images/land.jpg"",""time"":857},{""stimulus"":""run_exp/static/images/task_images/dig.jpg"",""time"":1713.300000000745}]",[],6,,,,,,,,,,,,,,
harvest,154,590975,0.0-49.0-1.0,"""event"",""trial"",""time""
""fullscreenenter"",""1"",""7895""
","
","
","""event"",""trial"",""time""
""fullscreenenter"",""1"",""7895""
","
",,null,run_exp/static/images/task_images/gems/73.jpg,null,,,,,,,52,,,6,,,,,73,0.716470643,0.712328767,,,,,,,
decision,155,592089,0.0-49.0-2.0,"""event"",""trial"",""time""
""fullscreenenter"",""1"",""7895""
","
","
","""event"",""trial"",""time""
""fullscreenenter"",""1"",""7895""
","
",,1113,run_exp/static/images/task_images/land.jpg,65,,,,,,,52,,,6,,,,,,,,187683,1,2,FALSE,,,
dig,156,593983,0.0-50.0-0.0,"""event"",""trial"",""time""
""fullscreenenter"",""1"",""7895""
","
","
","""event"",""trial"",""time""
""fullscreenenter"",""1"",""7895""
","
",,,,,,,,,,,,"[{""stimulus"":""run_exp/static/images/task_images/dig.jpg"",""time"":0.30000000074505806},{""stimulus"":""run_exp/static/images/task_images/land.jpg"",""time"":633.4000000022352},{""stimulus"":""run_exp/static/images/task_images/dig.jpg"",""time"":1265.4000000022352}]",[],6,,,,,,,,,,,,,,
harvest,157,594991,0.0-50.0-1.0,"""event"",""trial"",""time""
""fullscreenenter"",""1"",""7895""
","
","
","""event"",""trial"",""time""
""fullscreenenter"",""1"",""7895""
","
",,null,run_exp/static/images/task_images/gems/52.jpg,null,,,,,,,45,,,6,,,,,52,0.865581567,0.865384615,,,,,,,
decision,158,595636,0.0-50.0-2.0,"""event"",""trial"",""time""
""fullscreenenter"",""1"",""7895""
","
","
","""event"",""trial"",""time""
""fullscreenenter"",""1"",""7895""
","
",,643.5,run_exp/static/images/task_images/land.jpg,65,,,,,,,45,,,6,,,,,,,,191230,1,3,FALSE,,,
dig,159,597999,0.0-51.0-0.0,"""event"",""trial"",""time""
""fullscreenenter"",""1"",""7895""
","
","
","""event"",""trial"",""time""
""fullscreenenter"",""1"",""7895""
","
",,,,,,,,,,,,"[{""stimulus"":""run_exp/static/images/task_images/dig.jpg"",""time"":1.800000000745058},{""stimulus"":""run_exp/static/images/task_images/land.jpg"",""time"":791.1999999992549},{""stimulus"":""run_exp/static/images/task_images/dig.jpg"",""time"":1575.199999999255}]",[],6,,,,,,,,,,,,,,
harvest,160,599007,0.0-51.0-1.0,"""event"",""trial"",""time""
""fullscreenenter"",""1"",""7895""
","
","
","""event"",""trial"",""time""
""fullscreenenter"",""1"",""7895""
","
",,null,run_exp/static/images/task_images/gems/45.jpg,null,,,,,,,38,,,6,,,,,45,0.842945755,0.844444444,,,,,,,
decision,161,599494,0.0-51.0-2.0,"""event"",""trial"",""time""
""fullscreenenter"",""1"",""7895""
","
","
","""event"",""trial"",""time""
""fullscreenenter"",""1"",""7895""
","
",,485.9,run_exp/static/images/task_images/land.jpg,65,,,,,,,38,,,6,,,,,,,,195088,1,4,FALSE,,,
dig,162,602015,0.0-52.0-0.0,"""event"",""trial"",""time""
""fullscreenenter"",""1"",""7895""
","
","
","""event"",""trial"",""time""
""fullscreenenter"",""1"",""7895""
","
",,,,,,,,,,,,"[{""stimulus"":""run_exp/static/images/task_images/dig.jpg"",""time"":0.29999999701976776},{""stimulus"":""run_exp/static/images/task_images/land.jpg"",""time"":844.5999999977648},{""stimulus"":""run_exp/static/images/task_images/dig.jpg"",""time"":1684.5}]",[],6,,,,,,,,,,,,,,
harvest,163,603023,0.0-52.0-1.0,"""event"",""trial"",""time""
""fullscreenenter"",""1"",""7895""
","
","
","""event"",""trial"",""time""
""fullscreenenter"",""1"",""7895""
","
",,null,run_exp/static/images/task_images/gems/38.jpg,null,,,,,,,31,,,6,,,,,38,0.82002259,0.815789474,,,,,,,
decision,164,603458,0.0-52.0-2.0,"""event"",""trial"",""time""
""fullscreenenter"",""1"",""7895""
","
","
","""event"",""trial"",""time""
""fullscreenenter"",""1"",""7895""
","
",,433.6,run_exp/static/images/task_images/land.jpg,76,,,,,,,31,,,6,,,,,,,,199052,1,5,TRUE,,,
travel,165,613023,0.0-53.0-0.0,"""event"",""trial"",""time""
""fullscreenenter"",""1"",""7895""
","
","
","""event"",""trial"",""time""
""fullscreenenter"",""1"",""7895""
","
",,,,,,,,,,,,"[{""stimulus"":""run_exp/static/images/task_images/rocket-01.jpg"",""time"":0.30000000074505806},{""stimulus"":""run_exp/static/images/task_images/rocket-02.jpg"",""time"":1065.5},{""stimulus"":""run_exp/static/images/task_images/rocket-03.jpg"",""time"":2128.60000000149},{""stimulus"":""run_exp/static/images/task_images/rocket-04.jpg"",""time"":3193},{""stimulus"":""run_exp/static/images/task_images/rocket-05.jpg"",""time"":4257.199999999255},{""stimulus"":""run_exp/static/images/task_images/rocket-06.jpg"",""time"":5313},{""stimulus"":""run_exp/static/images/task_images/rocket-07.jpg"",""time"":6377.400000002235},{""stimulus"":""run_exp/static/images/task_images/rocket-08.jpg"",""time"":7441.300000000745},{""stimulus"":""run_exp/static/images/task_images/rocket-09.jpg"",""time"":8505.10000000149}]",[],6,,,,,,,,,,,,,,
alien_welcome,166,618031,0.0-53.0-1.0,"""event"",""trial"",""time""
""fullscreenenter"",""1"",""7895""
","
","
","""event"",""trial"",""time""
""fullscreenenter"",""1"",""7895""
","
",,null,run_exp/static/images/task_images/aliens/old_aliens/planet/alien_planet-62.jpg,null,,,,,,,,,,,,,62,"35,55,61,1,74,69,62,4,27,68,9,28,47,18,11,3,52,36,65,16,12,22,17,44,71,42,66",,,,,,,,,,
land,167,618535,0.0-53.0-2.0,"""event"",""trial"",""time""
""fullscreenenter"",""1"",""7895""
","
","
","""event"",""trial"",""time""
""fullscreenenter"",""1"",""7895""
","
",,null,run_exp/static/images/task_images/land.jpg,null,,,,,,,101,,,7,,,,,,,,,,,,,,
dig,168,620543,0.0-53.0-3.0,"""event"",""trial"",""time""
""fullscreenenter"",""1"",""7895""
","
","
","""event"",""trial"",""time""
""fullscreenenter"",""1"",""7895""
","
",,,,,,,,,,,,"[{""stimulus"":""run_exp/static/images/task_images/dig.jpg"",""time"":0.4000000022351742},{""stimulus"":""run_exp/static/images/task_images/land.jpg"",""time"":670.3000000007451},{""stimulus"":""run_exp/static/images/task_images/dig.jpg"",""time"":1342.4000000022352}]",[],7,,,,,,,,,,,,,,
harvest,169,621551,0.0-53.0-4.0,"""event"",""trial"",""time""
""fullscreenenter"",""1"",""7895""
","
","
","""event"",""trial"",""time""
""fullscreenenter"",""1"",""7895""
","
",,null,run_exp/static/images/task_images/gems/101.jpg,null,,,,,,,80,,,7,,,,,101,0.789011308,0.792079208,,,,,,,
decision,170,622320,0.0-53.0-5.0,"""event"",""trial"",""time""
""fullscreenenter"",""1"",""7895""
","
","
","""event"",""trial"",""time""
""fullscreenenter"",""1"",""7895""
","
",,767.7,run_exp/static/images/task_images/land.jpg,76,,,,,,,80,,,7,,,,,,,,217914,1,0,TRUE,,,
travel,171,631551,0.0-54.0-0.0,"""event"",""trial"",""time""
""fullscreenenter"",""1"",""7895""
","
","
","""event"",""trial"",""time""
""fullscreenenter"",""1"",""7895""
","
",,,,,,,,,,,,"[{""stimulus"":""run_exp/static/images/task_images/rocket-01.jpg"",""time"":0.30000000074505806},{""stimulus"":""run_exp/static/images/task_images/rocket-02.jpg"",""time"":1027.4000000022352},{""stimulus"":""run_exp/static/images/task_images/rocket-03.jpg"",""time"":2062},{""stimulus"":""run_exp/static/images/task_images/rocket-04.jpg"",""time"":3082.5},{""stimulus"":""run_exp/static/images/task_images/rocket-05.jpg"",""time"":4106.800000000745},{""stimulus"":""run_exp/static/images/task_images/rocket-06.jpg"",""time"":5131.10000000149},{""stimulus"":""run_exp/static/images/task_images/rocket-07.jpg"",""time"":6154.5},{""stimulus"":""run_exp/static/images/task_images/rocket-08.jpg"",""time"":7179},{""stimulus"":""run_exp/static/images/task_images/rocket-09.jpg"",""time"":8202.900000002235}]",[],7,,,,,,,,,,,,,,
alien_welcome,172,636559,0.0-54.0-1.0,"""event"",""trial"",""time""
""fullscreenenter"",""1"",""7895""
","
","
","""event"",""trial"",""time""
""fullscreenenter"",""1"",""7895""
","
",,null,run_exp/static/images/task_images/aliens/old_aliens/planet/alien_planet-4.jpg,null,,,,,,,,,,,,,4,"35,55,61,1,74,69,62,4,27,68,9,28,47,18,11,3,52,36,65,16,12,22,17,44,71,42,66",,,,,,,,,,
land,173,637063,0.0-54.0-2.0,"""event"",""trial"",""time""
""fullscreenenter"",""1"",""7895""
","
","
","""event"",""trial"",""time""
""fullscreenenter"",""1"",""7895""
","
",,null,run_exp/static/images/task_images/land.jpg,null,,,,,,,89,,,8,,,,,,,,,,,,,,
dig,174,639071,0.0-54.0-3.0,"""event"",""trial"",""time""
""fullscreenenter"",""1"",""7895""
","
","
","""event"",""trial"",""time""
""fullscreenenter"",""1"",""7895""
","
",,,,,,,,,,,,"[{""stimulus"":""run_exp/static/images/task_images/dig.jpg"",""time"":0.4000000022351742},{""stimulus"":""run_exp/static/images/task_images/land.jpg"",""time"":670.1999999992549},{""stimulus"":""run_exp/static/images/task_images/dig.jpg"",""time"":1341.5}]",[],8,,,,,,,,,,,,,,
harvest,175,640079,0.0-54.0-4.0,"""event"",""trial"",""time""
""fullscreenenter"",""1"",""7895""
","
","
","""event"",""trial"",""time""
""fullscreenenter"",""1"",""7895""
","
",,null,run_exp/static/images/task_images/gems/89.jpg,null,,,,,,,69,,,8,,,,,89,0.774456897,0.775280899,,,,,,,
decision,176,640602,0.0-54.0-5.0,"""event"",""trial"",""time""
""fullscreenenter"",""1"",""7895""
","
","
","""event"",""trial"",""time""
""fullscreenenter"",""1"",""7895""
","
",,520.2,run_exp/static/images/task_images/land.jpg,65,,,,,,,69,,,8,,,,,,,,236196,1,0,FALSE,,,
dig,177,643087,0.0-55.0-0.0,"""event"",""trial"",""time""
""fullscreenenter"",""1"",""7895""
","
","
","""event"",""trial"",""time""
""fullscreenenter"",""1"",""7895""
","
",,,,,,,,,,,,"[{""stimulus"":""run_exp/static/images/task_images/dig.jpg"",""time"":0.30000000074505806},{""stimulus"":""run_exp/static/images/task_images/land.jpg"",""time"":832.8999999985099},{""stimulus"":""run_exp/static/images/task_images/dig.jpg"",""time"":1657}]",[],8,,,,,,,,,,,,,,
harvest,178,644095,0.0-55.0-1.0,"""event"",""trial"",""time""
""fullscreenenter"",""1"",""7895""
","
","
","""event"",""trial"",""time""
""fullscreenenter"",""1"",""7895""
","
",,null,run_exp/static/images/task_images/gems/69.jpg,null,,,,,,,60,,,8,,,,,69,0.866618874,0.869565217,,,,,,,
decision,179,645484,0.0-55.0-2.0,"""event"",""trial"",""time""
""fullscreenenter"",""1"",""7895""
","
","
","""event"",""trial"",""time""
""fullscreenenter"",""1"",""7895""
","
",,1387.5,run_exp/static/images/task_images/land.jpg,65,,,,,,,60,,,8,,,,,,,,241078,1,1,FALSE,,,
dig,180,647103,0.0-56.0-0.0,"""event"",""trial"",""time""
""fullscreenenter"",""1"",""7895""
","
","
","""event"",""trial"",""time""
""fullscreenenter"",""1"",""7895""
","
",,,,,,,,,,,,"[{""stimulus"":""run_exp/static/images/task_images/dig.jpg"",""time"":0.20000000298023224},{""stimulus"":""run_exp/static/images/task_images/land.jpg"",""time"":542.9000000022352},{""stimulus"":""run_exp/static/images/task_images/dig.jpg"",""time"":1078.7000000029802}]",[],8,,,,,,,,,,,,,,
harvest,181,648105,0.0-56.0-1.0,"""event"",""trial"",""time""
""fullscreenenter"",""1"",""7895""
","
","
","""event"",""trial"",""time""
""fullscreenenter"",""1"",""7895""
","
",,null,run_exp/static/images/task_images/gems/60.jpg,null,,,,,,,48,,,8,,,,,60,0.801362518,0.8,,,,,,,
decision,182,648496,0.0-56.0-2.0,"""event"",""trial"",""time""
""fullscreenenter"",""1"",""7895""
","
","
","""event"",""trial"",""time""
""fullscreenenter"",""1"",""7895""
","
",,389,run_exp/static/images/task_images/land.jpg,65,,,,,,,48,,,8,,,,,,,,244090,1,2,FALSE,,,
dig,183,651119,0.0-57.0-0.0,"""event"",""trial"",""time""
""fullscreenenter"",""1"",""7895""
","
","
","""event"",""trial"",""time""
""fullscreenenter"",""1"",""7895""
","
",,,,,,,,,,,,"[{""stimulus"":""run_exp/static/images/task_images/dig.jpg"",""time"":0.20000000298023224},{""stimulus"":""run_exp/static/images/task_images/land.jpg"",""time"":874.9000000022352},{""stimulus"":""run_exp/static/images/task_images/dig.jpg"",""time"":1746.800000000745}]",[],8,,,,,,,,,,,,,,
harvest,184,652127,0.0-57.0-1.0,"""event"",""trial"",""time""
""fullscreenenter"",""1"",""7895""
","
","
","""event"",""trial"",""time""
""fullscreenenter"",""1"",""7895""
","
",,null,run_exp/static/images/task_images/gems/48.jpg,null,,,,,,,44,,,8,,,,,48,0.920846633,0.916666667,,,,,,,
decision,185,652944,0.0-57.0-2.0,"""event"",""trial"",""time""
""fullscreenenter"",""1"",""7895""
","
","
","""event"",""trial"",""time""
""fullscreenenter"",""1"",""7895""
","
",,815.3,run_exp/static/images/task_images/land.jpg,76,,,,,,,44,,,8,,,,,,,,248538,1,3,TRUE,,,
travel,186,662135,0.0-58.0-0.0,"""event"",""trial"",""time""
""fullscreenenter"",""1"",""7895""
","
","
","""event"",""trial"",""time""
""fullscreenenter"",""1"",""7895""
","
",,,,,,,,,,,,"[{""stimulus"":""run_exp/static/images/task_images/rocket-01.jpg"",""time"":0.20000000298023224},{""stimulus"":""run_exp/static/images/task_images/rocket-02.jpg"",""time"":1026.800000000745},{""stimulus"":""run_exp/static/images/task_images/rocket-03.jpg"",""time"":2042.9000000022352},{""stimulus"":""run_exp/static/images/task_images/rocket-04.jpg"",""time"":3067},{""stimulus"":""run_exp/static/images/task_images/rocket-05.jpg"",""time"":4082.7000000029802},{""stimulus"":""run_exp/static/images/task_images/rocket-06.jpg"",""time"":5106.800000000745},{""stimulus"":""run_exp/static/images/task_images/rocket-07.jpg"",""time"":6123},{""stimulus"":""run_exp/static/images/task_images/rocket-08.jpg"",""time"":7147.10000000149},{""stimulus"":""run_exp/static/images/task_images/rocket-09.jpg"",""time"":8162.900000002235}]",[],8,,,,,,,,,,,,,,
alien_welcome,187,667143,0.0-58.0-1.0,"""event"",""trial"",""time""
""fullscreenenter"",""1"",""7895""
","
","
","""event"",""trial"",""time""
""fullscreenenter"",""1"",""7895""
","
",,null,run_exp/static/images/task_images/aliens/old_aliens/planet/alien_planet-27.jpg,null,,,,,,,,,,,,,27,"35,55,61,1,74,69,62,4,27,68,9,28,47,18,11,3,52,36,65,16,12,22,17,44,71,42,66",,,,,,,,,,
land,188,667647,0.0-58.0-2.0,"""event"",""trial"",""time""
""fullscreenenter"",""1"",""7895""
","
","
","""event"",""trial"",""time""
""fullscreenenter"",""1"",""7895""
","
",,null,run_exp/static/images/task_images/land.jpg,null,,,,,,,103,,,9,,,,,,,,,,,,,,
dig,189,669655,0.0-58.0-3.0,"""event"",""trial"",""time""
""fullscreenenter"",""1"",""7895""
","
","
","""event"",""trial"",""time""
""fullscreenenter"",""1"",""7895""
","
",,,,,,,,,,,,"[{""stimulus"":""run_exp/static/images/task_images/dig.jpg"",""time"":0.4000000022351742},{""stimulus"":""run_exp/static/images/task_images/land.jpg"",""time"":670.4000000022352},{""stimulus"":""run_exp/static/images/task_images/dig.jpg"",""time"":1342}]",[],9,,,,,,,,,,,,,,
harvest,190,670663,0.0-58.0-4.0,"""event"",""trial"",""time""
""fullscreenenter"",""1"",""7895""
","
","
","""event"",""trial"",""time""
""fullscreenenter"",""1"",""7895""
","
",,null,run_exp/static/images/task_images/gems/103.jpg,null,,,,,,,18,,,9,,,,,103,0.170596133,0.174757282,,,,,,,
decision,191,671150,0.0-58.0-5.0,"""event"",""trial"",""time""
""fullscreenenter"",""1"",""7895""
","
","
","""event"",""trial"",""time""
""fullscreenenter"",""1"",""7895""
","
",,485.1,run_exp/static/images/task_images/land.jpg,65,,,,,,,18,,,9,,,,,,,,266744,1,0,FALSE,,,
dig,192,673671,0.0-59.0-0.0,"""event"",""trial"",""time""
""fullscreenenter"",""1"",""7895""
","
","
","""event"",""trial"",""time""
""fullscreenenter"",""1"",""7895""
","
",,,,,,,,,,,,"[{""stimulus"":""run_exp/static/images/task_images/dig.jpg"",""time"":0.19999999925494194},{""stimulus"":""run_exp/static/images/task_images/land.jpg"",""time"":845},{""stimulus"":""run_exp/static/images/task_images/dig.jpg"",""time"":1684.9000000022352}]",[],9,,,,,,,,,,,,,,
harvest,193,674679,0.0-59.0-1.0,"""event"",""trial"",""time""
""fullscreenenter"",""1"",""7895""
","
","
","""event"",""trial"",""time""
""fullscreenenter"",""1"",""7895""
","
",,null,run_exp/static/images/task_images/gems/18.jpg,null,,,,,,,4,,,9,,,,,18,0.212932938,0.222222222,,,,,,,
decision,194,674708,0.0-59.0-2.0,"""event"",""trial"",""time""
""fullscreenenter"",""1"",""7895""
","
","
","""event"",""trial"",""time""
""fullscreenenter"",""1"",""7895""
","
",,27.7,run_exp/static/images/task_images/land.jpg,65,,,,,,,4,,,9,,,,,,,,270302,1,1,FALSE,,,
dig,195,677687,0.0-60.0-0.0,"""event"",""trial"",""time""
""fullscreenenter"",""1"",""7895""
","
","
","""event"",""trial"",""time""
""fullscreenenter"",""1"",""7895""
","
",,,,,,,,,,,,"[{""stimulus"":""run_exp/static/images/task_images/dig.jpg"",""time"":0.3999999985098839},{""stimulus"":""run_exp/static/images/task_images/land.jpg"",""time"":996.5},{""stimulus"":""run_exp/static/images/task_images/dig.jpg"",""time"":1988.300000000745}]",[],9,,,,,,,,,,,,,,
harvest,196,678695,0.0-60.0-1.0,"""event"",""trial"",""time""
""fullscreenenter"",""1"",""7895""
","
","
","""event"",""trial"",""time""
""fullscreenenter"",""1"",""7895""
","
",,null,run_exp/static/images/task_images/gems/4.jpg,null,,,,,,,1,,,9,,,,,4,0.146121312,0.25,,,,,,,
decision,197,679378,0.0-60.0-2.0,"""event"",""trial"",""time""
""fullscreenenter"",""1"",""7895""
","
","
","""event"",""trial"",""time""
""fullscreenenter"",""1"",""7895""
","
",,681.3,run_exp/static/images/task_images/land.jpg,65,,,,,,,1,,,9,,,,,,,,274972,1,2,FALSE,,,
dig,198,681703,0.0-61.0-0.0,"""event"",""trial"",""time""
""fullscreenenter"",""1"",""7895""
","
","
","""event"",""trial"",""time""
""fullscreenenter"",""1"",""7895""
","
",,,,,,,,,,,,"[{""stimulus"":""run_exp/static/images/task_images/dig.jpg"",""time"":0.19999999925494194},{""stimulus"":""run_exp/static/images/task_images/land.jpg"",""time"":776.8000000007451},{""stimulus"":""run_exp/static/images/task_images/dig.jpg"",""time"":1552.6000000014901}]",[],9,,,,,,,,,,,,,,
harvest,199,682711,0.0-61.0-1.0,"""event"",""trial"",""time""
""fullscreenenter"",""1"",""7895""
","
","
","""event"",""trial"",""time""
""fullscreenenter"",""1"",""7895""
","
",,null,run_exp/static/images/task_images/gems/1.jpg,null,,,,,,,0,,,9,,,,,1,0.242534143,0,,,,,,,
decision,200,683515,0.0-61.0-2.0,"""event"",""trial"",""time""
""fullscreenenter"",""1"",""7895""
","
","
","""event"",""trial"",""time""
""fullscreenenter"",""1"",""7895""
","
",,803.3,run_exp/static/images/task_images/land.jpg,76,,,,,,,0,,,9,,,,,,,,279110,1,3,TRUE,,,
travel,201,692711,0.0-62.0-0.0,"""event"",""trial"",""time""
""fullscreenenter"",""1"",""7895""
","
","
","""event"",""trial"",""time""
""fullscreenenter"",""1"",""7895""
","
",,,,,,,,,,,,"[{""stimulus"":""run_exp/static/images/task_images/rocket-01.jpg"",""time"":0.30000000074505806},{""stimulus"":""run_exp/static/images/task_images/rocket-02.jpg"",""time"":1022.9000000022352},{""stimulus"":""run_exp/static/images/task_images/rocket-03.jpg"",""time"":2047.4000000022352},{""stimulus"":""run_exp/static/images/task_images/rocket-04.jpg"",""time"":3071.400000002235},{""stimulus"":""run_exp/static/images/task_images/rocket-05.jpg"",""time"":4087.400000002235},{""stimulus"":""run_exp/static/images/task_images/rocket-06.jpg"",""time"":5111.20000000298},{""stimulus"":""run_exp/static/images/task_images/rocket-07.jpg"",""time"":6135.300000000745},{""stimulus"":""run_exp/static/images/task_images/rocket-08.jpg"",""time"":7151.400000002235},{""stimulus"":""run_exp/static/images/task_images/rocket-09.jpg"",""time"":8175.300000000745}]",[],9,,,,,,,,,,,,,,
alien_welcome,202,697719,0.0-62.0-1.0,"""event"",""trial"",""time""
""fullscreenenter"",""1"",""7895""
","
","
","""event"",""trial"",""time""
""fullscreenenter"",""1"",""7895""
","
",,null,run_exp/static/images/task_images/aliens/old_aliens/planet/alien_planet-68.jpg,null,,,,,,,,,,,,,68,"35,55,61,1,74,69,62,4,27,68,9,28,47,18,11,3,52,36,65,16,12,22,17,44,71,42,66",,,,,,,,,,
land,203,698223,0.0-62.0-2.0,"""event"",""trial"",""time""
""fullscreenenter"",""1"",""7895""
","
","
","""event"",""trial"",""time""
""fullscreenenter"",""1"",""7895""
","
",,null,run_exp/static/images/task_images/land.jpg,null,,,,,,,102,,,10,,,,,,,,,,,,,,
dig,204,700231,0.0-62.0-3.0,"""event"",""trial"",""time""
""fullscreenenter"",""1"",""7895""
","
","
","""event"",""trial"",""time""
""fullscreenenter"",""1"",""7895""
","
",,,,,,,,,,,,"[{""stimulus"":""run_exp/static/images/task_images/dig.jpg"",""time"":0.4000000022351742},{""stimulus"":""run_exp/static/images/task_images/land.jpg"",""time"":670.3000000007451},{""stimulus"":""run_exp/static/images/task_images/dig.jpg"",""time"":1342.300000000745}]",[],10,,,,,,,,,,,,,,
harvest,205,701239,0.0-62.0-4.0,"""event"",""trial"",""time""
""fullscreenenter"",""1"",""7895""
","
","
","""event"",""trial"",""time""
""fullscreenenter"",""1"",""7895""
","
",,null,run_exp/static/images/task_images/gems/102.jpg,null,,,,,,,11,,,10,,,,,102,0.109811241,0.107843137,,,,,,,
decision,206,703461,0.0-62.0-5.0,"""event"",""trial"",""time""
""fullscreenenter"",""1"",""7895""
","
","
","""event"",""trial"",""time""
""fullscreenenter"",""1"",""7895""
","
",,2221,run_exp/static/images/task_images/land.jpg,65,,,,,,,11,,,10,,,,,,,,299056,1,0,FALSE,,,
dig,207,704247,0.0-63.0-0.0,"""event"",""trial"",""time""
""fullscreenenter"",""1"",""7895""
","
","
","""event"",""trial"",""time""
""fullscreenenter"",""1"",""7895""
","
",,,,,,,,,,,,"[{""stimulus"":""run_exp/static/images/task_images/dig.jpg"",""time"":0.19999999925494194},{""stimulus"":""run_exp/static/images/task_images/land.jpg"",""time"":261.5},{""stimulus"":""run_exp/static/images/task_images/dig.jpg"",""time"":525.3999999985099}]",[],10,,,,,,,,,,,,,,
harvest,208,705255,0.0-63.0-1.0,"""event"",""trial"",""time""
""fullscreenenter"",""1"",""7895""
","
","
","""event"",""trial"",""time""
""fullscreenenter"",""1"",""7895""
","
",,null,run_exp/static/images/task_images/gems/11.jpg,null,,,,,,,4,,,10,,,,,11,0.319553522,0.363636364,,,,,,,
decision,209,706911,0.0-63.0-2.0,"""event"",""trial"",""time""
""fullscreenenter"",""1"",""7895""
","
","
","""event"",""trial"",""time""
""fullscreenenter"",""1"",""7895""
","
",,1654.9,run_exp/static/images/task_images/land.jpg,65,,,,,,,4,,,10,,,,,,,,302506,1,1,TRUE,,,
end_of_block_continue,210,711363,0.0-64.0-0.0,"""event"",""trial"",""time""
""fullscreenenter"",""1"",""7895""
","
","
","""event"",""trial"",""time""
""fullscreenenter"",""1"",""7895""
","
",,4444.3,run_exp/static/audio/clip_32_block_end.m4a,,,,,,,0,,,,,,,,,,,,,,,,,,
alien_welcome,211,716375,0.0-65.0-0.0,"""event"",""trial"",""time""
""fullscreenenter"",""1"",""7895""
","
","
","""event"",""trial"",""time""
""fullscreenenter"",""1"",""7895""
","
",,null,run_exp/static/images/task_images/aliens/old_aliens/planet/alien_planet-9.jpg,null,,,,,,,,,,,,,9,"35,55,61,1,74,69,62,4,27,68,9,28,47,18,11,3,52,36,65,16,12,22,17,44,71,42,66",,,,,,,,,,
land,212,716879,0.0-65.0-1.0,"""event"",""trial"",""time""
""fullscreenenter"",""1"",""7895""
","
","
","""event"",""trial"",""time""
""fullscreenenter"",""1"",""7895""
","
",,null,run_exp/static/images/task_images/land.jpg,null,,,,,,,90,,,11,,,,,,,,,,,,,,
dig,213,718887,0.0-65.0-2.0,"""event"",""trial"",""time""
""fullscreenenter"",""1"",""7895""
","
","
","""event"",""trial"",""time""
""fullscreenenter"",""1"",""7895""
","
",,,,,,,,,,,,"[{""stimulus"":""run_exp/static/images/task_images/dig.jpg"",""time"":0.3999999985098839},{""stimulus"":""run_exp/static/images/task_images/land.jpg"",""time"":670.3000000007451},{""stimulus"":""run_exp/static/images/task_images/dig.jpg"",""time"":1342.1000000014901}]",[],11,,,,,,,,,,,,,,
harvest,214,719895,0.0-65.0-3.0,"""event"",""trial"",""time""
""fullscreenenter"",""1"",""7895""
","
","
","""event"",""trial"",""time""
""fullscreenenter"",""1"",""7895""
","
",,null,run_exp/static/images/task_images/gems/90.jpg,null,,,,,,,14,,,11,,,,,90,0.155372715,0.155555556,,,,,,,
decision,215,720804,0.0-65.0-4.0,"""event"",""trial"",""time""
""fullscreenenter"",""1"",""7895""
","
","
","""event"",""trial"",""time""
""fullscreenenter"",""1"",""7895""
","
",,907.5,run_exp/static/images/task_images/land.jpg,65,,,,,,,14,,,11,,,,,,,,9438,2,0,FALSE,,,
dig,216,722903,0.0-66.0-0.0,"""event"",""trial"",""time""
""fullscreenenter"",""1"",""7895""
","
","
","""event"",""trial"",""time""
""fullscreenenter"",""1"",""7895""
","
",,,,,,,,,,,,"[{""stimulus"":""run_exp/static/images/task_images/dig.jpg"",""time"":0.29999999701976776},{""stimulus"":""run_exp/static/images/task_images/land.jpg"",""time"":702.0999999977648},{""stimulus"":""run_exp/static/images/task_images/dig.jpg"",""time"":1398.0999999977648}]",[],11,,,,,,,,,,,,,,
harvest,217,723911,0.0-66.0-1.0,"""event"",""trial"",""time""
""fullscreenenter"",""1"",""7895""
","
","
","""event"",""trial"",""time""
""fullscreenenter"",""1"",""7895""
","
",,null,run_exp/static/images/task_images/gems/14.jpg,null,,,,,,,4,,,11,,,,,14,0.256806845,0.285714286,,,,,,,
decision,218,724175,0.0-66.0-2.0,"""event"",""trial"",""time""
""fullscreenenter"",""1"",""7895""
","
","
","""event"",""trial"",""time""
""fullscreenenter"",""1"",""7895""
","
",,262.9,run_exp/static/images/task_images/land.jpg,65,,,,,,,4,,,11,,,,,,,,12809,2,1,FALSE,,,
dig,219,726919,0.0-67.0-0.0,"""event"",""trial"",""time""
""fullscreenenter"",""1"",""7895""
","
","
","""event"",""trial"",""time""
""fullscreenenter"",""1"",""7895""
","
",,,,,,,,,,,,"[{""stimulus"":""run_exp/static/images/task_images/dig.jpg"",""time"":0.30000000074505806},{""stimulus"":""run_exp/static/images/task_images/land.jpg"",""time"":915.6000000014901},{""stimulus"":""run_exp/static/images/task_images/dig.jpg"",""time"":1827.7000000029802}]",[],11,,,,,,,,,,,,,,
harvest,220,727927,0.0-67.0-1.0,"""event"",""trial"",""time""
""fullscreenenter"",""1"",""7895""
","
","
","""event"",""trial"",""time""
""fullscreenenter"",""1"",""7895""
","
",,null,run_exp/static/images/task_images/gems/4.jpg,null,,,,,,,1,,,11,,,,,4,0.27902249,0.25,,,,,,,
decision,221,730529,0.0-67.0-2.0,"""event"",""trial"",""time""
""fullscreenenter"",""1"",""7895""
","
","
","""event"",""trial"",""time""
""fullscreenenter"",""1"",""7895""
","
",,2600.3,run_exp/static/images/task_images/land.jpg,65,,,,,,,1,,,11,,,,,,,,19163,2,2,FALSE,,,
dig,222,730935,0.0-68.0-0.0,"""event"",""trial"",""time""
""fullscreenenter"",""1"",""7895""
","
","
","""event"",""trial"",""time""
""fullscreenenter"",""1"",""7895""
","
",,,,,,,,,,,,"[{""stimulus"":""run_exp/static/images/task_images/dig.jpg"",""time"":0.6000000014901161},{""stimulus"":""run_exp/static/images/task_images/land.jpg"",""time"":137.30000000074506},{""stimulus"":""run_exp/static/images/task_images/dig.jpg"",""time"":273.1000000014901}]",[],11,,,,,,,,,,,,,,
harvest,223,731937,0.0-68.0-1.0,"""event"",""trial"",""time""
""fullscreenenter"",""1"",""7895""
","
","
","""event"",""trial"",""time""
""fullscreenenter"",""1"",""7895""
","
",,null,run_exp/static/images/task_images/gems/1.jpg,null,,,,,,,0,,,11,,,,,1,0.189332057,0,,,,,,,
decision,224,732445,0.0-68.0-2.0,"""event"",""trial"",""time""
""fullscreenenter"",""1"",""7895""
","
","
","""event"",""trial"",""time""
""fullscreenenter"",""1"",""7895""
","
",,505.6,run_exp/static/images/task_images/land.jpg,65,,,,,,,0,,,11,,,,,,,,21080,2,3,FALSE,,,
dig,225,734951,0.0-69.0-0.0,"""event"",""trial"",""time""
""fullscreenenter"",""1"",""7895""
","
","
","""event"",""trial"",""time""
""fullscreenenter"",""1"",""7895""
","
",,,,,,,,,,,,"[{""stimulus"":""run_exp/static/images/task_images/dig.jpg"",""time"":0.20000000298023224},{""stimulus"":""run_exp/static/images/task_images/land.jpg"",""time"":837.4000000022352},{""stimulus"":""run_exp/static/images/task_images/dig.jpg"",""time"":1674.6000000014901}]",[],11,,,,,,,,,,,,,,
harvest,226,735959,0.0-69.0-1.0,"""event"",""trial"",""time""
""fullscreenenter"",""1"",""7895""
","
","
","""event"",""trial"",""time""
""fullscreenenter"",""1"",""7895""
","
",,null,run_exp/static/images/task_images/gems/0.jpg,null,,,,,,,0,,,11,,,,,0,0.256716026,NaN,,,,,,,
decision,227,736672,0.0-69.0-2.0,"""event"",""trial"",""time""
""fullscreenenter"",""1"",""7895""
","
","
","""event"",""trial"",""time""
""fullscreenenter"",""1"",""7895""
","
",,711.5,run_exp/static/images/task_images/land.jpg,76,,,,,,,0,,,11,,,,,,,,25306,2,4,TRUE,,,
travel,228,745975,0.0-70.0-0.0,"""event"",""trial"",""time""
""fullscreenenter"",""1"",""7895""
","
","
","""event"",""trial"",""time""
""fullscreenenter"",""1"",""7895""
","
",,,,,,,,,,,,"[{""stimulus"":""run_exp/static/images/task_images/rocket-01.jpg"",""time"":0.30000000074505806},{""stimulus"":""run_exp/static/images/task_images/rocket-02.jpg"",""time"":1041.6000000014901},{""stimulus"":""run_exp/static/images/task_images/rocket-03.jpg"",""time"":2073.60000000149},{""stimulus"":""run_exp/static/images/task_images/rocket-04.jpg"",""time"":3097.800000000745},{""stimulus"":""run_exp/static/images/task_images/rocket-05.jpg"",""time"":4137.60000000149},{""stimulus"":""run_exp/static/images/task_images/rocket-06.jpg"",""time"":5169.699999999255},{""stimulus"":""run_exp/static/images/task_images/rocket-07.jpg"",""time"":6193.5},{""stimulus"":""run_exp/static/images/task_images/rocket-08.jpg"",""time"":7233.300000000745},{""stimulus"":""run_exp/static/images/task_images/rocket-09.jpg"",""time"":8258}]",[],11,,,,,,,,,,,,,,
alien_welcome,229,750983,0.0-70.0-1.0,"""event"",""trial"",""time""
""fullscreenenter"",""1"",""7895""
","
","
","""event"",""trial"",""time""
""fullscreenenter"",""1"",""7895""
","
",,null,run_exp/static/images/task_images/aliens/old_aliens/planet/alien_planet-28.jpg,null,,,,,,,,,,,,,28,"35,55,61,1,74,69,62,4,27,68,9,28,47,18,11,3,52,36,65,16,12,22,17,44,71,42,66",,,,,,,,,,
land,230,751487,0.0-70.0-2.0,"""event"",""trial"",""time""
""fullscreenenter"",""1"",""7895""
","
","
","""event"",""trial"",""time""
""fullscreenenter"",""1"",""7895""
","
",,null,run_exp/static/images/task_images/land.jpg,null,,,,,,,90,,,12,,,,,,,,,,,,,,
dig,231,753495,0.0-70.0-3.0,"""event"",""trial"",""time""
""fullscreenenter"",""1"",""7895""
","
","
","""event"",""trial"",""time""
""fullscreenenter"",""1"",""7895""
","
",,,,,,,,,,,,"[{""stimulus"":""run_exp/static/images/task_images/dig.jpg"",""time"":0.5},{""stimulus"":""run_exp/static/images/task_images/land.jpg"",""time"":670.6000000014901},{""stimulus"":""run_exp/static/images/task_images/dig.jpg"",""time"":1342.2000000029802}]",[],12,,,,,,,,,,,,,,
harvest,232,754503,0.0-70.0-4.0,"""event"",""trial"",""time""
""fullscreenenter"",""1"",""7895""
","
","
","""event"",""trial"",""time""
""fullscreenenter"",""1"",""7895""
","
",,null,run_exp/static/images/task_images/gems/90.jpg,null,,,,,,,15,,,12,,,,,90,0.163565679,0.166666667,,,,,,,
decision,233,754912,0.0-70.0-5.0,"""event"",""trial"",""time""
""fullscreenenter"",""1"",""7895""
","
","
","""event"",""trial"",""time""
""fullscreenenter"",""1"",""7895""
","
",,407.5,run_exp/static/images/task_images/land.jpg,65,,,,,,,15,,,12,,,,,,,,43546,2,0,FALSE,,,
dig,234,757511,0.0-71.0-0.0,"""event"",""trial"",""time""
""fullscreenenter"",""1"",""7895""
","
","
","""event"",""trial"",""time""
""fullscreenenter"",""1"",""7895""
","
",,,,,,,,,,,,"[{""stimulus"":""run_exp/static/images/task_images/dig.jpg"",""time"":0.3999999985098839},{""stimulus"":""run_exp/static/images/task_images/land.jpg"",""time"":865.8000000007451},{""stimulus"":""run_exp/static/images/task_images/dig.jpg"",""time"":1730.0999999977648}]",[],12,,,,,,,,,,,,,,
harvest,235,758519,0.0-71.0-1.0,"""event"",""trial"",""time""
""fullscreenenter"",""1"",""7895""
","
","
","""event"",""trial"",""time""
""fullscreenenter"",""1"",""7895""
","
",,null,run_exp/static/images/task_images/gems/15.jpg,null,,,,,,,4,,,12,,,,,15,0.286549257,0.266666667,,,,,,,
decision,236,759165,0.0-71.0-2.0,"""event"",""trial"",""time""
""fullscreenenter"",""1"",""7895""
","
","
","""event"",""trial"",""time""
""fullscreenenter"",""1"",""7895""
","
",,644.8,run_exp/static/images/task_images/land.jpg,65,,,,,,,4,,,12,,,,,,,,47800,2,1,FALSE,,,
dig,237,761535,0.0-72.0-0.0,"""event"",""trial"",""time""
""fullscreenenter"",""1"",""7895""
","
","
","""event"",""trial"",""time""
""fullscreenenter"",""1"",""7895""
","
",,,,,,,,,,,,"[{""stimulus"":""run_exp/static/images/task_images/dig.jpg"",""time"":0.4000000022351742},{""stimulus"":""run_exp/static/images/task_images/land.jpg"",""time"":794.6000000014901},{""stimulus"":""run_exp/static/images/task_images/dig.jpg"",""time"":1578.2000000029802}]",[],12,,,,,,,,,,,,,,
harvest,238,762543,0.0-72.0-1.0,"""event"",""trial"",""time""
""fullscreenenter"",""1"",""7895""
","
","
","""event"",""trial"",""time""
""fullscreenenter"",""1"",""7895""
","
",,null,run_exp/static/images/task_images/gems/4.jpg,null,,,,,,,1,,,12,,,,,4,0.155827668,0.25,,,,,,,
decision,239,763136,0.0-72.0-2.0,"""event"",""trial"",""time""
""fullscreenenter"",""1"",""7895""
","
","
","""event"",""trial"",""time""
""fullscreenenter"",""1"",""7895""
","
",,591.2,run_exp/static/images/task_images/land.jpg,65,,,,,,,1,,,12,,,,,,,,51770,2,2,FALSE,,,
dig,240,765551,0.0-73.0-0.0,"""event"",""trial"",""time""
""fullscreenenter"",""1"",""7895""
","
","
","""event"",""trial"",""time""
""fullscreenenter"",""1"",""7895""
","
",,,,,,,,,,,,"[{""stimulus"":""run_exp/static/images/task_images/dig.jpg"",""time"":0.19999999925494194},{""stimulus"":""run_exp/static/images/task_images/land.jpg"",""time"":811.1999999992549},{""stimulus"":""run_exp/static/images/task_images/dig.jpg"",""time"":1611}]",[],12,,,,,,,,,,,,,,
harvest,241,766561,0.0-73.0-1.0,"""event"",""trial"",""time""
""fullscreenenter"",""1"",""7895""
","
","
","""event"",""trial"",""time""
""fullscreenenter"",""1"",""7895""
","
",,null,run_exp/static/images/task_images/gems/1.jpg,null,,,,,,,0,,,12,,,,,1,0.097511361,0,,,,,,,
decision,242,767302,0.0-73.0-2.0,"""event"",""trial"",""time""
""fullscreenenter"",""1"",""7895""
","
","
","""event"",""trial"",""time""
""fullscreenenter"",""1"",""7895""
","
",,737.7,run_exp/static/images/task_images/land.jpg,65,,,,,,,0,,,12,,,,,,,,55936,2,3,FALSE,,,
dig,243,769575,0.0-74.0-0.0,"""event"",""trial"",""time""
""fullscreenenter"",""1"",""7895""
","
","
","""event"",""trial"",""time""
""fullscreenenter"",""1"",""7895""
","
",,,,,,,,,,,,"[{""stimulus"":""run_exp/static/images/task_images/dig.jpg"",""time"":0.3999999985098839},{""stimulus"":""run_exp/static/images/task_images/land.jpg"",""time"":757},{""stimulus"":""run_exp/static/images/task_images/dig.jpg"",""time"":1516.800000000745}]",[],12,,,,,,,,,,,,,,
harvest,244,770583,0.0-74.0-1.0,"""event"",""trial"",""time""
""fullscreenenter"",""1"",""7895""
","
","
","""event"",""trial"",""time""
""fullscreenenter"",""1"",""7895""
","
",,null,run_exp/static/images/task_images/gems/0.jpg,null,,,,,,,0,,,12,,,,,0,0.288829826,NaN,,,,,,,
decision,245,770796,0.0-74.0-2.0,"""event"",""trial"",""time""
""fullscreenenter"",""1"",""7895""
","
","
","""event"",""trial"",""time""
""fullscreenenter"",""1"",""7895""
","
",,211.5,run_exp/static/images/task_images/land.jpg,76,,,,,,,0,,,12,,,,,,,,59430,2,4,TRUE,,,
travel,246,780591,0.0-75.0-0.0,"""event"",""trial"",""time""
""fullscreenenter"",""1"",""7895""
","
","
","""event"",""trial"",""time""
""fullscreenenter"",""1"",""7895""
","
",,,,,,,,,,,,"[{""stimulus"":""run_exp/static/images/task_images/rocket-01.jpg"",""time"":1.5},{""stimulus"":""run_exp/static/images/task_images/rocket-02.jpg"",""time"":1091.300000000745},{""stimulus"":""run_exp/static/images/task_images/rocket-03.jpg"",""time"":2179.199999999255},{""stimulus"":""run_exp/static/images/task_images/rocket-04.jpg"",""time"":3267.5},{""stimulus"":""run_exp/static/images/task_images/rocket-05.jpg"",""time"":4355.300000000745},{""stimulus"":""run_exp/static/images/task_images/rocket-06.jpg"",""time"":5443.199999999255},{""stimulus"":""run_exp/static/images/task_images/rocket-07.jpg"",""time"":6531.199999999255},{""stimulus"":""run_exp/static/images/task_images/rocket-08.jpg"",""time"":7619.199999999255},{""stimulus"":""run_exp/static/images/task_images/rocket-09.jpg"",""time"":8699.10000000149}]",[],12,,,,,,,,,,,,,,
alien_welcome,247,785603,0.0-75.0-1.0,"""event"",""trial"",""time""
""fullscreenenter"",""1"",""7895""
","
","
","""event"",""trial"",""time""
""fullscreenenter"",""1"",""7895""
","
