trial_type,trial_index,time_elapsed,internal_node_id,interactions,blur_events,focus_events,fullscreenenter_events,fullscreenexit_events,success,rt,stimulus,key_press,prompt,subject_id,participant_id,age,gender,button_pressed,next_reward,animation_sequence,responses,planet,curr_prac_trial,n_prac_rounds,alien,aliens,reward_received,decay_rate_actual,decay_rate_exp,time_in_block,block_num,prt,last_trial_on_planet,button_html,bonus,num_failures
pavlovia,0,4,0.0-0.0,"""event"",""trial"",""time""
""fullscreenenter"",""1"",""2214""
","
","
","""event"",""trial"",""time""
""fullscreenenter"",""1"",""2214""
","
",,,,,,,,,,,,,,,,,,,,,,,,,,,,
fullscreen,1,3202,0.0-1.0,"""event"",""trial"",""time""
""fullscreenenter"",""1"",""2214""
","
","
","""event"",""trial"",""time""
""fullscreenenter"",""1"",""2214""
","
",TRUE,,,,,,,,,,,,,,,,,,,,,,,,,,,
instruc_welcome,2,12934,0.0-2.0,"""event"",""trial"",""time""
""fullscreenenter"",""1"",""2214""
","
","
","""event"",""trial"",""time""
""fullscreenenter"",""1"",""2214""
","
",,null,run_exp/static/audio/clip_1_welcome.m4a,null,"<p>Howdy! In this experiment, you’ll be an explorer traveling through space to collect space treasure.</p><p>Your mission is to collect as much treasure as possible.</p><br><br><p><img src='run_exp/static/images/task_images/opening_img-01.jpg' height='300' width='auto'></p>",9577,973,23.9,Female,,,,,,,,,,,,,,,,,,,
audio-keyboard-response,3,29512,0.0-3.0,"""event"",""trial"",""time""
""fullscreenenter"",""1"",""2214""
","
","
","""event"",""trial"",""time""
""fullscreenenter"",""1"",""2214""
","
",,null,run_exp/static/audio/clip_2_move.m4a,null,,,,,,,,,,,,,,,,,,,,,,,,
welcome_dec,4,32997,0.0-4.0,"""event"",""trial"",""time""
""fullscreenenter"",""1"",""2214""
","
","
","""event"",""trial"",""time""
""fullscreenenter"",""1"",""2214""
","
",,3481.1,"<p>Howdy! In this experiment, you’ll be an explorer traveling through space to collect space treasure.</p><p>Your mission is to collect as much treasure as possible.</p><br><br><p><img src='run_exp/static/images/task_images/opening_img-01.jpg' height='300' width='auto'></p>",,,,,,,1,,,,,,,,,,,,,,,,,,
html-keyboard-response,5,34691,0.0-5.0,"""event"",""trial"",""time""
""fullscreenenter"",""1"",""2214""
","
","
","""event"",""trial"",""time""
""fullscreenenter"",""1"",""2214""
","
",,1691.9,"<p>Howdy! In this experiment, you’ll be an explorer traveling through space to collect space treasure.</p><p>Your mission is to collect as much treasure as possible.</p><br><br><p><img src='run_exp/static/images/task_images/opening_img-01.jpg' height='300' width='auto'></p><button class=""jspsych-html-btn-unchosen""><img src=""run_exp/static/images/task_images/planet-01.jpg"" height=""50""></button><button class=""jspsych-html-btn-chosen""><img src=""run_exp/static/images/task_images/planet-02.jpg"" height=""50""></button><p><b>[press the space bar to lock in your answer]<b><br></p>",32,,,,,,,,,,,,,,,,,,,,,,,,
instruc_goal,6,44753,0.0-6.0-0.0,"""event"",""trial"",""time""
""fullscreenenter"",""1"",""2214""
","
","
","""event"",""trial"",""time""
""fullscreenenter"",""1"",""2214""
","
",,null,run_exp/static/audio/clip_3_goal.m4a,null,"<p> As a space explorer, you’ll visit different planets to dig for space treasure, these pink gems.</p> <p> The more treasure you dig up, the more bonus money you’ll win! </p><br><br><p><img src='run_exp/static/images/task_images/pink_gem.jpg' height='300' width='auto'></p>",,,,,,,,,,,,,,,,,,,,,,,
instruc_goal,7,45429,0.0-6.0-1.0,"""event"",""trial"",""time""
""fullscreenenter"",""1"",""2214""
","
","
","""event"",""trial"",""time""
""fullscreenenter"",""1"",""2214""
","
",,672.6999989,"<p> As a space explorer, you’ll visit different planets to dig for space treasure, these pink gems.</p> <p> The more treasure you dig up, the more bonus money you’ll win! </p><br><br><p><img src='run_exp/static/images/task_images/pink_gem.jpg' height='300' width='auto'></p>",,,,,,,1,,,,,,,,,,,,,,,,,,
html-keyboard-response,8,45641,0.0-6.0-2.0,"""event"",""trial"",""time""
""fullscreenenter"",""1"",""2214""
","
","
","""event"",""trial"",""time""
""fullscreenenter"",""1"",""2214""
","
",,210.6999989,"<p> As a space explorer, you’ll visit different planets to dig for space treasure, these pink gems.</p> <p> The more treasure you dig up, the more bonus money you’ll win! </p><br><br><p><img src='run_exp/static/images/task_images/pink_gem.jpg' height='300' width='auto'></p><button class=""jspsych-html-btn-unchosen""><img src=""run_exp/static/images/task_images/planet-01.jpg"" height=""50""></button><button class=""jspsych-html-btn-chosen""><img src=""run_exp/static/images/task_images/planet-02.jpg"" height=""50""></button><p><b>[press the space bar to lock in your answer]<b><br></p>",32,,,,,,,,,,,,,,,,,,,,,,,,
instruc_dig,9,61633,0.0-7.0-0.0,"""event"",""trial"",""time""
""fullscreenenter"",""1"",""2214""
","
","
","""event"",""trial"",""time""
""fullscreenenter"",""1"",""2214""
","
",,null,run_exp/static/audio/clip_4_dig.m4a,null,,,,,,,100,,,,,,,,,,,,,,,,,
instruc_dig_try,10,62163,0.0-7.0-1.0,"""event"",""trial"",""time""
""fullscreenenter"",""1"",""2214""
","
","
","""event"",""trial"",""time""
""fullscreenenter"",""1"",""2214""
","
",,527,"<p> When you’ve arrived at a new planet, you will dig once. </p> <p>Then, you get to decide if you want to stay on the planet and dig again or travel to a new planet and dig there.</p> <p> To stay and dig, press the letter <strong>‘A’</strong> on your keyboard. Try pressing it now! </p><p><img src='run_exp/static/images/task_images/land.jpg'  height='700' width='auto'></p>",65,"<p> When you’ve arrived at a new planet, you will dig once. </p> <p>Then, you get to decide if you want to stay on the planet and dig again or travel to a new planet and dig there.</p> <p> To stay and dig, press the letter <strong>‘A’</strong> on your keyboard. Try pressing it now! </p><p><img src='run_exp/static/images/task_images/land.jpg'  height='700' width='auto'></p>",,,,,,100,,,,,,,,,,,,,,,,,
dig_prac,11,64191,0.0-7.0-2.0,"""event"",""trial"",""time""
""fullscreenenter"",""1"",""2214""
","
","
","""event"",""trial"",""time""
""fullscreenenter"",""1"",""2214""
","
",,,,,,,,,,,,"[{""stimulus"":""run_exp/static/images/task_images/dig.jpg"",""time"":0.6999988555908203},{""stimulus"":""run_exp/static/images/task_images/land.jpg"",""time"":670.3999996185303},{""stimulus"":""run_exp/static/images/task_images/dig.jpg"",""time"":1341.1999988555908}]",[],,,,,,,,,,,,,,,
instruc_travel,12,100431,0.0-7.0-3.0,"""event"",""trial"",""time""
""fullscreenenter"",""1"",""2214""
","
","
","""event"",""trial"",""time""
""fullscreenenter"",""1"",""2214""
","
",,null,run_exp/static/audio/clip_5_travel.m4a,null,"<p>Every time you dig up gems, there are less gems on the planet, so the more you dig on a planet the fewer gems you’ll get with each dig.</p><p>When gems are running low, you may want to travel to a new planet. </p> <p>  Planets are very far apart in this galaxy, so it will take some time to travel between them. </p> <br><p>There are lots and lots of planets for you to visit, so you won’t be able to return to any planets you’ve seen before. </p><br><p>To leave this planet and travel to a new one, press the letter <strong>‘L’</strong> on your keyboard. Try pressing it now! </p><p><img src='run_exp/static/images/task_images/rocket-01.jpg'  height='600' width='auto'></p>",,,,,,,,,,,,,,,,,,,,,,,
instruc_travel_try,13,100818,0.0-7.0-4.0,"""event"",""trial"",""time""
""fullscreenenter"",""1"",""2214""
","
","
","""event"",""trial"",""time""
""fullscreenenter"",""1"",""2214""
","
",,386.2999992,"<p>Every time you dig up gems, there are less gems on the planet, so the more you dig on a planet the fewer gems you’ll get with each dig.</p><p>When gems are running low, you may want to travel to a new planet. </p> <p>  Planets are very far apart in this galaxy, so it will take some time to travel between them. </p> <br><p>There are lots and lots of planets for you to visit, so you won’t be able to return to any planets you’ve seen before. </p><br><p>To leave this planet and travel to a new one, press the letter <strong>‘L’</strong> on your keyboard. Try pressing it now! </p><p><img src='run_exp/static/images/task_images/rocket-01.jpg'  height='600' width='auto'></p>",76,"<p>Every time you dig up gems, there are less gems on the planet, so the more you dig on a planet the fewer gems you’ll get with each dig.</p><p>When gems are running low, you may want to travel to a new planet. </p> <p>  Planets are very far apart in this galaxy, so it will take some time to travel between them. </p> <br><p>There are lots and lots of planets for you to visit, so you won’t be able to return to any planets you’ve seen before. </p><br><p>To leave this planet and travel to a new one, press the letter <strong>‘L’</strong> on your keyboard. Try pressing it now! </p><p><img src='run_exp/static/images/task_images/rocket-01.jpg'  height='600' width='auto'></p>",,,,,,,,,,,,,,,,,,,,,,,
travel_prac,14,110831,0.0-7.0-5.0,"""event"",""trial"",""time""
""fullscreenenter"",""1"",""2214""
","
","
","""event"",""trial"",""time""
""fullscreenenter"",""1"",""2214""
","
",,,,,,,,,,,,"[{""stimulus"":""run_exp/static/images/task_images/rocket-01.jpg"",""time"":0.5},{""stimulus"":""run_exp/static/images/task_images/rocket-02.jpg"",""time"":1121.2000007629395},{""stimulus"":""run_exp/static/images/task_images/rocket-03.jpg"",""time"":2224.7000007629395},{""stimulus"":""run_exp/static/images/task_images/rocket-04.jpg"",""time"":3336.900001525879},{""stimulus"":""run_exp/static/images/task_images/rocket-05.jpg"",""time"":4448.60000038147},{""stimulus"":""run_exp/static/images/task_images/rocket-06.jpg"",""time"":5561.200000762939},{""stimulus"":""run_exp/static/images/task_images/rocket-07.jpg"",""time"":6672.5},{""stimulus"":""run_exp/static/images/task_images/rocket-08.jpg"",""time"":7785.200000762939},{""stimulus"":""run_exp/static/images/task_images/rocket-09.jpg"",""time"":8896.5}]",[],0,,,,,,,,,,,,,,
instruc_alien_greet,15,138013,0.0-7.0-6.0,"""event"",""trial"",""time""
""fullscreenenter"",""1"",""2214""
","
","
","""event"",""trial"",""time""
""fullscreenenter"",""1"",""2214""
","
",,null,run_exp/static/audio/clip_6_alien.m4a,null,"<p>When you arrive at a new planet, the alien who owns the treasure mine on that planet will greet you!</p><p>The better an alien takes care of their mine the easier it is to dig for gems. Some aliens take better care of their mine than others. So, you won’t get exactly the same amount of gems on each planet.</p><p>What the alien looks like does not tell you anything about how many gems there are on the planet.</p><br><p><img src=""run_exp/static/images/task_images/aliens/instructions_aliens/planet/alien_planet-1.jpg""  height=""600"" width=""auto""></p>",,,,,,,,,,,,,,,,,,,,,,,
instruc_alien_greet,16,141138,0.0-7.0-7.0,"""event"",""trial"",""time""
""fullscreenenter"",""1"",""2214""
","
","
","""event"",""trial"",""time""
""fullscreenenter"",""1"",""2214""
","
",,3120,"<p>When you arrive at a new planet, the alien who owns the treasure mine on that planet will greet you!</p><p>The better an alien takes care of their mine the easier it is to dig for gems. Some aliens take better care of their mine than others. So, you won’t get exactly the same amount of gems on each planet.</p><p>What the alien looks like does not tell you anything about how many gems there are on the planet.</p><br><p><img src=""run_exp/static/images/task_images/aliens/instructions_aliens/planet/alien_planet-1.jpg""  height=""600"" width=""auto""></p>",,,,,,,1,,,,,,,,,,,,,,,,,,
html-keyboard-response,17,141241,0.0-7.0-8.0,"""event"",""trial"",""time""
""fullscreenenter"",""1"",""2214""
","
","
","""event"",""trial"",""time""
""fullscreenenter"",""1"",""2214""
","
",,102.5,"<p>When you arrive at a new planet, the alien who owns the treasure mine on that planet will greet you!</p><p>The better an alien takes care of their mine the easier it is to dig for gems. Some aliens take better care of their mine than others. So, you won’t get exactly the same amount of gems on each planet.</p><p>What the alien looks like does not tell you anything about how many gems there are on the planet.</p><br><p><img src=""run_exp/static/images/task_images/aliens/instructions_aliens/planet/alien_planet-1.jpg""  height=""600"" width=""auto""></p><button class=""jspsych-html-btn-unchosen""><img src=""run_exp/static/images/task_images/planet-01.jpg"" height=""50""></button><button class=""jspsych-html-btn-chosen""><img src=""run_exp/static/images/task_images/planet-02.jpg"" height=""50""></button><p><b>[press the space bar to lock in your answer]<b><br></p>",32,,,,,,,,,,,,,,,,,,,,,,,,
time_out,18,152312,0.0-8.0-0.0,"""event"",""trial"",""time""
""fullscreenenter"",""1"",""2214""
","
","
","""event"",""trial"",""time""
""fullscreenenter"",""1"",""2214""
","
",,null,run_exp/static/audio/clip_7_timeout.m4a,null,"<p>If you don't make your choice fast enough, you’ll have to wait a few seconds before you can make another one.</p><p>You can’t dig for more gems or travel to new planets. You just have to sit and wait.</p><br><p><img src='run_exp/static/images/task_images/time_out.jpg'  height='600' width='auto'></p>",,,,,,,,,,,,,,,,,,,,,,,
time_out,19,153986,0.0-8.0-1.0,"""event"",""trial"",""time""
""fullscreenenter"",""1"",""2214""
","
","
","""event"",""trial"",""time""
""fullscreenenter"",""1"",""2214""
","
",,1670.4,"<p>If you don't make your choice fast enough, you’ll have to wait a few seconds before you can make another one.</p><p>You can’t dig for more gems or travel to new planets. You just have to sit and wait.</p><br><p><img src='run_exp/static/images/task_images/time_out.jpg'  height='600' width='auto'></p>",,,,,,,1,,,,,,,,,,,,,,,,,,
html-keyboard-response,20,154089,0.0-8.0-2.0,"""event"",""trial"",""time""
""fullscreenenter"",""1"",""2214""
","
","
","""event"",""trial"",""time""
""fullscreenenter"",""1"",""2214""
","
",,102.3999996,"<p>If you don't make your choice fast enough, you’ll have to wait a few seconds before you can make another one.</p><p>You can’t dig for more gems or travel to new planets. You just have to sit and wait.</p><br><p><img src='run_exp/static/images/task_images/time_out.jpg'  height='600' width='auto'></p><button class=""jspsych-html-btn-unchosen""><img src=""run_exp/static/images/task_images/planet-01.jpg"" height=""50""></button><button class=""jspsych-html-btn-chosen""><img src=""run_exp/static/images/task_images/planet-02.jpg"" height=""50""></button><p><b>[press the space bar to lock in your answer]<b><br></p>",32,,,,,,,,,,,,,,,,,,,,,,,,
instruc_break,21,169752,0.0-9.0-0.0,"""event"",""trial"",""time""
""fullscreenenter"",""1"",""2214""
","
","
","""event"",""trial"",""time""
""fullscreenenter"",""1"",""2214""
","
",,null,run_exp/static/audio/clip_8_break.m4a,null,"<p> After digging and traveling for a while, you’ll be able to take a break at home base. </p><p>The game will last 20 minutes no matter what.</p><p>You will visit home base every 5 minutes, so, you will visit home base three times during the game.</p><br><p><img src='run_exp/static/images/task_images/home_base.jpg' height='600' width='auto'></p>",,,,,,,,,,,,,,,,,,,,,,,
instruc_break,22,170921,0.0-9.0-1.0,"""event"",""trial"",""time""
""fullscreenenter"",""1"",""2214""
","
","
","""event"",""trial"",""time""
""fullscreenenter"",""1"",""2214""
","
",,1166,"<p> After digging and traveling for a while, you’ll be able to take a break at home base. </p><p>The game will last 20 minutes no matter what.</p><p>You will visit home base every 5 minutes, so, you will visit home base three times during the game.</p><br><p><img src='run_exp/static/images/task_images/home_base.jpg' height='600' width='auto'></p>",,,,,,,1,,,,,,,,,,,,,,,,,,
html-keyboard-response,23,171082,0.0-9.0-2.0,"""event"",""trial"",""time""
""fullscreenenter"",""1"",""2214""
","
","
","""event"",""trial"",""time""
""fullscreenenter"",""1"",""2214""
","
",,159.5,"<p> After digging and traveling for a while, you’ll be able to take a break at home base. </p><p>The game will last 20 minutes no matter what.</p><p>You will visit home base every 5 minutes, so, you will visit home base three times during the game.</p><br><p><img src='run_exp/static/images/task_images/home_base.jpg' height='600' width='auto'></p><button class=""jspsych-html-btn-unchosen""><img src=""run_exp/static/images/task_images/planet-01.jpg"" height=""50""></button><button class=""jspsych-html-btn-chosen""><img src=""run_exp/static/images/task_images/planet-02.jpg"" height=""50""></button><p><b>[press the space bar to lock in your answer]<b><br></p>",32,,,,,,,,,,,,,,,,,,,,,,,,
instruc_prac_game,24,181212,0.0-10.0-0.0,"""event"",""trial"",""time""
""fullscreenenter"",""1"",""2214""
","
","
","""event"",""trial"",""time""
""fullscreenenter"",""1"",""2214""
","
",,null,run_exp/static/audio/clip_9_practice.m4a,null,"<p> Are you ready to play a practice game? </p> <p>In this practice game, you'll be digging up barrels of gems. But, in the real game, you'll be digging up the gems themselves. </p>",,,,,,,,,,,,,,,,,,,,,,,
html-button-response,25,182309,0.0-10.0-1.0,"""event"",""trial"",""time""
""fullscreenenter"",""1"",""2214""
","
","
","""event"",""trial"",""time""
""fullscreenenter"",""1"",""2214""
","
",,1095,"<p> Are you ready to play a practice game? </p> <p>In this practice game, you'll be digging up barrels of gems. But, in the real game, you'll be digging up the gems themselves. </p>",,,,,,,0,,,,,,,,,,,,,,,,,,
alien_welcome_prac,26,187319,0.0-11.0-0.0,"""event"",""trial"",""time""
""fullscreenenter"",""1"",""2214""
","
","
","""event"",""trial"",""time""
""fullscreenenter"",""1"",""2214""
","
",,null,run_exp/static/images/task_images/aliens/practice_aliens/planet/alien_planet-5.jpg,null,,,,,,,,,,,,,,,,,,,,,,,,
land_prac,27,187823,0.0-11.0-1.0,"""event"",""trial"",""time""
""fullscreenenter"",""1"",""2214""
","
","
","""event"",""trial"",""time""
""fullscreenenter"",""1"",""2214""
","
",,null,run_exp/static/images/task_images/land.jpg,null,,,,,,,102,,,0,,,,,,,,,,,,,,
dig_prac,28,189830,0.0-11.0-2.0,"""event"",""trial"",""time""
""fullscreenenter"",""1"",""2214""
","
","
","""event"",""trial"",""time""
""fullscreenenter"",""1"",""2214""
","
",,,,,,,,,,,,"[{""stimulus"":""run_exp/static/images/task_images/dig.jpg"",""time"":0.5},{""stimulus"":""run_exp/static/images/task_images/land.jpg"",""time"":675.3000011444092},{""stimulus"":""run_exp/static/images/task_images/dig.jpg"",""time"":1339.6000003814697}]",[],,,,,,,,,,,,,,,
harvest_prac,29,190832,0.0-11.0-3.0,"""event"",""trial"",""time""
""fullscreenenter"",""1"",""2214""
","
","
","""event"",""trial"",""time""
""fullscreenenter"",""1"",""2214""
","
",,null,run_exp/static/images/task_images/barrel_text.jpg,null,,,,,,,,,,,,,,,,,,,,,,,,
decision_prac,30,191698,0.0-11.0-4.0,"""event"",""trial"",""time""
""fullscreenenter"",""1"",""2214""
","
","
","""event"",""trial"",""time""
""fullscreenenter"",""1"",""2214""
","
",,863,run_exp/static/images/task_images/land.jpg,65,,,,,,,,,,,1,,,,,,,,,,,,,
dig_prac,31,193710,0.0-12.0-0.0,"""event"",""trial"",""time""
""fullscreenenter"",""1"",""2214""
","
","
","""event"",""trial"",""time""
""fullscreenenter"",""1"",""2214""
","
",,,,,,,,,,,,"[{""stimulus"":""run_exp/static/images/task_images/dig.jpg"",""time"":0.39999961853027344},{""stimulus"":""run_exp/static/images/task_images/land.jpg"",""time"":669.8999996185303},{""stimulus"":""run_exp/static/images/task_images/dig.jpg"",""time"":1341.5}]",[],,,,,,,,,,,,,,,
harvest_prac,32,194718,0.0-12.0-1.0,"""event"",""trial"",""time""
""fullscreenenter"",""1"",""2214""
","
","
","""event"",""trial"",""time""
""fullscreenenter"",""1"",""2214""
","
",,null,run_exp/static/images/task_images/barrel_text.jpg,null,,,,,,,,,,,,,,,,,,,,,,,,
decision_prac,33,195185,0.0-12.0-2.0,"""event"",""trial"",""time""
""fullscreenenter"",""1"",""2214""
","
","
","""event"",""trial"",""time""
""fullscreenenter"",""1"",""2214""
","
",,465.3999996,run_exp/static/images/task_images/land.jpg,65,,,,,,,,,,,2,,,,,,,,,,,,,
dig_prac,34,197199,0.0-13.0-0.0,"""event"",""trial"",""time""
""fullscreenenter"",""1"",""2214""
","
","
","""event"",""trial"",""time""
""fullscreenenter"",""1"",""2214""
","
",,,,,,,,,,,,"[{""stimulus"":""run_exp/static/images/task_images/dig.jpg"",""time"":0.20000076293945312},{""stimulus"":""run_exp/static/images/task_images/land.jpg"",""time"":674.1000003814697},{""stimulus"":""run_exp/static/images/task_images/dig.jpg"",""time"":1337.2000007629395}]",[],,,,,,,,,,,,,,,
harvest_prac,35,198206,0.0-13.0-1.0,"""event"",""trial"",""time""
""fullscreenenter"",""1"",""2214""
","
","
","""event"",""trial"",""time""
""fullscreenenter"",""1"",""2214""
","
",,null,run_exp/static/images/task_images/barrel_text.jpg,null,,,,,,,,,,,,,,,,,,,,,,,,
decision_prac,36,198393,0.0-13.0-2.0,"""event"",""trial"",""time""
""fullscreenenter"",""1"",""2214""
","
","
","""event"",""trial"",""time""
""fullscreenenter"",""1"",""2214""
","
",,184.7999992,run_exp/static/images/task_images/land.jpg,65,,,,,,,,,,,3,,,,,,,,,,,,,
dig_prac,37,200406,0.0-14.0-0.0,"""event"",""trial"",""time""
""fullscreenenter"",""1"",""2214""
","
","
","""event"",""trial"",""time""
""fullscreenenter"",""1"",""2214""
","
",,,,,,,,,,,,"[{""stimulus"":""run_exp/static/images/task_images/dig.jpg"",""time"":0.40000152587890625},{""stimulus"":""run_exp/static/images/task_images/land.jpg"",""time"":677.4000015258789},{""stimulus"":""run_exp/static/images/task_images/dig.jpg"",""time"":1335.5}]",[],,,,,,,,,,,,,,,
harvest_prac,38,201414,0.0-14.0-1.0,"""event"",""trial"",""time""
""fullscreenenter"",""1"",""2214""
","
","
","""event"",""trial"",""time""
""fullscreenenter"",""1"",""2214""
","
",,null,run_exp/static/images/task_images/barrel_text.jpg,null,,,,,,,,,,,,,,,,,,,,,,,,
decision_prac,39,201881,0.0-14.0-2.0,"""event"",""trial"",""time""
""fullscreenenter"",""1"",""2214""
","
","
","""event"",""trial"",""time""
""fullscreenenter"",""1"",""2214""
","
",,465.3999996,run_exp/static/images/task_images/land.jpg,65,,,,,,,,,,,4,,,,,,,,,,,,,
dig_prac,40,203894,0.0-15.0-0.0,"""event"",""trial"",""time""
""fullscreenenter"",""1"",""2214""
","
","
","""event"",""trial"",""time""
""fullscreenenter"",""1"",""2214""
","
",,,,,,,,,,,,"[{""stimulus"":""run_exp/static/images/task_images/dig.jpg"",""time"":0.3000011444091797},{""stimulus"":""run_exp/static/images/task_images/land.jpg"",""time"":672.6000003814697},{""stimulus"":""run_exp/static/images/task_images/dig.jpg"",""time"":1336.2000007629395}]",[],,,,,,,,,,,,,,,
harvest_prac,41,204902,0.0-15.0-1.0,"""event"",""trial"",""time""
""fullscreenenter"",""1"",""2214""
","
","
","""event"",""trial"",""time""
""fullscreenenter"",""1"",""2214""
","
",,null,run_exp/static/images/task_images/barrel_text.jpg,null,,,,,,,,,,,,,,,,,,,,,,,,
decision_prac,42,205137,0.0-15.0-2.0,"""event"",""trial"",""time""
""fullscreenenter"",""1"",""2214""
","
","
","""event"",""trial"",""time""
""fullscreenenter"",""1"",""2214""
","
",,233.6000004,run_exp/static/images/task_images/land.jpg,76,,,,,,,,,,,,1,,,,,,,,,,,,
quiz_instruc,43,210145,0.0-16.0-0.0,"""event"",""trial"",""time""
""fullscreenenter"",""1"",""2214""
","
","
","""event"",""trial"",""time""
""fullscreenenter"",""1"",""2214""
","
",,5005.6,run_exp/static/audio/clip_10_quiz.m4a,,,,,,,0,,,,,,,,,,,,,,,,,,
instruc_repeat,44,252902,0.0-16.0-1.0,"""event"",""trial"",""time""
""fullscreenenter"",""1"",""2214""
","
","
","""event"",""trial"",""time""
""fullscreenenter"",""1"",""2214""
","
",,null,"<p> Are you ready to play a practice game? </p> <p>In this practice game, you'll be digging up barrels of gems. But, in the real game, you'll be digging up the gems themselves. </p>",null,"<p>In this game, your goal is to collect as many gems as you can. That’s how you will win bonus money. </p> <p>The entire game will last 20 minutes no matter how many gems you collect or how many planets you visit. </p><p>To stay on a planet and dig again, press the letter A on your keyboard. To leave for a new planet, press the letter L.</p><p>The more you dig on a planet, the fewer gems you’ll get with each dig which is why you might consider leaving for a new planet. </p><p>When you arrive at a new planet, you’ll be greeted by an alien. What the alien looks like does not tell you anything about how much treasure is on the planet. </p>",,,,,,,,,,,,,,,,,,,,,,,
instruc_repeat_continue,45,254120,0.0-16.0-2.0,"""event"",""trial"",""time""
""fullscreenenter"",""1"",""2214""
","
","
","""event"",""trial"",""time""
""fullscreenenter"",""1"",""2214""
","
",,1214.299999,"<p> Are you ready to play a practice game? </p> <p>In this practice game, you'll be digging up barrels of gems. But, in the real game, you'll be digging up the gems themselves. </p>",,,,,,,0,,,,,,,,,,,,,,,,,,
quiz_q_1_ask,46,257909,0.0-16.0-3.0,"""event"",""trial"",""time""
""fullscreenenter"",""1"",""2214""
","
","
","""event"",""trial"",""time""
""fullscreenenter"",""1"",""2214""
","
",,3787.4,run_exp/static/audio/clip_11_q1_ask.m4a,,,,,,,2,,,,,,,,,,,,,,,,,,
quiz_q_1_fb_correct,47,261741,0.0-17.0-0.0,"""event"",""trial"",""time""
""fullscreenenter"",""1"",""2214""
","
","
","""event"",""trial"",""time""
""fullscreenenter"",""1"",""2214""
","
",,null,run_exp/static/audio/clip_12_q1_correct.m4a,null,<p>That’s correct. You win extra money by collecting more gems.</p>,,,,,,,,,,,,,,,,,,,,,,,
quiz_q_2_ask,48,263717,0.0-17.0-1.0,"""event"",""trial"",""time""
""fullscreenenter"",""1"",""2214""
","
","
","""event"",""trial"",""time""
""fullscreenenter"",""1"",""2214""
","
",,1972.1,run_exp/static/audio/clip_14_q2_ask.m4a,,,,,,,1,,,,,,,,,,,,,,,,,,
quiz_q_2_fb_correct,49,267701,0.0-18.0-0.0,"""event"",""trial"",""time""
""fullscreenenter"",""1"",""2214""
","
","
","""event"",""trial"",""time""
""fullscreenenter"",""1"",""2214""
","
",,null,run_exp/static/audio/clip_15_q2_correct.m4a,null,<p>That’s correct. The experiment is 20 minutes no matter what.</p>,,,,,,,,,,,,,,,,,,,,,,,
quiz_q_3_ask,50,269856,0.0-18.0-1.0,"""event"",""trial"",""time""
""fullscreenenter"",""1"",""2214""
","
","
","""event"",""trial"",""time""
""fullscreenenter"",""1"",""2214""
","
",,2152.5,run_exp/static/audio/clip_17_q3_ask.m4a,,,,,,,1,,,,,,,,,,,,,,,,,,
quiz_q_3_fb_correct,51,273840,0.0-19.0-0.0,"""event"",""trial"",""time""
""fullscreenenter"",""1"",""2214""
","
","
","""event"",""trial"",""time""
""fullscreenenter"",""1"",""2214""
","
",,null,run_exp/static/audio/clip_18_q3_correct.m4a,null,<p> That’s correct. You press the letter L to travel to a new planet.</p>,,,,,,,,,,,,,,,,,,,,,,,
quiz_q_4_ask,52,277317,0.0-19.0-1.0,"""event"",""trial"",""time""
""fullscreenenter"",""1"",""2214""
","
","
","""event"",""trial"",""time""
""fullscreenenter"",""1"",""2214""
","
",,3474.5,run_exp/static/audio/clip_20_q4_ask.m4a,,,,,,,0,,,,,,,,,,,,,,,,,,
quiz_q_4_fb_correct,53,282641,0.0-20.0-0.0,"""event"",""trial"",""time""
""fullscreenenter"",""1"",""2214""
","
","
","""event"",""trial"",""time""
""fullscreenenter"",""1"",""2214""
","
",,null,run_exp/static/audio/clip_21_q4_correct.m4a,null,<p> That’s correct. The more you dig on a planet the fewer gems you’ll get with each dig. </p>,,,,,,,,,,,,,,,,,,,,,,,
quiz_q_5_ask,54,284485,0.0-20.0-1.0,"""event"",""trial"",""time""
""fullscreenenter"",""1"",""2214""
","
","
","""event"",""trial"",""time""
""fullscreenenter"",""1"",""2214""
","
",,1841.699999,run_exp/static/audio/clip_23_q5_ask.m4a,,,,,,,1,,,,,,,,,,,,,,,,,,
quiz_q_5_fb_correct,55,289480,0.0-21.0-0.0,"""event"",""trial"",""time""
""fullscreenenter"",""1"",""2214""
","
","
","""event"",""trial"",""time""
""fullscreenenter"",""1"",""2214""
","
",,null,run_exp/static/audio/clip_24_q5_correct.m4a,null,<p> That’s correct. The alien tells you nothing about how much treasure is on the planet.</p>,,,,,,,,,,,,,,,,,,,,,,,
quiz_correct,56,292921,0.0-22.0-0.0,"""event"",""trial"",""time""
""fullscreenenter"",""1"",""2214""
","
","
","""event"",""trial"",""time""
""fullscreenenter"",""1"",""2214""
","
",,null,run_exp/static/audio/clip_26_correct_quiz.m4a,null,,,,,,,,,,,,,,,,,,,,,,,,
quiz_correct_continue,57,294989,0.0-22.0-1.0,"""event"",""trial"",""time""
""fullscreenenter"",""1"",""2214""
","
","
","""event"",""trial"",""time""
""fullscreenenter"",""1"",""2214""
","
",,2066.1,<p>Good job! You're now ready to move on to the real game!</p>,,,,,,,0,,,,,,,,,,,,,,,,,,
audio-keyboard-response,58,305100,0.0-22.0-2.0,"""event"",""trial"",""time""
""fullscreenenter"",""1"",""2214""
","
","
","""event"",""trial"",""time""
""fullscreenenter"",""1"",""2214""
","
",,null,run_exp/static/audio/clip_28_real_game.m4a,null,,,,,,,,,,,,,,,,,,,,,,,,
instruc_begin_exp_contine,59,306080,0.0-22.0-3.0,"""event"",""trial"",""time""
""fullscreenenter"",""1"",""2214""
","
","
","""event"",""trial"",""time""
""fullscreenenter"",""1"",""2214""
","
",,978.5999985,"<p>Now that you know how  to dig for space treasure and travel to new planets,you can start exploring! </p><p>Do you want to go over the instructions again or get started with the real game?</p>",,,,,,,1,,,,,,1,,,,,,,,,,,,
alien_welcome,60,311086,0.0-23.0-0.0,"""event"",""trial"",""time""
""fullscreenenter"",""1"",""2214""
","
","
","""event"",""trial"",""time""
""fullscreenenter"",""1"",""2214""
","
",,null,run_exp/static/images/task_images/aliens/old_aliens/planet/alien_planet-26.jpg,null,,,,,,,,,,,,,26,"26,79,4,77,50,56,1,38,58,12,31,34,14,78,67,22,43,29,25,3,66,11,52,39,17,72,70,40,71,30,75,27,28,16,24",,,,,,,,,,
land,61,311590,0.0-23.0-1.0,"""event"",""trial"",""time""
""fullscreenenter"",""1"",""2214""
","
","
","""event"",""trial"",""time""
""fullscreenenter"",""1"",""2214""
","
",,null,run_exp/static/images/task_images/land.jpg,null,,,,,,,103,,,1,,,,,,,,,,,,,,
dig,62,313599,0.0-23.0-2.0,"""event"",""trial"",""time""
""fullscreenenter"",""1"",""2214""
","
","
","""event"",""trial"",""time""
""fullscreenenter"",""1"",""2214""
","
",,,,,,,,,,,,"[{""stimulus"":""run_exp/static/images/task_images/dig.jpg"",""time"":0.5},{""stimulus"":""run_exp/static/images/task_images/land.jpg"",""time"":676.5},{""stimulus"":""run_exp/static/images/task_images/dig.jpg"",""time"":1339.8999996185303}]",[],1,,,,,,,,,,,,,,
harvest,63,314606,0.0-23.0-3.0,"""event"",""trial"",""time""
""fullscreenenter"",""1"",""2214""
","
","
","""event"",""trial"",""time""
""fullscreenenter"",""1"",""2214""
","
",,null,run_exp/static/images/task_images/gems/103.jpg,null,,,,,,,19,,,1,,,,,103,0.182452546,0.184466019,,,,,,,
decision,64,314729,0.0-23.0-4.0,"""event"",""trial"",""time""
""fullscreenenter"",""1"",""2214""
","
","
","""event"",""trial"",""time""
""fullscreenenter"",""1"",""2214""
","
",,119,run_exp/static/images/task_images/land.jpg,65,,,,,,,19,,,1,,,,,,,,8649,1,0,FALSE,,,
dig,65,317622,0.0-24.0-0.0,"""event"",""trial"",""time""
""fullscreenenter"",""1"",""2214""
","
","
","""event"",""trial"",""time""
""fullscreenenter"",""1"",""2214""
","
",,,,,,,,,,,,"[{""stimulus"":""run_exp/static/images/task_images/dig.jpg"",""time"":0.39999961853027344},{""stimulus"":""run_exp/static/images/task_images/land.jpg"",""time"":964.7999992370605},{""stimulus"":""run_exp/static/images/task_images/dig.jpg"",""time"":1925}]",[],1,,,,,,,,,,,,,,
harvest,66,318629,0.0-24.0-1.0,"""event"",""trial"",""time""
""fullscreenenter"",""1"",""2214""
","
","
","""event"",""trial"",""time""
""fullscreenenter"",""1"",""2214""
","
",,null,run_exp/static/images/task_images/gems/19.jpg,null,,,,,,,3,,,1,,,,,19,0.174321755,0.157894737,,,,,,,
decision,67,319048,0.0-24.0-2.0,"""event"",""trial"",""time""
""fullscreenenter"",""1"",""2214""
","
","
","""event"",""trial"",""time""
""fullscreenenter"",""1"",""2214""
","
",,417.0999985,run_exp/static/images/task_images/land.jpg,65,,,,,,,3,,,1,,,,,,,,12967,1,1,FALSE,,,
dig,68,321638,0.0-25.0-0.0,"""event"",""trial"",""time""
""fullscreenenter"",""1"",""2214""
","
","
","""event"",""trial"",""time""
""fullscreenenter"",""1"",""2214""
","
",,,,,,,,,,,,"[{""stimulus"":""run_exp/static/images/task_images/dig.jpg"",""time"":0.2999992370605469},{""stimulus"":""run_exp/static/images/task_images/land.jpg"",""time"":865.7000007629395},{""stimulus"":""run_exp/static/images/task_images/dig.jpg"",""time"":1729.5}]",[],1,,,,,,,,,,,,,,
harvest,69,322646,0.0-25.0-1.0,"""event"",""trial"",""time""
""fullscreenenter"",""1"",""2214""
","
","
","""event"",""trial"",""time""
""fullscreenenter"",""1"",""2214""
","
",,null,run_exp/static/images/task_images/gems/3.jpg,null,,,,,,,1,,,1,,,,,3,0.171718219,0.333333333,,,,,,,
decision,70,322720,0.0-25.0-2.0,"""event"",""trial"",""time""
""fullscreenenter"",""1"",""2214""
","
","
","""event"",""trial"",""time""
""fullscreenenter"",""1"",""2214""
","
",,72.59999847,run_exp/static/images/task_images/land.jpg,76,,,,,,,1,,,1,,,,,,,,16639,1,2,TRUE,,,
travel,71,332654,0.0-26.0-0.0,"""event"",""trial"",""time""
""fullscreenenter"",""1"",""2214""
","
","
","""event"",""trial"",""time""
""fullscreenenter"",""1"",""2214""
","
",,,,,,,,,,,,"[{""stimulus"":""run_exp/static/images/task_images/rocket-01.jpg"",""time"":0.1999988555908203},{""stimulus"":""run_exp/static/images/task_images/rocket-02.jpg"",""time"":1106.2999992370605},{""stimulus"":""run_exp/static/images/task_images/rocket-03.jpg"",""time"":2210.699998855591},{""stimulus"":""run_exp/static/images/task_images/rocket-04.jpg"",""time"":3314.199998855591},{""stimulus"":""run_exp/static/images/task_images/rocket-05.jpg"",""time"":4418.099998474121},{""stimulus"":""run_exp/static/images/task_images/rocket-06.jpg"",""time"":5520.699998855591},{""stimulus"":""run_exp/static/images/task_images/rocket-07.jpg"",""time"":6626.099998474121},{""stimulus"":""run_exp/static/images/task_images/rocket-08.jpg"",""time"":7730.199998855591},{""stimulus"":""run_exp/static/images/task_images/rocket-09.jpg"",""time"":8833.599998474121}]",[],1,,,,,,,,,,,,,,
alien_welcome,72,337662,0.0-26.0-1.0,"""event"",""trial"",""time""
""fullscreenenter"",""1"",""2214""
","
","
","""event"",""trial"",""time""
""fullscreenenter"",""1"",""2214""
","
",,null,run_exp/static/images/task_images/aliens/old_aliens/planet/alien_planet-79.jpg,null,,,,,,,,,,,,,79,"26,79,4,77,50,56,1,38,58,12,31,34,14,78,67,22,43,29,25,3,66,11,52,39,17,72,70,40,71,30,75,27,28,16,24",,,,,,,,,,
land,73,338166,0.0-26.0-2.0,"""event"",""trial"",""time""
""fullscreenenter"",""1"",""2214""
","
","
","""event"",""trial"",""time""
""fullscreenenter"",""1"",""2214""
","
",,null,run_exp/static/images/task_images/land.jpg,null,,,,,,,104,,,2,,,,,,,,,,,,,,
dig,74,340174,0.0-26.0-3.0,"""event"",""trial"",""time""
""fullscreenenter"",""1"",""2214""
","
","
","""event"",""trial"",""time""
""fullscreenenter"",""1"",""2214""
","
",,,,,,,,,,,,"[{""stimulus"":""run_exp/static/images/task_images/dig.jpg"",""time"":0.6000003814697266},{""stimulus"":""run_exp/static/images/task_images/land.jpg"",""time"":676.5},{""stimulus"":""run_exp/static/images/task_images/dig.jpg"",""time"":1340.6999988555908}]",[],2,,,,,,,,,,,,,,
harvest,75,341182,0.0-26.0-4.0,"""event"",""trial"",""time""
""fullscreenenter"",""1"",""2214""
","
","
","""event"",""trial"",""time""
""fullscreenenter"",""1"",""2214""
","
",,null,run_exp/static/images/task_images/gems/104.jpg,null,,,,,,,25,,,2,,,,,104,0.244559876,0.240384615,,,,,,,
decision,76,341247,0.0-26.0-5.0,"""event"",""trial"",""time""
""fullscreenenter"",""1"",""2214""
","
","
","""event"",""trial"",""time""
""fullscreenenter"",""1"",""2214""
","
",,63.69999886,run_exp/static/images/task_images/land.jpg,65,,,,,,,25,,,2,,,,,,,,35166,1,0,FALSE,,,
dig,77,344191,0.0-27.0-0.0,"""event"",""trial"",""time""
""fullscreenenter"",""1"",""2214""
","
","
","""event"",""trial"",""time""
""fullscreenenter"",""1"",""2214""
","
",,,,,,,,,,,,"[{""stimulus"":""run_exp/static/images/task_images/dig.jpg"",""time"":0.10000038146972656},{""stimulus"":""run_exp/static/images/task_images/land.jpg"",""time"":980.7000007629395},{""stimulus"":""run_exp/static/images/task_images/dig.jpg"",""time"":1965.3999996185303}]",[],2,,,,,,,,,,,,,,
harvest,78,345198,0.0-27.0-1.0,"""event"",""trial"",""time""
""fullscreenenter"",""1"",""2214""
","
","
","""event"",""trial"",""time""
""fullscreenenter"",""1"",""2214""
","
",,null,run_exp/static/images/task_images/gems/25.jpg,null,,,,,,,5,,,2,,,,,25,0.208721694,0.2,,,,,,,
decision,79,345721,0.0-27.0-2.0,"""event"",""trial"",""time""
""fullscreenenter"",""1"",""2214""
","
","
","""event"",""trial"",""time""
""fullscreenenter"",""1"",""2214""
","
",,521,run_exp/static/images/task_images/land.jpg,76,,,,,,,5,,,2,,,,,,,,39640,1,1,TRUE,,,
travel,80,355206,0.0-28.0-0.0,"""event"",""trial"",""time""
""fullscreenenter"",""1"",""2214""
","
","
","""event"",""trial"",""time""
""fullscreenenter"",""1"",""2214""
","
",,,,,,,,,,,,"[{""stimulus"":""run_exp/static/images/task_images/rocket-01.jpg"",""time"":0.40000152587890625},{""stimulus"":""run_exp/static/images/task_images/rocket-02.jpg"",""time"":1056.3000011444092},{""stimulus"":""run_exp/static/images/task_images/rocket-03.jpg"",""time"":2113.300001144409},{""stimulus"":""run_exp/static/images/task_images/rocket-04.jpg"",""time"":3161.900001525879},{""stimulus"":""run_exp/static/images/task_images/rocket-05.jpg"",""time"":4217.60000038147},{""stimulus"":""run_exp/static/images/task_images/rocket-06.jpg"",""time"":5274.5},{""stimulus"":""run_exp/static/images/task_images/rocket-07.jpg"",""time"":6321.700000762939},{""stimulus"":""run_exp/static/images/task_images/rocket-08.jpg"",""time"":7377.700000762939},{""stimulus"":""run_exp/static/images/task_images/rocket-09.jpg"",""time"":8433.10000038147}]",[],2,,,,,,,,,,,,,,
alien_welcome,81,360214,0.0-28.0-1.0,"""event"",""trial"",""time""
""fullscreenenter"",""1"",""2214""
","
","
","""event"",""trial"",""time""
""fullscreenenter"",""1"",""2214""
","
",,null,run_exp/static/images/task_images/aliens/old_aliens/planet/alien_planet-4.jpg,null,,,,,,,,,,,,,4,"26,79,4,77,50,56,1,38,58,12,31,34,14,78,67,22,43,29,25,3,66,11,52,39,17,72,70,40,71,30,75,27,28,16,24",,,,,,,,,,
land,82,360718,0.0-28.0-2.0,"""event"",""trial"",""time""
""fullscreenenter"",""1"",""2214""
","
","
","""event"",""trial"",""time""
""fullscreenenter"",""1"",""2214""
","
",,null,run_exp/static/images/task_images/land.jpg,null,,,,,,,104,,,3,,,,,,,,,,,,,,
dig,83,362726,0.0-28.0-3.0,"""event"",""trial"",""time""
""fullscreenenter"",""1"",""2214""
","
","
","""event"",""trial"",""time""
""fullscreenenter"",""1"",""2214""
","
",,,,,,,,,,,,"[{""stimulus"":""run_exp/static/images/task_images/dig.jpg"",""time"":0.6000003814697266},{""stimulus"":""run_exp/static/images/task_images/land.jpg"",""time"":676.6000003814697},{""stimulus"":""run_exp/static/images/task_images/dig.jpg"",""time"":1341}]",[],3,,,,,,,,,,,,,,
harvest,84,363734,0.0-28.0-4.0,"""event"",""trial"",""time""
""fullscreenenter"",""1"",""2214""
","
","
","""event"",""trial"",""time""
""fullscreenenter"",""1"",""2214""
","
",,null,run_exp/static/images/task_images/gems/104.jpg,null,,,,,,,53,,,3,,,,,104,0.512250978,0.509615385,,,,,,,
decision,85,364025,0.0-28.0-5.0,"""event"",""trial"",""time""
""fullscreenenter"",""1"",""2214""
","
","
","""event"",""trial"",""time""
""fullscreenenter"",""1"",""2214""
","
",,287.8999996,run_exp/static/images/task_images/land.jpg,65,,,,,,,53,,,3,,,,,,,,57944,1,0,FALSE,,,
dig,86,366750,0.0-29.0-0.0,"""event"",""trial"",""time""
""fullscreenenter"",""1"",""2214""
","
","
","""event"",""trial"",""time""
""fullscreenenter"",""1"",""2214""
","
",,,,,,,,,,,,"[{""stimulus"":""run_exp/static/images/task_images/dig.jpg"",""time"":0.2999992370605469},{""stimulus"":""run_exp/static/images/task_images/land.jpg"",""time"":912.1999988555908},{""stimulus"":""run_exp/static/images/task_images/dig.jpg"",""time"":1817.1999988555908}]",[],3,,,,,,,,,,,,,,
harvest,87,367759,0.0-29.0-1.0,"""event"",""trial"",""time""
""fullscreenenter"",""1"",""2214""
","
","
","""event"",""trial"",""time""
""fullscreenenter"",""1"",""2214""
","
",,null,run_exp/static/images/task_images/gems/53.jpg,null,,,,,,,26,,,3,,,,,53,0.493771273,0.490566038,,,,,,,
decision,88,368041,0.0-29.0-2.0,"""event"",""trial"",""time""
""fullscreenenter"",""1"",""2214""
","
","
","""event"",""trial"",""time""
""fullscreenenter"",""1"",""2214""
","
",,279.5,run_exp/static/images/task_images/land.jpg,65,,,,,,,26,,,3,,,,,,,,61960,1,1,FALSE,,,
dig,89,370774,0.0-30.0-0.0,"""event"",""trial"",""time""
""fullscreenenter"",""1"",""2214""
","
","
","""event"",""trial"",""time""
""fullscreenenter"",""1"",""2214""
","
",,,,,,,,,,,,"[{""stimulus"":""run_exp/static/images/task_images/dig.jpg"",""time"":0.5},{""stimulus"":""run_exp/static/images/task_images/land.jpg"",""time"":909.6000003814697},{""stimulus"":""run_exp/static/images/task_images/dig.jpg"",""time"":1822.7000007629395}]",[],3,,,,,,,,,,,,,,
harvest,90,371783,0.0-30.0-1.0,"""event"",""trial"",""time""
""fullscreenenter"",""1"",""2214""
","
","
","""event"",""trial"",""time""
""fullscreenenter"",""1"",""2214""
","
",,null,run_exp/static/images/task_images/gems/26.jpg,null,,,,,,,12,,,3,,,,,26,0.469638308,0.461538462,,,,,,,
decision,91,372079,0.0-30.0-2.0,"""event"",""trial"",""time""
""fullscreenenter"",""1"",""2214""
","
","
","""event"",""trial"",""time""
""fullscreenenter"",""1"",""2214""
","
",,295.7999992,run_exp/static/images/task_images/land.jpg,65,,,,,,,12,,,3,,,,,,,,65999,1,2,FALSE,,,
dig,92,374790,0.0-31.0-0.0,"""event"",""trial"",""time""
""fullscreenenter"",""1"",""2214""
","
","
","""event"",""trial"",""time""
""fullscreenenter"",""1"",""2214""
","
",,,,,,,,,,,,"[{""stimulus"":""run_exp/static/images/task_images/dig.jpg"",""time"":0.20000076293945312},{""stimulus"":""run_exp/static/images/task_images/land.jpg"",""time"":907.8000011444092},{""stimulus"":""run_exp/static/images/task_images/dig.jpg"",""time"":1805.5}]",[],3,,,,,,,,,,,,,,
harvest,93,375798,0.0-31.0-1.0,"""event"",""trial"",""time""
""fullscreenenter"",""1"",""2214""
","
","
","""event"",""trial"",""time""
""fullscreenenter"",""1"",""2214""
","
",,null,run_exp/static/images/task_images/gems/12.jpg,null,,,,,,,6,,,3,,,,,12,0.513265082,0.5,,,,,,,
decision,94,376136,0.0-31.0-2.0,"""event"",""trial"",""time""
""fullscreenenter"",""1"",""2214""
","
","
","""event"",""trial"",""time""
""fullscreenenter"",""1"",""2214""
","
",,336.8999996,run_exp/static/images/task_images/land.jpg,76,,,,,,,6,,,3,,,,,,,,70055,1,3,TRUE,,,
travel,95,385807,0.0-32.0-0.0,"""event"",""trial"",""time""
""fullscreenenter"",""1"",""2214""
","
","
","""event"",""trial"",""time""
""fullscreenenter"",""1"",""2214""
","
",,,,,,,,,,,,"[{""stimulus"":""run_exp/static/images/task_images/rocket-01.jpg"",""time"":0.2999992370605469},{""stimulus"":""run_exp/static/images/task_images/rocket-02.jpg"",""time"":1081.5},{""stimulus"":""run_exp/static/images/task_images/rocket-03.jpg"",""time"":2153.6000003814697},{""stimulus"":""run_exp/static/images/task_images/rocket-04.jpg"",""time"":3228.2000007629395},{""stimulus"":""run_exp/static/images/task_images/rocket-05.jpg"",""time"":4297.700000762939},{""stimulus"":""run_exp/static/images/task_images/rocket-06.jpg"",""time"":5369.60000038147},{""stimulus"":""run_exp/static/images/task_images/rocket-07.jpg"",""time"":6442.10000038147},{""stimulus"":""run_exp/static/images/task_images/rocket-08.jpg"",""time"":7513.39999961853},{""stimulus"":""run_exp/static/images/task_images/rocket-09.jpg"",""time"":8593.29999923706}]",[],3,,,,,,,,,,,,,,
alien_welcome,96,390814,0.0-32.0-1.0,"""event"",""trial"",""time""
""fullscreenenter"",""1"",""2214""
","
","
","""event"",""trial"",""time""
""fullscreenenter"",""1"",""2214""
","
",,null,run_exp/static/images/task_images/aliens/old_aliens/planet/alien_planet-77.jpg,null,,,,,,,,,,,,,77,"26,79,4,77,50,56,1,38,58,12,31,34,14,78,67,22,43,29,25,3,66,11,52,39,17,72,70,40,71,30,75,27,28,16,24",,,,,,,,,,
land,97,391318,0.0-32.0-2.0,"""event"",""trial"",""time""
""fullscreenenter"",""1"",""2214""
","
","
","""event"",""trial"",""time""
""fullscreenenter"",""1"",""2214""
","
",,null,run_exp/static/images/task_images/land.jpg,null,,,,,,,104,,,4,,,,,,,,,,,,,,
dig,98,393327,0.0-32.0-3.0,"""event"",""trial"",""time""
""fullscreenenter"",""1"",""2214""
","
","
","""event"",""trial"",""time""
""fullscreenenter"",""1"",""2214""
","
",,,,,,,,,,,,"[{""stimulus"":""run_exp/static/images/task_images/dig.jpg"",""time"":0.1999988555908203},{""stimulus"":""run_exp/static/images/task_images/land.jpg"",""time"":671.7999992370605},{""stimulus"":""run_exp/static/images/task_images/dig.jpg"",""time"":1344.1000003814697}]",[],4,,,,,,,,,,,,,,
harvest,99,394335,0.0-32.0-4.0,"""event"",""trial"",""time""
""fullscreenenter"",""1"",""2214""
","
","
","""event"",""trial"",""time""
""fullscreenenter"",""1"",""2214""
","
",,null,run_exp/static/images/task_images/gems/104.jpg,null,,,,,,,57,,,4,,,,,104,0.550736214,0.548076923,,,,,,,
decision,100,394664,0.0-32.0-5.0,"""event"",""trial"",""time""
""fullscreenenter"",""1"",""2214""
","
","
","""event"",""trial"",""time""
""fullscreenenter"",""1"",""2214""
","
",,326.4000015,run_exp/static/images/task_images/land.jpg,65,,,,,,,57,,,4,,,,,,,,88583,1,0,FALSE,,,
dig,101,397350,0.0-33.0-0.0,"""event"",""trial"",""time""
""fullscreenenter"",""1"",""2214""
","
","
","""event"",""trial"",""time""
""fullscreenenter"",""1"",""2214""
","
",,,,,,,,,,,,"[{""stimulus"":""run_exp/static/images/task_images/dig.jpg"",""time"":0.6000003814697266},{""stimulus"":""run_exp/static/images/task_images/land.jpg"",""time"":893.7999992370605},{""stimulus"":""run_exp/static/images/task_images/dig.jpg"",""time"":1791.1000003814697}]",[],4,,,,,,,,,,,,,,
harvest,102,398358,0.0-33.0-1.0,"""event"",""trial"",""time""
""fullscreenenter"",""1"",""2214""
","
","
","""event"",""trial"",""time""
""fullscreenenter"",""1"",""2214""
","
",,null,run_exp/static/images/task_images/gems/57.jpg,null,,,,,,,29,,,4,,,,,57,0.516045675,0.50877193,,,,,,,
decision,103,398680,0.0-33.0-2.0,"""event"",""trial"",""time""
""fullscreenenter"",""1"",""2214""
","
","
","""event"",""trial"",""time""
""fullscreenenter"",""1"",""2214""
","
",,319.7000008,run_exp/static/images/task_images/land.jpg,65,,,,,,,29,,,4,,,,,,,,92599,1,1,FALSE,,,
dig,104,401366,0.0-34.0-0.0,"""event"",""trial"",""time""
""fullscreenenter"",""1"",""2214""
","
","
","""event"",""trial"",""time""
""fullscreenenter"",""1"",""2214""
","
",,,,,,,,,,,,"[{""stimulus"":""run_exp/static/images/task_images/dig.jpg"",""time"":0.2999992370605469},{""stimulus"":""run_exp/static/images/task_images/land.jpg"",""time"":897.1000003814697},{""stimulus"":""run_exp/static/images/task_images/dig.jpg"",""time"":1793.5}]",[],4,,,,,,,,,,,,,,
harvest,105,402374,0.0-34.0-1.0,"""event"",""trial"",""time""
""fullscreenenter"",""1"",""2214""
","
","
","""event"",""trial"",""time""
""fullscreenenter"",""1"",""2214""
","
",,null,run_exp/static/images/task_images/gems/29.jpg,null,,,,,,,16,,,4,,,,,29,0.56779421,0.551724138,,,,,,,
decision,106,402624,0.0-34.0-2.0,"""event"",""trial"",""time""
""fullscreenenter"",""1"",""2214""
","
","
","""event"",""trial"",""time""
""fullscreenenter"",""1"",""2214""
","
",,249.1000004,run_exp/static/images/task_images/land.jpg,65,,,,,,,16,,,4,,,,,,,,96543,1,2,FALSE,,,
dig,107,405383,0.0-35.0-0.0,"""event"",""trial"",""time""
""fullscreenenter"",""1"",""2214""
","
","
","""event"",""trial"",""time""
""fullscreenenter"",""1"",""2214""
","
",,,,,,,,,,,,"[{""stimulus"":""run_exp/static/images/task_images/dig.jpg"",""time"":0.1999988555908203},{""stimulus"":""run_exp/static/images/task_images/land.jpg"",""time"":924.6999988555908},{""stimulus"":""run_exp/static/images/task_images/dig.jpg"",""time"":1835.7999992370605}]",[],4,,,,,,,,,,,,,,
harvest,108,406390,0.0-35.0-1.0,"""event"",""trial"",""time""
""fullscreenenter"",""1"",""2214""
","
","
","""event"",""trial"",""time""
""fullscreenenter"",""1"",""2214""
","
",,null,run_exp/static/images/task_images/gems/16.jpg,null,,,,,,,9,,,4,,,,,16,0.532109313,0.5625,,,,,,,
decision,109,406648,0.0-35.0-2.0,"""event"",""trial"",""time""
""fullscreenenter"",""1"",""2214""
","
","
","""event"",""trial"",""time""
""fullscreenenter"",""1"",""2214""
","
",,255.5999985,run_exp/static/images/task_images/land.jpg,65,,,,,,,9,,,4,,,,,,,,100567,1,3,FALSE,,,
dig,110,409399,0.0-36.0-0.0,"""event"",""trial"",""time""
""fullscreenenter"",""1"",""2214""
","
","
","""event"",""trial"",""time""
""fullscreenenter"",""1"",""2214""
","
",,,,,,,,,,,,"[{""stimulus"":""run_exp/static/images/task_images/dig.jpg"",""time"":0.3000011444091797},{""stimulus"":""run_exp/static/images/task_images/land.jpg"",""time"":921},{""stimulus"":""run_exp/static/images/task_images/dig.jpg"",""time"":1834.2000007629395}]",[],4,,,,,,,,,,,,,,
harvest,111,410406,0.0-36.0-1.0,"""event"",""trial"",""time""
""fullscreenenter"",""1"",""2214""
","
","
","""event"",""trial"",""time""
""fullscreenenter"",""1"",""2214""
","
",,null,run_exp/static/images/task_images/gems/9.jpg,null,,,,,,,4,,,4,,,,,9,0.461357559,0.444444444,,,,,,,
decision,112,410649,0.0-36.0-2.0,"""event"",""trial"",""time""
""fullscreenenter"",""1"",""2214""
","
","
","""event"",""trial"",""time""
""fullscreenenter"",""1"",""2214""
","
",,240.3000011,run_exp/static/images/task_images/land.jpg,76,,,,,,,4,,,4,,,,,,,,104568,1,4,TRUE,,,
travel,113,420422,0.0-37.0-0.0,"""event"",""trial"",""time""
""fullscreenenter"",""1"",""2214""
","
","
","""event"",""trial"",""time""
""fullscreenenter"",""1"",""2214""
","
",,,,,,,,,,,,"[{""stimulus"":""run_exp/static/images/task_images/rocket-01.jpg"",""time"":0.5},{""stimulus"":""run_exp/static/images/task_images/rocket-02.jpg"",""time"":1093.6999988555908},{""stimulus"":""run_exp/static/images/task_images/rocket-03.jpg"",""time"":2173.5},{""stimulus"":""run_exp/static/images/task_images/rocket-04.jpg"",""time"":3254.6000003814697},{""stimulus"":""run_exp/static/images/task_images/rocket-05.jpg"",""time"":4342.199998855591},{""stimulus"":""run_exp/static/images/task_images/rocket-06.jpg"",""time"":5430.299999237061},{""stimulus"":""run_exp/static/images/task_images/rocket-07.jpg"",""time"":6510.5},{""stimulus"":""run_exp/static/images/task_images/rocket-08.jpg"",""time"":7598.5},{""stimulus"":""run_exp/static/images/task_images/rocket-09.jpg"",""time"":8677.39999961853}]",[],4,,,,,,,,,,,,,,
alien_welcome,114,425431,0.0-37.0-1.0,"""event"",""trial"",""time""
""fullscreenenter"",""1"",""2214""
","
","
","""event"",""trial"",""time""
""fullscreenenter"",""1"",""2214""
","
",,null,run_exp/static/images/task_images/aliens/old_aliens/planet/alien_planet-50.jpg,null,,,,,,,,,,,,,50,"26,79,4,77,50,56,1,38,58,12,31,34,14,78,67,22,43,29,25,3,66,11,52,39,17,72,70,40,71,30,75,27,28,16,24",,,,,,,,,,
land,115,425934,0.0-37.0-2.0,"""event"",""trial"",""time""
""fullscreenenter"",""1"",""2214""
","
","
","""event"",""trial"",""time""
""fullscreenenter"",""1"",""2214""
","
",,null,run_exp/static/images/task_images/land.jpg,null,,,,,,,96,,,5,,,,,,,,,,,,,,
dig,116,427943,0.0-37.0-3.0,"""event"",""trial"",""time""
""fullscreenenter"",""1"",""2214""
","
","
","""event"",""trial"",""time""
""fullscreenenter"",""1"",""2214""
","
",,,,,,,,,,,,"[{""stimulus"":""run_exp/static/images/task_images/dig.jpg"",""time"":0.5},{""stimulus"":""run_exp/static/images/task_images/land.jpg"",""time"":677.6000003814697},{""stimulus"":""run_exp/static/images/task_images/dig.jpg"",""time"":1341.2000007629395}]",[],5,,,,,,,,,,,,,,
harvest,117,428950,0.0-37.0-4.0,"""event"",""trial"",""time""
""fullscreenenter"",""1"",""2214""
","
","
","""event"",""trial"",""time""
""fullscreenenter"",""1"",""2214""
","
",,null,run_exp/static/images/task_images/gems/96.jpg,null,,,,,,,51,,,5,,,,,96,0.531482328,0.53125,,,,,,,
decision,118,429272,0.0-37.0-5.0,"""event"",""trial"",""time""
""fullscreenenter"",""1"",""2214""
","
","
","""event"",""trial"",""time""
""fullscreenenter"",""1"",""2214""
","
",,319.1999989,run_exp/static/images/task_images/land.jpg,65,,,,,,,51,,,5,,,,,,,,123191,1,0,FALSE,,,
dig,119,431958,0.0-38.0-0.0,"""event"",""trial"",""time""
""fullscreenenter"",""1"",""2214""
","
","
","""event"",""trial"",""time""
""fullscreenenter"",""1"",""2214""
","
",,,,,,,,,,,,"[{""stimulus"":""run_exp/static/images/task_images/dig.jpg"",""time"":0.20000076293945312},{""stimulus"":""run_exp/static/images/task_images/land.jpg"",""time"":898},{""stimulus"":""run_exp/static/images/task_images/dig.jpg"",""time"":1794.8000011444092}]",[],5,,,,,,,,,,,,,,
harvest,120,432966,0.0-38.0-1.0,"""event"",""trial"",""time""
""fullscreenenter"",""1"",""2214""
","
","
","""event"",""trial"",""time""
""fullscreenenter"",""1"",""2214""
","
",,null,run_exp/static/images/task_images/gems/51.jpg,null,,,,,,,28,,,5,,,,,51,0.555664824,0.549019608,,,,,,,
decision,121,433263,0.0-38.0-2.0,"""event"",""trial"",""time""
""fullscreenenter"",""1"",""2214""
","
","
","""event"",""trial"",""time""
""fullscreenenter"",""1"",""2214""
","
",,296.5,run_exp/static/images/task_images/land.jpg,65,,,,,,,28,,,5,,,,,,,,127182,1,1,FALSE,,,
dig,122,435973,0.0-39.0-0.0,"""event"",""trial"",""time""
""fullscreenenter"",""1"",""2214""
","
","
","""event"",""trial"",""time""
""fullscreenenter"",""1"",""2214""
","
",,,,,,,,,,,,"[{""stimulus"":""run_exp/static/images/task_images/dig.jpg"",""time"":0.20000076293945312},{""stimulus"":""run_exp/static/images/task_images/land.jpg"",""time"":909.2000007629395},{""stimulus"":""run_exp/static/images/task_images/dig.jpg"",""time"":1804.6000003814697}]",[],5,,,,,,,,,,,,,,
harvest,123,436982,0.0-39.0-1.0,"""event"",""trial"",""time""
""fullscreenenter"",""1"",""2214""
","
","
","""event"",""trial"",""time""
""fullscreenenter"",""1"",""2214""
","
",,null,run_exp/static/images/task_images/gems/28.jpg,null,,,,,,,15,,,5,,,,,28,0.543933584,0.535714286,,,,,,,
decision,124,437328,0.0-39.0-2.0,"""event"",""trial"",""time""
""fullscreenenter"",""1"",""2214""
","
","
","""event"",""trial"",""time""
""fullscreenenter"",""1"",""2214""
","
",,344.5,run_exp/static/images/task_images/land.jpg,65,,,,,,,15,,,5,,,,,,,,131247,1,2,FALSE,,,
dig,125,439990,0.0-40.0-0.0,"""event"",""trial"",""time""
""fullscreenenter"",""1"",""2214""
","
","
","""event"",""trial"",""time""
""fullscreenenter"",""1"",""2214""
","
",,,,,,,,,,,,"[{""stimulus"":""run_exp/static/images/task_images/dig.jpg"",""time"":0.5},{""stimulus"":""run_exp/static/images/task_images/land.jpg"",""time"":887.3999996185303},{""stimulus"":""run_exp/static/images/task_images/dig.jpg"",""time"":1776.599998474121}]",[],5,,,,,,,,,,,,,,
harvest,126,440999,0.0-40.0-1.0,"""event"",""trial"",""time""
""fullscreenenter"",""1"",""2214""
","
","
","""event"",""trial"",""time""
""fullscreenenter"",""1"",""2214""
","
",,null,run_exp/static/images/task_images/gems/15.jpg,null,,,,,,,8,,,5,,,,,15,0.535155365,0.533333333,,,,,,,
decision,127,441257,0.0-40.0-2.0,"""event"",""trial"",""time""
""fullscreenenter"",""1"",""2214""
","
","
","""event"",""trial"",""time""
""fullscreenenter"",""1"",""2214""
","
",,256.5,run_exp/static/images/task_images/land.jpg,65,,,,,,,8,,,5,,,,,,,,135176,1,3,FALSE,,,
dig,128,444015,0.0-41.0-0.0,"""event"",""trial"",""time""
""fullscreenenter"",""1"",""2214""
","
","
","""event"",""trial"",""time""
""fullscreenenter"",""1"",""2214""
","
",,,,,,,,,,,,"[{""stimulus"":""run_exp/static/images/task_images/dig.jpg"",""time"":0.5},{""stimulus"":""run_exp/static/images/task_images/land.jpg"",""time"":918.4000015258789},{""stimulus"":""run_exp/static/images/task_images/dig.jpg"",""time"":1830.3000011444092}]",[],5,,,,,,,,,,,,,,
harvest,129,445022,0.0-41.0-1.0,"""event"",""trial"",""time""
""fullscreenenter"",""1"",""2214""
","
","
","""event"",""trial"",""time""
""fullscreenenter"",""1"",""2214""
","
",,null,run_exp/static/images/task_images/gems/8.jpg,null,,,,,,,4,,,5,,,,,8,0.493111305,0.5,,,,,,,
decision,130,445296,0.0-41.0-2.0,"""event"",""trial"",""time""
""fullscreenenter"",""1"",""2214""
","
","
","""event"",""trial"",""time""
""fullscreenenter"",""1"",""2214""
","
",,271.6999989,run_exp/static/images/task_images/land.jpg,76,,,,,,,4,,,5,,,,,,,,139215,1,4,TRUE,,,
travel,131,455022,0.0-42.0-0.0,"""event"",""trial"",""time""
""fullscreenenter"",""1"",""2214""
","
","
","""event"",""trial"",""time""
""fullscreenenter"",""1"",""2214""
","
",,,,,,,,,,,,"[{""stimulus"":""run_exp/static/images/task_images/rocket-01.jpg"",""time"":0.1999988555908203},{""stimulus"":""run_exp/static/images/task_images/rocket-02.jpg"",""time"":1081.6999988555908},{""stimulus"":""run_exp/static/images/task_images/rocket-03.jpg"",""time"":2161.8999996185303},{""stimulus"":""run_exp/static/images/task_images/rocket-04.jpg"",""time"":3243.2999992370605},{""stimulus"":""run_exp/static/images/task_images/rocket-05.jpg"",""time"":4322.5},{""stimulus"":""run_exp/static/images/task_images/rocket-06.jpg"",""time"":5402.199998855591},{""stimulus"":""run_exp/static/images/task_images/rocket-07.jpg"",""time"":6482.699998855591},{""stimulus"":""run_exp/static/images/task_images/rocket-08.jpg"",""time"":7562.60000038147},{""stimulus"":""run_exp/static/images/task_images/rocket-09.jpg"",""time"":8641.89999961853}]",[],5,,,,,,,,,,,,,,
alien_welcome,132,460030,0.0-42.0-1.0,"""event"",""trial"",""time""
""fullscreenenter"",""1"",""2214""
","
","
","""event"",""trial"",""time""
""fullscreenenter"",""1"",""2214""
","
",,null,run_exp/static/images/task_images/aliens/old_aliens/planet/alien_planet-56.jpg,null,,,,,,,,,,,,,56,"26,79,4,77,50,56,1,38,58,12,31,34,14,78,67,22,43,29,25,3,66,11,52,39,17,72,70,40,71,30,75,27,28,16,24",,,,,,,,,,
land,133,460534,0.0-42.0-2.0,"""event"",""trial"",""time""
""fullscreenenter"",""1"",""2214""
","
","
","""event"",""trial"",""time""
""fullscreenenter"",""1"",""2214""
","
",,null,run_exp/static/images/task_images/land.jpg,null,,,,,,,91,,,6,,,,,,,,,,,,,,
dig,134,462542,0.0-42.0-3.0,"""event"",""trial"",""time""
""fullscreenenter"",""1"",""2214""
","
","
","""event"",""trial"",""time""
""fullscreenenter"",""1"",""2214""
","
",,,,,,,,,,,,"[{""stimulus"":""run_exp/static/images/task_images/dig.jpg"",""time"":0.39999961853027344},{""stimulus"":""run_exp/static/images/task_images/land.jpg"",""time"":669.6999988555908},{""stimulus"":""run_exp/static/images/task_images/dig.jpg"",""time"":1341.2999992370605}]",[],6,,,,,,,,,,,,,,
harvest,135,463550,0.0-42.0-4.0,"""event"",""trial"",""time""
""fullscreenenter"",""1"",""2214""
","
","
","""event"",""trial"",""time""
""fullscreenenter"",""1"",""2214""
","
",,null,run_exp/static/images/task_images/gems/91.jpg,null,,,,,,,73,,,6,,,,,91,0.804122333,0.802197802,,,,,,,
decision,136,463856,0.0-42.0-5.0,"""event"",""trial"",""time""
""fullscreenenter"",""1"",""2214""
","
","
","""event"",""trial"",""time""
""fullscreenenter"",""1"",""2214""
","
",,303.5,run_exp/static/images/task_images/land.jpg,65,,,,,,,73,,,6,,,,,,,,157775,1,0,FALSE,,,
dig,137,466566,0.0-43.0-0.0,"""event"",""trial"",""time""
""fullscreenenter"",""1"",""2214""
","
","
","""event"",""trial"",""time""
""fullscreenenter"",""1"",""2214""
","
",,,,,,,,,,,,"[{""stimulus"":""run_exp/static/images/task_images/dig.jpg"",""time"":0.6000003814697266},{""stimulus"":""run_exp/static/images/task_images/land.jpg"",""time"":904},{""stimulus"":""run_exp/static/images/task_images/dig.jpg"",""time"":1798.3999996185303}]",[],6,,,,,,,,,,,,,,
harvest,138,467574,0.0-43.0-1.0,"""event"",""trial"",""time""
""fullscreenenter"",""1"",""2214""
","
","
","""event"",""trial"",""time""
""fullscreenenter"",""1"",""2214""
","
",,null,run_exp/static/images/task_images/gems/73.jpg,null,,,,,,,61,,,6,,,,,73,0.83327813,0.835616438,,,,,,,
decision,139,467879,0.0-43.0-2.0,"""event"",""trial"",""time""
""fullscreenenter"",""1"",""2214""
","
","
","""event"",""trial"",""time""
""fullscreenenter"",""1"",""2214""
","
",,302.6000004,run_exp/static/images/task_images/land.jpg,65,,,,,,,61,,,6,,,,,,,,161798,1,1,FALSE,,,
dig,140,470582,0.0-44.0-0.0,"""event"",""trial"",""time""
""fullscreenenter"",""1"",""2214""
","
","
","""event"",""trial"",""time""
""fullscreenenter"",""1"",""2214""
","
",,,,,,,,,,,,"[{""stimulus"":""run_exp/static/images/task_images/dig.jpg"",""time"":0.10000038146972656},{""stimulus"":""run_exp/static/images/task_images/land.jpg"",""time"":901.8000011444092},{""stimulus"":""run_exp/static/images/task_images/dig.jpg"",""time"":1806.6000003814697}]",[],6,,,,,,,,,,,,,,
harvest,141,471591,0.0-44.0-1.0,"""event"",""trial"",""time""
""fullscreenenter"",""1"",""2214""
","
","
","""event"",""trial"",""time""
""fullscreenenter"",""1"",""2214""
","
",,null,run_exp/static/images/task_images/gems/61.jpg,null,,,,,,,42,,,6,,,,,61,0.692261427,0.68852459,,,,,,,
decision,142,471985,0.0-44.0-2.0,"""event"",""trial"",""time""
""fullscreenenter"",""1"",""2214""
","
","
","""event"",""trial"",""time""
""fullscreenenter"",""1"",""2214""
","
",,391.8999996,run_exp/static/images/task_images/land.jpg,65,,,,,,,42,,,6,,,,,,,,165904,1,2,FALSE,,,
dig,143,474607,0.0-45.0-0.0,"""event"",""trial"",""time""
""fullscreenenter"",""1"",""2214""
","
","
","""event"",""trial"",""time""
""fullscreenenter"",""1"",""2214""
","
",,,,,,,,,,,,"[{""stimulus"":""run_exp/static/images/task_images/dig.jpg"",""time"":0.39999961853027344},{""stimulus"":""run_exp/static/images/task_images/land.jpg"",""time"":877.7000007629395},{""stimulus"":""run_exp/static/images/task_images/dig.jpg"",""time"":1742.7000007629395}]",[],6,,,,,,,,,,,,,,
harvest,144,475614,0.0-45.0-1.0,"""event"",""trial"",""time""
""fullscreenenter"",""1"",""2214""
","
","
","""event"",""trial"",""time""
""fullscreenenter"",""1"",""2214""
","
",,null,run_exp/static/images/task_images/gems/42.jpg,null,,,,,,,32,,,6,,,,,42,0.761341731,0.761904762,,,,,,,
decision,145,475919,0.0-45.0-2.0,"""event"",""trial"",""time""
""fullscreenenter"",""1"",""2214""
","
","
","""event"",""trial"",""time""
""fullscreenenter"",""1"",""2214""
","
",,304.7000008,run_exp/static/images/task_images/land.jpg,65,,,,,,,32,,,6,,,,,,,,169838,1,3,FALSE,,,
dig,146,478622,0.0-46.0-0.0,"""event"",""trial"",""time""
""fullscreenenter"",""1"",""2214""
","
","
","""event"",""trial"",""time""
""fullscreenenter"",""1"",""2214""
","
",,,,,,,,,,,,"[{""stimulus"":""run_exp/static/images/task_images/dig.jpg"",""time"":0.20000076293945312},{""stimulus"":""run_exp/static/images/task_images/land.jpg"",""time"":906.9000015258789},{""stimulus"":""run_exp/static/images/task_images/dig.jpg"",""time"":1802.5}]",[],6,,,,,,,,,,,,,,
harvest,147,479631,0.0-46.0-1.0,"""event"",""trial"",""time""
""fullscreenenter"",""1"",""2214""
","
","
","""event"",""trial"",""time""
""fullscreenenter"",""1"",""2214""
","
",,null,run_exp/static/images/task_images/gems/32.jpg,null,,,,,,,23,,,6,,,,,32,0.715422604,0.71875,,,,,,,
decision,148,479928,0.0-46.0-2.0,"""event"",""trial"",""time""
""fullscreenenter"",""1"",""2214""
","
","
","""event"",""trial"",""time""
""fullscreenenter"",""1"",""2214""
","
",,294.6000004,run_exp/static/images/task_images/land.jpg,65,,,,,,,23,,,6,,,,,,,,173847,1,4,FALSE,,,
dig,149,482646,0.0-47.0-0.0,"""event"",""trial"",""time""
""fullscreenenter"",""1"",""2214""
","
","
","""event"",""trial"",""time""
""fullscreenenter"",""1"",""2214""
","
",,,,,,,,,,,,"[{""stimulus"":""run_exp/static/images/task_images/dig.jpg"",""time"":0.39999961853027344},{""stimulus"":""run_exp/static/images/task_images/land.jpg"",""time"":911.3999996185303},{""stimulus"":""run_exp/static/images/task_images/dig.jpg"",""time"":1807.6999988555908}]",[],6,,,,,,,,,,,,,,
harvest,150,483655,0.0-47.0-1.0,"""event"",""trial"",""time""
""fullscreenenter"",""1"",""2214""
","
","
","""event"",""trial"",""time""
""fullscreenenter"",""1"",""2214""
","
",,null,run_exp/static/images/task_images/gems/23.jpg,null,,,,,,,20,,,6,,,,,23,0.890396945,0.869565217,,,,,,,
decision,151,483960,0.0-47.0-2.0,"""event"",""trial"",""time""
""fullscreenenter"",""1"",""2214""
","
","
","""event"",""trial"",""time""
""fullscreenenter"",""1"",""2214""
","
",,302.7000008,run_exp/static/images/task_images/land.jpg,65,,,,,,,20,,,6,,,,,,,,177880,1,5,FALSE,,,
dig,152,486670,0.0-48.0-0.0,"""event"",""trial"",""time""
""fullscreenenter"",""1"",""2214""
","
","
","""event"",""trial"",""time""
""fullscreenenter"",""1"",""2214""
","
",,,,,,,,,,,,"[{""stimulus"":""run_exp/static/images/task_images/dig.jpg"",""time"":0.5},{""stimulus"":""run_exp/static/images/task_images/land.jpg"",""time"":902.6000003814697},{""stimulus"":""run_exp/static/images/task_images/dig.jpg"",""time"":1806.2999992370605}]",[],6,,,,,,,,,,,,,,
harvest,153,487678,0.0-48.0-1.0,"""event"",""trial"",""time""
""fullscreenenter"",""1"",""2214""
","
","
","""event"",""trial"",""time""
""fullscreenenter"",""1"",""2214""
","
",,null,run_exp/static/images/task_images/gems/20.jpg,null,,,,,,,18,,,6,,,,,20,0.892507516,0.9,,,,,,,
decision,154,488184,0.0-48.0-2.0,"""event"",""trial"",""time""
""fullscreenenter"",""1"",""2214""
","
","
","""event"",""trial"",""time""
""fullscreenenter"",""1"",""2214""
","
",,503.3999996,run_exp/static/images/task_images/land.jpg,65,,,,,,,18,,,6,,,,,,,,182103,1,6,FALSE,,,
dig,155,490694,0.0-49.0-0.0,"""event"",""trial"",""time""
""fullscreenenter"",""1"",""2214""
","
","
","""event"",""trial"",""time""
""fullscreenenter"",""1"",""2214""
","
",,,,,,,,,,,,"[{""stimulus"":""run_exp/static/images/task_images/dig.jpg"",""time"":0.5},{""stimulus"":""run_exp/static/images/task_images/land.jpg"",""time"":838.5},{""stimulus"":""run_exp/static/images/task_images/dig.jpg"",""time"":1670.3999996185303}]",[],6,,,,,,,,,,,,,,
harvest,156,491702,0.0-49.0-1.0,"""event"",""trial"",""time""
""fullscreenenter"",""1"",""2214""
","
","
","""event"",""trial"",""time""
""fullscreenenter"",""1"",""2214""
","
",,null,run_exp/static/images/task_images/gems/18.jpg,null,,,,,,,14,,,6,,,,,18,0.79395756,0.777777778,,,,,,,
decision,157,492032,0.0-49.0-2.0,"""event"",""trial"",""time""
""fullscreenenter"",""1"",""2214""
","
","
","""event"",""trial"",""time""
""fullscreenenter"",""1"",""2214""
","
",,327.8999996,run_exp/static/images/task_images/land.jpg,65,,,,,,,14,,,6,,,,,,,,185951,1,7,FALSE,,,
dig,158,494710,0.0-50.0-0.0,"""event"",""trial"",""time""
""fullscreenenter"",""1"",""2214""
","
","
","""event"",""trial"",""time""
""fullscreenenter"",""1"",""2214""
","
",,,,,,,,,,,,"[{""stimulus"":""run_exp/static/images/task_images/dig.jpg"",""time"":0.39999961853027344},{""stimulus"":""run_exp/static/images/task_images/land.jpg"",""time"":895.2000007629395},{""stimulus"":""run_exp/static/images/task_images/dig.jpg"",""time"":1783.5}]",[],6,,,,,,,,,,,,,,
harvest,159,495717,0.0-50.0-1.0,"""event"",""trial"",""time""
""fullscreenenter"",""1"",""2214""
","
","
","""event"",""trial"",""time""
""fullscreenenter"",""1"",""2214""
","
",,null,run_exp/static/images/task_images/gems/14.jpg,null,,,,,,,11,,,6,,,,,14,0.8015323,0.785714286,,,,,,,
decision,160,496104,0.0-50.0-2.0,"""event"",""trial"",""time""
""fullscreenenter"",""1"",""2214""
","
","
","""event"",""trial"",""time""
""fullscreenenter"",""1"",""2214""
","
",,385.8999996,run_exp/static/images/task_images/land.jpg,76,,,,,,,11,,,6,,,,,,,,190024,1,8,TRUE,,,
travel,161,505734,0.0-51.0-0.0,"""event"",""trial"",""time""
""fullscreenenter"",""1"",""2214""
","
","
","""event"",""trial"",""time""
""fullscreenenter"",""1"",""2214""
","
",,,,,,,,,,,,"[{""stimulus"":""run_exp/static/images/task_images/rocket-01.jpg"",""time"":0.40000152587890625},{""stimulus"":""run_exp/static/images/task_images/rocket-02.jpg"",""time"":1076.5},{""stimulus"":""run_exp/static/images/task_images/rocket-03.jpg"",""time"":2139.800001144409},{""stimulus"":""run_exp/static/images/task_images/rocket-04.jpg"",""time"":3213.6000003814697},{""stimulus"":""run_exp/static/images/task_images/rocket-05.jpg"",""time"":4277.10000038147},{""stimulus"":""run_exp/static/images/task_images/rocket-06.jpg"",""time"":5349.900001525879},{""stimulus"":""run_exp/static/images/task_images/rocket-07.jpg"",""time"":6413.700000762939},{""stimulus"":""run_exp/static/images/task_images/rocket-08.jpg"",""time"":7485.400001525879},{""stimulus"":""run_exp/static/images/task_images/rocket-09.jpg"",""time"":8550.20000076294}]",[],6,,,,,,,,,,,,,,
alien_welcome,162,510743,0.0-51.0-1.0,"""event"",""trial"",""time""
""fullscreenenter"",""1"",""2214""
","
","
","""event"",""trial"",""time""
""fullscreenenter"",""1"",""2214""
","
",,null,run_exp/static/images/task_images/aliens/old_aliens/planet/alien_planet-1.jpg,null,,,,,,,,,,,,,1,"26,79,4,77,50,56,1,38,58,12,31,34,14,78,67,22,43,29,25,3,66,11,52,39,17,72,70,40,71,30,75,27,28,16,24",,,,,,,,,,
land,163,511246,0.0-51.0-2.0,"""event"",""trial"",""time""
""fullscreenenter"",""1"",""2214""
","
","
","""event"",""trial"",""time""
""fullscreenenter"",""1"",""2214""
","
",,null,run_exp/static/images/task_images/land.jpg,null,,,,,,,107,,,7,,,,,,,,,,,,,,
dig,164,513254,0.0-51.0-3.0,"""event"",""trial"",""time""
""fullscreenenter"",""1"",""2214""
","
","
","""event"",""trial"",""time""
""fullscreenenter"",""1"",""2214""
","
",,,,,,,,,,,,"[{""stimulus"":""run_exp/static/images/task_images/dig.jpg"",""time"":0.3000011444091797},{""stimulus"":""run_exp/static/images/task_images/land.jpg"",""time"":671.6000003814697},{""stimulus"":""run_exp/static/images/task_images/dig.jpg"",""time"":1343.1000003814697}]",[],7,,,,,,,,,,,,,,
harvest,165,514263,0.0-51.0-4.0,"""event"",""trial"",""time""
""fullscreenenter"",""1"",""2214""
","
","
","""event"",""trial"",""time""
""fullscreenenter"",""1"",""2214""
","
",,null,run_exp/static/images/task_images/gems/107.jpg,null,,,,,,,91,,,7,,,,,107,0.8496005,0.85046729,,,,,,,
decision,166,514576,0.0-51.0-5.0,"""event"",""trial"",""time""
""fullscreenenter"",""1"",""2214""
","
","
","""event"",""trial"",""time""
""fullscreenenter"",""1"",""2214""
","
",,310.6000004,run_exp/static/images/task_images/land.jpg,65,,,,,,,91,,,7,,,,,,,,208496,1,0,FALSE,,,
dig,167,517278,0.0-52.0-0.0,"""event"",""trial"",""time""
""fullscreenenter"",""1"",""2214""
","
","
","""event"",""trial"",""time""
""fullscreenenter"",""1"",""2214""
","
",,,,,,,,,,,,"[{""stimulus"":""run_exp/static/images/task_images/dig.jpg"",""time"":0.5},{""stimulus"":""run_exp/static/images/task_images/land.jpg"",""time"":901.6999988555908},{""stimulus"":""run_exp/static/images/task_images/dig.jpg"",""time"":1798.5}]",[],7,,,,,,,,,,,,,,
harvest,168,518286,0.0-52.0-1.0,"""event"",""trial"",""time""
""fullscreenenter"",""1"",""2214""
","
","
","""event"",""trial"",""time""
""fullscreenenter"",""1"",""2214""
","
",,null,run_exp/static/images/task_images/gems/91.jpg,null,,,,,,,72,,,7,,,,,91,0.789110483,0.791208791,,,,,,,
decision,169,518640,0.0-52.0-2.0,"""event"",""trial"",""time""
""fullscreenenter"",""1"",""2214""
","
","
","""event"",""trial"",""time""
""fullscreenenter"",""1"",""2214""
","
",,351.2000008,run_exp/static/images/task_images/land.jpg,65,,,,,,,72,,,7,,,,,,,,212559,1,1,FALSE,,,
dig,170,521301,0.0-53.0-0.0,"""event"",""trial"",""time""
""fullscreenenter"",""1"",""2214""
","
","
","""event"",""trial"",""time""
""fullscreenenter"",""1"",""2214""
","
",,,,,,,,,,,,"[{""stimulus"":""run_exp/static/images/task_images/dig.jpg"",""time"":0.5},{""stimulus"":""run_exp/static/images/task_images/land.jpg"",""time"":886},{""stimulus"":""run_exp/static/images/task_images/dig.jpg"",""time"":1774}]",[],7,,,,,,,,,,,,,,
harvest,171,522311,0.0-53.0-1.0,"""event"",""trial"",""time""
""fullscreenenter"",""1"",""2214""
","
","
","""event"",""trial"",""time""
""fullscreenenter"",""1"",""2214""
","
",,null,run_exp/static/images/task_images/gems/72.jpg,null,,,,,,,62,,,7,,,,,72,0.859522235,0.861111111,,,,,,,
decision,172,522633,0.0-53.0-2.0,"""event"",""trial"",""time""
""fullscreenenter"",""1"",""2214""
","
","
","""event"",""trial"",""time""
""fullscreenenter"",""1"",""2214""
","
",,319.2000008,run_exp/static/images/task_images/land.jpg,65,,,,,,,62,,,7,,,,,,,,216552,1,2,FALSE,,,
dig,173,525326,0.0-54.0-0.0,"""event"",""trial"",""time""
""fullscreenenter"",""1"",""2214""
","
","
","""event"",""trial"",""time""
""fullscreenenter"",""1"",""2214""
","
",,,,,,,,,,,,"[{""stimulus"":""run_exp/static/images/task_images/dig.jpg"",""time"":0.5},{""stimulus"":""run_exp/static/images/task_images/land.jpg"",""time"":896},{""stimulus"":""run_exp/static/images/task_images/dig.jpg"",""time"":1789.8999996185303}]",[],7,,,,,,,,,,,,,,
harvest,174,526334,0.0-54.0-1.0,"""event"",""trial"",""time""
""fullscreenenter"",""1"",""2214""
","
","
","""event"",""trial"",""time""
""fullscreenenter"",""1"",""2214""
","
",,null,run_exp/static/images/task_images/gems/62.jpg,null,,,,,,,54,,,7,,,,,62,0.871516059,0.870967742,,,,,,,
decision,175,526623,0.0-54.0-2.0,"""event"",""trial"",""time""
""fullscreenenter"",""1"",""2214""
","
","
","""event"",""trial"",""time""
""fullscreenenter"",""1"",""2214""
","
",,287.7000008,run_exp/static/images/task_images/land.jpg,65,,,,,,,54,,,7,,,,,,,,220542,1,3,FALSE,,,
dig,176,529342,0.0-55.0-0.0,"""event"",""trial"",""time""
""fullscreenenter"",""1"",""2214""
","
","
","""event"",""trial"",""time""
""fullscreenenter"",""1"",""2214""
","
",,,,,,,,,,,,"[{""stimulus"":""run_exp/static/images/task_images/dig.jpg"",""time"":0.20000076293945312},{""stimulus"":""run_exp/static/images/task_images/land.jpg"",""time"":909.3999996185303},{""stimulus"":""run_exp/static/images/task_images/dig.jpg"",""time"":1813.3000011444092}]",[],7,,,,,,,,,,,,,,
harvest,177,530350,0.0-55.0-1.0,"""event"",""trial"",""time""
""fullscreenenter"",""1"",""2214""
","
","
","""event"",""trial"",""time""
""fullscreenenter"",""1"",""2214""
","
",,null,run_exp/static/images/task_images/gems/54.jpg,null,,,,,,,44,,,7,,,,,54,0.814549124,0.814814815,,,,,,,
decision,178,530640,0.0-55.0-2.0,"""event"",""trial"",""time""
""fullscreenenter"",""1"",""2214""
","
","
","""event"",""trial"",""time""
""fullscreenenter"",""1"",""2214""
","
",,287.5,run_exp/static/images/task_images/land.jpg,65,,,,,,,44,,,7,,,,,,,,224559,1,4,FALSE,,,
dig,179,533366,0.0-56.0-0.0,"""event"",""trial"",""time""
""fullscreenenter"",""1"",""2214""
","
","
","""event"",""trial"",""time""
""fullscreenenter"",""1"",""2214""
","
",,,,,,,,,,,,"[{""stimulus"":""run_exp/static/images/task_images/dig.jpg"",""time"":0.2999992370605469},{""stimulus"":""run_exp/static/images/task_images/land.jpg"",""time"":913.1999988555908},{""stimulus"":""run_exp/static/images/task_images/dig.jpg"",""time"":1817.099998474121}]",[],7,,,,,,,,,,,,,,
harvest,180,534374,0.0-56.0-1.0,"""event"",""trial"",""time""
""fullscreenenter"",""1"",""2214""
","
","
","""event"",""trial"",""time""
""fullscreenenter"",""1"",""2214""
","
",,null,run_exp/static/images/task_images/gems/44.jpg,null,,,,,,,37,,,7,,,,,44,0.843408345,0.840909091,,,,,,,
decision,181,534728,0.0-56.0-2.0,"""event"",""trial"",""time""
""fullscreenenter"",""1"",""2214""
","
","
","""event"",""trial"",""time""
""fullscreenenter"",""1"",""2214""
","
",,351.5999985,run_exp/static/images/task_images/land.jpg,65,,,,,,,37,,,7,,,,,,,,228647,1,5,FALSE,,,
dig,182,537382,0.0-57.0-0.0,"""event"",""trial"",""time""
""fullscreenenter"",""1"",""2214""
","
","
","""event"",""trial"",""time""
""fullscreenenter"",""1"",""2214""
","
",,,,,,,,,,,,"[{""stimulus"":""run_exp/static/images/task_images/dig.jpg"",""time"":0.2999992370605469},{""stimulus"":""run_exp/static/images/task_images/land.jpg"",""time"":890.8999996185303},{""stimulus"":""run_exp/static/images/task_images/dig.jpg"",""time"":1771}]",[],7,,,,,,,,,,,,,,
harvest,183,538391,0.0-57.0-1.0,"""event"",""trial"",""time""
""fullscreenenter"",""1"",""2214""
","
","
","""event"",""trial"",""time""
""fullscreenenter"",""1"",""2214""
","
",,null,run_exp/static/images/task_images/gems/37.jpg,null,,,,,,,28,,,7,,,,,37,0.757094145,0.756756757,,,,,,,
decision,184,538792,0.0-57.0-2.0,"""event"",""trial"",""time""
""fullscreenenter"",""1"",""2214""
","
","
","""event"",""trial"",""time""
""fullscreenenter"",""1"",""2214""
","
",,398.4000015,run_exp/static/images/task_images/land.jpg,65,,,,,,,28,,,7,,,,,,,,232711,1,6,FALSE,,,
dig,185,541407,0.0-58.0-0.0,"""event"",""trial"",""time""
""fullscreenenter"",""1"",""2214""
","
","
","""event"",""trial"",""time""
""fullscreenenter"",""1"",""2214""
","
",,,,,,,,,,,,"[{""stimulus"":""run_exp/static/images/task_images/dig.jpg"",""time"":0.39999961853027344},{""stimulus"":""run_exp/static/images/task_images/land.jpg"",""time"":871.1000003814697},{""stimulus"":""run_exp/static/images/task_images/dig.jpg"",""time"":1743.7000007629395}]",[],7,,,,,,,,,,,,,,
harvest,186,542415,0.0-58.0-1.0,"""event"",""trial"",""time""
""fullscreenenter"",""1"",""2214""
","
","
","""event"",""trial"",""time""
""fullscreenenter"",""1"",""2214""
","
",,null,run_exp/static/images/task_images/gems/28.jpg,null,,,,,,,21,,,7,,,,,28,0.745002873,0.75,,,,,,,
decision,187,542735,0.0-58.0-2.0,"""event"",""trial"",""time""
""fullscreenenter"",""1"",""2214""
","
","
","""event"",""trial"",""time""
""fullscreenenter"",""1"",""2214""
","
",,318.6000004,run_exp/static/images/task_images/land.jpg,65,,,,,,,21,,,7,,,,,,,,236655,1,7,FALSE,,,
dig,188,545423,0.0-59.0-0.0,"""event"",""trial"",""time""
""fullscreenenter"",""1"",""2214""
","
","
","""event"",""trial"",""time""
""fullscreenenter"",""1"",""2214""
","
",,,,,,,,,,,,"[{""stimulus"":""run_exp/static/images/task_images/dig.jpg"",""time"":0.40000152587890625},{""stimulus"":""run_exp/static/images/task_images/land.jpg"",""time"":895.9000015258789},{""stimulus"":""run_exp/static/images/task_images/dig.jpg"",""time"":1791.7000007629395}]",[],7,,,,,,,,,,,,,,
harvest,189,546430,0.0-59.0-1.0,"""event"",""trial"",""time""
""fullscreenenter"",""1"",""2214""
","
","
","""event"",""trial"",""time""
""fullscreenenter"",""1"",""2214""
","
",,null,run_exp/static/images/task_images/gems/21.jpg,null,,,,,,,18,,,7,,,,,21,0.862471892,0.857142857,,,,,,,
decision,190,546760,0.0-59.0-2.0,"""event"",""trial"",""time""
""fullscreenenter"",""1"",""2214""
","
","
","""event"",""trial"",""time""
""fullscreenenter"",""1"",""2214""
","
",,328.1999989,run_exp/static/images/task_images/land.jpg,65,,,,,,,18,,,7,,,,,,,,240679,1,8,FALSE,,,
dig,191,549439,0.0-60.0-0.0,"""event"",""trial"",""time""
""fullscreenenter"",""1"",""2214""
","
","
","""event"",""trial"",""time""
""fullscreenenter"",""1"",""2214""
","
",,,,,,,,,,,,"[{""stimulus"":""run_exp/static/images/task_images/dig.jpg"",""time"":0.20000076293945312},{""stimulus"":""run_exp/static/images/task_images/land.jpg"",""time"":898.2000007629395},{""stimulus"":""run_exp/static/images/task_images/dig.jpg"",""time"":1786.3999996185303}]",[],7,,,,,,,,,,,,,,
harvest,192,550447,0.0-60.0-1.0,"""event"",""trial"",""time""
""fullscreenenter"",""1"",""2214""
","
","
","""event"",""trial"",""time""
""fullscreenenter"",""1"",""2214""
","
",,null,run_exp/static/images/task_images/gems/18.jpg,null,,,,,,,14,,,7,,,,,18,0.796634907,0.777777778,,,,,,,
decision,193,550736,0.0-60.0-2.0,"""event"",""trial"",""time""
""fullscreenenter"",""1"",""2214""
","
","
","""event"",""trial"",""time""
""fullscreenenter"",""1"",""2214""
","
",,286.6000004,run_exp/static/images/task_images/land.jpg,65,,,,,,,14,,,7,,,,,,,,244655,1,9,FALSE,,,
dig,194,553463,0.0-61.0-0.0,"""event"",""trial"",""time""
""fullscreenenter"",""1"",""2214""
","
","
","""event"",""trial"",""time""
""fullscreenenter"",""1"",""2214""
","
",,,,,,,,,,,,"[{""stimulus"":""run_exp/static/images/task_images/dig.jpg"",""time"":0.39999961853027344},{""stimulus"":""run_exp/static/images/task_images/land.jpg"",""time"":910.7000007629395},{""stimulus"":""run_exp/static/images/task_images/dig.jpg"",""time"":1815.1000003814697}]",[],7,,,,,,,,,,,,,,
harvest,195,554471,0.0-61.0-1.0,"""event"",""trial"",""time""
""fullscreenenter"",""1"",""2214""
","
","
","""event"",""trial"",""time""
""fullscreenenter"",""1"",""2214""
","
",,null,run_exp/static/images/task_images/gems/14.jpg,null,,,,,,,12,,,7,,,,,14,0.837183931,0.857142857,,,,,,,
decision,196,554808,0.0-61.0-2.0,"""event"",""trial"",""time""
""fullscreenenter"",""1"",""2214""
","
","
","""event"",""trial"",""time""
""fullscreenenter"",""1"",""2214""
","
",,334.3999996,run_exp/static/images/task_images/land.jpg,76,,,,,,,12,,,7,,,,,,,,248727,1,10,TRUE,,,
travel,197,564478,0.0-62.0-0.0,"""event"",""trial"",""time""
""fullscreenenter"",""1"",""2214""
","
","
","""event"",""trial"",""time""
""fullscreenenter"",""1"",""2214""
","
",,,,,,,,,,,,"[{""stimulus"":""run_exp/static/images/task_images/rocket-01.jpg"",""time"":0.40000152587890625},{""stimulus"":""run_exp/static/images/task_images/rocket-02.jpg"",""time"":1077.400001525879},{""stimulus"":""run_exp/static/images/task_images/rocket-03.jpg"",""time"":2150.6000003814697},{""stimulus"":""run_exp/static/images/task_images/rocket-04.jpg"",""time"":3222.6000003814697},{""stimulus"":""run_exp/static/images/task_images/rocket-05.jpg"",""time"":4302.200000762939},{""stimulus"":""run_exp/static/images/task_images/rocket-06.jpg"",""time"":5373.900001525879},{""stimulus"":""run_exp/static/images/task_images/rocket-07.jpg"",""time"":6446.400001525879},{""stimulus"":""run_exp/static/images/task_images/rocket-08.jpg"",""time"":7518.200000762939},{""stimulus"":""run_exp/static/images/task_images/rocket-09.jpg"",""time"":8589.900001525879}]",[],7,,,,,,,,,,,,,,
alien_welcome,198,569486,0.0-62.0-1.0,"""event"",""trial"",""time""
""fullscreenenter"",""1"",""2214""
","
","
","""event"",""trial"",""time""
""fullscreenenter"",""1"",""2214""
","
",,null,run_exp/static/images/task_images/aliens/old_aliens/planet/alien_planet-38.jpg,null,,,,,,,,,,,,,38,"26,79,4,77,50,56,1,38,58,12,31,34,14,78,67,22,43,29,25,3,66,11,52,39,17,72,70,40,71,30,75,27,28,16,24",,,,,,,,,,
land,199,569990,0.0-62.0-2.0,"""event"",""trial"",""time""
""fullscreenenter"",""1"",""2214""
","
","
","""event"",""trial"",""time""
""fullscreenenter"",""1"",""2214""
","
",,null,run_exp/static/images/task_images/land.jpg,null,,,,,,,110,,,8,,,,,,,,,,,,,,
dig,200,571998,0.0-62.0-3.0,"""event"",""trial"",""time""
""fullscreenenter"",""1"",""2214""
","
","
","""event"",""trial"",""time""
""fullscreenenter"",""1"",""2214""
","
",,,,,,,,,,,,"[{""stimulus"":""run_exp/static/images/task_images/dig.jpg"",""time"":0.6000003814697266},{""stimulus"":""run_exp/static/images/task_images/land.jpg"",""time"":677.7000007629395},{""stimulus"":""run_exp/static/images/task_images/dig.jpg"",""time"":1341.3000011444092}]",[],8,,,,,,,,,,,,,,
harvest,201,573006,0.0-62.0-4.0,"""event"",""trial"",""time""
""fullscreenenter"",""1"",""2214""
","
","
","""event"",""trial"",""time""
""fullscreenenter"",""1"",""2214""
","
",,null,run_exp/static/images/task_images/gems/110.jpg,null,,,,,,,77,,,8,,,,,110,0.699616818,0.7,,,,,,,
decision,202,573319,0.0-62.0-5.0,"""event"",""trial"",""time""
""fullscreenenter"",""1"",""2214""
","
","
","""event"",""trial"",""time""
""fullscreenenter"",""1"",""2214""
","
",,310.8999996,run_exp/static/images/task_images/land.jpg,65,,,,,,,77,,,8,,,,,,,,267238,1,0,FALSE,,,
dig,203,576014,0.0-63.0-0.0,"""event"",""trial"",""time""
""fullscreenenter"",""1"",""2214""
","
","
","""event"",""trial"",""time""
""fullscreenenter"",""1"",""2214""
","
",,,,,,,,,,,,"[{""stimulus"":""run_exp/static/images/task_images/dig.jpg"",""time"":0.3000011444091797},{""stimulus"":""run_exp/static/images/task_images/land.jpg"",""time"":898.4000015258789},{""stimulus"":""run_exp/static/images/task_images/dig.jpg"",""time"":1794.2000007629395}]",[],8,,,,,,,,,,,,,,
harvest,204,577023,0.0-63.0-1.0,"""event"",""trial"",""time""
""fullscreenenter"",""1"",""2214""
","
","
","""event"",""trial"",""time""
""fullscreenenter"",""1"",""2214""
","
",,null,run_exp/static/images/task_images/gems/77.jpg,null,,,,,,,58,,,8,,,,,77,0.747570509,0.753246753,,,,,,,
decision,205,577335,0.0-63.0-2.0,"""event"",""trial"",""time""
""fullscreenenter"",""1"",""2214""
","
","
","""event"",""trial"",""time""
""fullscreenenter"",""1"",""2214""
","
",,310.6000004,run_exp/static/images/task_images/land.jpg,65,,,,,,,58,,,8,,,,,,,,271254,1,1,FALSE,,,
dig,206,580030,0.0-64.0-0.0,"""event"",""trial"",""time""
""fullscreenenter"",""1"",""2214""
","
","
","""event"",""trial"",""time""
""fullscreenenter"",""1"",""2214""
","
",,,,,,,,,,,,"[{""stimulus"":""run_exp/static/images/task_images/dig.jpg"",""time"":0.3000011444091797},{""stimulus"":""run_exp/static/images/task_images/land.jpg"",""time"":899.2000007629395},{""stimulus"":""run_exp/static/images/task_images/dig.jpg"",""time"":1795.1000003814697}]",[],8,,,,,,,,,,,,,,
harvest,207,581038,0.0-64.0-1.0,"""event"",""trial"",""time""
""fullscreenenter"",""1"",""2214""
","
","
","""event"",""trial"",""time""
""fullscreenenter"",""1"",""2214""
","
",,null,run_exp/static/images/task_images/gems/58.jpg,null,,,,,,,46,,,8,,,,,58,0.798957085,0.793103448,,,,,,,
decision,208,581495,0.0-64.0-2.0,"""event"",""trial"",""time""
""fullscreenenter"",""1"",""2214""
","
","
","""event"",""trial"",""time""
""fullscreenenter"",""1"",""2214""
","
",,454.6000004,run_exp/static/images/task_images/land.jpg,65,,,,,,,46,,,8,,,,,,,,275414,1,2,FALSE,,,
dig,209,584046,0.0-65.0-0.0,"""event"",""trial"",""time""
""fullscreenenter"",""1"",""2214""
","
","
","""event"",""trial"",""time""
""fullscreenenter"",""1"",""2214""
","
",,,,,,,,,,,,"[{""stimulus"":""run_exp/static/images/task_images/dig.jpg"",""time"":0.2999992370605469},{""stimulus"":""run_exp/static/images/task_images/land.jpg"",""time"":858.6000003814697},{""stimulus"":""run_exp/static/images/task_images/dig.jpg"",""time"":1705.8999996185303}]",[],8,,,,,,,,,,,,,,
harvest,210,585054,0.0-65.0-1.0,"""event"",""trial"",""time""
""fullscreenenter"",""1"",""2214""
","
","
","""event"",""trial"",""time""
""fullscreenenter"",""1"",""2214""
","
",,null,run_exp/static/images/task_images/gems/46.jpg,null,,,,,,,39,,,8,,,,,46,0.843989149,0.847826087,,,,,,,
decision,211,585399,0.0-65.0-2.0,"""event"",""trial"",""time""
""fullscreenenter"",""1"",""2214""
","
","
","""event"",""trial"",""time""
""fullscreenenter"",""1"",""2214""
","
",,342.2999992,run_exp/static/images/task_images/land.jpg,65,,,,,,,39,,,8,,,,,,,,279318,1,3,FALSE,,,
dig,212,588070,0.0-66.0-0.0,"""event"",""trial"",""time""
""fullscreenenter"",""1"",""2214""
","
","
","""event"",""trial"",""time""
""fullscreenenter"",""1"",""2214""
","
",,,,,,,,,,,,"[{""stimulus"":""run_exp/static/images/task_images/dig.jpg"",""time"":0.39999961853027344},{""stimulus"":""run_exp/static/images/task_images/land.jpg"",""time"":895.3999996185303},{""stimulus"":""run_exp/static/images/task_images/dig.jpg"",""time"":1774.8999996185303}]",[],8,,,,,,,,,,,,,,
harvest,213,589078,0.0-66.0-1.0,"""event"",""trial"",""time""
""fullscreenenter"",""1"",""2214""
","
","
","""event"",""trial"",""time""
""fullscreenenter"",""1"",""2214""
","
",,null,run_exp/static/images/task_images/gems/39.jpg,null,,,,,,,28,,,8,,,,,39,0.722122262,0.717948718,,,,,,,
decision,214,589551,0.0-66.0-2.0,"""event"",""trial"",""time""
""fullscreenenter"",""1"",""2214""
","
","
","""event"",""trial"",""time""
""fullscreenenter"",""1"",""2214""
","
",,470.5,run_exp/static/images/task_images/land.jpg,65,,,,,,,28,,,8,,,,,,,,283470,1,4,FALSE,,,
dig,215,592094,0.0-67.0-0.0,"""event"",""trial"",""time""
""fullscreenenter"",""1"",""2214""
","
","
","""event"",""trial"",""time""
""fullscreenenter"",""1"",""2214""
","
",,,,,,,,,,,,"[{""stimulus"":""run_exp/static/images/task_images/dig.jpg"",""time"":0.40000152587890625},{""stimulus"":""run_exp/static/images/task_images/land.jpg"",""time"":848.7000007629395},{""stimulus"":""run_exp/static/images/task_images/dig.jpg"",""time"":1689.8000011444092}]",[],8,,,,,,,,,,,,,,
harvest,216,593102,0.0-67.0-1.0,"""event"",""trial"",""time""
""fullscreenenter"",""1"",""2214""
","
","
","""event"",""trial"",""time""
""fullscreenenter"",""1"",""2214""
","
",,null,run_exp/static/images/task_images/gems/28.jpg,null,,,,,,,19,,,8,,,,,28,0.68411562,0.678571429,,,,,,,
decision,217,593424,0.0-67.0-2.0,"""event"",""trial"",""time""
""fullscreenenter"",""1"",""2214""
","
","
","""event"",""trial"",""time""
""fullscreenenter"",""1"",""2214""
","
",,319.3999996,run_exp/static/images/task_images/land.jpg,65,,,,,,,19,,,8,,,,,,,,287343,1,5,FALSE,,,
dig,218,596118,0.0-68.0-0.0,"""event"",""trial"",""time""
""fullscreenenter"",""1"",""2214""
","
","
","""event"",""trial"",""time""
""fullscreenenter"",""1"",""2214""
","
",,,,,,,,,,,,"[{""stimulus"":""run_exp/static/images/task_images/dig.jpg"",""time"":0.5},{""stimulus"":""run_exp/static/images/task_images/land.jpg"",""time"":902.8999996185303},{""stimulus"":""run_exp/static/images/task_images/dig.jpg"",""time"":1790.1000003814697}]",[],8,,,,,,,,,,,,,,
harvest,219,597126,0.0-68.0-1.0,"""event"",""trial"",""time""
""fullscreenenter"",""1"",""2214""
","
","
","""event"",""trial"",""time""
""fullscreenenter"",""1"",""2214""
","
",,null,run_exp/static/images/task_images/gems/19.jpg,null,,,,,,,16,,,8,,,,,19,0.815928122,0.842105263,,,,,,,
decision,220,597511,0.0-68.0-2.0,"""event"",""trial"",""time""
""fullscreenenter"",""1"",""2214""
","
","
","""event"",""trial"",""time""
""fullscreenenter"",""1"",""2214""
","
",,382.5,run_exp/static/images/task_images/land.jpg,65,,,,,,,16,,,8,,,,,,,,291430,1,6,FALSE,,,
dig,221,600134,0.0-69.0-0.0,"""event"",""trial"",""time""
""fullscreenenter"",""1"",""2214""
","
","
","""event"",""trial"",""time""
""fullscreenenter"",""1"",""2214""
","
",,,,,,,,,,,,"[{""stimulus"":""run_exp/static/images/task_images/dig.jpg"",""time"":0.39999961853027344},{""stimulus"":""run_exp/static/images/task_images/land.jpg"",""time"":882.6000003814697},{""stimulus"":""run_exp/static/images/task_images/dig.jpg"",""time"":1752.6000003814697}]",[],8,,,,,,,,,,,,,,
harvest,222,601143,0.0-69.0-1.0,"""event"",""trial"",""time""
""fullscreenenter"",""1"",""2214""
","
","
","""event"",""trial"",""time""
""fullscreenenter"",""1"",""2214""
","
",,null,run_exp/static/images/task_images/gems/16.jpg,null,,,,,,,12,,,8,,,,,16,0.775900134,0.75,,,,,,,
decision,223,601463,0.0-69.0-2.0,"""event"",""trial"",""time""
""fullscreenenter"",""1"",""2214""
","
","
","""event"",""trial"",""time""
""fullscreenenter"",""1"",""2214""
","
",,318,run_exp/static/images/task_images/land.jpg,76,,,,,,,12,,,8,,,,,,,,295383,1,7,TRUE,,,
travel,224,611150,0.0-70.0-0.0,"""event"",""trial"",""time""
""fullscreenenter"",""1"",""2214""
","
","
","""event"",""trial"",""time""
""fullscreenenter"",""1"",""2214""
","
",,,,,,,,,,,,"[{""stimulus"":""run_exp/static/images/task_images/rocket-01.jpg"",""time"":0.6000003814697266},{""stimulus"":""run_exp/static/images/task_images/rocket-02.jpg"",""time"":1077.7999992370605},{""stimulus"":""run_exp/static/images/task_images/rocket-03.jpg"",""time"":2158.2999992370605},{""stimulus"":""run_exp/static/images/task_images/rocket-04.jpg"",""time"":3230.3999996185303},{""stimulus"":""run_exp/static/images/task_images/rocket-05.jpg"",""time"":4310.199998855591},{""stimulus"":""run_exp/static/images/task_images/rocket-06.jpg"",""time"":5382.199998855591},{""stimulus"":""run_exp/static/images/task_images/rocket-07.jpg"",""time"":6454.699998855591},{""stimulus"":""run_exp/static/images/task_images/rocket-08.jpg"",""time"":7534.10000038147},{""stimulus"":""run_exp/static/images/task_images/rocket-09.jpg"",""time"":8606.39999961853}]",[],8,,,,,,,,,,,,,,
alien_welcome,225,616159,0.0-70.0-1.0,"""event"",""trial"",""time""
""fullscreenenter"",""1"",""2214""
","
","
","""event"",""trial"",""time""
""fullscreenenter"",""1"",""2214""
","
",,null,run_exp/static/images/task_images/aliens/old_aliens/planet/alien_planet-58.jpg,null,,,,,,,,,,,,,58,"26,79,4,77,50,56,1,38,58,12,31,34,14,78,67,22,43,29,25,3,66,11,52,39,17,72,70,40,71,30,75,27,28,16,24",,,,,,,,,,
land,226,616671,0.0-70.0-2.0,"""event"",""trial"",""time""
""fullscreenenter"",""1"",""2214""
","
","
","""event"",""trial"",""time""
""fullscreenenter"",""1"",""2214""
","
",,null,run_exp/static/images/task_images/land.jpg,null,,,,,,,98,,,9,,,,,,,,,,,,,,
dig,227,618678,0.0-70.0-3.0,"""event"",""trial"",""time""
""fullscreenenter"",""1"",""2214""
","
","
","""event"",""trial"",""time""
""fullscreenenter"",""1"",""2214""
","
",,,,,,,,,,,,"[{""stimulus"":""run_exp/static/images/task_images/dig.jpg"",""time"":0.2999992370605469},{""stimulus"":""run_exp/static/images/task_images/land.jpg"",""time"":669.7000007629395},{""stimulus"":""run_exp/static/images/task_images/dig.jpg"",""time"":1341.8999996185303}]",[],9,,,,,,,,,,,,,,
harvest,228,619686,0.0-70.0-4.0,"""event"",""trial"",""time""
""fullscreenenter"",""1"",""2214""
","
","
","""event"",""trial"",""time""
""fullscreenenter"",""1"",""2214""
","
",,null,run_exp/static/images/task_images/gems/98.jpg,null,,,,,,,17,,,9,,,,,98,0.169719715,0.173469388,,,,,,,
decision,229,620431,0.0-70.0-5.0,"""event"",""trial"",""time""
""fullscreenenter"",""1"",""2214""
","
","
","""event"",""trial"",""time""
""fullscreenenter"",""1"",""2214""
","
",,742.0999985,run_exp/static/images/task_images/land.jpg,65,,,,,,,17,,,9,,,,,,,,314350,1,0,TRUE,,,
end_of_block_continue,230,629290,0.0-71.0-0.0,"""event"",""trial"",""time""
""fullscreenenter"",""1"",""2214""
","
","
","""event"",""trial"",""time""
""fullscreenenter"",""1"",""2214""
","
",,null,run_exp/static/audio/clip_32_block_end.m4a,,,,,,,null,,,,,,,,,,,,,,,,,,
alien_welcome,231,634302,0.0-72.0-0.0,"""event"",""trial"",""time""
""fullscreenenter"",""1"",""2214""
","
","
","""event"",""trial"",""time""
""fullscreenenter"",""1"",""2214""
","
",,null,run_exp/static/images/task_images/aliens/old_aliens/planet/alien_planet-12.jpg,null,,,,,,,,,,,,,12,"26,79,4,77,50,56,1,38,58,12,31,34,14,78,67,22,43,29,25,3,66,11,52,39,17,72,70,40,71,30,75,27,28,16,24",,,,,,,,,,
land,232,634806,0.0-72.0-1.0,"""event"",""trial"",""time""
""fullscreenenter"",""1"",""2214""
","
","
","""event"",""trial"",""time""
""fullscreenenter"",""1"",""2214""
","
",,null,run_exp/static/images/task_images/land.jpg,null,,,,,,,102,,,10,,,,,,,,,,,,,,
dig,233,636814,0.0-72.0-2.0,"""event"",""trial"",""time""
""fullscreenenter"",""1"",""2214""
","
","
","""event"",""trial"",""time""
""fullscreenenter"",""1"",""2214""
","
",,,,,,,,,,,,"[{""stimulus"":""run_exp/static/images/task_images/dig.jpg"",""time"":0.5},{""stimulus"":""run_exp/static/images/task_images/land.jpg"",""time"":676.2999992370605},{""stimulus"":""run_exp/static/images/task_images/dig.jpg"",""time"":1340.599998474121}]",[],10,,,,,,,,,,,,,,
harvest,234,637822,0.0-72.0-3.0,"""event"",""trial"",""time""
""fullscreenenter"",""1"",""2214""
","
","
","""event"",""trial"",""time""
""fullscreenenter"",""1"",""2214""
","
",,null,run_exp/static/images/task_images/gems/102.jpg,null,,,,,,,27,,,10,,,,,102,0.262746311,0.264705882,,,,,,,
decision,235,638295,0.0-72.0-4.0,"""event"",""trial"",""time""
""fullscreenenter"",""1"",""2214""
","
","
","""event"",""trial"",""time""
""fullscreenenter"",""1"",""2214""
","
",,471.2000008,run_exp/static/images/task_images/land.jpg,65,,,,,,,27,,,10,,,,,,,,8999,2,0,FALSE,,,
dig,236,640830,0.0-73.0-0.0,"""event"",""trial"",""time""
""fullscreenenter"",""1"",""2214""
","
","
","""event"",""trial"",""time""
""fullscreenenter"",""1"",""2214""
","
",,,,,,,,,,,,"[{""stimulus"":""run_exp/static/images/task_images/dig.jpg"",""time"":0.40000152587890625},{""stimulus"":""run_exp/static/images/task_images/land.jpg"",""time"":849},{""stimulus"":""run_exp/static/images/task_images/dig.jpg"",""time"":1689}]",[],10,,,,,,,,,,,,,,
harvest,237,641839,0.0-73.0-1.0,"""event"",""trial"",""time""
""fullscreenenter"",""1"",""2214""
","
","
","""event"",""trial"",""time""
""fullscreenenter"",""1"",""2214""
","
",,null,run_exp/static/images/task_images/gems/27.jpg,null,,,,,,,6,,,10,,,,,27,0.208050871,0.222222222,,,,,,,
decision,238,643111,0.0-73.0-2.0,"""event"",""trial"",""time""
""fullscreenenter"",""1"",""2214""
","
","
","""event"",""trial"",""time""
""fullscreenenter"",""1"",""2214""
","
",,1269.1,run_exp/static/images/task_images/land.jpg,65,,,,,,,6,,,10,,,,,,,,13815,2,1,FALSE,,,
dig,239,644846,0.0-74.0-0.0,"""event"",""trial"",""time""
""fullscreenenter"",""1"",""2214""
","
","
","""event"",""trial"",""time""
""fullscreenenter"",""1"",""2214""
","
",,,,,,,,,,,,"[{""stimulus"":""run_exp/static/images/task_images/dig.jpg"",""time"":0.39999961853027344},{""stimulus"":""run_exp/static/images/task_images/land.jpg"",""time"":578.2000007629395},{""stimulus"":""run_exp/static/images/task_images/dig.jpg"",""time"":1154.3999996185303}]",[],10,,,,,,,,,,,,,,
harvest,240,645854,0.0-74.0-1.0,"""event"",""trial"",""time""
""fullscreenenter"",""1"",""2214""
","
","
","""event"",""trial"",""time""
""fullscreenenter"",""1"",""2214""
","
",,null,run_exp/static/images/task_images/gems/6.jpg,null,,,,,,,1,,,10,,,,,6,0.173850066,0.166666667,,,,,,,
decision,241,646128,0.0-74.0-2.0,"""event"",""trial"",""time""
""fullscreenenter"",""1"",""2214""
","
","
","""event"",""trial"",""time""
""fullscreenenter"",""1"",""2214""
","
",,271.3999996,run_exp/static/images/task_images/land.jpg,76,,,,,,,1,,,10,,,,,,,,16832,2,2,TRUE,,,
travel,242,655862,0.0-75.0-0.0,"""event"",""trial"",""time""
""fullscreenenter"",""1"",""2214""
","
","
","""event"",""trial"",""time""
""fullscreenenter"",""1"",""2214""
","
",,,,,,,,,,,,"[{""stimulus"":""run_exp/static/images/task_images/rocket-01.jpg"",""time"":0.6000003814697266},{""stimulus"":""run_exp/static/images/task_images/rocket-02.jpg"",""time"":1085.1999988555908},{""stimulus"":""run_exp/static/images/task_images/rocket-03.jpg"",""time"":2165.6000003814697},{""stimulus"":""run_exp/static/images/task_images/rocket-04.jpg"",""time"":3244.8999996185303},{""stimulus"":""run_exp/static/images/task_images/rocket-05.jpg"",""time"":4324.699998855591},{""stimulus"":""run_exp/static/images/task_images/rocket-06.jpg"",""time"":5404.39999961853},{""stimulus"":""run_exp/static/images/task_images/rocket-07.jpg"",""time"":6485.199998855591},{""stimulus"":""run_exp/static/images/task_images/rocket-08.jpg"",""time"":7565},{""stimulus"":""run_exp/static/images/task_images/rocket-09.jpg"",""time"":8644.69999885559}]",[],10,,,,,,,,,,,,,,
alien_welcome,243,660870,0.0-75.0-1.0,"""event"",""trial"",""time""
""fullscreenenter"",""1"",""2214""
","
","
","""event"",""trial"",""time""
""fullscreenenter"",""1"",""2214""
","
",,null,run_exp/static/images/task_images/aliens/old_aliens/planet/alien_planet-31.jpg,null,,,,,,,,,,,,,31,"26,79,4,77,50,56,1,38,58,12,31,34,14,78,67,22,43,29,25,3,66,11,52,39,17,72,70,40,71,30,75,27,28,16,24",,,,,,,,,,
land,244,661374,0.0-75.0-2.0,"""event"",""trial"",""time""
""fullscreenenter"",""1"",""2214""
","
","
","""event"",""trial"",""time""
""fullscreenenter"",""1"",""2214""
","
",,null,run_exp/static/images/task_images/land.jpg,null,,,,,,,104,,,11,,,,,,,,,,,,,,
dig,245,663381,0.0-75.0-3.0,"""event"",""trial"",""time""
""fullscreenenter"",""1"",""2214""
","
","
","""event"",""trial"",""time""
""fullscreenenter"",""1"",""2214""
","
",,,,,,,,,,,,"[{""stimulus"":""run_exp/static/images/task_images/dig.jpg"",""time"":0.40000152587890625},{""stimulus"":""run_exp/static/images/task_images/land.jpg"",""time"":677.3000011444092},{""stimulus"":""run_exp/static/images/task_images/dig.jpg"",""time"":1341.400001525879}]",[],11,,,,,,,,,,,,,,
harvest,246,664390,0.0-75.0-4.0,"""event"",""trial"",""time""
""fullscreenenter"",""1"",""2214""
","
","
","""event"",""trial"",""time""
""fullscreenenter"",""1"",""2214""
","
",,null,run_exp/static/images/task_images/gems/104.jpg,null,,,,,,,18,,,11,,,,,104,0.175827833,0.173076923,,,,,,,
decision,247,664670,0.0-75.0-5.0,"""event"",""trial"",""time""
""fullscreenenter"",""1"",""2214""
","
","
","""event"",""trial"",""time""
""fullscreenenter"",""1"",""2214""
","
",,278.8999996,run_exp/static/images/task_images/land.jpg,65,,,,,,,18,,,11,,,,,,,,35374,2,0,FALSE,,,
dig,248,667398,0.0-76.0-0.0,"""event"",""trial"",""time""
""fullscreenenter"",""1"",""2214""
","
","
","""event"",""trial"",""time""
""fullscreenenter"",""1"",""2214""
","
",,,,,,,,,,,,"[{""stimulus"":""run_exp/static/images/task_images/dig.jpg"",""time"":0.20000076293945312},{""stimulus"":""run_exp/static/images/task_images/land.jpg"",""time"":916.6000003814697},{""stimulus"":""run_exp/static/images/task_images/dig.jpg"",""time"":1820.8999996185303}]",[],11,,,,,,,,,,,,,,
