trial_type,trial_index,time_elapsed,internal_node_id,success,rt,stimulus,key_press,prompt,subject_id,age,gender,button_pressed,next_reward,animation_sequence,responses,planet,curr_prac_trial,n_prac_rounds,alien,aliens,reward_received,decay_rate_actual,decay_rate_exp,time_in_block,block_num,prt,last_trial_on_planet,button_html,bonus,num_failures
pavlovia,0,4,0.0-0.0,,,,,,,,,,,,,,,,,,,,,,,,,,,
fullscreen,1,8079,0.0-1.0,TRUE,,,,,,,,,,,,,,,,,,,,,,,,,,
instruc_welcome,2,18235,0.0-2.0,,null,run_exp/static/audio/clip_1_welcome.m4a,null,"<p>Howdy! In this experiment, you’ll be an explorer traveling through space to collect space treasure.</p><p>Your mission is to collect as much treasure as possible.</p><br><br><p><img src='run_exp/static/images/task_images/opening_img-01.jpg' height='300' width='auto'></p>",aps8WR9YNZD83fN_51KYnLSfJHZ2CGO_MLRP_4IAwX6MSpWhyeR8,24.38,male,,,,,,,,,,,,,,,,,,,
audio-keyboard-response,3,34853,0.0-3.0,,null,run_exp/static/audio/clip_2_move.m4a,null,,,,,,,,,,,,,,,,,,,,,,,
welcome_dec,4,62877,0.0-4.0,,28020.9,"<p>Howdy! In this experiment, you’ll be an explorer traveling through space to collect space treasure.</p><p>Your mission is to collect as much treasure as possible.</p><br><br><p><img src='run_exp/static/images/task_images/opening_img-01.jpg' height='300' width='auto'></p>",,,,,,1,,,,,,,,,,,,,,,,,,
html-keyboard-response,5,65158,0.0-5.0,,2278.2,"<p>Howdy! In this experiment, you’ll be an explorer traveling through space to collect space treasure.</p><p>Your mission is to collect as much treasure as possible.</p><br><br><p><img src='run_exp/static/images/task_images/opening_img-01.jpg' height='300' width='auto'></p><button class=""jspsych-html-btn-unchosen""><img src=""run_exp/static/images/task_images/planet-01.jpg"" height=""50""></button><button class=""jspsych-html-btn-chosen""><img src=""run_exp/static/images/task_images/planet-02.jpg"" height=""50""></button><p><b>[press the space bar to lock in your answer]<b><br></p>",32,,,,,,,,,,,,,,,,,,,,,,,
instruc_goal,6,76010,0.0-6.0-0.0,,null,run_exp/static/audio/clip_3_goal.m4a,null,"<p> As a space explorer, you’ll visit different planets to dig for space treasure, these pink gems.</p> <p> The more treasure you dig up, the more bonus money you’ll win! </p><br><br><p><img src='run_exp/static/images/task_images/pink_gem.jpg' height='300' width='auto'></p>",,,,,,,,,,,,,,,,,,,,,,
instruc_goal,7,77750,0.0-6.0-1.0,,1737.6,"<p> As a space explorer, you’ll visit different planets to dig for space treasure, these pink gems.</p> <p> The more treasure you dig up, the more bonus money you’ll win! </p><br><br><p><img src='run_exp/static/images/task_images/pink_gem.jpg' height='300' width='auto'></p>",,,,,,1,,,,,,,,,,,,,,,,,,
html-keyboard-response,8,78875,0.0-6.0-2.0,,1123.1,"<p> As a space explorer, you’ll visit different planets to dig for space treasure, these pink gems.</p> <p> The more treasure you dig up, the more bonus money you’ll win! </p><br><br><p><img src='run_exp/static/images/task_images/pink_gem.jpg' height='300' width='auto'></p><button class=""jspsych-html-btn-unchosen""><img src=""run_exp/static/images/task_images/planet-01.jpg"" height=""50""></button><button class=""jspsych-html-btn-chosen""><img src=""run_exp/static/images/task_images/planet-02.jpg"" height=""50""></button><p><b>[press the space bar to lock in your answer]<b><br></p>",32,,,,,,,,,,,,,,,,,,,,,,,
instruc_dig,9,94870,0.0-7.0-0.0,,null,run_exp/static/audio/clip_4_dig.m4a,null,,,,,,100,,,,,,,,,,,,,,,,,
instruc_dig_try,10,95217,0.0-7.0-1.0,,345.3,"<p> When you’ve arrived at a new planet, you will dig once. </p> <p>Then, you get to decide if you want to stay on the planet and dig again or travel to a new planet and dig there.</p> <p> To stay and dig, press the letter <strong>‘A’</strong> on your keyboard. Try pressing it now! </p><p><img src='run_exp/static/images/task_images/land.jpg'  height='700' width='auto'></p>",65,"<p> When you’ve arrived at a new planet, you will dig once. </p> <p>Then, you get to decide if you want to stay on the planet and dig again or travel to a new planet and dig there.</p> <p> To stay and dig, press the letter <strong>‘A’</strong> on your keyboard. Try pressing it now! </p><p><img src='run_exp/static/images/task_images/land.jpg'  height='700' width='auto'></p>",,,,,100,,,,,,,,,,,,,,,,,
dig_prac,11,97241,0.0-7.0-2.0,,,,,,,,,,,"[{""stimulus"":""run_exp/static/images/task_images/dig.jpg"",""time"":0.3999999910593033},{""stimulus"":""run_exp/static/images/task_images/land.jpg"",""time"":676.2000000029802},{""stimulus"":""run_exp/static/images/task_images/dig.jpg"",""time"":1344}]",[],,,,,,,,,,,,,,,
instruc_travel,12,133490,0.0-7.0-3.0,,null,run_exp/static/audio/clip_5_travel.m4a,null,"<p>Every time you dig up gems, there are less gems on the planet, so the more you dig on a planet the fewer gems you’ll get with each dig.</p><p>When gems are running low, you may want to travel to a new planet. </p> <p>  Planets are very far apart in this galaxy, so it will take some time to travel between them. </p> <br><p>There are lots and lots of planets for you to visit, so you won’t be able to return to any planets you’ve seen before. </p><br><p>To leave this planet and travel to a new one, press the letter <strong>‘L’</strong> on your keyboard. Try pressing it now! </p><p><img src='run_exp/static/images/task_images/rocket-01.jpg'  height='600' width='auto'></p>",,,,,,,,,,,,,,,,,,,,,,
instruc_travel_try,13,134300,0.0-7.0-4.0,,808.3,"<p>Every time you dig up gems, there are less gems on the planet, so the more you dig on a planet the fewer gems you’ll get with each dig.</p><p>When gems are running low, you may want to travel to a new planet. </p> <p>  Planets are very far apart in this galaxy, so it will take some time to travel between them. </p> <br><p>There are lots and lots of planets for you to visit, so you won’t be able to return to any planets you’ve seen before. </p><br><p>To leave this planet and travel to a new one, press the letter <strong>‘L’</strong> on your keyboard. Try pressing it now! </p><p><img src='run_exp/static/images/task_images/rocket-01.jpg'  height='600' width='auto'></p>",76,"<p>Every time you dig up gems, there are less gems on the planet, so the more you dig on a planet the fewer gems you’ll get with each dig.</p><p>When gems are running low, you may want to travel to a new planet. </p> <p>  Planets are very far apart in this galaxy, so it will take some time to travel between them. </p> <br><p>There are lots and lots of planets for you to visit, so you won’t be able to return to any planets you’ve seen before. </p><br><p>To leave this planet and travel to a new one, press the letter <strong>‘L’</strong> on your keyboard. Try pressing it now! </p><p><img src='run_exp/static/images/task_images/rocket-01.jpg'  height='600' width='auto'></p>",,,,,,,,,,,,,,,,,,,,,,
travel_prac,14,144314,0.0-7.0-5.0,,,,,,,,,,,"[{""stimulus"":""run_exp/static/images/task_images/rocket-01.jpg"",""time"":0.29999999701976776},{""stimulus"":""run_exp/static/images/task_images/rocket-02.jpg"",""time"":1124.0999999940395},{""stimulus"":""run_exp/static/images/task_images/rocket-03.jpg"",""time"":2230.9000000059605},{""stimulus"":""run_exp/static/images/task_images/rocket-04.jpg"",""time"":3337},{""stimulus"":""run_exp/static/images/task_images/rocket-05.jpg"",""time"":4450.20000000298},{""stimulus"":""run_exp/static/images/task_images/rocket-06.jpg"",""time"":5558},{""stimulus"":""run_exp/static/images/task_images/rocket-07.jpg"",""time"":6680.0999999940395},{""stimulus"":""run_exp/static/images/task_images/rocket-08.jpg"",""time"":7786.79999999702},{""stimulus"":""run_exp/static/images/task_images/rocket-09.jpg"",""time"":8893}]",[],0,,,,,,,,,,,,,,
instruc_alien_greet,15,171500,0.0-7.0-6.0,,null,run_exp/static/audio/clip_6_alien.m4a,null,"<p>When you arrive at a new planet, the alien who owns the treasure mine on that planet will greet you!</p><p>The better an alien takes care of their mine the easier it is to dig for gems. Some aliens take better care of their mine than others. So, you won’t get exactly the same amount of gems on each planet.</p><p>What the alien looks like does not tell you anything about how many gems there are on the planet.</p><br><p><img src=""run_exp/static/images/task_images/aliens/instructions_aliens/planet/alien_planet-1.jpg""  height=""600"" width=""auto""></p>",,,,,,,,,,,,,,,,,,,,,,
instruc_alien_greet,16,173934,0.0-7.0-7.0,,2431.6,"<p>When you arrive at a new planet, the alien who owns the treasure mine on that planet will greet you!</p><p>The better an alien takes care of their mine the easier it is to dig for gems. Some aliens take better care of their mine than others. So, you won’t get exactly the same amount of gems on each planet.</p><p>What the alien looks like does not tell you anything about how many gems there are on the planet.</p><br><p><img src=""run_exp/static/images/task_images/aliens/instructions_aliens/planet/alien_planet-1.jpg""  height=""600"" width=""auto""></p>",,,,,,1,,,,,,,,,,,,,,,,,,
html-keyboard-response,17,174491,0.0-7.0-8.0,,555.9,"<p>When you arrive at a new planet, the alien who owns the treasure mine on that planet will greet you!</p><p>The better an alien takes care of their mine the easier it is to dig for gems. Some aliens take better care of their mine than others. So, you won’t get exactly the same amount of gems on each planet.</p><p>What the alien looks like does not tell you anything about how many gems there are on the planet.</p><br><p><img src=""run_exp/static/images/task_images/aliens/instructions_aliens/planet/alien_planet-1.jpg""  height=""600"" width=""auto""></p><button class=""jspsych-html-btn-unchosen""><img src=""run_exp/static/images/task_images/planet-01.jpg"" height=""50""></button><button class=""jspsych-html-btn-chosen""><img src=""run_exp/static/images/task_images/planet-02.jpg"" height=""50""></button><p><b>[press the space bar to lock in your answer]<b><br></p>",32,,,,,,,,,,,,,,,,,,,,,,,
time_out,18,185580,0.0-8.0-0.0,,null,run_exp/static/audio/clip_7_timeout.m4a,null,"<p>If you don't make your choice fast enough, you’ll have to wait a few seconds before you can make another one.</p><p>You can’t dig for more gems or travel to new planets. You just have to sit and wait.</p><br><p><img src='run_exp/static/images/task_images/time_out.jpg'  height='600' width='auto'></p>",,,,,,,,,,,,,,,,,,,,,,
time_out,19,187215,0.0-8.0-1.0,,1632.9,"<p>If you don't make your choice fast enough, you’ll have to wait a few seconds before you can make another one.</p><p>You can’t dig for more gems or travel to new planets. You just have to sit and wait.</p><br><p><img src='run_exp/static/images/task_images/time_out.jpg'  height='600' width='auto'></p>",,,,,,1,,,,,,,,,,,,,,,,,,
html-keyboard-response,20,188674,0.0-8.0-2.0,,1458,"<p>If you don't make your choice fast enough, you’ll have to wait a few seconds before you can make another one.</p><p>You can’t dig for more gems or travel to new planets. You just have to sit and wait.</p><br><p><img src='run_exp/static/images/task_images/time_out.jpg'  height='600' width='auto'></p><button class=""jspsych-html-btn-unchosen""><img src=""run_exp/static/images/task_images/planet-01.jpg"" height=""50""></button><button class=""jspsych-html-btn-chosen""><img src=""run_exp/static/images/task_images/planet-02.jpg"" height=""50""></button><p><b>[press the space bar to lock in your answer]<b><br></p>",32,,,,,,,,,,,,,,,,,,,,,,,
instruc_break,21,204340,0.0-9.0-0.0,,null,run_exp/static/audio/clip_8_break.m4a,null,"<p> After digging and traveling for a while, you’ll be able to take a break at home base. </p><p>The game will last 20 minutes no matter what.</p><p>You will visit home base every 5 minutes, so, you will visit home base three times during the game.</p><br><p><img src='run_exp/static/images/task_images/home_base.jpg' height='600' width='auto'></p>",,,,,,,,,,,,,,,,,,,,,,
instruc_break,22,206667,0.0-9.0-1.0,,2325.3,"<p> After digging and traveling for a while, you’ll be able to take a break at home base. </p><p>The game will last 20 minutes no matter what.</p><p>You will visit home base every 5 minutes, so, you will visit home base three times during the game.</p><br><p><img src='run_exp/static/images/task_images/home_base.jpg' height='600' width='auto'></p>",,,,,,1,,,,,,,,,,,,,,,,,,
html-keyboard-response,23,207006,0.0-9.0-2.0,,337.3,"<p> After digging and traveling for a while, you’ll be able to take a break at home base. </p><p>The game will last 20 minutes no matter what.</p><p>You will visit home base every 5 minutes, so, you will visit home base three times during the game.</p><br><p><img src='run_exp/static/images/task_images/home_base.jpg' height='600' width='auto'></p><button class=""jspsych-html-btn-unchosen""><img src=""run_exp/static/images/task_images/planet-01.jpg"" height=""50""></button><button class=""jspsych-html-btn-chosen""><img src=""run_exp/static/images/task_images/planet-02.jpg"" height=""50""></button><p><b>[press the space bar to lock in your answer]<b><br></p>",32,,,,,,,,,,,,,,,,,,,,,,,
instruc_prac_game,24,217140,0.0-10.0-0.0,,null,run_exp/static/audio/clip_9_practice.m4a,null,"<p> Are you ready to play a practice game? </p> <p>In this practice game, you'll be digging up barrels of gems. But, in the real game, you'll be digging up the gems themselves. </p>",,,,,,,,,,,,,,,,,,,,,,
html-button-response,25,218254,0.0-10.0-1.0,,1112.4,"<p> Are you ready to play a practice game? </p> <p>In this practice game, you'll be digging up barrels of gems. But, in the real game, you'll be digging up the gems themselves. </p>",,,,,,0,,,,,,,,,,,,,,,,,,
alien_welcome_prac,26,223270,0.0-11.0-0.0,,null,run_exp/static/images/task_images/aliens/practice_aliens/planet/alien_planet-5.jpg,null,,,,,,,,,,,,,,,,,,,,,,,
land_prac,27,223772,0.0-11.0-1.0,,null,run_exp/static/images/task_images/land.jpg,null,,,,,,97,,,0,,,,,,,,,,,,,,
dig_prac,28,225780,0.0-11.0-2.0,,,,,,,,,,,"[{""stimulus"":""run_exp/static/images/task_images/dig.jpg"",""time"":0.29999999701976776},{""stimulus"":""run_exp/static/images/task_images/land.jpg"",""time"":681.8999999910593},{""stimulus"":""run_exp/static/images/task_images/dig.jpg"",""time"":1336.5999999940395}]",[],,,,,,,,,,,,,,,
harvest_prac,29,226795,0.0-11.0-3.0,,null,run_exp/static/images/task_images/barrel_text.jpg,null,,,,,,,,,,,,,,,,,,,,,,,
decision_prac,30,228434,0.0-11.0-4.0,,1636.6,run_exp/static/images/task_images/land.jpg,65,,,,,,,,,,1,,,,,,,,,,,,,
dig_prac,31,230450,0.0-12.0-0.0,,,,,,,,,,,"[{""stimulus"":""run_exp/static/images/task_images/dig.jpg"",""time"":0.29999999701976776},{""stimulus"":""run_exp/static/images/task_images/land.jpg"",""time"":673.2000000029802},{""stimulus"":""run_exp/static/images/task_images/dig.jpg"",""time"":1345.1000000089407}]",[],,,,,,,,,,,,,,,
harvest_prac,32,231465,0.0-12.0-1.0,,null,run_exp/static/images/task_images/barrel_text.jpg,null,,,,,,,,,,,,,,,,,,,,,,,
decision_prac,33,231500,0.0-12.0-2.0,,33.7,run_exp/static/images/task_images/land.jpg,65,,,,,,,,,,2,,,,,,,,,,,,,
dig_prac,34,233511,0.0-13.0-0.0,,,,,,,,,,,"[{""stimulus"":""run_exp/static/images/task_images/dig.jpg"",""time"":0.20000000298023224},{""stimulus"":""run_exp/static/images/task_images/land.jpg"",""time"":683},{""stimulus"":""run_exp/static/images/task_images/dig.jpg"",""time"":1337}]",[],,,,,,,,,,,,,,,
harvest_prac,35,234522,0.0-13.0-1.0,,null,run_exp/static/images/task_images/barrel_text.jpg,null,,,,,,,,,,,,,,,,,,,,,,,
decision_prac,36,234630,0.0-13.0-2.0,,106.9,run_exp/static/images/task_images/land.jpg,65,,,,,,,,,,3,,,,,,,,,,,,,
dig_prac,37,236643,0.0-14.0-0.0,,,,,,,,,,,"[{""stimulus"":""run_exp/static/images/task_images/dig.jpg"",""time"":0.20000000298023224},{""stimulus"":""run_exp/static/images/task_images/land.jpg"",""time"":684.3000000119209},{""stimulus"":""run_exp/static/images/task_images/dig.jpg"",""time"":1337.300000011921}]",[],,,,,,,,,,,,,,,
harvest_prac,38,237655,0.0-14.0-1.0,,null,run_exp/static/images/task_images/barrel_text.jpg,null,,,,,,,,,,,,,,,,,,,,,,,
decision_prac,39,237745,0.0-14.0-2.0,,88.8,run_exp/static/images/task_images/land.jpg,65,,,,,,,,,,4,,,,,,,,,,,,,
dig_prac,40,239761,0.0-15.0-0.0,,,,,,,,,,,"[{""stimulus"":""run_exp/static/images/task_images/dig.jpg"",""time"":0.09999999403953552},{""stimulus"":""run_exp/static/images/task_images/land.jpg"",""time"":672},{""stimulus"":""run_exp/static/images/task_images/dig.jpg"",""time"":1343.2999999970198}]",[],,,,,,,,,,,,,,,
harvest_prac,41,240773,0.0-15.0-1.0,,null,run_exp/static/images/task_images/barrel_text.jpg,null,,,,,,,,,,,,,,,,,,,,,,,
decision_prac,42,241614,0.0-15.0-2.0,,839.5,run_exp/static/images/task_images/land.jpg,65,,,,,,,,,,,1,,,,,,,,,,,,
quiz_instruc,43,243879,0.0-16.0-0.0,,2261.1,run_exp/static/audio/clip_10_quiz.m4a,,,,,,0,,,,,,,,,,,,,,,,,,
instruc_repeat,44,286640,0.0-16.0-1.0,,null,"<p> Are you ready to play a practice game? </p> <p>In this practice game, you'll be digging up barrels of gems. But, in the real game, you'll be digging up the gems themselves. </p>",null,"<p>In this game, your goal is to collect as many gems as you can. That’s how you will win bonus money. </p> <p>The entire game will last 20 minutes no matter how many gems you collect or how many planets you visit. </p><p>To stay on a planet and dig again, press the letter A on your keyboard. To leave for a new planet, press the letter L.</p><p>The more you dig on a planet, the fewer gems you’ll get with each dig which is why you might consider leaving for a new planet. </p><p>When you arrive at a new planet, you’ll be greeted by an alien. What the alien looks like does not tell you anything about how much treasure is on the planet. </p>",,,,,,,,,,,,,,,,,,,,,,
instruc_repeat_continue,45,289247,0.0-16.0-2.0,,2605.7,"<p> Are you ready to play a practice game? </p> <p>In this practice game, you'll be digging up barrels of gems. But, in the real game, you'll be digging up the gems themselves. </p>",,,,,,0,,,,,,,,,,,,,,,,,,
quiz_q_1_ask,46,292292,0.0-16.0-3.0,,3043.1,run_exp/static/audio/clip_11_q1_ask.m4a,,,,,,2,,,,,,,,,,,,,,,,,,
quiz_q_1_fb_correct,47,296140,0.0-17.0-0.0,,null,run_exp/static/audio/clip_12_q1_corrrect.m4a,null,<p>That’s correct. You win extra money by collecting more gems.</p>,,,,,,,,,,,,,,,,,,,,,,
quiz_q_2_ask,48,298224,0.0-17.0-1.0,,2082,run_exp/static/audio/clip_14_q2_ask.m4a,,,,,,1,,,,,,,,,,,,,,,,,,
quiz_q_2_fb_correct,49,302219,0.0-18.0-0.0,,null,run_exp/static/audio/clip_15_q2_correct.m4a,null,<p>That’s correct. The experiment is 20 minutes no matter what.</p>,,,,,,,,,,,,,,,,,,,,,,
quiz_q_3_ask,50,304437,0.0-18.0-1.0,,2216.1,run_exp/static/audio/clip_17_q3_ask.m4a,,,,,,1,,,,,,,,,,,,,,,,,,
quiz_q_3_fb_correct,51,308419,0.0-19.0-0.0,,null,run_exp/static/audio/clip_18_q3_correct.m4a,null,<p> That’s correct. You press the letter L to travel to a new planet.</p>,,,,,,,,,,,,,,,,,,,,,,
quiz_q_4_ask,52,311377,0.0-19.0-1.0,,2956.1,run_exp/static/audio/clip_20_q4_ask.m4a,,,,,,0,,,,,,,,,,,,,,,,,,
quiz_q_4_fb_correct,53,316700,0.0-20.0-0.0,,null,run_exp/static/audio/clip_21_q4_correct.m4a,null,<p> That’s correct. The more you dig on a planet the fewer gems you’ll get with each dig. </p>,,,,,,,,,,,,,,,,,,,,,,
quiz_q_5_ask,54,318591,0.0-20.0-1.0,,1889.7,run_exp/static/audio/clip_23_q5_ask.m4a,,,,,,1,,,,,,,,,,,,,,,,,,
quiz_q_5_fb_correct,55,323600,0.0-21.0-0.0,,null,run_exp/static/audio/clip_24_q5_correct.m4a,null,<p> That’s correct. The alien tells you nothing about how much treasure is on the planet.</p>,,,,,,,,,,,,,,,,,,,,,,
quiz_correct,56,327060,0.0-22.0-0.0,,null,run_exp/static/audio/clip_26_correct_quiz.m4a,null,,,,,,,,,,,,,,,,,,,,,,,
quiz_correct_continue,57,328463,0.0-22.0-1.0,,1401.5,<p>Good job! You're now ready to move on to the real game!</p>,,,,,,0,,,,,,,,,,,,,,,,,,
audio-keyboard-response,58,338580,0.0-22.0-2.0,,null,run_exp/static/audio/clip_28_real_game.m4a,null,,,,,,,,,,,,,,,,,,,,,,,
instruc_begin_exp_contine,59,339449,0.0-22.0-3.0,,866.5,"<p>Now that you know how  to dig for space treasure and travel to new planets,you can start exploring! </p><p>Do you want to go over the instructions again or get started with the real game?</p>",,,,,,1,,,,,,1,,,,,,,,,,,,
alien_welcome,60,344461,0.0-23.0-0.0,,null,run_exp/static/images/task_images/aliens/old_aliens/planet/alien_planet-2.jpg,null,,,,,,,,,,,,2,"2,43,77,80,73,40,23,41,11,50,28,58,21,4,35,31,63,42,70,52,65,15,25,49,14,53,19,24,22,76,34,5,57,29,59,12,8,30,17,45,44,27,10,56,51",,,,,,,,,,
land,61,344975,0.0-23.0-1.0,,null,run_exp/static/images/task_images/land.jpg,null,,,,,,105,,,1,,,,,,,,,,,,,,
dig,62,346991,0.0-23.0-2.0,,,,,,,,,,,"[{""stimulus"":""run_exp/static/images/task_images/dig.jpg"",""time"":0.20000000298023224},{""stimulus"":""run_exp/static/images/task_images/land.jpg"",""time"":672.7000000029802},{""stimulus"":""run_exp/static/images/task_images/dig.jpg"",""time"":1344.2999999970198}]",[],1,,,,,,,,,,,,,,
harvest,63,347993,0.0-23.0-3.0,,null,run_exp/static/images/task_images/gems/105.jpg,null,,,,,,24,,,1,,,,,105,0.230720117,0.228571429,,,,,,,
decision,64,348447,0.0-23.0-4.0,,452,run_exp/static/images/task_images/land.jpg,65,,,,,,24,,,1,,,,,,,,8997,1,0,FALSE,,,
dig,65,351014,0.0-24.0-0.0,,,,,,,,,,,"[{""stimulus"":""run_exp/static/images/task_images/dig.jpg"",""time"":0.29999999701976776},{""stimulus"":""run_exp/static/images/task_images/land.jpg"",""time"":850.1999999880791},{""stimulus"":""run_exp/static/images/task_images/dig.jpg"",""time"":1705.699999988079}]",[],1,,,,,,,,,,,,,,
harvest,66,352026,0.0-24.0-1.0,,null,run_exp/static/images/task_images/gems/24.jpg,null,,,,,,6,,,1,,,,,24,0.267413602,0.25,,,,,,,
decision,67,353129,0.0-24.0-2.0,,1101.8,run_exp/static/images/task_images/land.jpg,65,,,,,,6,,,1,,,,,,,,13678,1,1,FALSE,,,
dig,68,355039,0.0-25.0-0.0,,,,,,,,,,,"[{""stimulus"":""run_exp/static/images/task_images/dig.jpg"",""time"":0.29999999701976776},{""stimulus"":""run_exp/static/images/task_images/land.jpg"",""time"":638.2999999970198},{""stimulus"":""run_exp/static/images/task_images/dig.jpg"",""time"":1269.9000000059605}]",[],1,,,,,,,,,,,,,,
harvest,69,356054,0.0-25.0-1.0,,null,run_exp/static/images/task_images/gems/6.jpg,null,,,,,,1,,,1,,,,,6,0.230424515,0.166666667,,,,,,,
decision,70,357550,0.0-25.0-2.0,,1494.1,run_exp/static/images/task_images/land.jpg,65,,,,,,1,,,1,,,,,,,,18099,1,2,FALSE,,,
dig,71,359066,0.0-26.0-0.0,,,,,,,,,,,"[{""stimulus"":""run_exp/static/images/task_images/dig.jpg"",""time"":0.30000001192092896},{""stimulus"":""run_exp/static/images/task_images/land.jpg"",""time"":514},{""stimulus"":""run_exp/static/images/task_images/dig.jpg"",""time"":1016.7000000029802}]",[],1,,,,,,,,,,,,,,
harvest,72,360067,0.0-26.0-1.0,,null,run_exp/static/images/task_images/gems/1.jpg,null,,,,,,0,,,1,,,,,1,0.245180473,0,,,,,,,
decision,73,361650,0.0-26.0-2.0,,1581.6,run_exp/static/images/task_images/land.jpg,65,,,,,,0,,,1,,,,,,,,22200,1,3,FALSE,,,
dig,74,363082,0.0-27.0-0.0,,,,,,,,,,,"[{""stimulus"":""run_exp/static/images/task_images/dig.jpg"",""time"":0.19999998807907104},{""stimulus"":""run_exp/static/images/task_images/land.jpg"",""time"":479.3999999910593},{""stimulus"":""run_exp/static/images/task_images/dig.jpg"",""time"":947.1999999880791}]",[],1,,,,,,,,,,,,,,
harvest,75,364095,0.0-27.0-1.0,,null,run_exp/static/images/task_images/gems/0.jpg,null,,,,,,0,,,1,,,,,0,0.131624735,NaN,,,,,,,
decision,76,364495,0.0-27.0-2.0,,398.6,run_exp/static/images/task_images/land.jpg,76,,,,,,0,,,1,,,,,,,,25044,1,4,TRUE,,,
travel,77,374109,0.0-28.0-0.0,,,,,,,,,,,"[{""stimulus"":""run_exp/static/images/task_images/rocket-01.jpg"",""time"":0.09999999403953552},{""stimulus"":""run_exp/static/images/task_images/rocket-02.jpg"",""time"":1076.2000000029802},{""stimulus"":""run_exp/static/images/task_images/rocket-03.jpg"",""time"":2142.9000000059605},{""stimulus"":""run_exp/static/images/task_images/rocket-04.jpg"",""time"":3203.9000000059605},{""stimulus"":""run_exp/static/images/task_images/rocket-05.jpg"",""time"":4280.20000000298},{""stimulus"":""run_exp/static/images/task_images/rocket-06.jpg"",""time"":5336.5},{""stimulus"":""run_exp/static/images/task_images/rocket-07.jpg"",""time"":6410.20000000298},{""stimulus"":""run_exp/static/images/task_images/rocket-08.jpg"",""time"":7475.9000000059605},{""stimulus"":""run_exp/static/images/task_images/rocket-09.jpg"",""time"":8532.20000000298}]",[],1,,,,,,,,,,,,,,
alien_welcome,78,379121,0.0-28.0-1.0,,null,run_exp/static/images/task_images/aliens/old_aliens/planet/alien_planet-43.jpg,null,,,,,,,,,,,,43,"2,43,77,80,73,40,23,41,11,50,28,58,21,4,35,31,63,42,70,52,65,15,25,49,14,53,19,24,22,76,34,5,57,29,59,12,8,30,17,45,44,27,10,56,51",,,,,,,,,,
land,79,379631,0.0-28.0-2.0,,null,run_exp/static/images/task_images/land.jpg,null,,,,,,102,,,2,,,,,,,,,,,,,,
dig,80,381639,0.0-28.0-3.0,,,,,,,,,,,"[{""stimulus"":""run_exp/static/images/task_images/dig.jpg"",""time"":0.29999999701976776},{""stimulus"":""run_exp/static/images/task_images/land.jpg"",""time"":669.9000000059605},{""stimulus"":""run_exp/static/images/task_images/dig.jpg"",""time"":1336.7000000029802}]",[],2,,,,,,,,,,,,,,
harvest,81,382655,0.0-28.0-4.0,,null,run_exp/static/images/task_images/gems/102.jpg,null,,,,,,28,,,2,,,,,102,0.275311487,0.274509804,,,,,,,
decision,82,383602,0.0-28.0-5.0,,944.8,run_exp/static/images/task_images/land.jpg,65,,,,,,28,,,2,,,,,,,,44151,1,0,FALSE,,,
dig,83,385674,0.0-29.0-0.0,,,,,,,,,,,"[{""stimulus"":""run_exp/static/images/task_images/dig.jpg"",""time"":0.09999999403953552},{""stimulus"":""run_exp/static/images/task_images/land.jpg"",""time"":698.3999999910593},{""stimulus"":""run_exp/static/images/task_images/dig.jpg"",""time"":1384.0999999940395}]",[],2,,,,,,,,,,,,,,
harvest,84,386689,0.0-29.0-1.0,,null,run_exp/static/images/task_images/gems/28.jpg,null,,,,,,6,,,2,,,,,28,0.200499968,0.214285714,,,,,,,
decision,85,386980,0.0-29.0-2.0,,289.7,run_exp/static/images/task_images/land.jpg,76,,,,,,6,,,2,,,,,,,,47530,1,1,TRUE,,,
travel,86,396693,0.0-30.0-0.0,,,,,,,,,,,"[{""stimulus"":""run_exp/static/images/task_images/rocket-01.jpg"",""time"":0.29999999701976776},{""stimulus"":""run_exp/static/images/task_images/rocket-02.jpg"",""time"":1083.5999999940395},{""stimulus"":""run_exp/static/images/task_images/rocket-03.jpg"",""time"":2162.3999999910593},{""stimulus"":""run_exp/static/images/task_images/rocket-04.jpg"",""time"":3242.699999988079},{""stimulus"":""run_exp/static/images/task_images/rocket-05.jpg"",""time"":4317},{""stimulus"":""run_exp/static/images/task_images/rocket-06.jpg"",""time"":5405.5},{""stimulus"":""run_exp/static/images/task_images/rocket-07.jpg"",""time"":6483.5},{""stimulus"":""run_exp/static/images/task_images/rocket-08.jpg"",""time"":7560.699999988079},{""stimulus"":""run_exp/static/images/task_images/rocket-09.jpg"",""time"":8636.699999988079}]",[],2,,,,,,,,,,,,,,
alien_welcome,87,401701,0.0-30.0-1.0,,null,run_exp/static/images/task_images/aliens/old_aliens/planet/alien_planet-77.jpg,null,,,,,,,,,,,,77,"2,43,77,80,73,40,23,41,11,50,28,58,21,4,35,31,63,42,70,52,65,15,25,49,14,53,19,24,22,76,34,5,57,29,59,12,8,30,17,45,44,27,10,56,51",,,,,,,,,,
land,88,402214,0.0-30.0-2.0,,null,run_exp/static/images/task_images/land.jpg,null,,,,,,101,,,3,,,,,,,,,,,,,,
dig,89,404226,0.0-30.0-3.0,,,,,,,,,,,"[{""stimulus"":""run_exp/static/images/task_images/dig.jpg"",""time"":0.3999999910593033},{""stimulus"":""run_exp/static/images/task_images/land.jpg"",""time"":668.5},{""stimulus"":""run_exp/static/images/task_images/dig.jpg"",""time"":1337.199999988079}]",[],3,,,,,,,,,,,,,,
harvest,90,405230,0.0-30.0-4.0,,null,run_exp/static/images/task_images/gems/101.jpg,null,,,,,,54,,,3,,,,,101,0.531904053,0.534653465,,,,,,,
decision,91,405753,0.0-30.0-5.0,,521.4,run_exp/static/images/task_images/land.jpg,65,,,,,,54,,,3,,,,,,,,66302,1,0,FALSE,,,
dig,92,408243,0.0-31.0-0.0,,,,,,,,,,,"[{""stimulus"":""run_exp/static/images/task_images/dig.jpg"",""time"":0.29999999701976776},{""stimulus"":""run_exp/static/images/task_images/land.jpg"",""time"":835.7999999970198},{""stimulus"":""run_exp/static/images/task_images/dig.jpg"",""time"":1662.5999999940395}]",[],3,,,,,,,,,,,,,,
harvest,93,409259,0.0-31.0-1.0,,null,run_exp/static/images/task_images/gems/54.jpg,null,,,,,,29,,,3,,,,,54,0.532076251,0.537037037,,,,,,,
decision,94,409538,0.0-31.0-2.0,,277.7,run_exp/static/images/task_images/land.jpg,65,,,,,,29,,,3,,,,,,,,70087,1,1,FALSE,,,
dig,95,412277,0.0-32.0-0.0,,,,,,,,,,,"[{""stimulus"":""run_exp/static/images/task_images/dig.jpg"",""time"":0.20000000298023224},{""stimulus"":""run_exp/static/images/task_images/land.jpg"",""time"":921.7000000029802},{""stimulus"":""run_exp/static/images/task_images/dig.jpg"",""time"":1827.9000000059605}]",[],3,,,,,,,,,,,,,,
harvest,96,413289,0.0-32.0-1.0,,null,run_exp/static/images/task_images/gems/29.jpg,null,,,,,,13,,,3,,,,,29,0.454904811,0.448275862,,,,,,,
decision,97,414641,0.0-32.0-2.0,,1351.1,run_exp/static/images/task_images/land.jpg,65,,,,,,13,,,3,,,,,,,,75191,1,2,FALSE,,,
dig,98,416297,0.0-33.0-0.0,,,,,,,,,,,"[{""stimulus"":""run_exp/static/images/task_images/dig.jpg"",""time"":0.30000001192092896},{""stimulus"":""run_exp/static/images/task_images/land.jpg"",""time"":562.9000000059605},{""stimulus"":""run_exp/static/images/task_images/dig.jpg"",""time"":1107.7000000029802}]",[],3,,,,,,,,,,,,,,
harvest,99,417301,0.0-33.0-1.0,,null,run_exp/static/images/task_images/gems/13.jpg,null,,,,,,7,,,3,,,,,13,0.504796155,0.538461538,,,,,,,
decision,100,417553,0.0-33.0-2.0,,250.2,run_exp/static/images/task_images/land.jpg,76,,,,,,7,,,3,,,,,,,,78102,1,3,TRUE,,,
travel,101,427312,0.0-34.0-0.0,,,,,,,,,,,"[{""stimulus"":""run_exp/static/images/task_images/rocket-01.jpg"",""time"":0.5},{""stimulus"":""run_exp/static/images/task_images/rocket-02.jpg"",""time"":1091.6000000089407},{""stimulus"":""run_exp/static/images/task_images/rocket-03.jpg"",""time"":2172.5},{""stimulus"":""run_exp/static/images/task_images/rocket-04.jpg"",""time"":3263.5},{""stimulus"":""run_exp/static/images/task_images/rocket-05.jpg"",""time"":4340.4000000059605},{""stimulus"":""run_exp/static/images/task_images/rocket-06.jpg"",""time"":5432.4000000059605},{""stimulus"":""run_exp/static/images/task_images/rocket-07.jpg"",""time"":6511.5},{""stimulus"":""run_exp/static/images/task_images/rocket-08.jpg"",""time"":7590.100000008941},{""stimulus"":""run_exp/static/images/task_images/rocket-09.jpg"",""time"":8679.90000000596}]",[],3,,,,,,,,,,,,,,
alien_welcome,102,432329,0.0-34.0-1.0,,null,run_exp/static/images/task_images/aliens/old_aliens/planet/alien_planet-80.jpg,null,,,,,,,,,,,,80,"2,43,77,80,73,40,23,41,11,50,28,58,21,4,35,31,63,42,70,52,65,15,25,49,14,53,19,24,22,76,34,5,57,29,59,12,8,30,17,45,44,27,10,56,51",,,,,,,,,,
land,103,432841,0.0-34.0-2.0,,null,run_exp/static/images/task_images/land.jpg,null,,,,,,100,,,4,,,,,,,,,,,,,,
dig,104,434853,0.0-34.0-3.0,,,,,,,,,,,"[{""stimulus"":""run_exp/static/images/task_images/dig.jpg"",""time"":0.4000000059604645},{""stimulus"":""run_exp/static/images/task_images/land.jpg"",""time"":669.5},{""stimulus"":""run_exp/static/images/task_images/dig.jpg"",""time"":1338.7000000029802}]",[],4,,,,,,,,,,,,,,
harvest,105,435864,0.0-34.0-4.0,,null,run_exp/static/images/task_images/gems/100.jpg,null,,,,,,59,,,4,,,,,100,0.590503734,0.59,,,,,,,
decision,106,438597,0.0-34.0-5.0,,2731,run_exp/static/images/task_images/land.jpg,65,,,,,,59,,,4,,,,,,,,99146,1,0,FALSE,,,
dig,107,438872,0.0-35.0-0.0,,,,,,,,,,,"[{""stimulus"":""run_exp/static/images/task_images/dig.jpg"",""time"":0.20000000298023224},{""stimulus"":""run_exp/static/images/task_images/land.jpg"",""time"":100.59999999403954},{""stimulus"":""run_exp/static/images/task_images/dig.jpg"",""time"":194}]",[],4,,,,,,,,,,,,,,
harvest,108,439886,0.0-35.0-1.0,,null,run_exp/static/images/task_images/gems/59.jpg,null,,,,,,36,,,4,,,,,59,0.608147204,0.610169492,,,,,,,
decision,109,440047,0.0-35.0-2.0,,160.3,run_exp/static/images/task_images/land.jpg,65,,,,,,36,,,4,,,,,,,,100596,1,1,FALSE,,,
dig,110,442900,0.0-36.0-0.0,,,,,,,,,,,"[{""stimulus"":""run_exp/static/images/task_images/dig.jpg"",""time"":0.29999999701976776},{""stimulus"":""run_exp/static/images/task_images/land.jpg"",""time"":954.5},{""stimulus"":""run_exp/static/images/task_images/dig.jpg"",""time"":1898.2999999970198}]",[],4,,,,,,,,,,,,,,
harvest,111,443915,0.0-36.0-1.0,,null,run_exp/static/images/task_images/gems/36.jpg,null,,,,,,15,,,4,,,,,36,0.418123795,0.416666667,,,,,,,
decision,112,444226,0.0-36.0-2.0,,309.1,run_exp/static/images/task_images/land.jpg,76,,,,,,15,,,4,,,,,,,,104775,1,2,TRUE,,,
travel,113,453918,0.0-37.0-0.0,,,,,,,,,,,"[{""stimulus"":""run_exp/static/images/task_images/rocket-01.jpg"",""time"":0.19999998807907104},{""stimulus"":""run_exp/static/images/task_images/rocket-02.jpg"",""time"":1091.8999999910593},{""stimulus"":""run_exp/static/images/task_images/rocket-03.jpg"",""time"":2168.2999999970198},{""stimulus"":""run_exp/static/images/task_images/rocket-04.jpg"",""time"":3242.7999999970198},{""stimulus"":""run_exp/static/images/task_images/rocket-05.jpg"",""time"":4307.899999991059},{""stimulus"":""run_exp/static/images/task_images/rocket-06.jpg"",""time"":5387.199999988079},{""stimulus"":""run_exp/static/images/task_images/rocket-07.jpg"",""time"":6471},{""stimulus"":""run_exp/static/images/task_images/rocket-08.jpg"",""time"":7546.5},{""stimulus"":""run_exp/static/images/task_images/rocket-09.jpg"",""time"":8610.09999999404}]",[],4,,,,,,,,,,,,,,
alien_welcome,114,458923,0.0-37.0-1.0,,null,run_exp/static/images/task_images/aliens/old_aliens/planet/alien_planet-73.jpg,null,,,,,,,,,,,,73,"2,43,77,80,73,40,23,41,11,50,28,58,21,4,35,31,63,42,70,52,65,15,25,49,14,53,19,24,22,76,34,5,57,29,59,12,8,30,17,45,44,27,10,56,51",,,,,,,,,,
land,115,459438,0.0-37.0-2.0,,null,run_exp/static/images/task_images/land.jpg,null,,,,,,104,,,5,,,,,,,,,,,,,,
dig,116,461455,0.0-37.0-3.0,,,,,,,,,,,"[{""stimulus"":""run_exp/static/images/task_images/dig.jpg"",""time"":0.29999999701976776},{""stimulus"":""run_exp/static/images/task_images/land.jpg"",""time"":671},{""stimulus"":""run_exp/static/images/task_images/dig.jpg"",""time"":1340.2000000029802}]",[],5,,,,,,,,,,,,,,
harvest,117,462460,0.0-37.0-4.0,,null,run_exp/static/images/task_images/gems/104.jpg,null,,,,,,59,,,5,,,,,104,0.566535784,0.567307692,,,,,,,
decision,118,462647,0.0-37.0-5.0,,184.8,run_exp/static/images/task_images/land.jpg,65,,,,,,59,,,5,,,,,,,,123196,1,0,FALSE,,,
dig,119,465480,0.0-38.0-0.0,,,,,,,,,,,"[{""stimulus"":""run_exp/static/images/task_images/dig.jpg"",""time"":0.19999998807907104},{""stimulus"":""run_exp/static/images/task_images/land.jpg"",""time"":944.6999999880791},{""stimulus"":""run_exp/static/images/task_images/dig.jpg"",""time"":1890.0999999940395}]",[],5,,,,,,,,,,,,,,
harvest,120,466493,0.0-38.0-1.0,,null,run_exp/static/images/task_images/gems/59.jpg,null,,,,,,31,,,5,,,,,59,0.518993608,0.525423729,,,,,,,
decision,121,466663,0.0-38.0-2.0,,169,run_exp/static/images/task_images/land.jpg,65,,,,,,31,,,5,,,,,,,,127212,1,1,FALSE,,,
dig,122,469512,0.0-39.0-0.0,,,,,,,,,,,"[{""stimulus"":""run_exp/static/images/task_images/dig.jpg"",""time"":0.29999999701976776},{""stimulus"":""run_exp/static/images/task_images/land.jpg"",""time"":946.2999999970198},{""stimulus"":""run_exp/static/images/task_images/dig.jpg"",""time"":1896.5999999940395}]",[],5,,,,,,,,,,,,,,
harvest,123,470528,0.0-39.0-1.0,,null,run_exp/static/images/task_images/gems/31.jpg,null,,,,,,15,,,5,,,,,31,0.487562241,0.483870968,,,,,,,
decision,124,470880,0.0-39.0-2.0,,350,run_exp/static/images/task_images/land.jpg,76,,,,,,15,,,5,,,,,,,,131429,1,2,TRUE,,,
travel,125,480543,0.0-40.0-0.0,,,,,,,,,,,"[{""stimulus"":""run_exp/static/images/task_images/rocket-01.jpg"",""time"":0.29999999701976776},{""stimulus"":""run_exp/static/images/task_images/rocket-02.jpg"",""time"":1079.199999988079},{""stimulus"":""run_exp/static/images/task_images/rocket-03.jpg"",""time"":2158.5999999940395},{""stimulus"":""run_exp/static/images/task_images/rocket-04.jpg"",""time"":3230.199999988079},{""stimulus"":""run_exp/static/images/task_images/rocket-05.jpg"",""time"":4296.899999991059},{""stimulus"":""run_exp/static/images/task_images/rocket-06.jpg"",""time"":5374.5},{""stimulus"":""run_exp/static/images/task_images/rocket-07.jpg"",""time"":6434.399999991059},{""stimulus"":""run_exp/static/images/task_images/rocket-08.jpg"",""time"":7509.79999999702},{""stimulus"":""run_exp/static/images/task_images/rocket-09.jpg"",""time"":8586.09999999404}]",[],5,,,,,,,,,,,,,,
alien_welcome,126,485546,0.0-40.0-1.0,,null,run_exp/static/images/task_images/aliens/old_aliens/planet/alien_planet-40.jpg,null,,,,,,,,,,,,40,"2,43,77,80,73,40,23,41,11,50,28,58,21,4,35,31,63,42,70,52,65,15,25,49,14,53,19,24,22,76,34,5,57,29,59,12,8,30,17,45,44,27,10,56,51",,,,,,,,,,
land,127,486055,0.0-40.0-2.0,,null,run_exp/static/images/task_images/land.jpg,null,,,,,,91,,,6,,,,,,,,,,,,,,
dig,128,488071,0.0-40.0-3.0,,,,,,,,,,,"[{""stimulus"":""run_exp/static/images/task_images/dig.jpg"",""time"":0.20000000298023224},{""stimulus"":""run_exp/static/images/task_images/land.jpg"",""time"":676.2000000029802},{""stimulus"":""run_exp/static/images/task_images/dig.jpg"",""time"":1345.2000000029802}]",[],6,,,,,,,,,,,,,,
harvest,129,489087,0.0-40.0-4.0,,null,run_exp/static/images/task_images/gems/91.jpg,null,,,,,,73,,,6,,,,,91,0.800194292,0.802197802,,,,,,,
decision,130,489405,0.0-40.0-5.0,,316.4,run_exp/static/images/task_images/land.jpg,65,,,,,,73,,,6,,,,,,,,149954,1,0,FALSE,,,
dig,131,492093,0.0-41.0-0.0,,,,,,,,,,,"[{""stimulus"":""run_exp/static/images/task_images/dig.jpg"",""time"":0.10000000894069672},{""stimulus"":""run_exp/static/images/task_images/land.jpg"",""time"":907.2000000029802},{""stimulus"":""run_exp/static/images/task_images/dig.jpg"",""time"":1794.9000000059605}]",[],6,,,,,,,,,,,,,,
harvest,132,493109,0.0-41.0-1.0,,null,run_exp/static/images/task_images/gems/73.jpg,null,,,,,,57,,,6,,,,,73,0.784030477,0.780821918,,,,,,,
decision,133,493577,0.0-41.0-2.0,,465.7,run_exp/static/images/task_images/land.jpg,65,,,,,,57,,,6,,,,,,,,154126,1,1,FALSE,,,
dig,134,496128,0.0-42.0-0.0,,,,,,,,,,,"[{""stimulus"":""run_exp/static/images/task_images/dig.jpg"",""time"":0.30000001192092896},{""stimulus"":""run_exp/static/images/task_images/land.jpg"",""time"":847.3000000119209},{""stimulus"":""run_exp/static/images/task_images/dig.jpg"",""time"":1691.7000000029802}]",[],6,,,,,,,,,,,,,,
harvest,135,497144,0.0-42.0-1.0,,null,run_exp/static/images/task_images/gems/57.jpg,null,,,,,,45,,,6,,,,,57,0.792870117,0.789473684,,,,,,,
decision,136,498453,0.0-42.0-2.0,,1307.1,run_exp/static/images/task_images/land.jpg,65,,,,,,45,,,6,,,,,,,,159002,1,2,FALSE,,,
dig,137,500156,0.0-43.0-0.0,,,,,,,,,,,"[{""stimulus"":""run_exp/static/images/task_images/dig.jpg"",""time"":0.09999999403953552},{""stimulus"":""run_exp/static/images/task_images/land.jpg"",""time"":570.8999999910593},{""stimulus"":""run_exp/static/images/task_images/dig.jpg"",""time"":1131.0999999940395}]",[],6,,,,,,,,,,,,,,
harvest,138,501167,0.0-43.0-1.0,,null,run_exp/static/images/task_images/gems/45.jpg,null,,,,,,35,,,6,,,,,45,0.783083517,0.777777778,,,,,,,
decision,139,501570,0.0-43.0-2.0,,401.9,run_exp/static/images/task_images/land.jpg,65,,,,,,35,,,6,,,,,,,,162119,1,3,FALSE,,,
dig,140,504173,0.0-44.0-0.0,,,,,,,,,,,"[{""stimulus"":""run_exp/static/images/task_images/dig.jpg"",""time"":0.29999999701976776},{""stimulus"":""run_exp/static/images/task_images/land.jpg"",""time"":871},{""stimulus"":""run_exp/static/images/task_images/dig.jpg"",""time"":1745.699999988079}]",[],6,,,,,,,,,,,,,,
harvest,141,505176,0.0-44.0-1.0,,null,run_exp/static/images/task_images/gems/35.jpg,null,,,,,,28,,,6,,,,,35,0.804549261,0.8,,,,,,,
decision,142,505506,0.0-44.0-2.0,,328.4,run_exp/static/images/task_images/land.jpg,76,,,,,,28,,,6,,,,,,,,166055,1,4,TRUE,,,
travel,143,515184,0.0-45.0-0.0,,,,,,,,,,,"[{""stimulus"":""run_exp/static/images/task_images/rocket-01.jpg"",""time"":0.29999999701976776},{""stimulus"":""run_exp/static/images/task_images/rocket-02.jpg"",""time"":1087.8999999910593},{""stimulus"":""run_exp/static/images/task_images/rocket-03.jpg"",""time"":2156.8999999910593},{""stimulus"":""run_exp/static/images/task_images/rocket-04.jpg"",""time"":3232.0999999940395},{""stimulus"":""run_exp/static/images/task_images/rocket-05.jpg"",""time"":4299.899999991059},{""stimulus"":""run_exp/static/images/task_images/rocket-06.jpg"",""time"":5381.70000000298},{""stimulus"":""run_exp/static/images/task_images/rocket-07.jpg"",""time"":6454.399999991059},{""stimulus"":""run_exp/static/images/task_images/rocket-08.jpg"",""time"":7527.5999999940395},{""stimulus"":""run_exp/static/images/task_images/rocket-09.jpg"",""time"":8600.70000000298}]",[],6,,,,,,,,,,,,,,
alien_welcome,144,520199,0.0-45.0-1.0,,null,run_exp/static/images/task_images/aliens/old_aliens/planet/alien_planet-23.jpg,null,,,,,,,,,,,,23,"2,43,77,80,73,40,23,41,11,50,28,58,21,4,35,31,63,42,70,52,65,15,25,49,14,53,19,24,22,76,34,5,57,29,59,12,8,30,17,45,44,27,10,56,51",,,,,,,,,,
land,145,520715,0.0-45.0-2.0,,null,run_exp/static/images/task_images/land.jpg,null,,,,,,100,,,7,,,,,,,,,,,,,,
dig,146,522723,0.0-45.0-3.0,,,,,,,,,,,"[{""stimulus"":""run_exp/static/images/task_images/dig.jpg"",""time"":0.4000000059604645},{""stimulus"":""run_exp/static/images/task_images/land.jpg"",""time"":683.2000000029802},{""stimulus"":""run_exp/static/images/task_images/dig.jpg"",""time"":1338}]",[],7,,,,,,,,,,,,,,
harvest,147,523727,0.0-45.0-4.0,,null,run_exp/static/images/task_images/gems/100.jpg,null,,,,,,82,,,7,,,,,100,0.824809149,0.82,,,,,,,
decision,148,526740,0.0-45.0-5.0,,null,run_exp/static/images/task_images/land.jpg,null,,,,,,82,,,7,,,,,,,,187289,1,0,FALSE,,,
time_out,149,528752,0.0-46.0-0.0,,null,run_exp/static/images/task_images/time_out.jpg,null,,,,,,82,,,,,,,,,,,,,,,,,
decision,150,529187,0.0-46.0-1.0,,433.1,run_exp/static/images/task_images/land.jpg,65,,,,,,82,,,7,,,,,,,,189736,1,0,FALSE,,,
dig,151,531765,0.0-47.0-0.0,,,,,,,,,,,"[{""stimulus"":""run_exp/static/images/task_images/dig.jpg"",""time"":0.09999999403953552},{""stimulus"":""run_exp/static/images/task_images/land.jpg"",""time"":857.3999999910593},{""stimulus"":""run_exp/static/images/task_images/dig.jpg"",""time"":1716.2000000029802}]",[],7,,,,,,,,,,,,,,
harvest,152,532779,0.0-47.0-1.0,,null,run_exp/static/images/task_images/gems/82.jpg,null,,,,,,60,,,7,,,,,82,0.733831947,0.731707317,,,,,,,
decision,153,533186,0.0-47.0-2.0,,405,run_exp/static/images/task_images/land.jpg,65,,,,,,60,,,7,,,,,,,,193735,1,1,FALSE,,,
dig,154,535786,0.0-48.0-0.0,,,,,,,,,,,"[{""stimulus"":""run_exp/static/images/task_images/dig.jpg"",""time"":0.20000000298023224},{""stimulus"":""run_exp/static/images/task_images/land.jpg"",""time"":873.7000000029802},{""stimulus"":""run_exp/static/images/task_images/dig.jpg"",""time"":1744.6000000089407}]",[],7,,,,,,,,,,,,,,
harvest,155,536790,0.0-48.0-1.0,,null,run_exp/static/images/task_images/gems/60.jpg,null,,,,,,46,,,7,,,,,60,0.762290781,0.766666667,,,,,,,
decision,156,537345,0.0-48.0-2.0,,553.3,run_exp/static/images/task_images/land.jpg,65,,,,,,46,,,7,,,,,,,,197895,1,2,FALSE,,,
dig,157,539803,0.0-49.0-0.0,,,,,,,,,,,"[{""stimulus"":""run_exp/static/images/task_images/dig.jpg"",""time"":0.09999999403953552},{""stimulus"":""run_exp/static/images/task_images/land.jpg"",""time"":819},{""stimulus"":""run_exp/static/images/task_images/dig.jpg"",""time"":1644.0999999940395}]",[],7,,,,,,,,,,,,,,
harvest,158,540814,0.0-49.0-1.0,,null,run_exp/static/images/task_images/gems/46.jpg,null,,,,,,35,,,7,,,,,46,0.75635248,0.760869565,,,,,,,
decision,159,540834,0.0-49.0-2.0,,18.5,run_exp/static/images/task_images/land.jpg,65,,,,,,35,,,7,,,,,,,,201383,1,3,FALSE,,,
dig,160,543828,0.0-50.0-0.0,,,,,,,,,,,"[{""stimulus"":""run_exp/static/images/task_images/dig.jpg"",""time"":0.20000000298023224},{""stimulus"":""run_exp/static/images/task_images/land.jpg"",""time"":1009.4000000059605},{""stimulus"":""run_exp/static/images/task_images/dig.jpg"",""time"":1993.5}]",[],7,,,,,,,,,,,,,,
harvest,161,544842,0.0-50.0-1.0,,null,run_exp/static/images/task_images/gems/35.jpg,null,,,,,,29,,,7,,,,,35,0.82921483,0.828571429,,,,,,,
decision,162,544974,0.0-50.0-2.0,,130.1,run_exp/static/images/task_images/land.jpg,76,,,,,,29,,,7,,,,,,,,205523,1,4,TRUE,,,
travel,163,554856,0.0-51.0-0.0,,,,,,,,,,,"[{""stimulus"":""run_exp/static/images/task_images/rocket-01.jpg"",""time"":0.29999999701976776},{""stimulus"":""run_exp/static/images/task_images/rocket-02.jpg"",""time"":1112.3999999910593},{""stimulus"":""run_exp/static/images/task_images/rocket-03.jpg"",""time"":2193.7999999970198},{""stimulus"":""run_exp/static/images/task_images/rocket-04.jpg"",""time"":3301.5},{""stimulus"":""run_exp/static/images/task_images/rocket-05.jpg"",""time"":4392.5},{""stimulus"":""run_exp/static/images/task_images/rocket-06.jpg"",""time"":5484.79999999702},{""stimulus"":""run_exp/static/images/task_images/rocket-07.jpg"",""time"":6578.5},{""stimulus"":""run_exp/static/images/task_images/rocket-08.jpg"",""time"":7684.5999999940395},{""stimulus"":""run_exp/static/images/task_images/rocket-09.jpg"",""time"":8777.29999999702}]",[],7,,,,,,,,,,,,,,
alien_welcome,164,559865,0.0-51.0-1.0,,null,run_exp/static/images/task_images/aliens/old_aliens/planet/alien_planet-41.jpg,null,,,,,,,,,,,,41,"2,43,77,80,73,40,23,41,11,50,28,58,21,4,35,31,63,42,70,52,65,15,25,49,14,53,19,24,22,76,34,5,57,29,59,12,8,30,17,45,44,27,10,56,51",,,,,,,,,,
land,165,560382,0.0-51.0-2.0,,null,run_exp/static/images/task_images/land.jpg,null,,,,,,102,,,8,,,,,,,,,,,,,,
dig,166,562394,0.0-51.0-3.0,,,,,,,,,,,"[{""stimulus"":""run_exp/static/images/task_images/dig.jpg"",""time"":0.30000001192092896},{""stimulus"":""run_exp/static/images/task_images/land.jpg"",""time"":671.7000000029802},{""stimulus"":""run_exp/static/images/task_images/dig.jpg"",""time"":1341.1000000089407}]",[],8,,,,,,,,,,,,,,
harvest,167,563405,0.0-51.0-4.0,,null,run_exp/static/images/task_images/gems/102.jpg,null,,,,,,76,,,8,,,,,102,0.748962923,0.745098039,,,,,,,
decision,168,563943,0.0-51.0-5.0,,537.1,run_exp/static/images/task_images/land.jpg,65,,,,,,76,,,8,,,,,,,,224492,1,0,FALSE,,,
dig,169,566425,0.0-52.0-0.0,,,,,,,,,,,"[{""stimulus"":""run_exp/static/images/task_images/dig.jpg"",""time"":0.19999998807907104},{""stimulus"":""run_exp/static/images/task_images/land.jpg"",""time"":828.3999999910593},{""stimulus"":""run_exp/static/images/task_images/dig.jpg"",""time"":1652.3999999910593}]",[],8,,,,,,,,,,,,,,
harvest,170,567431,0.0-52.0-1.0,,null,run_exp/static/images/task_images/gems/76.jpg,null,,,,,,58,,,8,,,,,76,0.757246106,0.763157895,,,,,,,
decision,171,568032,0.0-52.0-2.0,,598.8,run_exp/static/images/task_images/land.jpg,65,,,,,,58,,,8,,,,,,,,228581,1,1,FALSE,,,
dig,172,570453,0.0-53.0-0.0,,,,,,,,,,,"[{""stimulus"":""run_exp/static/images/task_images/dig.jpg"",""time"":0.20000000298023224},{""stimulus"":""run_exp/static/images/task_images/land.jpg"",""time"":812.7000000029802},{""stimulus"":""run_exp/static/images/task_images/dig.jpg"",""time"":1606.9000000059605}]",[],8,,,,,,,,,,,,,,
harvest,173,571465,0.0-53.0-1.0,,null,run_exp/static/images/task_images/gems/58.jpg,null,,,,,,46,,,8,,,,,58,0.785242395,0.793103448,,,,,,,
decision,174,571858,0.0-53.0-2.0,,391.7,run_exp/static/images/task_images/land.jpg,65,,,,,,46,,,8,,,,,,,,232407,1,2,FALSE,,,
dig,175,574479,0.0-54.0-0.0,,,,,,,,,,,"[{""stimulus"":""run_exp/static/images/task_images/dig.jpg"",""time"":0.10000000894069672},{""stimulus"":""run_exp/static/images/task_images/land.jpg"",""time"":882.1000000089407},{""stimulus"":""run_exp/static/images/task_images/dig.jpg"",""time"":1753.1000000089407}]",[],8,,,,,,,,,,,,,,
harvest,176,575485,0.0-54.0-1.0,,null,run_exp/static/images/task_images/gems/46.jpg,null,,,,,,39,,,8,,,,,46,0.847390758,0.847826087,,,,,,,
decision,177,575656,0.0-54.0-2.0,,170,run_exp/static/images/task_images/land.jpg,65,,,,,,39,,,8,,,,,,,,236206,1,3,FALSE,,,
dig,178,578501,0.0-55.0-0.0,,,,,,,,,,,"[{""stimulus"":""run_exp/static/images/task_images/dig.jpg"",""time"":0.20000000298023224},{""stimulus"":""run_exp/static/images/task_images/land.jpg"",""time"":951.6000000089407},{""stimulus"":""run_exp/static/images/task_images/dig.jpg"",""time"":1888.4000000059605}]",[],8,,,,,,,,,,,,,,
harvest,179,579515,0.0-55.0-1.0,,null,run_exp/static/images/task_images/gems/39.jpg,null,,,,,,32,,,8,,,,,39,0.82258338,0.820512821,,,,,,,
decision,180,579742,0.0-55.0-2.0,,225.7,run_exp/static/images/task_images/land.jpg,76,,,,,,32,,,8,,,,,,,,240291,1,4,TRUE,,,
travel,181,589533,0.0-56.0-0.0,,,,,,,,,,,"[{""stimulus"":""run_exp/static/images/task_images/rocket-01.jpg"",""time"":0.20000000298023224},{""stimulus"":""run_exp/static/images/task_images/rocket-02.jpg"",""time"":1094},{""stimulus"":""run_exp/static/images/task_images/rocket-03.jpg"",""time"":2173.9000000059605},{""stimulus"":""run_exp/static/images/task_images/rocket-04.jpg"",""time"":3273.1000000089407},{""stimulus"":""run_exp/static/images/task_images/rocket-05.jpg"",""time"":4355},{""stimulus"":""run_exp/static/images/task_images/rocket-06.jpg"",""time"":5446.29999999702},{""stimulus"":""run_exp/static/images/task_images/rocket-07.jpg"",""time"":6523.20000000298},{""stimulus"":""run_exp/static/images/task_images/rocket-08.jpg"",""time"":7613.600000008941},{""stimulus"":""run_exp/static/images/task_images/rocket-09.jpg"",""time"":8695.70000000298}]",[],8,,,,,,,,,,,,,,
alien_welcome,182,594543,0.0-56.0-1.0,,null,run_exp/static/images/task_images/aliens/old_aliens/planet/alien_planet-11.jpg,null,,,,,,,,,,,,11,"2,43,77,80,73,40,23,41,11,50,28,58,21,4,35,31,63,42,70,52,65,15,25,49,14,53,19,24,22,76,34,5,57,29,59,12,8,30,17,45,44,27,10,56,51",,,,,,,,,,
land,183,595058,0.0-56.0-2.0,,null,run_exp/static/images/task_images/land.jpg,null,,,,,,93,,,9,,,,,,,,,,,,,,
dig,184,597070,0.0-56.0-3.0,,,,,,,,,,,"[{""stimulus"":""run_exp/static/images/task_images/dig.jpg"",""time"":0.30000001192092896},{""stimulus"":""run_exp/static/images/task_images/land.jpg"",""time"":669.6000000089407},{""stimulus"":""run_exp/static/images/task_images/dig.jpg"",""time"":1339.6000000089407}]",[],9,,,,,,,,,,,,,,
harvest,185,598086,0.0-56.0-4.0,,null,run_exp/static/images/task_images/gems/93.jpg,null,,,,,,12,,,9,,,,,93,0.129753789,0.129032258,,,,,,,
decision,186,598926,0.0-56.0-5.0,,838.6,run_exp/static/images/task_images/land.jpg,65,,,,,,12,,,9,,,,,,,,259475,1,0,FALSE,,,
dig,187,601098,0.0-57.0-0.0,,,,,,,,,,,"[{""stimulus"":""run_exp/static/images/task_images/dig.jpg"",""time"":0.20000000298023224},{""stimulus"":""run_exp/static/images/task_images/land.jpg"",""time"":730.7000000029802},{""stimulus"":""run_exp/static/images/task_images/dig.jpg"",""time"":1446.7000000029802}]",[],9,,,,,,,,,,,,,,
harvest,188,602104,0.0-57.0-1.0,,null,run_exp/static/images/task_images/gems/12.jpg,null,,,,,,3,,,9,,,,,12,0.216725909,0.25,,,,,,,
decision,189,602483,0.0-57.0-2.0,,377.5,run_exp/static/images/task_images/land.jpg,76,,,,,,3,,,9,,,,,,,,263032,1,1,TRUE,,,
travel,190,612119,0.0-58.0-0.0,,,,,,,,,,,"[{""stimulus"":""run_exp/static/images/task_images/rocket-01.jpg"",""time"":0.20000000298023224},{""stimulus"":""run_exp/static/images/task_images/rocket-02.jpg"",""time"":1080.2000000029802},{""stimulus"":""run_exp/static/images/task_images/rocket-03.jpg"",""time"":2140.1000000089407},{""stimulus"":""run_exp/static/images/task_images/rocket-04.jpg"",""time"":3216.4000000059605},{""stimulus"":""run_exp/static/images/task_images/rocket-05.jpg"",""time"":4292.600000008941},{""stimulus"":""run_exp/static/images/task_images/rocket-06.jpg"",""time"":5351.79999999702},{""stimulus"":""run_exp/static/images/task_images/rocket-07.jpg"",""time"":6429.100000008941},{""stimulus"":""run_exp/static/images/task_images/rocket-08.jpg"",""time"":7489.9000000059605},{""stimulus"":""run_exp/static/images/task_images/rocket-09.jpg"",""time"":8567.10000000894}]",[],9,,,,,,,,,,,,,,
alien_welcome,191,617123,0.0-58.0-1.0,,null,run_exp/static/images/task_images/aliens/old_aliens/planet/alien_planet-50.jpg,null,,,,,,,,,,,,50,"2,43,77,80,73,40,23,41,11,50,28,58,21,4,35,31,63,42,70,52,65,15,25,49,14,53,19,24,22,76,34,5,57,29,59,12,8,30,17,45,44,27,10,56,51",,,,,,,,,,
land,192,617637,0.0-58.0-2.0,,null,run_exp/static/images/task_images/land.jpg,null,,,,,,97,,,10,,,,,,,,,,,,,,
dig,193,619651,0.0-58.0-3.0,,,,,,,,,,,"[{""stimulus"":""run_exp/static/images/task_images/dig.jpg"",""time"":0.29999999701976776},{""stimulus"":""run_exp/static/images/task_images/land.jpg"",""time"":671.3999999910593},{""stimulus"":""run_exp/static/images/task_images/dig.jpg"",""time"":1343.2999999970198}]",[],10,,,,,,,,,,,,,,
harvest,194,620664,0.0-58.0-4.0,,null,run_exp/static/images/task_images/gems/97.jpg,null,,,,,,19,,,10,,,,,97,0.199076087,0.195876289,,,,,,,
decision,195,621207,0.0-58.0-5.0,,541.8,run_exp/static/images/task_images/land.jpg,65,,,,,,19,,,10,,,,,,,,281757,1,0,FALSE,,,
dig,196,623682,0.0-59.0-0.0,,,,,,,,,,,"[{""stimulus"":""run_exp/static/images/task_images/dig.jpg"",""time"":0.20000000298023224},{""stimulus"":""run_exp/static/images/task_images/land.jpg"",""time"":821.4000000059605},{""stimulus"":""run_exp/static/images/task_images/dig.jpg"",""time"":1645.2999999970198}]",[],10,,,,,,,,,,,,,,
harvest,197,624688,0.0-59.0-1.0,,null,run_exp/static/images/task_images/gems/19.jpg,null,,,,,,4,,,10,,,,,19,0.195922171,0.210526316,,,,,,,
decision,198,624878,0.0-59.0-2.0,,188.3,run_exp/static/images/task_images/land.jpg,76,,,,,,4,,,10,,,,,,,,285427,1,1,TRUE,,,
travel,199,634699,0.0-60.0-0.0,,,,,,,,,,,"[{""stimulus"":""run_exp/static/images/task_images/rocket-01.jpg"",""time"":0.20000000298023224},{""stimulus"":""run_exp/static/images/task_images/rocket-02.jpg"",""time"":1100},{""stimulus"":""run_exp/static/images/task_images/rocket-03.jpg"",""time"":2193.9000000059605},{""stimulus"":""run_exp/static/images/task_images/rocket-04.jpg"",""time"":3281.2000000029802},{""stimulus"":""run_exp/static/images/task_images/rocket-05.jpg"",""time"":4363.20000000298},{""stimulus"":""run_exp/static/images/task_images/rocket-06.jpg"",""time"":5452.9000000059605},{""stimulus"":""run_exp/static/images/task_images/rocket-07.jpg"",""time"":6543.5},{""stimulus"":""run_exp/static/images/task_images/rocket-08.jpg"",""time"":7639.20000000298},{""stimulus"":""run_exp/static/images/task_images/rocket-09.jpg"",""time"":8732.5}]",[],10,,,,,,,,,,,,,,
alien_welcome,200,639709,0.0-60.0-1.0,,null,run_exp/static/images/task_images/aliens/old_aliens/planet/alien_planet-28.jpg,null,,,,,,,,,,,,28,"2,43,77,80,73,40,23,41,11,50,28,58,21,4,35,31,63,42,70,52,65,15,25,49,14,53,19,24,22,76,34,5,57,29,59,12,8,30,17,45,44,27,10,56,51",,,,,,,,,,
land,201,640222,0.0-60.0-2.0,,null,run_exp/static/images/task_images/land.jpg,null,,,,,,103,,,11,,,,,,,,,,,,,,
dig,202,642236,0.0-60.0-3.0,,,,,,,,,,,"[{""stimulus"":""run_exp/static/images/task_images/dig.jpg"",""time"":0.4000000059604645},{""stimulus"":""run_exp/static/images/task_images/land.jpg"",""time"":668.7000000029802},{""stimulus"":""run_exp/static/images/task_images/dig.jpg"",""time"":1340.4000000059605}]",[],11,,,,,,,,,,,,,,
harvest,203,643253,0.0-60.0-4.0,,null,run_exp/static/images/task_images/gems/103.jpg,null,,,,,,28,,,11,,,,,103,0.271060872,0.27184466,,,,,,,
decision,204,643756,0.0-60.0-5.0,,501.6,run_exp/static/images/task_images/land.jpg,65,,,,,,28,,,11,,,,,,,,304305,1,0,TRUE,,,
end_of_block_continue,205,652600,0.0-61.0-0.0,,null,run_exp/static/audio/clip_32_block_end.m4a,,,,,,null,,,,,,,,,,,,,,,,,,
alien_welcome,206,657613,0.0-62.0-0.0,,null,run_exp/static/images/task_images/aliens/old_aliens/planet/alien_planet-58.jpg,null,,,,,,,,,,,,58,"2,43,77,80,73,40,23,41,11,50,28,58,21,4,35,31,63,42,70,52,65,15,25,49,14,53,19,24,22,76,34,5,57,29,59,12,8,30,17,45,44,27,10,56,51",,,,,,,,,,
land,207,658125,0.0-62.0-1.0,,null,run_exp/static/images/task_images/land.jpg,null,,,,,,92,,,12,,,,,,,,,,,,,,
dig,208,660137,0.0-62.0-2.0,,,,,,,,,,,"[{""stimulus"":""run_exp/static/images/task_images/dig.jpg"",""time"":0.30000001192092896},{""stimulus"":""run_exp/static/images/task_images/land.jpg"",""time"":669.6000000089407},{""stimulus"":""run_exp/static/images/task_images/dig.jpg"",""time"":1340.300000011921}]",[],12,,,,,,,,,,,,,,
harvest,209,661152,0.0-62.0-3.0,,null,run_exp/static/images/task_images/gems/92.jpg,null,,,,,,16,,,12,,,,,92,0.178078758,0.173913043,,,,,,,
decision,210,662525,0.0-62.0-4.0,,1371.1,run_exp/static/images/task_images/land.jpg,65,,,,,,16,,,12,,,,,,,,9922,2,0,FALSE,,,
dig,211,664162,0.0-63.0-0.0,,,,,,,,,,,"[{""stimulus"":""run_exp/static/images/task_images/dig.jpg"",""time"":0.29999999701976776},{""stimulus"":""run_exp/static/images/task_images/land.jpg"",""time"":558.3999999910593},{""stimulus"":""run_exp/static/images/task_images/dig.jpg"",""time"":1088.7999999970198}]",[],12,,,,,,,,,,,,,,
harvest,212,665179,0.0-63.0-1.0,,null,run_exp/static/images/task_images/gems/16.jpg,null,,,,,,3,,,12,,,,,16,0.203976099,0.1875,,,,,,,
decision,213,665264,0.0-63.0-2.0,,83.2,run_exp/static/images/task_images/land.jpg,76,,,,,,3,,,12,,,,,,,,12661,2,1,TRUE,,,
travel,214,675184,0.0-64.0-0.0,,,,,,,,,,,"[{""stimulus"":""run_exp/static/images/task_images/rocket-01.jpg"",""time"":0.3999999910593033},{""stimulus"":""run_exp/static/images/task_images/rocket-02.jpg"",""time"":1108.199999988079},{""stimulus"":""run_exp/static/images/task_images/rocket-03.jpg"",""time"":2215.5},{""stimulus"":""run_exp/static/images/task_images/rocket-04.jpg"",""time"":3304.8999999910593},{""stimulus"":""run_exp/static/images/task_images/rocket-05.jpg"",""time"":4412.29999999702},{""stimulus"":""run_exp/static/images/task_images/rocket-06.jpg"",""time"":5521.29999999702},{""stimulus"":""run_exp/static/images/task_images/rocket-07.jpg"",""time"":6613.0999999940395},{""stimulus"":""run_exp/static/images/task_images/rocket-08.jpg"",""time"":7720.399999991059},{""stimulus"":""run_exp/static/images/task_images/rocket-09.jpg"",""time"":8812.09999999404}]",[],12,,,,,,,,,,,,,,
alien_welcome,215,680190,0.0-64.0-1.0,,null,run_exp/static/images/task_images/aliens/old_aliens/planet/alien_planet-21.jpg,null,,,,,,,,,,,,21,"2,43,77,80,73,40,23,41,11,50,28,58,21,4,35,31,63,42,70,52,65,15,25,49,14,53,19,24,22,76,34,5,57,29,59,12,8,30,17,45,44,27,10,56,51",,,,,,,,,,
land,216,680696,0.0-64.0-2.0,,null,run_exp/static/images/task_images/land.jpg,null,,,,,,99,,,13,,,,,,,,,,,,,,
dig,217,682708,0.0-64.0-3.0,,,,,,,,,,,"[{""stimulus"":""run_exp/static/images/task_images/dig.jpg"",""time"":0.20000000298023224},{""stimulus"":""run_exp/static/images/task_images/land.jpg"",""time"":668.5},{""stimulus"":""run_exp/static/images/task_images/dig.jpg"",""time"":1340.0999999940395}]",[],13,,,,,,,,,,,,,,
harvest,218,683720,0.0-64.0-4.0,,null,run_exp/static/images/task_images/gems/99.jpg,null,,,,,,21,,,13,,,,,99,0.215564174,0.212121212,,,,,,,
decision,219,685200,0.0-64.0-5.0,,1479.3,run_exp/static/images/task_images/land.jpg,65,,,,,,21,,,13,,,,,,,,32598,2,0,FALSE,,,
dig,220,686725,0.0-65.0-0.0,,,,,,,,,,,"[{""stimulus"":""run_exp/static/images/task_images/dig.jpg"",""time"":0.29999999701976776},{""stimulus"":""run_exp/static/images/task_images/land.jpg"",""time"":507.70000000298023},{""stimulus"":""run_exp/static/images/task_images/dig.jpg"",""time"":1024.0999999940395}]",[],13,,,,,,,,,,,,,,
harvest,221,687729,0.0-65.0-1.0,,null,run_exp/static/images/task_images/gems/21.jpg,null,,,,,,3,,,13,,,,,21,0.148508142,0.142857143,,,,,,,
decision,222,687800,0.0-65.0-2.0,,68.7,run_exp/static/images/task_images/land.jpg,76,,,,,,3,,,13,,,,,,,,35197,2,1,TRUE,,,
travel,223,697735,0.0-66.0-0.0,,,,,,,,,,,"[{""stimulus"":""run_exp/static/images/task_images/rocket-01.jpg"",""time"":0.20000000298023224},{""stimulus"":""run_exp/static/images/task_images/rocket-02.jpg"",""time"":1111.800000011921},{""stimulus"":""run_exp/static/images/task_images/rocket-03.jpg"",""time"":2215.1000000089407},{""stimulus"":""run_exp/static/images/task_images/rocket-04.jpg"",""time"":3321.800000011921},{""stimulus"":""run_exp/static/images/task_images/rocket-05.jpg"",""time"":4418},{""stimulus"":""run_exp/static/images/task_images/rocket-06.jpg"",""time"":5528.20000000298},{""stimulus"":""run_exp/static/images/task_images/rocket-07.jpg"",""time"":6623},{""stimulus"":""run_exp/static/images/task_images/rocket-08.jpg"",""time"":7731.70000000298},{""stimulus"":""run_exp/static/images/task_images/rocket-09.jpg"",""time"":8839.20000000298}]",[],13,,,,,,,,,,,,,,
alien_welcome,224,702739,0.0-66.0-1.0,,null,run_exp/static/images/task_images/aliens/old_aliens/planet/alien_planet-4.jpg,null,,,,,,,,,,,,4,"2,43,77,80,73,40,23,41,11,50,28,58,21,4,35,31,63,42,70,52,65,15,25,49,14,53,19,24,22,76,34,5,57,29,59,12,8,30,17,45,44,27,10,56,51",,,,,,,,,,
land,225,703247,0.0-66.0-2.0,,null,run_exp/static/images/task_images/land.jpg,null,,,,,,95,,,14,,,,,,,,,,,,,,
dig,226,705254,0.0-66.0-3.0,,,,,,,,,,,"[{""stimulus"":""run_exp/static/images/task_images/dig.jpg"",""time"":0.30000001192092896},{""stimulus"":""run_exp/static/images/task_images/land.jpg"",""time"":680.6000000089407},{""stimulus"":""run_exp/static/images/task_images/dig.jpg"",""time"":1336.5}]",[],14,,,,,,,,,,,,,,
harvest,227,706269,0.0-66.0-4.0,,null,run_exp/static/images/task_images/gems/95.jpg,null,,,,,,26,,,14,,,,,95,0.27719461,0.273684211,,,,,,,
decision,228,708097,0.0-66.0-5.0,,1826.2,run_exp/static/images/task_images/land.jpg,65,,,,,,26,,,14,,,,,,,,55494,2,0,FALSE,,,
dig,229,709281,0.0-67.0-0.0,,,,,,,,,,,"[{""stimulus"":""run_exp/static/images/task_images/dig.jpg"",""time"":0.20000000298023224},{""stimulus"":""run_exp/static/images/task_images/land.jpg"",""time"":400.29999999701977},{""stimulus"":""run_exp/static/images/task_images/dig.jpg"",""time"":790.7000000029802}]",[],14,,,,,,,,,,,,,,
harvest,230,710284,0.0-67.0-1.0,,null,run_exp/static/images/task_images/gems/26.jpg,null,,,,,,5,,,14,,,,,26,0.180726273,0.192307692,,,,,,,
decision,231,710478,0.0-67.0-2.0,,192.4,run_exp/static/images/task_images/land.jpg,76,,,,,,5,,,14,,,,,,,,57875,2,1,TRUE,,,
travel,232,720292,0.0-68.0-0.0,,,,,,,,,,,"[{""stimulus"":""run_exp/static/images/task_images/rocket-01.jpg"",""time"":0.20000000298023224},{""stimulus"":""run_exp/static/images/task_images/rocket-02.jpg"",""time"":1094.5},{""stimulus"":""run_exp/static/images/task_images/rocket-03.jpg"",""time"":2187.5},{""stimulus"":""run_exp/static/images/task_images/rocket-04.jpg"",""time"":3279.5},{""stimulus"":""run_exp/static/images/task_images/rocket-05.jpg"",""time"":4359.20000000298},{""stimulus"":""run_exp/static/images/task_images/rocket-06.jpg"",""time"":5451.0999999940395},{""stimulus"":""run_exp/static/images/task_images/rocket-07.jpg"",""time"":6541.79999999702},{""stimulus"":""run_exp/static/images/task_images/rocket-08.jpg"",""time"":7638.5999999940395},{""stimulus"":""run_exp/static/images/task_images/rocket-09.jpg"",""time"":8716.20000000298}]",[],14,,,,,,,,,,,,,,
alien_welcome,233,725309,0.0-68.0-1.0,,null,run_exp/static/images/task_images/aliens/old_aliens/planet/alien_planet-35.jpg,null,,,,,,,,,,,,35,"2,43,77,80,73,40,23,41,11,50,28,58,21,4,35,31,63,42,70,52,65,15,25,49,14,53,19,24,22,76,34,5,57,29,59,12,8,30,17,45,44,27,10,56,51",,,,,,,,,,
land,234,725821,0.0-68.0-2.0,,null,run_exp/static/images/task_images/land.jpg,null,,,,,,97,,,15,,,,,,,,,,,,,,
dig,235,727834,0.0-68.0-3.0,,,,,,,,,,,"[{""stimulus"":""run_exp/static/images/task_images/dig.jpg"",""time"":0.20000000298023224},{""stimulus"":""run_exp/static/images/task_images/land.jpg"",""time"":683},{""stimulus"":""run_exp/static/images/task_images/dig.jpg"",""time"":1338.4000000059605}]",[],15,,,,,,,,,,,,,,
harvest,236,728847,0.0-68.0-4.0,,null,run_exp/static/images/task_images/gems/97.jpg,null,,,,,,79,,,15,,,,,97,0.809819066,0.81443299,,,,,,,
decision,237,729389,0.0-68.0-5.0,,540.3,run_exp/static/images/task_images/land.jpg,65,,,,,,79,,,15,,,,,,,,76786,2,0,FALSE,,,
dig,238,731864,0.0-69.0-0.0,,,,,,,,,,,"[{""stimulus"":""run_exp/static/images/task_images/dig.jpg"",""time"":0.20000000298023224},{""stimulus"":""run_exp/static/images/task_images/land.jpg"",""time"":833.6000000089407},{""stimulus"":""run_exp/static/images/task_images/dig.jpg"",""time"":1646.7000000029802}]",[],15,,,,,,,,,,,,,,
harvest,239,732879,0.0-69.0-1.0,,null,run_exp/static/images/task_images/gems/79.jpg,null,,,,,,57,,,15,,,,,79,0.726166562,0.721518987,,,,,,,
decision,240,732987,0.0-69.0-2.0,,106.3,run_exp/static/images/task_images/land.jpg,65,,,,,,57,,,15,,,,,,,,80384,2,1,FALSE,,,
dig,241,735896,0.0-70.0-0.0,,,,,,,,,,,"[{""stimulus"":""run_exp/static/images/task_images/dig.jpg"",""time"":0.09999999403953552},{""stimulus"":""run_exp/static/images/task_images/land.jpg"",""time"":977.5999999940395},{""stimulus"":""run_exp/static/images/task_images/dig.jpg"",""time"":1942.4000000059605}]",[],15,,,,,,,,,,,,,,
harvest,242,736909,0.0-70.0-1.0,,null,run_exp/static/images/task_images/gems/57.jpg,null,,,,,,43,,,15,,,,,57,0.76267196,0.754385965,,,,,,,
decision,243,736946,0.0-70.0-2.0,,36,run_exp/static/images/task_images/land.jpg,65,,,,,,43,,,15,,,,,,,,84343,2,2,FALSE,,,
dig,244,739916,0.0-71.0-0.0,,,,,,,,,,,"[{""stimulus"":""run_exp/static/images/task_images/dig.jpg"",""time"":0.19999998807907104},{""stimulus"":""run_exp/static/images/task_images/land.jpg"",""time"":1003.8999999910593},{""stimulus"":""run_exp/static/images/task_images/dig.jpg"",""time"":1984.199999988079}]",[],15,,,,,,,,,,,,,,
harvest,245,740930,0.0-71.0-1.0,,null,run_exp/static/images/task_images/gems/43.jpg,null,,,,,,31,,,15,,,,,43,0.722853201,0.720930233,,,,,,,
decision,246,741052,0.0-71.0-2.0,,120.1,run_exp/static/images/task_images/land.jpg,65,,,,,,31,,,15,,,,,,,,88449,2,3,FALSE,,,
dig,247,743938,0.0-72.0-0.0,,,,,,,,,,,"[{""stimulus"":""run_exp/static/images/task_images/dig.jpg"",""time"":0.09999999403953552},{""stimulus"":""run_exp/static/images/task_images/land.jpg"",""time"":969},{""stimulus"":""run_exp/static/images/task_images/dig.jpg"",""time"":1919}]",[],15,,,,,,,,,,,,,,
harvest,248,744949,0.0-72.0-1.0,,null,run_exp/static/images/task_images/gems/31.jpg,null,,,,,,28,,,15,,,,,31,0.894338471,0.903225806,,,,,,,
decision,249,745022,0.0-72.0-2.0,,71.5,run_exp/static/images/task_images/land.jpg,76,,,,,,28,,,15,,,,,,,,92419,2,4,TRUE,,,
travel,250,754964,0.0-73.0-0.0,,,,,,,,,,,"[{""stimulus"":""run_exp/static/images/task_images/rocket-01.jpg"",""time"":0.29999999701976776},{""stimulus"":""run_exp/static/images/task_images/rocket-02.jpg"",""time"":1112.7999999970198},{""stimulus"":""run_exp/static/images/task_images/rocket-03.jpg"",""time"":2222.2999999970198},{""stimulus"":""run_exp/static/images/task_images/rocket-04.jpg"",""time"":3316.0999999940395},{""stimulus"":""run_exp/static/images/task_images/rocket-05.jpg"",""time"":4422},{""stimulus"":""run_exp/static/images/task_images/rocket-06.jpg"",""time"":5526.5},{""stimulus"":""run_exp/static/images/task_images/rocket-07.jpg"",""time"":6621},{""stimulus"":""run_exp/static/images/task_images/rocket-08.jpg"",""time"":7726.29999999702},{""stimulus"":""run_exp/static/images/task_images/rocket-09.jpg"",""time"":8832}]",[],15,,,,,,,,,,,,,,
alien_welcome,251,759979,0.0-73.0-1.0,,null,run_exp/static/images/task_images/aliens/old_aliens/planet/alien_planet-31.jpg,null,,,,,,,,,,,,31,"2,43,77,80,73,40,23,41,11,50,28,58,21,4,35,31,63,42,70,52,65,15,25,49,14,53,19,24,22,76,34,5,57,29,59,12,8,30,17,45,44,27,10,56,51",,,,,,,,,,
land,252,760491,0.0-73.0-2.0,,null,run_exp/static/images/task_images/land.jpg,null,,,,,,102,,,16,,,,,,,,,,,,,,
dig,253,762497,0.0-73.0-3.0,,,,,,,,,,,"[{""stimulus"":""run_exp/static/images/task_images/dig.jpg"",""time"":0.3999999910593033},{""stimulus"":""run_exp/static/images/task_images/land.jpg"",""time"":682.3999999910593},{""stimulus"":""run_exp/static/images/task_images/dig.jpg"",""time"":1337.699999988079}]",[],16,,,,,,,,,,,,,,
harvest,254,763508,0.0-73.0-4.0,,null,run_exp/static/images/task_images/gems/102.jpg,null,,,,,,86,,,16,,,,,102,0.8459765,0.843137255,,,,,,,
decision,255,765187,0.0-73.0-5.0,,1677,run_exp/static/images/task_images/land.jpg,65,,,,,,86,,,16,,,,,,,,112584,2,0,FALSE,,,
dig,256,766518,0.0-74.0-0.0,,,,,,,,,,,"[{""stimulus"":""run_exp/static/images/task_images/dig.jpg"",""time"":0.20000000298023224},{""stimulus"":""run_exp/static/images/task_images/land.jpg"",""time"":453.09999999403954},{""stimulus"":""run_exp/static/images/task_images/dig.jpg"",""time"":889}]",[],16,,,,,,,,,,,,,,
harvest,257,767521,0.0-74.0-1.0,,null,run_exp/static/images/task_images/gems/86.jpg,null,,,,,,72,,,16,,,,,86,0.837186013,0.837209302,,,,,,,
decision,258,768214,0.0-74.0-2.0,,691.4,run_exp/static/images/task_images/land.jpg,65,,,,,,72,,,16,,,,,,,,115611,2,1,FALSE,,,
dig,259,770537,0.0-75.0-0.0,,,,,,,,,,,"[{""stimulus"":""run_exp/static/images/task_images/dig.jpg"",""time"":0.29999999701976776},{""stimulus"":""run_exp/static/images/task_images/land.jpg"",""time"":782.7000000029802},{""stimulus"":""run_exp/static/images/task_images/dig.jpg"",""time"":1543.5999999940395}]",[],16,,,,,,,,,,,,,,
harvest,260,771554,0.0-75.0-1.0,,null,run_exp/static/images/task_images/gems/72.jpg,null,,,,,,55,,,16,,,,,72,0.758853707,0.763888889,,,,,,,
decision,261,771694,0.0-75.0-2.0,,139,run_exp/static/images/task_images/land.jpg,65,,,,,,55,,,16,,,,,,,,119091,2,2,FALSE,,,
dig,262,774570,0.0-76.0-0.0,,,,,,,,,,,"[{""stimulus"":""run_exp/static/images/task_images/dig.jpg"",""time"":0.30000001192092896},{""stimulus"":""run_exp/static/images/task_images/land.jpg"",""time"":956.8000000119209},{""stimulus"":""run_exp/static/images/task_images/dig.jpg"",""time"":1922.1000000089407}]",[],16,,,,,,,,,,,,,,
harvest,263,775572,0.0-76.0-1.0,,null,run_exp/static/images/task_images/gems/55.jpg,null,,,,,,34,,,16,,,,,55,0.622618165,0.618181818,,,,,,,
decision,264,776360,0.0-76.0-2.0,,786.4,run_exp/static/images/task_images/land.jpg,65,,,,,,34,,,16,,,,,,,,123757,2,3,FALSE,,,
dig,265,778579,0.0-77.0-0.0,,,,,,,,,,,"[{""stimulus"":""run_exp/static/images/task_images/dig.jpg"",""time"":0.10000000894069672},{""stimulus"":""run_exp/static/images/task_images/land.jpg"",""time"":740.5},{""stimulus"":""run_exp/static/images/task_images/dig.jpg"",""time"":1485.4000000059605}]",[],16,,,,,,,,,,,,,,
harvest,266,779582,0.0-77.0-1.0,,null,run_exp/static/images/task_images/gems/34.jpg,null,,,,,,27,,,16,,,,,34,0.808023287,0.794117647,,,,,,,
decision,267,779768,0.0-77.0-2.0,,185,run_exp/static/images/task_images/land.jpg,76,,,,,,27,,,16,,,,,,,,127166,2,4,TRUE,,,
travel,268,789586,0.0-78.0-0.0,,,,,,,,,,,"[{""stimulus"":""run_exp/static/images/task_images/rocket-01.jpg"",""time"":0.20000000298023224},{""stimulus"":""run_exp/static/images/task_images/rocket-02.jpg"",""time"":1097.8999999910593},{""stimulus"":""run_exp/static/images/task_images/rocket-03.jpg"",""time"":2182},{""stimulus"":""run_exp/static/images/task_images/rocket-04.jpg"",""time"":3279.2000000029802},{""stimulus"":""run_exp/static/images/task_images/rocket-05.jpg"",""time"":4369},{""stimulus"":""run_exp/static/images/task_images/rocket-06.jpg"",""time"":5456.899999991059},{""stimulus"":""run_exp/static/images/task_images/rocket-07.jpg"",""time"":6553.79999999702},{""stimulus"":""run_exp/static/images/task_images/rocket-08.jpg"",""time"":7645.0999999940395},{""stimulus"":""run_exp/static/images/task_images/rocket-09.jpg"",""time"":8721.70000000298}]",[],16,,,,,,,,,,,,,,
alien_welcome,269,794599,0.0-78.0-1.0,,null,run_exp/static/images/task_images/aliens/old_aliens/planet/alien_planet-63.jpg,null,,,,,,,,,,,,63,"2,43,77,80,73,40,23,41,11,50,28,58,21,4,35,31,63,42,70,52,65,15,25,49,14,53,19,24,22,76,34,5,57,29,59,12,8,30,17,45,44,27,10,56,51",,,,,,,,,,
land,270,795112,0.0-78.0-2.0,,null,run_exp/static/images/task_images/land.jpg,null,,,,,,103,,,17,,,,,,,,,,,,,,
dig,271,797125,0.0-78.0-3.0,,,,,,,,,,,"[{""stimulus"":""run_exp/static/images/task_images/dig.jpg"",""time"":0.29999999701976776},{""stimulus"":""run_exp/static/images/task_images/land.jpg"",""time"":669.2999999970198},{""stimulus"":""run_exp/static/images/task_images/dig.jpg"",""time"":1342.2000000029802}]",[],17,,,,,,,,,,,,,,
harvest,272,798136,0.0-78.0-4.0,,null,run_exp/static/images/task_images/gems/103.jpg,null,,,,,,86,,,17,,,,,103,0.83647907,0.834951456,,,,,,,
decision,273,798556,0.0-78.0-5.0,,417.8,run_exp/static/images/task_images/land.jpg,65,,,,,,86,,,17,,,,,,,,145953,2,0,FALSE,,,
dig,274,801145,0.0-79.0-0.0,,,,,,,,,,,"[{""stimulus"":""run_exp/static/images/task_images/dig.jpg"",""time"":0.20000000298023224},{""stimulus"":""run_exp/static/images/task_images/land.jpg"",""time"":870.2999999970198},{""stimulus"":""run_exp/static/images/task_images/dig.jpg"",""time"":1731.9000000059605}]",[],17,,,,,,,,,,,,,,
harvest,275,802154,0.0-79.0-1.0,,null,run_exp/static/images/task_images/gems/86.jpg,null,,,,,,70,,,17,,,,,86,0.816404198,0.813953488,,,,,,,
decision,276,802402,0.0-79.0-2.0,,246.6,run_exp/static/images/task_images/land.jpg,65,,,,,,70,,,17,,,,,,,,149799,2,1,FALSE,,,
dig,277,805161,0.0-80.0-0.0,,,,,,,,,,,"[{""stimulus"":""run_exp/static/images/task_images/dig.jpg"",""time"":0.29999999701976776},{""stimulus"":""run_exp/static/images/task_images/land.jpg"",""time"":928.8999999910593},{""stimulus"":""run_exp/static/images/task_images/dig.jpg"",""time"":1844.5}]",[],17,,,,,,,,,,,,,,
harvest,278,806174,0.0-80.0-1.0,,null,run_exp/static/images/task_images/gems/70.jpg,null,,,,,,55,,,17,,,,,70,0.785931196,0.785714286,,,,,,,
decision,279,806405,0.0-80.0-2.0,,229.7,run_exp/static/images/task_images/land.jpg,65,,,,,,55,,,17,,,,,,,,153802,2,2,FALSE,,,
dig,280,809186,0.0-81.0-0.0,,,,,,,,,,,"[{""stimulus"":""run_exp/static/images/task_images/dig.jpg"",""time"":0.29999999701976776},{""stimulus"":""run_exp/static/images/task_images/land.jpg"",""time"":934.7000000029802},{""stimulus"":""run_exp/static/images/task_images/dig.jpg"",""time"":1853}]",[],17,,,,,,,,,,,,,,
harvest,281,810199,0.0-81.0-1.0,,null,run_exp/static/images/task_images/gems/55.jpg,null,,,,,,46,,,17,,,,,55,0.834535429,0.836363636,,,,,,,
decision,282,810425,0.0-81.0-2.0,,225.3,run_exp/static/images/task_images/land.jpg,65,,,,,,46,,,17,,,,,,,,157823,2,3,FALSE,,,
dig,283,813214,0.0-82.0-0.0,,,,,,,,,,,"[{""stimulus"":""run_exp/static/images/task_images/dig.jpg"",""time"":0.20000000298023224},{""stimulus"":""run_exp/static/images/task_images/land.jpg"",""time"":936.6000000089407},{""stimulus"":""run_exp/static/images/task_images/dig.jpg"",""time"":1855.4000000059605}]",[],17,,,,,,,,,,,,,,
harvest,284,814220,0.0-82.0-1.0,,null,run_exp/static/images/task_images/gems/46.jpg,null,,,,,,37,,,17,,,,,46,0.80424213,0.804347826,,,,,,,
decision,285,814346,0.0-82.0-2.0,,124.2,run_exp/static/images/task_images/land.jpg,65,,,,,,37,,,17,,,,,,,,161743,2,4,FALSE,,,
dig,286,817234,0.0-83.0-0.0,,,,,,,,,,,"[{""stimulus"":""run_exp/static/images/task_images/dig.jpg"",""time"":0.20000000298023224},{""stimulus"":""run_exp/static/images/task_images/land.jpg"",""time"":967.5},{""stimulus"":""run_exp/static/images/task_images/dig.jpg"",""time"":1919.6000000089407}]",[],17,,,,,,,,,,,,,,
harvest,287,818239,0.0-83.0-1.0,,null,run_exp/static/images/task_images/gems/37.jpg,null,,,,,,28,,,17,,,,,37,0.74537289,0.756756757,,,,,,,
decision,288,818450,0.0-83.0-2.0,,210.5,run_exp/static/images/task_images/land.jpg,76,,,,,,28,,,17,,,,,,,,165848,2,5,TRUE,,,
travel,289,828247,0.0-84.0-0.0,,,,,,,,,,,"[{""stimulus"":""run_exp/static/images/task_images/rocket-01.jpg"",""time"":0.30000001192092896},{""stimulus"":""run_exp/static/images/task_images/rocket-02.jpg"",""time"":1096.9000000059605},{""stimulus"":""run_exp/static/images/task_images/rocket-03.jpg"",""time"":2178.300000011921},{""stimulus"":""run_exp/static/images/task_images/rocket-04.jpg"",""time"":3276.1000000089407},{""stimulus"":""run_exp/static/images/task_images/rocket-05.jpg"",""time"":4349.800000011921},{""stimulus"":""run_exp/static/images/task_images/rocket-06.jpg"",""time"":5444},{""stimulus"":""run_exp/static/images/task_images/rocket-07.jpg"",""time"":6523.70000000298},{""stimulus"":""run_exp/static/images/task_images/rocket-08.jpg"",""time"":7612.70000000298},{""stimulus"":""run_exp/static/images/task_images/rocket-09.jpg"",""time"":8703.800000011921}]",[],17,,,,,,,,,,,,,,
alien_welcome,290,833251,0.0-84.0-1.0,,null,run_exp/static/images/task_images/aliens/old_aliens/planet/alien_planet-42.jpg,null,,,,,,,,,,,,42,"2,43,77,80,73,40,23,41,11,50,28,58,21,4,35,31,63,42,70,52,65,15,25,49,14,53,19,24,22,76,34,5,57,29,59,12,8,30,17,45,44,27,10,56,51",,,,,,,,,,
land,291,833763,0.0-84.0-2.0,,null,run_exp/static/images/task_images/land.jpg,null,,,,,,99,,,18,,,,,,,,,,,,,,
dig,292,835768,0.0-84.0-3.0,,,,,,,,,,,"[{""stimulus"":""run_exp/static/images/task_images/dig.jpg"",""time"":0.29999999701976776},{""stimulus"":""run_exp/static/images/task_images/land.jpg"",""time"":669.5},{""stimulus"":""run_exp/static/images/task_images/dig.jpg"",""time"":1336.8999999910593}]",[],18,,,,,,,,,,,,,,
harvest,293,836780,0.0-84.0-4.0,,null,run_exp/static/images/task_images/gems/99.jpg,null,,,,,,81,,,18,,,,,99,0.821562089,0.818181818,,,,,,,
decision,294,837094,0.0-84.0-5.0,,312.6,run_exp/static/images/task_images/land.jpg,65,,,,,,81,,,18,,,,,,,,184491,2,0,FALSE,,,
dig,295,839785,0.0-85.0-0.0,,,,,,,,,,,"[{""stimulus"":""run_exp/static/images/task_images/dig.jpg"",""time"":0.29999999701976776},{""stimulus"":""run_exp/static/images/task_images/land.jpg"",""time"":909.7999999970198},{""stimulus"":""run_exp/static/images/task_images/dig.jpg"",""time"":1798.5999999940395}]",[],18,,,,,,,,,,,,,,
harvest,296,840790,0.0-85.0-1.0,,null,run_exp/static/images/task_images/gems/81.jpg,null,,,,,,66,,,18,,,,,81,0.811936543,0.814814815,,,,,,,
decision,297,840894,0.0-85.0-2.0,,103.2,run_exp/static/images/task_images/land.jpg,65,,,,,,66,,,18,,,,,,,,188292,2,1,FALSE,,,
dig,298,843803,0.0-86.0-0.0,,,,,,,,,,,"[{""stimulus"":""run_exp/static/images/task_images/dig.jpg"",""time"":0.29999999701976776},{""stimulus"":""run_exp/static/images/task_images/land.jpg"",""time"":974},{""stimulus"":""run_exp/static/images/task_images/dig.jpg"",""time"":1941.3999999910593}]",[],18,,,,,,,,,,,,,,
harvest,299,844819,0.0-86.0-1.0,,null,run_exp/static/images/task_images/gems/66.jpg,null,,,,,,50,,,18,,,,,66,0.754214713,0.757575758,,,,,,,
decision,300,844839,0.0-86.0-2.0,,19,run_exp/static/images/task_images/land.jpg,65,,,,,,50,,,18,,,,,,,,192236,2,2,FALSE,,,
dig,301,847830,0.0-87.0-0.0,,,,,,,,,,,"[{""stimulus"":""run_exp/static/images/task_images/dig.jpg"",""time"":0.20000000298023224},{""stimulus"":""run_exp/static/images/task_images/land.jpg"",""time"":1005.4000000059605},{""stimulus"":""run_exp/static/images/task_images/dig.jpg"",""time"":2003.2000000029802}]",[],18,,,,,,,,,,,,,,
harvest,302,848839,0.0-87.0-1.0,,null,run_exp/static/images/task_images/gems/50.jpg,null,,,,,,39,,,18,,,,,50,0.78773504,0.78,,,,,,,
decision,303,849060,0.0-87.0-2.0,,220.1,run_exp/static/images/task_images/land.jpg,65,,,,,,39,,,18,,,,,,,,196457,2,3,FALSE,,,
dig,304,851851,0.0-88.0-0.0,,,,,,,,,,,"[{""stimulus"":""run_exp/static/images/task_images/dig.jpg"",""time"":0.10000000894069672},{""stimulus"":""run_exp/static/images/task_images/land.jpg"",""time"":937.2000000029802},{""stimulus"":""run_exp/static/images/task_images/dig.jpg"",""time"":1854.5}]",[],18,,,,,,,,,,,,,,
harvest,305,852866,0.0-88.0-1.0,,null,run_exp/static/images/task_images/gems/39.jpg,null,,,,,,33,,,18,,,,,39,0.833385009,0.846153846,,,,,,,
decision,306,853303,0.0-88.0-2.0,,435.8,run_exp/static/images/task_images/land.jpg,65,,,,,,33,,,18,,,,,,,,200700,2,4,FALSE,,,
dig,307,855886,0.0-89.0-0.0,,,,,,,,,,,"[{""stimulus"":""run_exp/static/images/task_images/dig.jpg"",""time"":0.29999999701976776},{""stimulus"":""run_exp/static/images/task_images/land.jpg"",""time"":868.3999999910593},{""stimulus"":""run_exp/static/images/task_images/dig.jpg"",""time"":1723.7999999970198}]",[],18,,,,,,,,,,,,,,
harvest,308,856891,0.0-89.0-1.0,,null,run_exp/static/images/task_images/gems/33.jpg,null,,,,,,28,,,18,,,,,33,0.847475643,0.848484848,,,,,,,
decision,309,858344,0.0-89.0-2.0,,1452.5,run_exp/static/images/task_images/land.jpg,76,,,,,,28,,,18,,,,,,,,205742,2,5,TRUE,,,
travel,310,866906,0.0-90.0-0.0,,,,,,,,,,,"[{""stimulus"":""run_exp/static/images/task_images/rocket-01.jpg"",""time"":0.30000001192092896},{""stimulus"":""run_exp/static/images/task_images/rocket-02.jpg"",""time"":954.3000000119209},{""stimulus"":""run_exp/static/images/task_images/rocket-03.jpg"",""time"":1907.9000000059605},{""stimulus"":""run_exp/static/images/task_images/rocket-04.jpg"",""time"":2859.300000011921},{""stimulus"":""run_exp/static/images/task_images/rocket-05.jpg"",""time"":3810.300000011921},{""stimulus"":""run_exp/static/images/task_images/rocket-06.jpg"",""time"":4747.4000000059605},{""stimulus"":""run_exp/static/images/task_images/rocket-07.jpg"",""time"":5704.5},{""stimulus"":""run_exp/static/images/task_images/rocket-08.jpg"",""time"":6657.800000011921},{""stimulus"":""run_exp/static/images/task_images/rocket-09.jpg"",""time"":7607.800000011921}]",[],18,,,,,,,,,,,,,,
alien_welcome,311,871923,0.0-90.0-1.0,,null,run_exp/static/images/task_images/aliens/old_aliens/planet/alien_planet-70.jpg,null,,,,,,,,,,,,70,"2,43,77,80,73,40,23,41,11,50,28,58,21,4,35,31,63,42,70,52,65,15,25,49,14,53,19,24,22,76,34,5,57,29,59,12,8,30,17,45,44,27,10,56,51",,,,,,,,,,
land,312,872435,0.0-90.0-2.0,,null,run_exp/static/images/task_images/land.jpg,null,,,,,,101,,,19,,,,,,,,,,,,,,
dig,313,874441,0.0-90.0-3.0,,,,,,,,,,,"[{""stimulus"":""run_exp/static/images/task_images/dig.jpg"",""time"":0.29999999701976776},{""stimulus"":""run_exp/static/images/task_images/land.jpg"",""time"":670.2999999970198},{""stimulus"":""run_exp/static/images/task_images/dig.jpg"",""time"":1346.7000000029802}]",[],19,,,,,,,,,,,,,,
harvest,314,875454,0.0-90.0-4.0,,null,run_exp/static/images/task_images/gems/101.jpg,null,,,,,,77,,,19,,,,,101,0.763673563,0.762376238,,,,,,,
decision,315,875526,0.0-90.0-5.0,,69.7,run_exp/static/images/task_images/land.jpg,65,,,,,,77,,,19,,,,,,,,222923,2,0,FALSE,,,
dig,316,878462,0.0-91.0-0.0,,,,,,,,,,,"[{""stimulus"":""run_exp/static/images/task_images/dig.jpg"",""time"":0.30000001192092896},{""stimulus"":""run_exp/static/images/task_images/land.jpg"",""time"":982.3000000119209},{""stimulus"":""run_exp/static/images/task_images/dig.jpg"",""time"":1966.2000000029802}]",[],19,,,,,,,,,,,,,,
harvest,317,879472,0.0-91.0-1.0,,null,run_exp/static/images/task_images/gems/77.jpg,null,,,,,,62,,,19,,,,,77,0.805143236,0.805194805,,,,,,,
decision,318,879827,0.0-91.0-2.0,,354.3,run_exp/static/images/task_images/land.jpg,65,,,,,,62,,,19,,,,,,,,227225,2,1,FALSE,,,
dig,319,882486,0.0-92.0-0.0,,,,,,,,,,,"[{""stimulus"":""run_exp/static/images/task_images/dig.jpg"",""time"":0.20000000298023224},{""stimulus"":""run_exp/static/images/task_images/land.jpg"",""time"":883.8999999910593},{""stimulus"":""run_exp/static/images/task_images/dig.jpg"",""time"":1778.2000000029802}]",[],19,,,,,,,,,,,,,,
harvest,320,883489,0.0-92.0-1.0,,null,run_exp/static/images/task_images/gems/62.jpg,null,,,,,,53,,,19,,,,,62,0.856767012,0.85483871,,,,,,,
decision,321,883809,0.0-92.0-2.0,,319,run_exp/static/images/task_images/land.jpg,65,,,,,,53,,,19,,,,,,,,231206,2,2,FALSE,,,
dig,322,886501,0.0-93.0-0.0,,,,,,,,,,,"[{""stimulus"":""run_exp/static/images/task_images/dig.jpg"",""time"":0.20000000298023224},{""stimulus"":""run_exp/static/images/task_images/land.jpg"",""time"":907.9000000059605},{""stimulus"":""run_exp/static/images/task_images/dig.jpg"",""time"":1797.300000011921}]",[],19,,,,,,,,,,,,,,
harvest,323,887506,0.0-93.0-1.0,,null,run_exp/static/images/task_images/gems/53.jpg,null,,,,,,47,,,19,,,,,53,0.878242274,0.886792453,,,,,,,
decision,324,887757,0.0-93.0-2.0,,249.5,run_exp/static/images/task_images/land.jpg,65,,,,,,47,,,19,,,,,,,,235154,2,3,FALSE,,,
dig,325,890519,0.0-94.0-0.0,,,,,,,,,,,"[{""stimulus"":""run_exp/static/images/task_images/dig.jpg"",""time"":0.20000000298023224},{""stimulus"":""run_exp/static/images/task_images/land.jpg"",""time"":929.1000000089407},{""stimulus"":""run_exp/static/images/task_images/dig.jpg"",""time"":1837}]",[],19,,,,,,,,,,,,,,
harvest,326,891524,0.0-94.0-1.0,,null,run_exp/static/images/task_images/gems/47.jpg,null,,,,,,34,,,19,,,,,47,0.71446168,0.723404255,,,,,,,
decision,327,892031,0.0-94.0-2.0,,506.3,run_exp/static/images/task_images/land.jpg,65,,,,,,34,,,19,,,,,,,,239429,2,4,FALSE,,,
dig,328,894536,0.0-95.0-0.0,,,,,,,,,,,"[{""stimulus"":""run_exp/static/images/task_images/dig.jpg"",""time"":0.09999999403953552},{""stimulus"":""run_exp/static/images/task_images/land.jpg"",""time"":842},{""stimulus"":""run_exp/static/images/task_images/dig.jpg"",""time"":1670}]",[],19,,,,,,,,,,,,,,
harvest,329,895551,0.0-95.0-1.0,,null,run_exp/static/images/task_images/gems/34.jpg,null,,,,,,30,,,19,,,,,34,0.868646607,0.882352941,,,,,,,
decision,330,896269,0.0-95.0-2.0,,716.1,run_exp/static/images/task_images/land.jpg,76,,,,,,30,,,19,,,,,,,,243666,2,5,TRUE,,,
travel,331,905564,0.0-96.0-0.0,,,,,,,,,,,"[{""stimulus"":""run_exp/static/images/task_images/rocket-01.jpg"",""time"":0.20000000298023224},{""stimulus"":""run_exp/static/images/task_images/rocket-02.jpg"",""time"":1042.0999999940395},{""stimulus"":""run_exp/static/images/task_images/rocket-03.jpg"",""time"":2074.5999999940395},{""stimulus"":""run_exp/static/images/task_images/rocket-04.jpg"",""time"":3105.3999999910593},{""stimulus"":""run_exp/static/images/task_images/rocket-05.jpg"",""time"":4126.79999999702},{""stimulus"":""run_exp/static/images/task_images/rocket-06.jpg"",""time"":5157.79999999702},{""stimulus"":""run_exp/static/images/task_images/rocket-07.jpg"",""time"":6191.5999999940395},{""stimulus"":""run_exp/static/images/task_images/rocket-08.jpg"",""time"":7223.79999999702},{""stimulus"":""run_exp/static/images/task_images/rocket-09.jpg"",""time"":8250.39999999106}]",[],19,,,,,,,,,,,,,,
alien_welcome,332,910574,0.0-96.0-1.0,,null,run_exp/static/images/task_images/aliens/old_aliens/planet/alien_planet-52.jpg,null,,,,,,,,,,,,52,"2,43,77,80,73,40,23,41,11,50,28,58,21,4,35,31,63,42,70,52,65,15,25,49,14,53,19,24,22,76,34,5,57,29,59,12,8,30,17,45,44,27,10,56,51",,,,,,,,,,
land,333,911088,0.0-96.0-2.0,,null,run_exp/static/images/task_images/land.jpg,null,,,,,,90,,,20,,,,,,,,,,,,,,
dig,334,913093,0.0-96.0-3.0,,,,,,,,,,,"[{""stimulus"":""run_exp/static/images/task_images/dig.jpg"",""time"":0.4000000059604645},{""stimulus"":""run_exp/static/images/task_images/land.jpg"",""time"":680.1000000089407},{""stimulus"":""run_exp/static/images/task_images/dig.jpg"",""time"":1348.9000000059605}]",[],20,,,,,,,,,,,,,,
harvest,335,914096,0.0-96.0-4.0,,null,run_exp/static/images/task_images/gems/90.jpg,null,,,,,,43,,,20,,,,,90,0.479017218,0.477777778,,,,,,,
decision,336,914491,0.0-96.0-5.0,,393.7,run_exp/static/images/task_images/land.jpg,65,,,,,,43,,,20,,,,,,,,261888,2,0,FALSE,,,
dig,337,917101,0.0-97.0-0.0,,,,,,,,,,,"[{""stimulus"":""run_exp/static/images/task_images/dig.jpg"",""time"":0.19999998807907104},{""stimulus"":""run_exp/static/images/task_images/land.jpg"",""time"":878.6999999880791},{""stimulus"":""run_exp/static/images/task_images/dig.jpg"",""time"":1747.5999999940395}]",[],20,,,,,,,,,,,,,,
harvest,338,918113,0.0-97.0-1.0,,null,run_exp/static/images/task_images/gems/43.jpg,null,,,,,,26,,,20,,,,,43,0.597314623,0.604651163,,,,,,,
decision,339,918345,0.0-97.0-2.0,,230.5,run_exp/static/images/task_images/land.jpg,65,,,,,,26,,,20,,,,,,,,265742,2,1,FALSE,,,
dig,340,921120,0.0-98.0-0.0,,,,,,,,,,,"[{""stimulus"":""run_exp/static/images/task_images/dig.jpg"",""time"":0.29999999701976776},{""stimulus"":""run_exp/static/images/task_images/land.jpg"",""time"":931.2999999970198},{""stimulus"":""run_exp/static/images/task_images/dig.jpg"",""time"":1852.7000000029802}]",[],20,,,,,,,,,,,,,,
harvest,341,922136,0.0-98.0-1.0,,null,run_exp/static/images/task_images/gems/26.jpg,null,,,,,,15,,,20,,,,,26,0.558515433,0.576923077,,,,,,,
decision,342,922232,0.0-98.0-2.0,,94.5,run_exp/static/images/task_images/land.jpg,76,,,,,,15,,,20,,,,,,,,269629,2,2,TRUE,,,
travel,343,932151,0.0-99.0-0.0,,,,,,,,,,,"[{""stimulus"":""run_exp/static/images/task_images/rocket-01.jpg"",""time"":0.29999999701976776},{""stimulus"":""run_exp/static/images/task_images/rocket-02.jpg"",""time"":1113.7999999970198},{""stimulus"":""run_exp/static/images/task_images/rocket-03.jpg"",""time"":2213},{""stimulus"":""run_exp/static/images/task_images/rocket-04.jpg"",""time"":3313.7999999970198},{""stimulus"":""run_exp/static/images/task_images/rocket-05.jpg"",""time"":4416.20000000298},{""stimulus"":""run_exp/static/images/task_images/rocket-06.jpg"",""time"":5515.79999999702},{""stimulus"":""run_exp/static/images/task_images/rocket-07.jpg"",""time"":6614.29999999702},{""stimulus"":""run_exp/static/images/task_images/rocket-08.jpg"",""time"":7705.29999999702},{""stimulus"":""run_exp/static/images/task_images/rocket-09.jpg"",""time"":8802.70000000298}]",[],20,,,,,,,,,,,,,,
alien_welcome,344,937167,0.0-99.0-1.0,,null,run_exp/static/images/task_images/aliens/old_aliens/planet/alien_planet-65.jpg,null,,,,,,,,,,,,65,"2,43,77,80,73,40,23,41,11,50,28,58,21,4,35,31,63,42,70,52,65,15,25,49,14,53,19,24,22,76,34,5,57,29,59,12,8,30,17,45,44,27,10,56,51",,,,,,,,,,
land,345,937681,0.0-99.0-2.0,,null,run_exp/static/images/task_images/land.jpg,null,,,,,,91,,,21,,,,,,,,,,,,,,
dig,346,939692,0.0-99.0-3.0,,,,,,,,,,,"[{""stimulus"":""run_exp/static/images/task_images/dig.jpg"",""time"":0.29999999701976776},{""stimulus"":""run_exp/static/images/task_images/land.jpg"",""time"":668.5999999940395},{""stimulus"":""run_exp/static/images/task_images/dig.jpg"",""time"":1337.5999999940395}]",[],21,,,,,,,,,,,,,,
harvest,347,940704,0.0-99.0-4.0,,null,run_exp/static/images/task_images/gems/91.jpg,null,,,,,,77,,,21,,,,,91,0.848739082,0.846153846,,,,,,,
decision,348,941184,0.0-99.0-5.0,,478.7,run_exp/static/images/task_images/land.jpg,65,,,,,,77,,,21,,,,,,,,288581,2,0,FALSE,,,
dig,349,943718,0.0-100.0-0.0,,,,,,,,,,,"[{""stimulus"":""run_exp/static/images/task_images/dig.jpg"",""time"":0.20000000298023224},{""stimulus"":""run_exp/static/images/task_images/land.jpg"",""time"":845.7000000029802},{""stimulus"":""run_exp/static/images/task_images/dig.jpg"",""time"":1686.0999999940395}]",[],21,,,,,,,,,,,,,,
harvest,350,944732,0.0-100.0-1.0,,null,run_exp/static/images/task_images/gems/77.jpg,null,,,,,,64,,,21,,,,,77,0.827781541,0.831168831,,,,,,,
decision,351,945467,0.0-100.0-2.0,,733.4,run_exp/static/images/task_images/land.jpg,65,,,,,,64,,,21,,,,,,,,292864,2,1,FALSE,,,
dig,352,947742,0.0-101.0-0.0,,,,,,,,,,,"[{""stimulus"":""run_exp/static/images/task_images/dig.jpg"",""time"":0.29999999701976776},{""stimulus"":""run_exp/static/images/task_images/land.jpg"",""time"":761.8999999910593},{""stimulus"":""run_exp/static/images/task_images/dig.jpg"",""time"":1525.8999999910593}]",[],21,,,,,,,,,,,,,,
harvest,353,948745,0.0-101.0-1.0,,null,run_exp/static/images/task_images/gems/64.jpg,null,,,,,,55,,,21,,,,,64,0.858701557,0.859375,,,,,,,
decision,354,948984,0.0-101.0-2.0,,236.8,run_exp/static/images/task_images/land.jpg,65,,,,,,55,,,21,,,,,,,,296381,2,2,FALSE,,,
dig,355,951767,0.0-102.0-0.0,,,,,,,,,,,"[{""stimulus"":""run_exp/static/images/task_images/dig.jpg"",""time"":0.20000000298023224},{""stimulus"":""run_exp/static/images/task_images/land.jpg"",""time"":925.3000000119209},{""stimulus"":""run_exp/static/images/task_images/dig.jpg"",""time"":1857.300000011921}]",[],21,,,,,,,,,,,,,,
harvest,356,952770,0.0-102.0-1.0,,null,run_exp/static/images/task_images/gems/55.jpg,null,,,,,,46,,,21,,,,,55,0.840753337,0.836363636,,,,,,,
decision,357,952983,0.0-102.0-2.0,,211.2,run_exp/static/images/task_images/land.jpg,65,,,,,,46,,,21,,,,,,,,300380,2,3,TRUE,,,
end_of_block_continue,358,961819,0.0-103.0-0.0,,null,run_exp/static/audio/clip_32_block_end.m4a,,,,,,null,,,,,,,,,,,,,,,,,,
alien_welcome,359,966831,0.0-104.0-0.0,,null,run_exp/static/images/task_images/aliens/old_aliens/planet/alien_planet-15.jpg,null,,,,,,,,,,,,15,"2,43,77,80,73,40,23,41,11,50,28,58,21,4,35,31,63,42,70,52,65,15,25,49,14,53,19,24,22,76,34,5,57,29,59,12,8,30,17,45,44,27,10,56,51",,,,,,,,,,
land,360,967344,0.0-104.0-1.0,,null,run_exp/static/images/task_images/land.jpg,null,,,,,,86,,,22,,,,,,,,,,,,,,
dig,361,969353,0.0-104.0-2.0,,,,,,,,,,,"[{""stimulus"":""run_exp/static/images/task_images/dig.jpg"",""time"":0.3999999910593033},{""stimulus"":""run_exp/static/images/task_images/land.jpg"",""time"":682.2000000029802},{""stimulus"":""run_exp/static/images/task_images/dig.jpg"",""time"":1339.5999999940395}]",[],22,,,,,,,,,,,,,,
harvest,362,970368,0.0-104.0-3.0,,null,run_exp/static/images/task_images/gems/86.jpg,null,,,,,,39,,,22,,,,,86,0.452901594,0.453488372,,,,,,,
decision,363,971562,0.0-104.0-4.0,,1192.4,run_exp/static/images/task_images/land.jpg,65,,,,,,39,,,22,,,,,,,,9739,3,0,FALSE,,,
dig,364,973389,0.0-105.0-0.0,,,,,,,,,,,"[{""stimulus"":""run_exp/static/images/task_images/dig.jpg"",""time"":0.20000000298023224},{""stimulus"":""run_exp/static/images/task_images/land.jpg"",""time"":607.5999999940395},{""stimulus"":""run_exp/static/images/task_images/dig.jpg"",""time"":1216.5999999940395}]",[],22,,,,,,,,,,,,,,
harvest,365,974403,0.0-105.0-1.0,,null,run_exp/static/images/task_images/gems/39.jpg,null,,,,,,16,,,22,,,,,39,0.416153159,0.41025641,,,,,,,
decision,366,974711,0.0-105.0-2.0,,306.4,run_exp/static/images/task_images/land.jpg,76,,,,,,16,,,22,,,,,,,,12888,3,1,TRUE,,,
travel,367,984412,0.0-106.0-0.0,,,,,,,,,,,"[{""stimulus"":""run_exp/static/images/task_images/rocket-01.jpg"",""time"":0.29999999701976776},{""stimulus"":""run_exp/static/images/task_images/rocket-02.jpg"",""time"":1088.3999999910593},{""stimulus"":""run_exp/static/images/task_images/rocket-03.jpg"",""time"":2162.0999999940395},{""stimulus"":""run_exp/static/images/task_images/rocket-04.jpg"",""time"":3239.2999999970198},{""stimulus"":""run_exp/static/images/task_images/rocket-05.jpg"",""time"":4309.29999999702},{""stimulus"":""run_exp/static/images/task_images/rocket-06.jpg"",""time"":5402.29999999702},{""stimulus"":""run_exp/static/images/task_images/rocket-07.jpg"",""time"":6468},{""stimulus"":""run_exp/static/images/task_images/rocket-08.jpg"",""time"":7543.5},{""stimulus"":""run_exp/static/images/task_images/rocket-09.jpg"",""time"":8620.59999999404}]",[],22,,,,,,,,,,,,,,
alien_welcome,368,989429,0.0-106.0-1.0,,null,run_exp/static/images/task_images/aliens/old_aliens/planet/alien_planet-25.jpg,null,,,,,,,,,,,,25,"2,43,77,80,73,40,23,41,11,50,28,58,21,4,35,31,63,42,70,52,65,15,25,49,14,53,19,24,22,76,34,5,57,29,59,12,8,30,17,45,44,27,10,56,51",,,,,,,,,,
land,369,989942,0.0-106.0-2.0,,null,run_exp/static/images/task_images/land.jpg,null,,,,,,99,,,23,,,,,,,,,,,,,,
dig,370,991947,0.0-106.0-3.0,,,,,,,,,,,"[{""stimulus"":""run_exp/static/images/task_images/dig.jpg"",""time"":0.29999999701976776},{""stimulus"":""run_exp/static/images/task_images/land.jpg"",""time"":674.9000000059605},{""stimulus"":""run_exp/static/images/task_images/dig.jpg"",""time"":1347.9000000059605}]",[],23,,,,,,,,,,,,,,
harvest,371,992963,0.0-106.0-4.0,,null,run_exp/static/images/task_images/gems/99.jpg,null,,,,,,75,,,23,,,,,99,0.762254287,0.757575758,,,,,,,
decision,372,995841,0.0-106.0-5.0,,2876,run_exp/static/images/task_images/land.jpg,65,,,,,,75,,,23,,,,,,,,34018,3,0,FALSE,,,
dig,373,995978,0.0-107.0-0.0,,,,,,,,,,,"[{""stimulus"":""run_exp/static/images/task_images/dig.jpg"",""time"":0.20000000298023224},{""stimulus"":""run_exp/static/images/task_images/land.jpg"",""time"":46.8999999910593},{""stimulus"":""run_exp/static/images/task_images/dig.jpg"",""time"":83.70000000298023}]",[],23,,,,,,,,,,,,,,
harvest,374,996985,0.0-107.0-1.0,,null,run_exp/static/images/task_images/gems/75.jpg,null,,,,,,68,,,23,,,,,75,0.901241967,0.906666667,,,,,,,
decision,375,997630,0.0-107.0-2.0,,643.9,run_exp/static/images/task_images/land.jpg,65,,,,,,68,,,23,,,,,,,,35807,3,1,FALSE,,,
dig,376,999999,0.0-108.0-0.0,,,,,,,,,,,"[{""stimulus"":""run_exp/static/images/task_images/dig.jpg"",""time"":0.29999999701976776},{""stimulus"":""run_exp/static/images/task_images/land.jpg"",""time"":790.9000000059605},{""stimulus"":""run_exp/static/images/task_images/dig.jpg"",""time"":1586.2999999970198}]",[],23,,,,,,,,,,,,,,
harvest,377,1001009,0.0-108.0-1.0,,null,run_exp/static/images/task_images/gems/68.jpg,null,,,,,,53,,,23,,,,,68,0.779583015,0.779411765,,,,,,,
decision,378,1001389,0.0-108.0-2.0,,379.2,run_exp/static/images/task_images/land.jpg,65,,,,,,53,,,23,,,,,,,,39566,3,2,FALSE,,,
dig,379,1004022,0.0-109.0-0.0,,,,,,,,,,,"[{""stimulus"":""run_exp/static/images/task_images/dig.jpg"",""time"":0.29999999701976776},{""stimulus"":""run_exp/static/images/task_images/land.jpg"",""time"":881.5},{""stimulus"":""run_exp/static/images/task_images/dig.jpg"",""time"":1757.7000000029802}]",[],23,,,,,,,,,,,,,,
harvest,380,1005025,0.0-109.0-1.0,,null,run_exp/static/images/task_images/gems/53.jpg,null,,,,,,46,,,23,,,,,53,0.858853615,0.867924528,,,,,,,
decision,381,1005082,0.0-109.0-2.0,,55.40000001,run_exp/static/images/task_images/land.jpg,65,,,,,,46,,,23,,,,,,,,43259,3,3,FALSE,,,
dig,382,1008034,0.0-110.0-0.0,,,,,,,,,,,"[{""stimulus"":""run_exp/static/images/task_images/dig.jpg"",""time"":0.29999999701976776},{""stimulus"":""run_exp/static/images/task_images/land.jpg"",""time"":994.5},{""stimulus"":""run_exp/static/images/task_images/dig.jpg"",""time"":1963.7000000029802}]",[],23,,,,,,,,,,,,,,
harvest,383,1009049,0.0-110.0-1.0,,null,run_exp/static/images/task_images/gems/46.jpg,null,,,,,,37,,,23,,,,,46,0.795229731,0.804347826,,,,,,,
decision,384,1009255,0.0-110.0-2.0,,204.1,run_exp/static/images/task_images/land.jpg,65,,,,,,37,,,23,,,,,,,,47433,3,4,FALSE,,,
dig,385,1012069,0.0-111.0-0.0,,,,,,,,,,,"[{""stimulus"":""run_exp/static/images/task_images/dig.jpg"",""time"":0.5999999940395355},{""stimulus"":""run_exp/static/images/task_images/land.jpg"",""time"":935.3999999910593},{""stimulus"":""run_exp/static/images/task_images/dig.jpg"",""time"":1870.5999999940395}]",[],23,,,,,,,,,,,,,,
harvest,386,1013072,0.0-111.0-1.0,,null,run_exp/static/images/task_images/gems/37.jpg,null,,,,,,32,,,23,,,,,37,0.86403755,0.864864865,,,,,,,
decision,387,1013146,0.0-111.0-2.0,,72,run_exp/static/images/task_images/land.jpg,76,,,,,,32,,,23,,,,,,,,51323,3,5,TRUE,,,
travel,388,1023091,0.0-112.0-0.0,,,,,,,,,,,"[{""stimulus"":""run_exp/static/images/task_images/rocket-01.jpg"",""time"":0.20000000298023224},{""stimulus"":""run_exp/static/images/task_images/rocket-02.jpg"",""time"":1112.2999999970198},{""stimulus"":""run_exp/static/images/task_images/rocket-03.jpg"",""time"":2209.2000000029802},{""stimulus"":""run_exp/static/images/task_images/rocket-04.jpg"",""time"":3315.2000000029802},{""stimulus"":""run_exp/static/images/task_images/rocket-05.jpg"",""time"":4413.4000000059605},{""stimulus"":""run_exp/static/images/task_images/rocket-06.jpg"",""time"":5524.79999999702},{""stimulus"":""run_exp/static/images/task_images/rocket-07.jpg"",""time"":6620.0999999940395},{""stimulus"":""run_exp/static/images/task_images/rocket-08.jpg"",""time"":7736.5},{""stimulus"":""run_exp/static/images/task_images/rocket-09.jpg"",""time"":8833.59999999404}]",[],23,,,,,,,,,,,,,,
alien_welcome,389,1028094,0.0-112.0-1.0,,null,run_exp/static/images/task_images/aliens/old_aliens/planet/alien_planet-49.jpg,null,,,,,,,,,,,,49,"2,43,77,80,73,40,23,41,11,50,28,58,21,4,35,31,63,42,70,52,65,15,25,49,14,53,19,24,22,76,34,5,57,29,59,12,8,30,17,45,44,27,10,56,51",,,,,,,,,,
land,390,1028608,0.0-112.0-2.0,,null,run_exp/static/images/task_images/land.jpg,null,,,,,,103,,,24,,,,,,,,,,,,,,
dig,391,1030613,0.0-112.0-3.0,,,,,,,,,,,"[{""stimulus"":""run_exp/static/images/task_images/dig.jpg"",""time"":0.3999999910593033},{""stimulus"":""run_exp/static/images/task_images/land.jpg"",""time"":674},{""stimulus"":""run_exp/static/images/task_images/dig.jpg"",""time"":1347.7000000029802}]",[],24,,,,,,,,,,,,,,
harvest,392,1031628,0.0-112.0-4.0,,null,run_exp/static/images/task_images/gems/103.jpg,null,,,,,,48,,,24,,,,,103,0.468600761,0.466019417,,,,,,,
