trial_type,trial_index,time_elapsed,internal_node_id,interactions,blur_events,focus_events,fullscreenenter_events,fullscreenexit_events,success,rt,stimulus,key_press,prompt,subject_id,participant_id,age,gender,button_pressed,next_reward,animation_sequence,responses,planet,curr_prac_trial,n_prac_rounds,alien,aliens,reward_received,decay_rate_actual,decay_rate_exp,time_in_block,block_num,prt,last_trial_on_planet,button_html,bonus,num_failures
pavlovia,0,3,0.0-0.0,"""event"",""trial"",""time""
""fullscreenenter"",""1"",""4618""
","
","
","""event"",""trial"",""time""
""fullscreenenter"",""1"",""4618""
","
",,,,,,,,,,,,,,,,,,,,,,,,,,,,
fullscreen,1,5587,0.0-1.0,"""event"",""trial"",""time""
""fullscreenenter"",""1"",""4618""
","
","
","""event"",""trial"",""time""
""fullscreenenter"",""1"",""4618""
","
",TRUE,,,,,,,,,,,,,,,,,,,,,,,,,,,
instruc_welcome,2,15619,0.0-2.0,"""event"",""trial"",""time""
""fullscreenenter"",""1"",""4618""
","
","
","""event"",""trial"",""time""
""fullscreenenter"",""1"",""4618""
","
",,null,run_exp/static/audio/clip_1_welcome.m4a,null,"<p>Howdy! In this experiment, you’ll be an explorer traveling through space to collect space treasure.</p><p>Your mission is to collect as much treasure as possible.</p><br><br><p><img src='run_exp/static/images/task_images/opening_img-01.jpg' height='300' width='auto'></p>",12492,1889,9.37,Male,,,,,,,,,,,,,,,,,,,
audio-keyboard-response,3,32220,0.0-3.0,"""event"",""trial"",""time""
""fullscreenenter"",""1"",""4618""
","
","
","""event"",""trial"",""time""
""fullscreenenter"",""1"",""4618""
","
",,null,run_exp/static/audio/clip_2_move.m4a,null,,,,,,,,,,,,,,,,,,,,,,,,
welcome_dec,4,32954,0.0-4.0,"""event"",""trial"",""time""
""fullscreenenter"",""1"",""4618""
","
","
","""event"",""trial"",""time""
""fullscreenenter"",""1"",""4618""
","
",,731.1000001,"<p>Howdy! In this experiment, you’ll be an explorer traveling through space to collect space treasure.</p><p>Your mission is to collect as much treasure as possible.</p><br><br><p><img src='run_exp/static/images/task_images/opening_img-01.jpg' height='300' width='auto'></p>",,,,,,,1,,,,,,,,,,,,,,,,,,
html-keyboard-response,5,34129,0.0-5.0,"""event"",""trial"",""time""
""fullscreenenter"",""1"",""4618""
","
","
","""event"",""trial"",""time""
""fullscreenenter"",""1"",""4618""
","
",,1174.1,"<p>Howdy! In this experiment, you’ll be an explorer traveling through space to collect space treasure.</p><p>Your mission is to collect as much treasure as possible.</p><br><br><p><img src='run_exp/static/images/task_images/opening_img-01.jpg' height='300' width='auto'></p><button class=""jspsych-html-btn-unchosen""><img src=""run_exp/static/images/task_images/planet-01.jpg"" height=""50""></button><button class=""jspsych-html-btn-chosen""><img src=""run_exp/static/images/task_images/planet-02.jpg"" height=""50""></button><p><b>[press the space bar to lock in your answer]<b><br></p>",32,,,,,,,,,,,,,,,,,,,,,,,,
instruc_goal,6,44221,0.0-6.0-0.0,"""event"",""trial"",""time""
""fullscreenenter"",""1"",""4618""
","
","
","""event"",""trial"",""time""
""fullscreenenter"",""1"",""4618""
","
",,null,run_exp/static/audio/clip_3_goal.m4a,null,"<p> As a space explorer, you’ll visit different planets to dig for space treasure, these pink gems.</p> <p> The more treasure you dig up, the more bonus money you’ll win! </p><br><br><p><img src='run_exp/static/images/task_images/pink_gem.jpg' height='300' width='auto'></p>",,,,,,,,,,,,,,,,,,,,,,,
instruc_goal,7,46754,0.0-6.0-1.0,"""event"",""trial"",""time""
""fullscreenenter"",""1"",""4618""
","
","
","""event"",""trial"",""time""
""fullscreenenter"",""1"",""4618""
","
",,2531.2,"<p> As a space explorer, you’ll visit different planets to dig for space treasure, these pink gems.</p> <p> The more treasure you dig up, the more bonus money you’ll win! </p><br><br><p><img src='run_exp/static/images/task_images/pink_gem.jpg' height='300' width='auto'></p>",,,,,,,1,,,,,,,,,,,,,,,,,,
html-keyboard-response,8,48051,0.0-6.0-2.0,"""event"",""trial"",""time""
""fullscreenenter"",""1"",""4618""
","
","
","""event"",""trial"",""time""
""fullscreenenter"",""1"",""4618""
","
",,1296.5,"<p> As a space explorer, you’ll visit different planets to dig for space treasure, these pink gems.</p> <p> The more treasure you dig up, the more bonus money you’ll win! </p><br><br><p><img src='run_exp/static/images/task_images/pink_gem.jpg' height='300' width='auto'></p><button class=""jspsych-html-btn-unchosen""><img src=""run_exp/static/images/task_images/planet-01.jpg"" height=""50""></button><button class=""jspsych-html-btn-chosen""><img src=""run_exp/static/images/task_images/planet-02.jpg"" height=""50""></button><p><b>[press the space bar to lock in your answer]<b><br></p>",32,,,,,,,,,,,,,,,,,,,,,,,,
instruc_dig,9,64077,0.0-7.0-0.0,"""event"",""trial"",""time""
""fullscreenenter"",""1"",""4618""
","
","
","""event"",""trial"",""time""
""fullscreenenter"",""1"",""4618""
","
",,null,run_exp/static/audio/clip_4_dig.m4a,null,,,,,,,100,,,,,,,,,,,,,,,,,
instruc_dig_try,10,64336,0.0-7.0-1.0,"""event"",""trial"",""time""
""fullscreenenter"",""1"",""4618""
","
","
","""event"",""trial"",""time""
""fullscreenenter"",""1"",""4618""
","
",,257.3,"<p> When you’ve arrived at a new planet, you will dig once. </p> <p>Then, you get to decide if you want to stay on the planet and dig again or travel to a new planet and dig there.</p> <p> To stay and dig, press the letter <strong>‘A’</strong> on your keyboard. Try pressing it now! </p><p><img src='run_exp/static/images/task_images/land.jpg'  height='700' width='auto'></p>",65,"<p> When you’ve arrived at a new planet, you will dig once. </p> <p>Then, you get to decide if you want to stay on the planet and dig again or travel to a new planet and dig there.</p> <p> To stay and dig, press the letter <strong>‘A’</strong> on your keyboard. Try pressing it now! </p><p><img src='run_exp/static/images/task_images/land.jpg'  height='700' width='auto'></p>",,,,,,100,,,,,,,,,,,,,,,,,
dig_prac,11,66365,0.0-7.0-2.0,"""event"",""trial"",""time""
""fullscreenenter"",""1"",""4618""
","
","
","""event"",""trial"",""time""
""fullscreenenter"",""1"",""4618""
","
",,,,,,,,,,,,"[{""stimulus"":""run_exp/static/images/task_images/dig.jpg"",""time"":0.2999999523162842},{""stimulus"":""run_exp/static/images/task_images/land.jpg"",""time"":678.7999999523163},{""stimulus"":""run_exp/static/images/task_images/dig.jpg"",""time"":1339.5}]",[],,,,,,,,,,,,,,,
instruc_travel,12,102619,0.0-7.0-3.0,"""event"",""trial"",""time""
""fullscreenenter"",""1"",""4618""
","
","
","""event"",""trial"",""time""
""fullscreenenter"",""1"",""4618""
","
",,null,run_exp/static/audio/clip_5_travel.m4a,null,"<p>Every time you dig up gems, there are less gems on the planet, so the more you dig on a planet the fewer gems you’ll get with each dig.</p><p>When gems are running low, you may want to travel to a new planet. </p> <p>  Planets are very far apart in this galaxy, so it will take some time to travel between them. </p> <br><p>There are lots and lots of planets for you to visit, so you won’t be able to return to any planets you’ve seen before. </p><br><p>To leave this planet and travel to a new one, press the letter <strong>‘L’</strong> on your keyboard. Try pressing it now! </p><p><img src='run_exp/static/images/task_images/rocket-01.jpg'  height='600' width='auto'></p>",,,,,,,,,,,,,,,,,,,,,,,
instruc_travel_try,13,104805,0.0-7.0-4.0,"""event"",""trial"",""time""
""fullscreenenter"",""1"",""4618""
","
","
","""event"",""trial"",""time""
""fullscreenenter"",""1"",""4618""
","
",,2184.8,"<p>Every time you dig up gems, there are less gems on the planet, so the more you dig on a planet the fewer gems you’ll get with each dig.</p><p>When gems are running low, you may want to travel to a new planet. </p> <p>  Planets are very far apart in this galaxy, so it will take some time to travel between them. </p> <br><p>There are lots and lots of planets for you to visit, so you won’t be able to return to any planets you’ve seen before. </p><br><p>To leave this planet and travel to a new one, press the letter <strong>‘L’</strong> on your keyboard. Try pressing it now! </p><p><img src='run_exp/static/images/task_images/rocket-01.jpg'  height='600' width='auto'></p>",76,"<p>Every time you dig up gems, there are less gems on the planet, so the more you dig on a planet the fewer gems you’ll get with each dig.</p><p>When gems are running low, you may want to travel to a new planet. </p> <p>  Planets are very far apart in this galaxy, so it will take some time to travel between them. </p> <br><p>There are lots and lots of planets for you to visit, so you won’t be able to return to any planets you’ve seen before. </p><br><p>To leave this planet and travel to a new one, press the letter <strong>‘L’</strong> on your keyboard. Try pressing it now! </p><p><img src='run_exp/static/images/task_images/rocket-01.jpg'  height='600' width='auto'></p>",,,,,,,,,,,,,,,,,,,,,,,
travel_prac,14,114818,0.0-7.0-5.0,"""event"",""trial"",""time""
""fullscreenenter"",""1"",""4618""
","
","
","""event"",""trial"",""time""
""fullscreenenter"",""1"",""4618""
","
",,,,,,,,,,,,"[{""stimulus"":""run_exp/static/images/task_images/rocket-01.jpg"",""time"":0.10000014305114746},{""stimulus"":""run_exp/static/images/task_images/rocket-02.jpg"",""time"":1117.6000001430511},{""stimulus"":""run_exp/static/images/task_images/rocket-03.jpg"",""time"":2228.300000190735},{""stimulus"":""run_exp/static/images/task_images/rocket-04.jpg"",""time"":3339.9000000953674},{""stimulus"":""run_exp/static/images/task_images/rocket-05.jpg"",""time"":4457.700000047684},{""stimulus"":""run_exp/static/images/task_images/rocket-06.jpg"",""time"":5559.600000143051},{""stimulus"":""run_exp/static/images/task_images/rocket-07.jpg"",""time"":6680.5},{""stimulus"":""run_exp/static/images/task_images/rocket-08.jpg"",""time"":7782.100000143051},{""stimulus"":""run_exp/static/images/task_images/rocket-09.jpg"",""time"":8902.700000047684}]",[],0,,,,,,,,,,,,,,
instruc_alien_greet,15,142009,0.0-7.0-6.0,"""event"",""trial"",""time""
""fullscreenenter"",""1"",""4618""
","
","
","""event"",""trial"",""time""
""fullscreenenter"",""1"",""4618""
","
",,null,run_exp/static/audio/clip_6_alien.m4a,null,"<p>When you arrive at a new planet, the alien who owns the treasure mine on that planet will greet you!</p><p>The better an alien takes care of their mine the easier it is to dig for gems. Some aliens take better care of their mine than others. So, you won’t get exactly the same amount of gems on each planet.</p><p>What the alien looks like does not tell you anything about how many gems there are on the planet.</p><br><p><img src=""run_exp/static/images/task_images/aliens/instructions_aliens/planet/alien_planet-1.jpg""  height=""600"" width=""auto""></p>",,,,,,,,,,,,,,,,,,,,,,,
instruc_alien_greet,16,159942,0.0-7.0-7.0,"""event"",""trial"",""time""
""fullscreenenter"",""1"",""4618""
","
","
","""event"",""trial"",""time""
""fullscreenenter"",""1"",""4618""
","
",,17930.2,"<p>When you arrive at a new planet, the alien who owns the treasure mine on that planet will greet you!</p><p>The better an alien takes care of their mine the easier it is to dig for gems. Some aliens take better care of their mine than others. So, you won’t get exactly the same amount of gems on each planet.</p><p>What the alien looks like does not tell you anything about how many gems there are on the planet.</p><br><p><img src=""run_exp/static/images/task_images/aliens/instructions_aliens/planet/alien_planet-1.jpg""  height=""600"" width=""auto""></p>",,,,,,,1,,,,,,,,,,,,,,,,,,
html-keyboard-response,17,161116,0.0-7.0-8.0,"""event"",""trial"",""time""
""fullscreenenter"",""1"",""4618""
","
","
","""event"",""trial"",""time""
""fullscreenenter"",""1"",""4618""
","
",,1172.1,"<p>When you arrive at a new planet, the alien who owns the treasure mine on that planet will greet you!</p><p>The better an alien takes care of their mine the easier it is to dig for gems. Some aliens take better care of their mine than others. So, you won’t get exactly the same amount of gems on each planet.</p><p>What the alien looks like does not tell you anything about how many gems there are on the planet.</p><br><p><img src=""run_exp/static/images/task_images/aliens/instructions_aliens/planet/alien_planet-1.jpg""  height=""600"" width=""auto""></p><button class=""jspsych-html-btn-unchosen""><img src=""run_exp/static/images/task_images/planet-01.jpg"" height=""50""></button><button class=""jspsych-html-btn-chosen""><img src=""run_exp/static/images/task_images/planet-02.jpg"" height=""50""></button><p><b>[press the space bar to lock in your answer]<b><br></p>",32,,,,,,,,,,,,,,,,,,,,,,,,
time_out,18,172421,0.0-8.0-0.0,"""event"",""trial"",""time""
""fullscreenenter"",""1"",""4618""
","
","
","""event"",""trial"",""time""
""fullscreenenter"",""1"",""4618""
","
",,null,run_exp/static/audio/clip_7_timeout.m4a,null,"<p>If you don't make your choice fast enough, you’ll have to wait a few seconds before you can make another one.</p><p>You can’t dig for more gems or travel to new planets. You just have to sit and wait.</p><br><p><img src='run_exp/static/images/task_images/time_out.jpg'  height='600' width='auto'></p>",,,,,,,,,,,,,,,,,,,,,,,
time_out,19,175180,0.0-8.0-1.0,"""event"",""trial"",""time""
""fullscreenenter"",""1"",""4618""
","
","
","""event"",""trial"",""time""
""fullscreenenter"",""1"",""4618""
","
",,2756.5,"<p>If you don't make your choice fast enough, you’ll have to wait a few seconds before you can make another one.</p><p>You can’t dig for more gems or travel to new planets. You just have to sit and wait.</p><br><p><img src='run_exp/static/images/task_images/time_out.jpg'  height='600' width='auto'></p>",,,,,,,1,,,,,,,,,,,,,,,,,,
html-keyboard-response,20,177369,0.0-8.0-2.0,"""event"",""trial"",""time""
""fullscreenenter"",""1"",""4618""
","
","
","""event"",""trial"",""time""
""fullscreenenter"",""1"",""4618""
","
",,2188.1,"<p>If you don't make your choice fast enough, you’ll have to wait a few seconds before you can make another one.</p><p>You can’t dig for more gems or travel to new planets. You just have to sit and wait.</p><br><p><img src='run_exp/static/images/task_images/time_out.jpg'  height='600' width='auto'></p><button class=""jspsych-html-btn-unchosen""><img src=""run_exp/static/images/task_images/planet-01.jpg"" height=""50""></button><button class=""jspsych-html-btn-chosen""><img src=""run_exp/static/images/task_images/planet-02.jpg"" height=""50""></button><p><b>[press the space bar to lock in your answer]<b><br></p>",32,,,,,,,,,,,,,,,,,,,,,,,,
instruc_break,21,193065,0.0-9.0-0.0,"""event"",""trial"",""time""
""fullscreenenter"",""1"",""4618""
","
","
","""event"",""trial"",""time""
""fullscreenenter"",""1"",""4618""
","
",,null,run_exp/static/audio/clip_8_break.m4a,null,"<p> After digging and traveling for a while, you’ll be able to take a break at home base. </p><p>The game will last 20 minutes no matter what.</p><p>You will visit home base every 5 minutes, so, you will visit home base three times during the game.</p><br><p><img src='run_exp/static/images/task_images/home_base.jpg' height='600' width='auto'></p>",,,,,,,,,,,,,,,,,,,,,,,
instruc_break,22,196720,0.0-9.0-1.0,"""event"",""trial"",""time""
""fullscreenenter"",""1"",""4618""
","
","
","""event"",""trial"",""time""
""fullscreenenter"",""1"",""4618""
","
",,3653.1,"<p> After digging and traveling for a while, you’ll be able to take a break at home base. </p><p>The game will last 20 minutes no matter what.</p><p>You will visit home base every 5 minutes, so, you will visit home base three times during the game.</p><br><p><img src='run_exp/static/images/task_images/home_base.jpg' height='600' width='auto'></p>",,,,,,,1,,,,,,,,,,,,,,,,,,
html-keyboard-response,23,198470,0.0-9.0-2.0,"""event"",""trial"",""time""
""fullscreenenter"",""1"",""4618""
","
","
","""event"",""trial"",""time""
""fullscreenenter"",""1"",""4618""
","
",,1749.1,"<p> After digging and traveling for a while, you’ll be able to take a break at home base. </p><p>The game will last 20 minutes no matter what.</p><p>You will visit home base every 5 minutes, so, you will visit home base three times during the game.</p><br><p><img src='run_exp/static/images/task_images/home_base.jpg' height='600' width='auto'></p><button class=""jspsych-html-btn-unchosen""><img src=""run_exp/static/images/task_images/planet-01.jpg"" height=""50""></button><button class=""jspsych-html-btn-chosen""><img src=""run_exp/static/images/task_images/planet-02.jpg"" height=""50""></button><p><b>[press the space bar to lock in your answer]<b><br></p>",32,,,,,,,,,,,,,,,,,,,,,,,,
instruc_prac_game,24,208605,0.0-10.0-0.0,"""event"",""trial"",""time""
""fullscreenenter"",""1"",""4618""
","
","
","""event"",""trial"",""time""
""fullscreenenter"",""1"",""4618""
","
",,null,run_exp/static/audio/clip_9_practice.m4a,null,"<p> Are you ready to play a practice game? </p> <p>In this practice game, you'll be digging up barrels of gems. But, in the real game, you'll be digging up the gems themselves. </p>",,,,,,,,,,,,,,,,,,,,,,,
html-button-response,25,209904,0.0-10.0-1.0,"""event"",""trial"",""time""
""fullscreenenter"",""1"",""4618""
","
","
","""event"",""trial"",""time""
""fullscreenenter"",""1"",""4618""
","
",,1297.6,"<p> Are you ready to play a practice game? </p> <p>In this practice game, you'll be digging up barrels of gems. But, in the real game, you'll be digging up the gems themselves. </p>",,,,,,,0,,,,,,,,,,,,,,,,,,
alien_welcome_prac,26,214917,0.0-11.0-0.0,"""event"",""trial"",""time""
""fullscreenenter"",""1"",""4618""
","
","
","""event"",""trial"",""time""
""fullscreenenter"",""1"",""4618""
","
",,null,run_exp/static/images/task_images/aliens/practice_aliens/planet/alien_planet-5.jpg,null,,,,,,,,,,,,,,,,,,,,,,,,
land_prac,27,215439,0.0-11.0-1.0,"""event"",""trial"",""time""
""fullscreenenter"",""1"",""4618""
","
","
","""event"",""trial"",""time""
""fullscreenenter"",""1"",""4618""
","
",,null,run_exp/static/images/task_images/land.jpg,null,,,,,,,105,,,0,,,,,,,,,,,,,,
dig_prac,28,217452,0.0-11.0-2.0,"""event"",""trial"",""time""
""fullscreenenter"",""1"",""4618""
","
","
","""event"",""trial"",""time""
""fullscreenenter"",""1"",""4618""
","
",,,,,,,,,,,,"[{""stimulus"":""run_exp/static/images/task_images/dig.jpg"",""time"":0.20000004768371582},{""stimulus"":""run_exp/static/images/task_images/land.jpg"",""time"":677},{""stimulus"":""run_exp/static/images/task_images/dig.jpg"",""time"":1337.9000000953674}]",[],,,,,,,,,,,,,,,
harvest_prac,29,218470,0.0-11.0-3.0,"""event"",""trial"",""time""
""fullscreenenter"",""1"",""4618""
","
","
","""event"",""trial"",""time""
""fullscreenenter"",""1"",""4618""
","
",,null,run_exp/static/images/task_images/barrel_text.jpg,null,,,,,,,,,,,,,,,,,,,,,,,,
decision_prac,30,219552,0.0-11.0-4.0,"""event"",""trial"",""time""
""fullscreenenter"",""1"",""4618""
","
","
","""event"",""trial"",""time""
""fullscreenenter"",""1"",""4618""
","
",,1080.7,run_exp/static/images/task_images/land.jpg,65,,,,,,,,,,,1,,,,,,,,,,,,,
dig_prac,31,221563,0.0-12.0-0.0,"""event"",""trial"",""time""
""fullscreenenter"",""1"",""4618""
","
","
","""event"",""trial"",""time""
""fullscreenenter"",""1"",""4618""
","
",,,,,,,,,,,,"[{""stimulus"":""run_exp/static/images/task_images/dig.jpg"",""time"":0.6999998092651367},{""stimulus"":""run_exp/static/images/task_images/land.jpg"",""time"":672.5},{""stimulus"":""run_exp/static/images/task_images/dig.jpg"",""time"":1346.5}]",[],,,,,,,,,,,,,,,
harvest_prac,32,222576,0.0-12.0-1.0,"""event"",""trial"",""time""
""fullscreenenter"",""1"",""4618""
","
","
","""event"",""trial"",""time""
""fullscreenenter"",""1"",""4618""
","
",,null,run_exp/static/images/task_images/barrel_text.jpg,null,,,,,,,,,,,,,,,,,,,,,,,,
decision_prac,33,223019,0.0-12.0-2.0,"""event"",""trial"",""time""
""fullscreenenter"",""1"",""4618""
","
","
","""event"",""trial"",""time""
""fullscreenenter"",""1"",""4618""
","
",,442.4000001,run_exp/static/images/task_images/land.jpg,65,,,,,,,,,,,2,,,,,,,,,,,,,
dig_prac,34,225024,0.0-13.0-0.0,"""event"",""trial"",""time""
""fullscreenenter"",""1"",""4618""
","
","
","""event"",""trial"",""time""
""fullscreenenter"",""1"",""4618""
","
",,,,,,,,,,,,"[{""stimulus"":""run_exp/static/images/task_images/dig.jpg"",""time"":0.09999990463256836},{""stimulus"":""run_exp/static/images/task_images/land.jpg"",""time"":672.8999998569489},{""stimulus"":""run_exp/static/images/task_images/dig.jpg"",""time"":1339.5}]",[],,,,,,,,,,,,,,,
harvest_prac,35,226044,0.0-13.0-1.0,"""event"",""trial"",""time""
""fullscreenenter"",""1"",""4618""
","
","
","""event"",""trial"",""time""
""fullscreenenter"",""1"",""4618""
","
",,null,run_exp/static/images/task_images/barrel_text.jpg,null,,,,,,,,,,,,,,,,,,,,,,,,
decision_prac,36,227555,0.0-13.0-2.0,"""event"",""trial"",""time""
""fullscreenenter"",""1"",""4618""
","
","
","""event"",""trial"",""time""
""fullscreenenter"",""1"",""4618""
","
",,1509.8,run_exp/static/images/task_images/land.jpg,65,,,,,,,,,,,3,,,,,,,,,,,,,
dig_prac,37,229562,0.0-14.0-0.0,"""event"",""trial"",""time""
""fullscreenenter"",""1"",""4618""
","
","
","""event"",""trial"",""time""
""fullscreenenter"",""1"",""4618""
","
",,,,,,,,,,,,"[{""stimulus"":""run_exp/static/images/task_images/dig.jpg"",""time"":0.09999990463256836},{""stimulus"":""run_exp/static/images/task_images/land.jpg"",""time"":680},{""stimulus"":""run_exp/static/images/task_images/dig.jpg"",""time"":1345.5999999046326}]",[],,,,,,,,,,,,,,,
harvest_prac,38,230569,0.0-14.0-1.0,"""event"",""trial"",""time""
""fullscreenenter"",""1"",""4618""
","
","
","""event"",""trial"",""time""
""fullscreenenter"",""1"",""4618""
","
",,null,run_exp/static/images/task_images/barrel_text.jpg,null,,,,,,,,,,,,,,,,,,,,,,,,
decision_prac,39,231302,0.0-14.0-2.0,"""event"",""trial"",""time""
""fullscreenenter"",""1"",""4618""
","
","
","""event"",""trial"",""time""
""fullscreenenter"",""1"",""4618""
","
",,731,run_exp/static/images/task_images/land.jpg,76,,,,,,,,,,,4,,,,,,,,,,,,,
travel,40,240567,0.0-15.0-0.0,"""event"",""trial"",""time""
""fullscreenenter"",""1"",""4618""
","
","
","""event"",""trial"",""time""
""fullscreenenter"",""1"",""4618""
","
",,,,,,,,,,,,"[{""stimulus"":""run_exp/static/images/task_images/rocket-01.jpg"",""time"":0.20000004768371582},{""stimulus"":""run_exp/static/images/task_images/rocket-02.jpg"",""time"":1043.7999999523163},{""stimulus"":""run_exp/static/images/task_images/rocket-03.jpg"",""time"":2064.4000000953674},{""stimulus"":""run_exp/static/images/task_images/rocket-04.jpg"",""time"":3089.600000143051},{""stimulus"":""run_exp/static/images/task_images/rocket-05.jpg"",""time"":4131},{""stimulus"":""run_exp/static/images/task_images/rocket-06.jpg"",""time"":5157.100000143051},{""stimulus"":""run_exp/static/images/task_images/rocket-07.jpg"",""time"":6189.100000143051},{""stimulus"":""run_exp/static/images/task_images/rocket-08.jpg"",""time"":7205.299999952316},{""stimulus"":""run_exp/static/images/task_images/rocket-09.jpg"",""time"":8238.600000143051}]",[],0,,,,,,,,,,,,,,
alien_welcome_prac,41,245585,0.0-15.0-1.0,"""event"",""trial"",""time""
""fullscreenenter"",""1"",""4618""
","
","
","""event"",""trial"",""time""
""fullscreenenter"",""1"",""4618""
","
",,null,run_exp/static/images/task_images/aliens/practice_aliens/planet/alien_planet-4.jpg,null,,,,,,,,,,,,,,,,,,,,,,,,
land_prac,42,246094,0.0-15.0-2.0,"""event"",""trial"",""time""
""fullscreenenter"",""1"",""4618""
","
","
","""event"",""trial"",""time""
""fullscreenenter"",""1"",""4618""
","
",,null,run_exp/static/images/task_images/land.jpg,null,,,,,,,107,,,0,,,,,,,,,,,,,,
dig_prac,43,248113,0.0-15.0-3.0,"""event"",""trial"",""time""
""fullscreenenter"",""1"",""4618""
","
","
","""event"",""trial"",""time""
""fullscreenenter"",""1"",""4618""
","
",,,,,,,,,,,,"[{""stimulus"":""run_exp/static/images/task_images/dig.jpg"",""time"":0.19999980926513672},{""stimulus"":""run_exp/static/images/task_images/land.jpg"",""time"":678.6999998092651},{""stimulus"":""run_exp/static/images/task_images/dig.jpg"",""time"":1338.7999999523163}]",[],,,,,,,,,,,,,,,
harvest_prac,44,249120,0.0-15.0-4.0,"""event"",""trial"",""time""
""fullscreenenter"",""1"",""4618""
","
","
","""event"",""trial"",""time""
""fullscreenenter"",""1"",""4618""
","
",,null,run_exp/static/images/task_images/barrel_text.jpg,null,,,,,,,,,,,,,,,,,,,,,,,,
decision_prac,45,251875,0.0-15.0-5.0,"""event"",""trial"",""time""
""fullscreenenter"",""1"",""4618""
","
","
","""event"",""trial"",""time""
""fullscreenenter"",""1"",""4618""
","
",,2753.8,run_exp/static/images/task_images/land.jpg,65,,,,,,,,,,,,1,,,,,,,,,,,,
quiz_instruc,46,262706,0.0-16.0-0.0,"""event"",""trial"",""time""
""fullscreenenter"",""1"",""4618""
","
","
","""event"",""trial"",""time""
""fullscreenenter"",""1"",""4618""
","
",,10827.7,run_exp/static/audio/clip_10_quiz.m4a,,,,,,,0,,,,,,,,,,,,,,,,,,
instruc_repeat,47,305485,0.0-16.0-1.0,"""event"",""trial"",""time""
""fullscreenenter"",""1"",""4618""
","
","
","""event"",""trial"",""time""
""fullscreenenter"",""1"",""4618""
","
",,null,"<p> Are you ready to play a practice game? </p> <p>In this practice game, you'll be digging up barrels of gems. But, in the real game, you'll be digging up the gems themselves. </p>",null,"<p>In this game, your goal is to collect as many gems as you can. That’s how you will win bonus money. </p> <p>The entire game will last 20 minutes no matter how many gems you collect or how many planets you visit. </p><p>To stay on a planet and dig again, press the letter A on your keyboard. To leave for a new planet, press the letter L.</p><p>The more you dig on a planet, the fewer gems you’ll get with each dig which is why you might consider leaving for a new planet. </p><p>When you arrive at a new planet, you’ll be greeted by an alien. What the alien looks like does not tell you anything about how much treasure is on the planet. </p>",,,,,,,,,,,,,,,,,,,,,,,
instruc_repeat_continue,48,306952,0.0-16.0-2.0,"""event"",""trial"",""time""
""fullscreenenter"",""1"",""4618""
","
","
","""event"",""trial"",""time""
""fullscreenenter"",""1"",""4618""
","
",,1465.7,"<p> Are you ready to play a practice game? </p> <p>In this practice game, you'll be digging up barrels of gems. But, in the real game, you'll be digging up the gems themselves. </p>",,,,,,,0,,,,,,,,,,,,,,,,,,
quiz_q_1_ask,49,310653,0.0-16.0-3.0,"""event"",""trial"",""time""
""fullscreenenter"",""1"",""4618""
","
","
","""event"",""trial"",""time""
""fullscreenenter"",""1"",""4618""
","
",,3699.8,run_exp/static/audio/clip_11_q1_ask.m4a,,,,,,,2,,,,,,,,,,,,,,,,,,
quiz_q_1_fb_correct,50,314502,0.0-17.0-0.0,"""event"",""trial"",""time""
""fullscreenenter"",""1"",""4618""
","
","
","""event"",""trial"",""time""
""fullscreenenter"",""1"",""4618""
","
",,null,run_exp/static/audio/clip_12_q1_correct.m4a,null,<p>That’s correct. You win extra money by collecting more gems.</p>,,,,,,,,,,,,,,,,,,,,,,,
quiz_q_2_ask,51,319762,0.0-17.0-1.0,"""event"",""trial"",""time""
""fullscreenenter"",""1"",""4618""
","
","
","""event"",""trial"",""time""
""fullscreenenter"",""1"",""4618""
","
",,5258.3,run_exp/static/audio/clip_14_q2_ask.m4a,,,,,,,1,,,,,,,,,,,,,,,,,,
quiz_q_2_fb_correct,52,323782,0.0-18.0-0.0,"""event"",""trial"",""time""
""fullscreenenter"",""1"",""4618""
","
","
","""event"",""trial"",""time""
""fullscreenenter"",""1"",""4618""
","
",,null,run_exp/static/audio/clip_15_q2_correct.m4a,null,<p>That’s correct. The experiment is 20 minutes no matter what.</p>,,,,,,,,,,,,,,,,,,,,,,,
quiz_q_3_ask,53,327504,0.0-18.0-1.0,"""event"",""trial"",""time""
""fullscreenenter"",""1"",""4618""
","
","
","""event"",""trial"",""time""
""fullscreenenter"",""1"",""4618""
","
",,3720.3,run_exp/static/audio/clip_17_q3_ask.m4a,,,,,,,1,,,,,,,,,,,,,,,,,,
quiz_q_3_fb_correct,54,331501,0.0-19.0-0.0,"""event"",""trial"",""time""
""fullscreenenter"",""1"",""4618""
","
","
","""event"",""trial"",""time""
""fullscreenenter"",""1"",""4618""
","
",,null,run_exp/static/audio/clip_18_q3_correct.m4a,null,<p> That’s correct. You press the letter L to travel to a new planet.</p>,,,,,,,,,,,,,,,,,,,,,,,
quiz_q_4_ask,55,335324,0.0-19.0-1.0,"""event"",""trial"",""time""
""fullscreenenter"",""1"",""4618""
","
","
","""event"",""trial"",""time""
""fullscreenenter"",""1"",""4618""
","
",,3820.6,run_exp/static/audio/clip_20_q4_ask.m4a,,,,,,,0,,,,,,,,,,,,,,,,,,
quiz_q_4_fb_correct,56,340664,0.0-20.0-0.0,"""event"",""trial"",""time""
""fullscreenenter"",""1"",""4618""
","
","
","""event"",""trial"",""time""
""fullscreenenter"",""1"",""4618""
","
",,null,run_exp/static/audio/clip_21_q4_correct.m4a,null,<p> That’s correct. The more you dig on a planet the fewer gems you’ll get with each dig. </p>,,,,,,,,,,,,,,,,,,,,,,,
quiz_q_5_ask,57,343408,0.0-20.0-1.0,"""event"",""trial"",""time""
""fullscreenenter"",""1"",""4618""
","
","
","""event"",""trial"",""time""
""fullscreenenter"",""1"",""4618""
","
",,2741.8,run_exp/static/audio/clip_23_q5_ask.m4a,,,,,,,1,,,,,,,,,,,,,,,,,,
quiz_q_5_fb_correct,58,348421,0.0-21.0-0.0,"""event"",""trial"",""time""
""fullscreenenter"",""1"",""4618""
","
","
","""event"",""trial"",""time""
""fullscreenenter"",""1"",""4618""
","
",,null,run_exp/static/audio/clip_24_q5_correct.m4a,null,<p> That’s correct. The alien tells you nothing about how much treasure is on the planet.</p>,,,,,,,,,,,,,,,,,,,,,,,
quiz_correct,59,351902,0.0-22.0-0.0,"""event"",""trial"",""time""
""fullscreenenter"",""1"",""4618""
","
","
","""event"",""trial"",""time""
""fullscreenenter"",""1"",""4618""
","
",,null,run_exp/static/audio/clip_26_correct_quiz.m4a,null,,,,,,,,,,,,,,,,,,,,,,,,
quiz_correct_continue,60,354906,0.0-22.0-1.0,"""event"",""trial"",""time""
""fullscreenenter"",""1"",""4618""
","
","
","""event"",""trial"",""time""
""fullscreenenter"",""1"",""4618""
","
",,3002.8,<p>Good job! You're now ready to move on to the real game!</p>,,,,,,,0,,,,,,,,,,,,,,,,,,
audio-keyboard-response,61,365041,0.0-22.0-2.0,"""event"",""trial"",""time""
""fullscreenenter"",""1"",""4618""
","
","
","""event"",""trial"",""time""
""fullscreenenter"",""1"",""4618""
","
",,null,run_exp/static/audio/clip_28_real_game.m4a,null,,,,,,,,,,,,,,,,,,,,,,,,
instruc_begin_exp_contine,62,366963,0.0-22.0-3.0,"""event"",""trial"",""time""
""fullscreenenter"",""1"",""4618""
","
","
","""event"",""trial"",""time""
""fullscreenenter"",""1"",""4618""
","
",,1921.6,"<p>Now that you know how  to dig for space treasure and travel to new planets,you can start exploring! </p><p>Do you want to go over the instructions again or get started with the real game?</p>",,,,,,,1,,,,,,1,,,,,,,,,,,,
alien_welcome,63,371975,0.0-23.0-0.0,"""event"",""trial"",""time""
""fullscreenenter"",""1"",""4618""
","
","
","""event"",""trial"",""time""
""fullscreenenter"",""1"",""4618""
","
",,null,run_exp/static/images/task_images/aliens/old_aliens/planet/alien_planet-19.jpg,null,,,,,,,,,,,,,19,"19,27,43,1,3,60,74,69,37,9,36,59,68,75,5,38,23,30,14,21,25,80,33,13,71,46,26,54,76,58,41,73,63,70,49,34,18,8,24,78,44,48",,,,,,,,,,
land,64,372487,0.0-23.0-1.0,"""event"",""trial"",""time""
""fullscreenenter"",""1"",""4618""
","
","
","""event"",""trial"",""time""
""fullscreenenter"",""1"",""4618""
","
",,null,run_exp/static/images/task_images/land.jpg,null,,,,,,,107,,,1,,,,,,,,,,,,,,
dig,65,374503,0.0-23.0-2.0,"""event"",""trial"",""time""
""fullscreenenter"",""1"",""4618""
","
","
","""event"",""trial"",""time""
""fullscreenenter"",""1"",""4618""
","
",,,,,,,,,,,,"[{""stimulus"":""run_exp/static/images/task_images/dig.jpg"",""time"":0.3000001907348633},{""stimulus"":""run_exp/static/images/task_images/land.jpg"",""time"":671.2000000476837},{""stimulus"":""run_exp/static/images/task_images/dig.jpg"",""time"":1351.6000001430511}]",[],1,,,,,,,,,,,,,,
harvest,66,375511,0.0-23.0-3.0,"""event"",""trial"",""time""
""fullscreenenter"",""1"",""4618""
","
","
","""event"",""trial"",""time""
""fullscreenenter"",""1"",""4618""
","
",,null,run_exp/static/images/task_images/gems/107.jpg,null,,,,,,,23,,,1,,,,,107,0.213760951,0.214953271,,,,,,,
decision,67,375995,0.0-23.0-4.0,"""event"",""trial"",""time""
""fullscreenenter"",""1"",""4618""
","
","
","""event"",""trial"",""time""
""fullscreenenter"",""1"",""4618""
","
",,481.5999999,run_exp/static/images/task_images/land.jpg,65,,,,,,,23,,,1,,,,,,,,9032,1,0,FALSE,,,
dig,68,378524,0.0-24.0-0.0,"""event"",""trial"",""time""
""fullscreenenter"",""1"",""4618""
","
","
","""event"",""trial"",""time""
""fullscreenenter"",""1"",""4618""
","
",,,,,,,,,,,,"[{""stimulus"":""run_exp/static/images/task_images/dig.jpg"",""time"":0.20000004768371582},{""stimulus"":""run_exp/static/images/task_images/land.jpg"",""time"":842.5999999046326},{""stimulus"":""run_exp/static/images/task_images/dig.jpg"",""time"":1692.7999999523163}]",[],1,,,,,,,,,,,,,,
harvest,69,379530,0.0-24.0-1.0,"""event"",""trial"",""time""
""fullscreenenter"",""1"",""4618""
","
","
","""event"",""trial"",""time""
""fullscreenenter"",""1"",""4618""
","
",,null,run_exp/static/images/task_images/gems/23.jpg,null,,,,,,,3,,,1,,,,,23,0.150042811,0.130434783,,,,,,,
decision,70,379628,0.0-24.0-2.0,"""event"",""trial"",""time""
""fullscreenenter"",""1"",""4618""
","
","
","""event"",""trial"",""time""
""fullscreenenter"",""1"",""4618""
","
",,95.4000001,run_exp/static/images/task_images/land.jpg,65,,,,,,,3,,,1,,,,,,,,12664,1,1,FALSE,,,
dig,71,382538,0.0-25.0-0.0,"""event"",""trial"",""time""
""fullscreenenter"",""1"",""4618""
","
","
","""event"",""trial"",""time""
""fullscreenenter"",""1"",""4618""
","
",,,,,,,,,,,,"[{""stimulus"":""run_exp/static/images/task_images/dig.jpg"",""time"":0.20000004768371582},{""stimulus"":""run_exp/static/images/task_images/land.jpg"",""time"":971.5999999046326},{""stimulus"":""run_exp/static/images/task_images/dig.jpg"",""time"":1952.2999999523163}]",[],1,,,,,,,,,,,,,,
harvest,72,383553,0.0-25.0-1.0,"""event"",""trial"",""time""
""fullscreenenter"",""1"",""4618""
","
","
","""event"",""trial"",""time""
""fullscreenenter"",""1"",""4618""
","
",,null,run_exp/static/images/task_images/gems/3.jpg,null,,,,,,,1,,,1,,,,,3,0.191825699,0.333333333,,,,,,,
decision,73,385046,0.0-25.0-2.0,"""event"",""trial"",""time""
""fullscreenenter"",""1"",""4618""
","
","
","""event"",""trial"",""time""
""fullscreenenter"",""1"",""4618""
","
",,1491.7,run_exp/static/images/task_images/land.jpg,76,,,,,,,1,,,1,,,,,,,,18082,1,2,TRUE,,,
travel,74,393558,0.0-26.0-0.0,"""event"",""trial"",""time""
""fullscreenenter"",""1"",""4618""
","
","
","""event"",""trial"",""time""
""fullscreenenter"",""1"",""4618""
","
",,,,,,,,,,,,"[{""stimulus"":""run_exp/static/images/task_images/rocket-01.jpg"",""time"":0.20000004768371582},{""stimulus"":""run_exp/static/images/task_images/rocket-02.jpg"",""time"":953.5999999046326},{""stimulus"":""run_exp/static/images/task_images/rocket-03.jpg"",""time"":1902.2999999523163},{""stimulus"":""run_exp/static/images/task_images/rocket-04.jpg"",""time"":2847},{""stimulus"":""run_exp/static/images/task_images/rocket-05.jpg"",""time"":3786.7999999523163},{""stimulus"":""run_exp/static/images/task_images/rocket-06.jpg"",""time"":4737.799999952316},{""stimulus"":""run_exp/static/images/task_images/rocket-07.jpg"",""time"":5683.200000047684},{""stimulus"":""run_exp/static/images/task_images/rocket-08.jpg"",""time"":6632.299999952316},{""stimulus"":""run_exp/static/images/task_images/rocket-09.jpg"",""time"":7571.099999904633}]",[],1,,,,,,,,,,,,,,
alien_welcome,75,398572,0.0-26.0-1.0,"""event"",""trial"",""time""
""fullscreenenter"",""1"",""4618""
","
","
","""event"",""trial"",""time""
""fullscreenenter"",""1"",""4618""
","
",,null,run_exp/static/images/task_images/aliens/old_aliens/planet/alien_planet-27.jpg,null,,,,,,,,,,,,,27,"19,27,43,1,3,60,74,69,37,9,36,59,68,75,5,38,23,30,14,21,25,80,33,13,71,46,26,54,76,58,41,73,63,70,49,34,18,8,24,78,44,48",,,,,,,,,,
land,76,399087,0.0-26.0-2.0,"""event"",""trial"",""time""
""fullscreenenter"",""1"",""4618""
","
","
","""event"",""trial"",""time""
""fullscreenenter"",""1"",""4618""
","
",,null,run_exp/static/images/task_images/land.jpg,null,,,,,,,100,,,2,,,,,,,,,,,,,,
dig,77,401101,0.0-26.0-3.0,"""event"",""trial"",""time""
""fullscreenenter"",""1"",""4618""
","
","
","""event"",""trial"",""time""
""fullscreenenter"",""1"",""4618""
","
",,,,,,,,,,,,"[{""stimulus"":""run_exp/static/images/task_images/dig.jpg"",""time"":0.20000004768371582},{""stimulus"":""run_exp/static/images/task_images/land.jpg"",""time"":678.7000000476837},{""stimulus"":""run_exp/static/images/task_images/dig.jpg"",""time"":1338.7000000476837}]",[],2,,,,,,,,,,,,,,
harvest,78,402114,0.0-26.0-4.0,"""event"",""trial"",""time""
""fullscreenenter"",""1"",""4618""
","
","
","""event"",""trial"",""time""
""fullscreenenter"",""1"",""4618""
","
",,null,run_exp/static/images/task_images/gems/100.jpg,null,,,,,,,23,,,2,,,,,100,0.229729822,0.23,,,,,,,
decision,79,402169,0.0-26.0-5.0,"""event"",""trial"",""time""
""fullscreenenter"",""1"",""4618""
","
","
","""event"",""trial"",""time""
""fullscreenenter"",""1"",""4618""
","
",,53.5999999,run_exp/static/images/task_images/land.jpg,65,,,,,,,23,,,2,,,,,,,,35205,1,0,FALSE,,,
dig,80,405124,0.0-27.0-0.0,"""event"",""trial"",""time""
""fullscreenenter"",""1"",""4618""
","
","
","""event"",""trial"",""time""
""fullscreenenter"",""1"",""4618""
","
",,,,,,,,,,,,"[{""stimulus"":""run_exp/static/images/task_images/dig.jpg"",""time"":0.6000001430511475},{""stimulus"":""run_exp/static/images/task_images/land.jpg"",""time"":988.5},{""stimulus"":""run_exp/static/images/task_images/dig.jpg"",""time"":1969.7999999523163}]",[],2,,,,,,,,,,,,,,
harvest,81,406134,0.0-27.0-1.0,"""event"",""trial"",""time""
""fullscreenenter"",""1"",""4618""
","
","
","""event"",""trial"",""time""
""fullscreenenter"",""1"",""4618""
","
",,null,run_exp/static/images/task_images/gems/23.jpg,null,,,,,,,7,,,2,,,,,23,0.292196301,0.304347826,,,,,,,
decision,82,407482,0.0-27.0-2.0,"""event"",""trial"",""time""
""fullscreenenter"",""1"",""4618""
","
","
","""event"",""trial"",""time""
""fullscreenenter"",""1"",""4618""
","
",,1337.4,run_exp/static/images/task_images/land.jpg,65,,,,,,,7,,,2,,,,,,,,40518,1,1,FALSE,,,
dig,83,409163,0.0-28.0-0.0,"""event"",""trial"",""time""
""fullscreenenter"",""1"",""4618""
","
","
","""event"",""trial"",""time""
""fullscreenenter"",""1"",""4618""
","
",,,,,,,,,,,,"[{""stimulus"":""run_exp/static/images/task_images/dig.jpg"",""time"":0.20000004768371582},{""stimulus"":""run_exp/static/images/task_images/land.jpg"",""time"":565.0999999046326},{""stimulus"":""run_exp/static/images/task_images/dig.jpg"",""time"":1118.7999999523163}]",[],2,,,,,,,,,,,,,,
harvest,84,410171,0.0-28.0-1.0,"""event"",""trial"",""time""
""fullscreenenter"",""1"",""4618""
","
","
","""event"",""trial"",""time""
""fullscreenenter"",""1"",""4618""
","
",,null,run_exp/static/images/task_images/gems/7.jpg,null,,,,,,,2,,,2,,,,,7,0.231383169,0.285714286,,,,,,,
decision,85,410269,0.0-28.0-2.0,"""event"",""trial"",""time""
""fullscreenenter"",""1"",""4618""
","
","
","""event"",""trial"",""time""
""fullscreenenter"",""1"",""4618""
","
",,96,run_exp/static/images/task_images/land.jpg,65,,,,,,,2,,,2,,,,,,,,43306,1,2,FALSE,,,
dig,86,413190,0.0-29.0-0.0,"""event"",""trial"",""time""
""fullscreenenter"",""1"",""4618""
","
","
","""event"",""trial"",""time""
""fullscreenenter"",""1"",""4618""
","
",,,,,,,,,,,,"[{""stimulus"":""run_exp/static/images/task_images/dig.jpg"",""time"":0.20000004768371582},{""stimulus"":""run_exp/static/images/task_images/land.jpg"",""time"":982.5999999046326},{""stimulus"":""run_exp/static/images/task_images/dig.jpg"",""time"":1952.5}]",[],2,,,,,,,,,,,,,,
harvest,87,414198,0.0-29.0-1.0,"""event"",""trial"",""time""
""fullscreenenter"",""1"",""4618""
","
","
","""event"",""trial"",""time""
""fullscreenenter"",""1"",""4618""
","
",,null,run_exp/static/images/task_images/gems/2.jpg,null,,,,,,,0,,,2,,,,,2,0.136374365,0,,,,,,,
decision,88,415879,0.0-29.0-2.0,"""event"",""trial"",""time""
""fullscreenenter"",""1"",""4618""
","
","
","""event"",""trial"",""time""
""fullscreenenter"",""1"",""4618""
","
",,1679.8,run_exp/static/images/task_images/land.jpg,76,,,,,,,0,,,2,,,,,,,,48915,1,3,TRUE,,,
travel,89,424204,0.0-30.0-0.0,"""event"",""trial"",""time""
""fullscreenenter"",""1"",""4618""
","
","
","""event"",""trial"",""time""
""fullscreenenter"",""1"",""4618""
","
",,,,,,,,,,,,"[{""stimulus"":""run_exp/static/images/task_images/rocket-01.jpg"",""time"":0.20000004768371582},{""stimulus"":""run_exp/static/images/task_images/rocket-02.jpg"",""time"":933.2000000476837},{""stimulus"":""run_exp/static/images/task_images/rocket-03.jpg"",""time"":1853.3000001907349},{""stimulus"":""run_exp/static/images/task_images/rocket-04.jpg"",""time"":2782.300000190735},{""stimulus"":""run_exp/static/images/task_images/rocket-05.jpg"",""time"":3700.600000143051},{""stimulus"":""run_exp/static/images/task_images/rocket-06.jpg"",""time"":4630.300000190735},{""stimulus"":""run_exp/static/images/task_images/rocket-07.jpg"",""time"":5552.700000047684},{""stimulus"":""run_exp/static/images/task_images/rocket-08.jpg"",""time"":6477.5},{""stimulus"":""run_exp/static/images/task_images/rocket-09.jpg"",""time"":7403.600000143051}]",[],2,,,,,,,,,,,,,,
alien_welcome,90,429224,0.0-30.0-1.0,"""event"",""trial"",""time""
""fullscreenenter"",""1"",""4618""
","
","
","""event"",""trial"",""time""
""fullscreenenter"",""1"",""4618""
","
",,null,run_exp/static/images/task_images/aliens/old_aliens/planet/alien_planet-43.jpg,null,,,,,,,,,,,,,43,"19,27,43,1,3,60,74,69,37,9,36,59,68,75,5,38,23,30,14,21,25,80,33,13,71,46,26,54,76,58,41,73,63,70,49,34,18,8,24,78,44,48",,,,,,,,,,
land,91,429733,0.0-30.0-2.0,"""event"",""trial"",""time""
""fullscreenenter"",""1"",""4618""
","
","
","""event"",""trial"",""time""
""fullscreenenter"",""1"",""4618""
","
",,null,run_exp/static/images/task_images/land.jpg,null,,,,,,,100,,,3,,,,,,,,,,,,,,
dig,92,431748,0.0-30.0-3.0,"""event"",""trial"",""time""
""fullscreenenter"",""1"",""4618""
","
","
","""event"",""trial"",""time""
""fullscreenenter"",""1"",""4618""
","
",,,,,,,,,,,,"[{""stimulus"":""run_exp/static/images/task_images/dig.jpg"",""time"":0.19999980926513672},{""stimulus"":""run_exp/static/images/task_images/land.jpg"",""time"":683.6999998092651},{""stimulus"":""run_exp/static/images/task_images/dig.jpg"",""time"":1343.0999999046326}]",[],3,,,,,,,,,,,,,,
harvest,93,432754,0.0-30.0-4.0,"""event"",""trial"",""time""
""fullscreenenter"",""1"",""4618""
","
","
","""event"",""trial"",""time""
""fullscreenenter"",""1"",""4618""
","
",,null,run_exp/static/images/task_images/gems/100.jpg,null,,,,,,,48,,,3,,,,,100,0.481370225,0.48,,,,,,,
decision,94,433234,0.0-30.0-5.0,"""event"",""trial"",""time""
""fullscreenenter"",""1"",""4618""
","
","
","""event"",""trial"",""time""
""fullscreenenter"",""1"",""4618""
","
",,479.2,run_exp/static/images/task_images/land.jpg,65,,,,,,,48,,,3,,,,,,,,66270,1,0,FALSE,,,
dig,95,435762,0.0-31.0-0.0,"""event"",""trial"",""time""
""fullscreenenter"",""1"",""4618""
","
","
","""event"",""trial"",""time""
""fullscreenenter"",""1"",""4618""
","
",,,,,,,,,,,,"[{""stimulus"":""run_exp/static/images/task_images/dig.jpg"",""time"":0.10000014305114746},{""stimulus"":""run_exp/static/images/task_images/land.jpg"",""time"":842.6000001430511},{""stimulus"":""run_exp/static/images/task_images/dig.jpg"",""time"":1691.8000001907349}]",[],3,,,,,,,,,,,,,,
harvest,96,436771,0.0-31.0-1.0,"""event"",""trial"",""time""
""fullscreenenter"",""1"",""4618""
","
","
","""event"",""trial"",""time""
""fullscreenenter"",""1"",""4618""
","
",,null,run_exp/static/images/task_images/gems/48.jpg,null,,,,,,,29,,,3,,,,,48,0.594378296,0.604166667,,,,,,,
decision,97,438260,0.0-31.0-2.0,"""event"",""trial"",""time""
""fullscreenenter"",""1"",""4618""
","
","
","""event"",""trial"",""time""
""fullscreenenter"",""1"",""4618""
","
",,1486.7,run_exp/static/images/task_images/land.jpg,65,,,,,,,29,,,3,,,,,,,,71296,1,1,FALSE,,,
dig,98,439776,0.0-32.0-0.0,"""event"",""trial"",""time""
""fullscreenenter"",""1"",""4618""
","
","
","""event"",""trial"",""time""
""fullscreenenter"",""1"",""4618""
","
",,,,,,,,,,,,"[{""stimulus"":""run_exp/static/images/task_images/dig.jpg"",""time"":0.20000004768371582},{""stimulus"":""run_exp/static/images/task_images/land.jpg"",""time"":506.30000019073486},{""stimulus"":""run_exp/static/images/task_images/dig.jpg"",""time"":1010.6000001430511}]",[],3,,,,,,,,,,,,,,
harvest,99,440785,0.0-32.0-1.0,"""event"",""trial"",""time""
""fullscreenenter"",""1"",""4618""
","
","
","""event"",""trial"",""time""
""fullscreenenter"",""1"",""4618""
","
",,null,run_exp/static/images/task_images/gems/29.jpg,null,,,,,,,15,,,3,,,,,29,0.52633557,0.517241379,,,,,,,
decision,100,441205,0.0-32.0-2.0,"""event"",""trial"",""time""
""fullscreenenter"",""1"",""4618""
","
","
","""event"",""trial"",""time""
""fullscreenenter"",""1"",""4618""
","
",,418.8000002,run_exp/static/images/task_images/land.jpg,65,,,,,,,15,,,3,,,,,,,,74241,1,2,FALSE,,,
dig,101,443792,0.0-33.0-0.0,"""event"",""trial"",""time""
""fullscreenenter"",""1"",""4618""
","
","
","""event"",""trial"",""time""
""fullscreenenter"",""1"",""4618""
","
",,,,,,,,,,,,"[{""stimulus"":""run_exp/static/images/task_images/dig.jpg"",""time"":0.20000004768371582},{""stimulus"":""run_exp/static/images/task_images/land.jpg"",""time"":867.0999999046326},{""stimulus"":""run_exp/static/images/task_images/dig.jpg"",""time"":1730.0999999046326}]",[],3,,,,,,,,,,,,,,
harvest,102,444796,0.0-33.0-1.0,"""event"",""trial"",""time""
""fullscreenenter"",""1"",""4618""
","
","
","""event"",""trial"",""time""
""fullscreenenter"",""1"",""4618""
","
",,null,run_exp/static/images/task_images/gems/15.jpg,null,,,,,,,6,,,3,,,,,15,0.431250772,0.4,,,,,,,
decision,103,445962,0.0-33.0-2.0,"""event"",""trial"",""time""
""fullscreenenter"",""1"",""4618""
","
","
","""event"",""trial"",""time""
""fullscreenenter"",""1"",""4618""
","
",,1163.8,run_exp/static/images/task_images/land.jpg,65,,,,,,,6,,,3,,,,,,,,78998,1,3,FALSE,,,
dig,104,447815,0.0-34.0-0.0,"""event"",""trial"",""time""
""fullscreenenter"",""1"",""4618""
","
","
","""event"",""trial"",""time""
""fullscreenenter"",""1"",""4618""
","
",,,,,,,,,,,,"[{""stimulus"":""run_exp/static/images/task_images/dig.jpg"",""time"":0.40000009536743164},{""stimulus"":""run_exp/static/images/task_images/land.jpg"",""time"":627.4000000953674},{""stimulus"":""run_exp/static/images/task_images/dig.jpg"",""time"":1226.7000000476837}]",[],3,,,,,,,,,,,,,,
harvest,105,448822,0.0-34.0-1.0,"""event"",""trial"",""time""
""fullscreenenter"",""1"",""4618""
","
","
","""event"",""trial"",""time""
""fullscreenenter"",""1"",""4618""
","
",,null,run_exp/static/images/task_images/gems/6.jpg,null,,,,,,,3,,,3,,,,,6,0.505355607,0.5,,,,,,,
decision,106,449483,0.0-34.0-2.0,"""event"",""trial"",""time""
""fullscreenenter"",""1"",""4618""
","
","
","""event"",""trial"",""time""
""fullscreenenter"",""1"",""4618""
","
",,659.7,run_exp/static/images/task_images/land.jpg,76,,,,,,,3,,,3,,,,,,,,82519,1,4,TRUE,,,
travel,107,458831,0.0-35.0-0.0,"""event"",""trial"",""time""
""fullscreenenter"",""1"",""4618""
","
","
","""event"",""trial"",""time""
""fullscreenenter"",""1"",""4618""
","
",,,,,,,,,,,,"[{""stimulus"":""run_exp/static/images/task_images/rocket-01.jpg"",""time"":0.09999990463256836},{""stimulus"":""run_exp/static/images/task_images/rocket-02.jpg"",""time"":1040.0999999046326},{""stimulus"":""run_exp/static/images/task_images/rocket-03.jpg"",""time"":2081},{""stimulus"":""run_exp/static/images/task_images/rocket-04.jpg"",""time"":3123.7999999523163},{""stimulus"":""run_exp/static/images/task_images/rocket-05.jpg"",""time"":4159.799999952316},{""stimulus"":""run_exp/static/images/task_images/rocket-06.jpg"",""time"":5187.799999952316},{""stimulus"":""run_exp/static/images/task_images/rocket-07.jpg"",""time"":6232.099999904633},{""stimulus"":""run_exp/static/images/task_images/rocket-08.jpg"",""time"":7274.899999856949},{""stimulus"":""run_exp/static/images/task_images/rocket-09.jpg"",""time"":8299.5}]",[],3,,,,,,,,,,,,,,
alien_welcome,108,463836,0.0-35.0-1.0,"""event"",""trial"",""time""
""fullscreenenter"",""1"",""4618""
","
","
","""event"",""trial"",""time""
""fullscreenenter"",""1"",""4618""
","
",,null,run_exp/static/images/task_images/aliens/old_aliens/planet/alien_planet-1.jpg,null,,,,,,,,,,,,,1,"19,27,43,1,3,60,74,69,37,9,36,59,68,75,5,38,23,30,14,21,25,80,33,13,71,46,26,54,76,58,41,73,63,70,49,34,18,8,24,78,44,48",,,,,,,,,,
land,109,464354,0.0-35.0-2.0,"""event"",""trial"",""time""
""fullscreenenter"",""1"",""4618""
","
","
","""event"",""trial"",""time""
""fullscreenenter"",""1"",""4618""
","
",,null,run_exp/static/images/task_images/land.jpg,null,,,,,,,103,,,4,,,,,,,,,,,,,,
dig,110,466367,0.0-35.0-3.0,"""event"",""trial"",""time""
""fullscreenenter"",""1"",""4618""
","
","
","""event"",""trial"",""time""
""fullscreenenter"",""1"",""4618""
","
",,,,,,,,,,,,"[{""stimulus"":""run_exp/static/images/task_images/dig.jpg"",""time"":0.2999999523162842},{""stimulus"":""run_exp/static/images/task_images/land.jpg"",""time"":672.1000001430511},{""stimulus"":""run_exp/static/images/task_images/dig.jpg"",""time"":1343}]",[],4,,,,,,,,,,,,,,
harvest,111,467376,0.0-35.0-4.0,"""event"",""trial"",""time""
""fullscreenenter"",""1"",""4618""
","
","
","""event"",""trial"",""time""
""fullscreenenter"",""1"",""4618""
","
",,null,run_exp/static/images/task_images/gems/103.jpg,null,,,,,,,49,,,4,,,,,103,0.480494788,0.475728155,,,,,,,
decision,112,467795,0.0-35.0-5.0,"""event"",""trial"",""time""
""fullscreenenter"",""1"",""4618""
","
","
","""event"",""trial"",""time""
""fullscreenenter"",""1"",""4618""
","
",,417.9000001,run_exp/static/images/task_images/land.jpg,65,,,,,,,49,,,4,,,,,,,,100831,1,0,FALSE,,,
dig,113,470384,0.0-36.0-0.0,"""event"",""trial"",""time""
""fullscreenenter"",""1"",""4618""
","
","
","""event"",""trial"",""time""
""fullscreenenter"",""1"",""4618""
","
",,,,,,,,,,,,"[{""stimulus"":""run_exp/static/images/task_images/dig.jpg"",""time"":0.09999990463256836},{""stimulus"":""run_exp/static/images/task_images/land.jpg"",""time"":874.2000000476837},{""stimulus"":""run_exp/static/images/task_images/dig.jpg"",""time"":1730.4000000953674}]",[],4,,,,,,,,,,,,,,
harvest,114,471397,0.0-36.0-1.0,"""event"",""trial"",""time""
""fullscreenenter"",""1"",""4618""
","
","
","""event"",""trial"",""time""
""fullscreenenter"",""1"",""4618""
","
",,null,run_exp/static/images/task_images/gems/49.jpg,null,,,,,,,26,,,4,,,,,49,0.532909853,0.530612245,,,,,,,
decision,115,473031,0.0-36.0-2.0,"""event"",""trial"",""time""
""fullscreenenter"",""1"",""4618""
","
","
","""event"",""trial"",""time""
""fullscreenenter"",""1"",""4618""
","
",,1632.8,run_exp/static/images/task_images/land.jpg,65,,,,,,,26,,,4,,,,,,,,106067,1,1,FALSE,,,
dig,116,474401,0.0-37.0-0.0,"""event"",""trial"",""time""
""fullscreenenter"",""1"",""4618""
","
","
","""event"",""trial"",""time""
""fullscreenenter"",""1"",""4618""
","
",,,,,,,,,,,,"[{""stimulus"":""run_exp/static/images/task_images/dig.jpg"",""time"":0.20000004768371582},{""stimulus"":""run_exp/static/images/task_images/land.jpg"",""time"":460.30000019073486},{""stimulus"":""run_exp/static/images/task_images/dig.jpg"",""time"":914.3000001907349}]",[],4,,,,,,,,,,,,,,
harvest,117,475410,0.0-37.0-1.0,"""event"",""trial"",""time""
""fullscreenenter"",""1"",""4618""
","
","
","""event"",""trial"",""time""
""fullscreenenter"",""1"",""4618""
","
",,null,run_exp/static/images/task_images/gems/26.jpg,null,,,,,,,14,,,4,,,,,26,0.526300361,0.538461538,,,,,,,
decision,118,475432,0.0-37.0-2.0,"""event"",""trial"",""time""
""fullscreenenter"",""1"",""4618""
","
","
","""event"",""trial"",""time""
""fullscreenenter"",""1"",""4618""
","
",,21.20000005,run_exp/static/images/task_images/land.jpg,65,,,,,,,14,,,4,,,,,,,,108468,1,2,FALSE,,,
dig,119,478425,0.0-38.0-0.0,"""event"",""trial"",""time""
""fullscreenenter"",""1"",""4618""
","
","
","""event"",""trial"",""time""
""fullscreenenter"",""1"",""4618""
","
",,,,,,,,,,,,"[{""stimulus"":""run_exp/static/images/task_images/dig.jpg"",""time"":0.10000014305114746},{""stimulus"":""run_exp/static/images/task_images/land.jpg"",""time"":1003.3000001907349},{""stimulus"":""run_exp/static/images/task_images/dig.jpg"",""time"":1995.3000001907349}]",[],4,,,,,,,,,,,,,,
harvest,120,479445,0.0-38.0-1.0,"""event"",""trial"",""time""
""fullscreenenter"",""1"",""4618""
","
","
","""event"",""trial"",""time""
""fullscreenenter"",""1"",""4618""
","
",,null,run_exp/static/images/task_images/gems/14.jpg,null,,,,,,,5,,,4,,,,,14,0.364298822,0.357142857,,,,,,,
decision,121,480180,0.0-38.0-2.0,"""event"",""trial"",""time""
""fullscreenenter"",""1"",""4618""
","
","
","""event"",""trial"",""time""
""fullscreenenter"",""1"",""4618""
","
",,733.8000002,run_exp/static/images/task_images/land.jpg,76,,,,,,,5,,,4,,,,,,,,113216,1,3,TRUE,,,
travel,122,489452,0.0-39.0-0.0,"""event"",""trial"",""time""
""fullscreenenter"",""1"",""4618""
","
","
","""event"",""trial"",""time""
""fullscreenenter"",""1"",""4618""
","
",,,,,,,,,,,,"[{""stimulus"":""run_exp/static/images/task_images/rocket-01.jpg"",""time"":0.10000014305114746},{""stimulus"":""run_exp/static/images/task_images/rocket-02.jpg"",""time"":1033.5},{""stimulus"":""run_exp/static/images/task_images/rocket-03.jpg"",""time"":2060.2000000476837},{""stimulus"":""run_exp/static/images/task_images/rocket-04.jpg"",""time"":3095.7999999523163},{""stimulus"":""run_exp/static/images/task_images/rocket-05.jpg"",""time"":4124.799999952316},{""stimulus"":""run_exp/static/images/task_images/rocket-06.jpg"",""time"":5156.600000143051},{""stimulus"":""run_exp/static/images/task_images/rocket-07.jpg"",""time"":6179.299999952316},{""stimulus"":""run_exp/static/images/task_images/rocket-08.jpg"",""time"":7206.200000047684},{""stimulus"":""run_exp/static/images/task_images/rocket-09.jpg"",""time"":8234.700000047684}]",[],4,,,,,,,,,,,,,,
alien_welcome,123,494463,0.0-39.0-1.0,"""event"",""trial"",""time""
""fullscreenenter"",""1"",""4618""
","
","
","""event"",""trial"",""time""
""fullscreenenter"",""1"",""4618""
","
",,null,run_exp/static/images/task_images/aliens/old_aliens/planet/alien_planet-3.jpg,null,,,,,,,,,,,,,3,"19,27,43,1,3,60,74,69,37,9,36,59,68,75,5,38,23,30,14,21,25,80,33,13,71,46,26,54,76,58,41,73,63,70,49,34,18,8,24,78,44,48",,,,,,,,,,
land,124,494973,0.0-39.0-2.0,"""event"",""trial"",""time""
""fullscreenenter"",""1"",""4618""
","
","
","""event"",""trial"",""time""
""fullscreenenter"",""1"",""4618""
","
",,null,run_exp/static/images/task_images/land.jpg,null,,,,,,,96,,,5,,,,,,,,,,,,,,
dig,125,496990,0.0-39.0-3.0,"""event"",""trial"",""time""
""fullscreenenter"",""1"",""4618""
","
","
","""event"",""trial"",""time""
""fullscreenenter"",""1"",""4618""
","
",,,,,,,,,,,,"[{""stimulus"":""run_exp/static/images/task_images/dig.jpg"",""time"":0.20000004768371582},{""stimulus"":""run_exp/static/images/task_images/land.jpg"",""time"":677},{""stimulus"":""run_exp/static/images/task_images/dig.jpg"",""time"":1345.2999999523163}]",[],5,,,,,,,,,,,,,,
harvest,126,498010,0.0-39.0-4.0,"""event"",""trial"",""time""
""fullscreenenter"",""1"",""4618""
","
","
","""event"",""trial"",""time""
""fullscreenenter"",""1"",""4618""
","
",,null,run_exp/static/images/task_images/gems/96.jpg,null,,,,,,,44,,,5,,,,,96,0.459467962,0.458333333,,,,,,,
decision,127,498504,0.0-39.0-5.0,"""event"",""trial"",""time""
""fullscreenenter"",""1"",""4618""
","
","
","""event"",""trial"",""time""
""fullscreenenter"",""1"",""4618""
","
",,493.3,run_exp/static/images/task_images/land.jpg,65,,,,,,,44,,,5,,,,,,,,131540,1,0,FALSE,,,
dig,128,501028,0.0-40.0-0.0,"""event"",""trial"",""time""
""fullscreenenter"",""1"",""4618""
","
","
","""event"",""trial"",""time""
""fullscreenenter"",""1"",""4618""
","
",,,,,,,,,,,,"[{""stimulus"":""run_exp/static/images/task_images/dig.jpg"",""time"":0.09999990463256836},{""stimulus"":""run_exp/static/images/task_images/land.jpg"",""time"":844.7999999523163},{""stimulus"":""run_exp/static/images/task_images/dig.jpg"",""time"":1681.5}]",[],5,,,,,,,,,,,,,,
harvest,129,502038,0.0-40.0-1.0,"""event"",""trial"",""time""
""fullscreenenter"",""1"",""4618""
","
","
","""event"",""trial"",""time""
""fullscreenenter"",""1"",""4618""
","
",,null,run_exp/static/images/task_images/gems/44.jpg,null,,,,,,,23,,,5,,,,,44,0.514611398,0.522727273,,,,,,,
decision,130,503363,0.0-40.0-2.0,"""event"",""trial"",""time""
""fullscreenenter"",""1"",""4618""
","
","
","""event"",""trial"",""time""
""fullscreenenter"",""1"",""4618""
","
",,1323.7,run_exp/static/images/task_images/land.jpg,65,,,,,,,23,,,5,,,,,,,,136399,1,1,FALSE,,,
dig,131,505049,0.0-41.0-0.0,"""event"",""trial"",""time""
""fullscreenenter"",""1"",""4618""
","
","
","""event"",""trial"",""time""
""fullscreenenter"",""1"",""4618""
","
",,,,,,,,,,,,"[{""stimulus"":""run_exp/static/images/task_images/dig.jpg"",""time"":0.09999990463256836},{""stimulus"":""run_exp/static/images/task_images/land.jpg"",""time"":568.2000000476837},{""stimulus"":""run_exp/static/images/task_images/dig.jpg"",""time"":1117.7999999523163}]",[],5,,,,,,,,,,,,,,
harvest,132,506063,0.0-41.0-1.0,"""event"",""trial"",""time""
""fullscreenenter"",""1"",""4618""
","
","
","""event"",""trial"",""time""
""fullscreenenter"",""1"",""4618""
","
",,null,run_exp/static/images/task_images/gems/23.jpg,null,,,,,,,11,,,5,,,,,23,0.479619901,0.47826087,,,,,,,
decision,133,507928,0.0-41.0-2.0,"""event"",""trial"",""time""
""fullscreenenter"",""1"",""4618""
","
","
","""event"",""trial"",""time""
""fullscreenenter"",""1"",""4618""
","
",,1863.6,run_exp/static/images/task_images/land.jpg,65,,,,,,,11,,,5,,,,,,,,140964,1,2,FALSE,,,
dig,134,509077,0.0-42.0-0.0,"""event"",""trial"",""time""
""fullscreenenter"",""1"",""4618""
","
","
","""event"",""trial"",""time""
""fullscreenenter"",""1"",""4618""
","
",,,,,,,,,,,,"[{""stimulus"":""run_exp/static/images/task_images/dig.jpg"",""time"":0.20000004768371582},{""stimulus"":""run_exp/static/images/task_images/land.jpg"",""time"":385},{""stimulus"":""run_exp/static/images/task_images/dig.jpg"",""time"":760.2000000476837}]",[],5,,,,,,,,,,,,,,
harvest,135,510096,0.0-42.0-1.0,"""event"",""trial"",""time""
""fullscreenenter"",""1"",""4618""
","
","
","""event"",""trial"",""time""
""fullscreenenter"",""1"",""4618""
","
",,null,run_exp/static/images/task_images/gems/11.jpg,null,,,,,,,6,,,5,,,,,11,0.588748695,0.545454545,,,,,,,
decision,136,510767,0.0-42.0-2.0,"""event"",""trial"",""time""
""fullscreenenter"",""1"",""4618""
","
","
","""event"",""trial"",""time""
""fullscreenenter"",""1"",""4618""
","
",,669.3,run_exp/static/images/task_images/land.jpg,76,,,,,,,6,,,5,,,,,,,,143803,1,3,TRUE,,,
travel,137,520107,0.0-43.0-0.0,"""event"",""trial"",""time""
""fullscreenenter"",""1"",""4618""
","
","
","""event"",""trial"",""time""
""fullscreenenter"",""1"",""4618""
","
",,,,,,,,,,,,"[{""stimulus"":""run_exp/static/images/task_images/rocket-01.jpg"",""time"":0.20000004768371582},{""stimulus"":""run_exp/static/images/task_images/rocket-02.jpg"",""time"":1040.0999999046326},{""stimulus"":""run_exp/static/images/task_images/rocket-03.jpg"",""time"":2088.5},{""stimulus"":""run_exp/static/images/task_images/rocket-04.jpg"",""time"":3121.7000000476837},{""stimulus"":""run_exp/static/images/task_images/rocket-05.jpg"",""time"":4150},{""stimulus"":""run_exp/static/images/task_images/rocket-06.jpg"",""time"":5186.799999952316},{""stimulus"":""run_exp/static/images/task_images/rocket-07.jpg"",""time"":6227.799999952316},{""stimulus"":""run_exp/static/images/task_images/rocket-08.jpg"",""time"":7267.700000047684},{""stimulus"":""run_exp/static/images/task_images/rocket-09.jpg"",""time"":8296.400000095367}]",[],5,,,,,,,,,,,,,,
alien_welcome,138,525120,0.0-43.0-1.0,"""event"",""trial"",""time""
""fullscreenenter"",""1"",""4618""
","
","
","""event"",""trial"",""time""
""fullscreenenter"",""1"",""4618""
","
",,null,run_exp/static/images/task_images/aliens/old_aliens/planet/alien_planet-60.jpg,null,,,,,,,,,,,,,60,"19,27,43,1,3,60,74,69,37,9,36,59,68,75,5,38,23,30,14,21,25,80,33,13,71,46,26,54,76,58,41,73,63,70,49,34,18,8,24,78,44,48",,,,,,,,,,
land,139,525631,0.0-43.0-2.0,"""event"",""trial"",""time""
""fullscreenenter"",""1"",""4618""
","
","
","""event"",""trial"",""time""
""fullscreenenter"",""1"",""4618""
","
",,null,run_exp/static/images/task_images/land.jpg,null,,,,,,,103,,,6,,,,,,,,,,,,,,
dig,140,527636,0.0-43.0-3.0,"""event"",""trial"",""time""
""fullscreenenter"",""1"",""4618""
","
","
","""event"",""trial"",""time""
""fullscreenenter"",""1"",""4618""
","
",,,,,,,,,,,,"[{""stimulus"":""run_exp/static/images/task_images/dig.jpg"",""time"":0.2999999523162842},{""stimulus"":""run_exp/static/images/task_images/land.jpg"",""time"":678.0999999046326},{""stimulus"":""run_exp/static/images/task_images/dig.jpg"",""time"":1345.5}]",[],6,,,,,,,,,,,,,,
harvest,141,528642,0.0-43.0-4.0,"""event"",""trial"",""time""
""fullscreenenter"",""1"",""4618""
","
","
","""event"",""trial"",""time""
""fullscreenenter"",""1"",""4618""
","
",,null,run_exp/static/images/task_images/gems/103.jpg,null,,,,,,,88,,,6,,,,,103,0.849878533,0.854368932,,,,,,,
decision,142,528811,0.0-43.0-5.0,"""event"",""trial"",""time""
""fullscreenenter"",""1"",""4618""
","
","
","""event"",""trial"",""time""
""fullscreenenter"",""1"",""4618""
","
",,168.5,run_exp/static/images/task_images/land.jpg,65,,,,,,,88,,,6,,,,,,,,161847,1,0,FALSE,,,
dig,143,531653,0.0-44.0-0.0,"""event"",""trial"",""time""
""fullscreenenter"",""1"",""4618""
","
","
","""event"",""trial"",""time""
""fullscreenenter"",""1"",""4618""
","
",,,,,,,,,,,,"[{""stimulus"":""run_exp/static/images/task_images/dig.jpg"",""time"":0.20000004768371582},{""stimulus"":""run_exp/static/images/task_images/land.jpg"",""time"":945.0999999046326},{""stimulus"":""run_exp/static/images/task_images/dig.jpg"",""time"":1892.5999999046326}]",[],6,,,,,,,,,,,,,,
harvest,144,532669,0.0-44.0-1.0,"""event"",""trial"",""time""
""fullscreenenter"",""1"",""4618""
","
","
","""event"",""trial"",""time""
""fullscreenenter"",""1"",""4618""
","
",,null,run_exp/static/images/task_images/gems/88.jpg,null,,,,,,,64,,,6,,,,,88,0.732210902,0.727272727,,,,,,,
decision,145,534606,0.0-44.0-2.0,"""event"",""trial"",""time""
""fullscreenenter"",""1"",""4618""
","
","
","""event"",""trial"",""time""
""fullscreenenter"",""1"",""4618""
","
",,1935.1,run_exp/static/images/task_images/land.jpg,65,,,,,,,64,,,6,,,,,,,,167642,1,1,FALSE,,,
dig,146,535685,0.0-45.0-0.0,"""event"",""trial"",""time""
""fullscreenenter"",""1"",""4618""
","
","
","""event"",""trial"",""time""
""fullscreenenter"",""1"",""4618""
","
",,,,,,,,,,,,"[{""stimulus"":""run_exp/static/images/task_images/dig.jpg"",""time"":0.09999990463256836},{""stimulus"":""run_exp/static/images/task_images/land.jpg"",""time"":370.69999980926514},{""stimulus"":""run_exp/static/images/task_images/dig.jpg"",""time"":723.2999999523163}]",[],6,,,,,,,,,,,,,,
harvest,147,536690,0.0-45.0-1.0,"""event"",""trial"",""time""
""fullscreenenter"",""1"",""4618""
","
","
","""event"",""trial"",""time""
""fullscreenenter"",""1"",""4618""
","
",,null,run_exp/static/images/task_images/gems/64.jpg,null,,,,,,,53,,,6,,,,,64,0.823277552,0.828125,,,,,,,
decision,148,539107,0.0-45.0-2.0,"""event"",""trial"",""time""
""fullscreenenter"",""1"",""4618""
","
","
","""event"",""trial"",""time""
""fullscreenenter"",""1"",""4618""
","
",,2415.9,run_exp/static/images/task_images/land.jpg,65,,,,,,,53,,,6,,,,,,,,172143,1,2,FALSE,,,
dig,149,539701,0.0-46.0-0.0,"""event"",""trial"",""time""
""fullscreenenter"",""1"",""4618""
","
","
","""event"",""trial"",""time""
""fullscreenenter"",""1"",""4618""
","
",,,,,,,,,,,,"[{""stimulus"":""run_exp/static/images/task_images/dig.jpg"",""time"":0.2999999523162842},{""stimulus"":""run_exp/static/images/task_images/land.jpg"",""time"":196.70000004768372},{""stimulus"":""run_exp/static/images/task_images/dig.jpg"",""time"":394.40000009536743}]",[],6,,,,,,,,,,,,,,
harvest,150,540716,0.0-46.0-1.0,"""event"",""trial"",""time""
""fullscreenenter"",""1"",""4618""
","
","
","""event"",""trial"",""time""
""fullscreenenter"",""1"",""4618""
","
",,null,run_exp/static/images/task_images/gems/53.jpg,null,,,,,,,43,,,6,,,,,53,0.819938914,0.811320755,,,,,,,
decision,151,540718,0.0-46.0-2.0,"""event"",""trial"",""time""
""fullscreenenter"",""1"",""4618""
","
","
","""event"",""trial"",""time""
""fullscreenenter"",""1"",""4618""
","
",,1.299999952,run_exp/static/images/task_images/land.jpg,65,,,,,,,43,,,6,,,,,,,,173754,1,3,FALSE,,,
dig,152,543730,0.0-47.0-0.0,"""event"",""trial"",""time""
""fullscreenenter"",""1"",""4618""
","
","
","""event"",""trial"",""time""
""fullscreenenter"",""1"",""4618""
","
",,,,,,,,,,,,"[{""stimulus"":""run_exp/static/images/task_images/dig.jpg"",""time"":0.09999990463256836},{""stimulus"":""run_exp/static/images/task_images/land.jpg"",""time"":1001.2000000476837},{""stimulus"":""run_exp/static/images/task_images/dig.jpg"",""time"":2000.9000000953674}]",[],6,,,,,,,,,,,,,,
harvest,153,544742,0.0-47.0-1.0,"""event"",""trial"",""time""
""fullscreenenter"",""1"",""4618""
","
","
","""event"",""trial"",""time""
""fullscreenenter"",""1"",""4618""
","
",,null,run_exp/static/images/task_images/gems/43.jpg,null,,,,,,,37,,,6,,,,,43,0.862107287,0.860465116,,,,,,,
decision,154,546650,0.0-47.0-2.0,"""event"",""trial"",""time""
""fullscreenenter"",""1"",""4618""
","
","
","""event"",""trial"",""time""
""fullscreenenter"",""1"",""4618""
","
",,1906.1,run_exp/static/images/task_images/land.jpg,65,,,,,,,37,,,6,,,,,,,,179686,1,4,FALSE,,,
dig,155,547757,0.0-48.0-0.0,"""event"",""trial"",""time""
""fullscreenenter"",""1"",""4618""
","
","
","""event"",""trial"",""time""
""fullscreenenter"",""1"",""4618""
","
",,,,,,,,,,,,"[{""stimulus"":""run_exp/static/images/task_images/dig.jpg"",""time"":0.19999980926513672},{""stimulus"":""run_exp/static/images/task_images/land.jpg"",""time"":367},{""stimulus"":""run_exp/static/images/task_images/dig.jpg"",""time"":729.8999998569489}]",[],6,,,,,,,,,,,,,,
harvest,156,548774,0.0-48.0-1.0,"""event"",""trial"",""time""
""fullscreenenter"",""1"",""4618""
","
","
","""event"",""trial"",""time""
""fullscreenenter"",""1"",""4618""
","
",,null,run_exp/static/images/task_images/gems/37.jpg,null,,,,,,,33,,,6,,,,,37,0.900091316,0.891891892,,,,,,,
decision,157,549294,0.0-48.0-2.0,"""event"",""trial"",""time""
""fullscreenenter"",""1"",""4618""
","
","
","""event"",""trial"",""time""
""fullscreenenter"",""1"",""4618""
","
",,517.5999999,run_exp/static/images/task_images/land.jpg,65,,,,,,,33,,,6,,,,,,,,182330,1,5,FALSE,,,
dig,158,551794,0.0-49.0-0.0,"""event"",""trial"",""time""
""fullscreenenter"",""1"",""4618""
","
","
","""event"",""trial"",""time""
""fullscreenenter"",""1"",""4618""
","
",,,,,,,,,,,,"[{""stimulus"":""run_exp/static/images/task_images/dig.jpg"",""time"":0.10000014305114746},{""stimulus"":""run_exp/static/images/task_images/land.jpg"",""time"":829.8000001907349},{""stimulus"":""run_exp/static/images/task_images/dig.jpg"",""time"":1661.8000001907349}]",[],6,,,,,,,,,,,,,,
harvest,159,552810,0.0-49.0-1.0,"""event"",""trial"",""time""
""fullscreenenter"",""1"",""4618""
","
","
","""event"",""trial"",""time""
""fullscreenenter"",""1"",""4618""
","
",,null,run_exp/static/images/task_images/gems/33.jpg,null,,,,,,,26,,,6,,,,,33,0.792085017,0.787878788,,,,,,,
decision,160,554253,0.0-49.0-2.0,"""event"",""trial"",""time""
""fullscreenenter"",""1"",""4618""
","
","
","""event"",""trial"",""time""
""fullscreenenter"",""1"",""4618""
","
",,1440.5,run_exp/static/images/task_images/land.jpg,76,,,,,,,26,,,6,,,,,,,,187289,1,6,TRUE,,,
travel,161,562829,0.0-50.0-0.0,"""event"",""trial"",""time""
""fullscreenenter"",""1"",""4618""
","
","
","""event"",""trial"",""time""
""fullscreenenter"",""1"",""4618""
","
",,,,,,,,,,,,"[{""stimulus"":""run_exp/static/images/task_images/rocket-01.jpg"",""time"":0.09999990463256836},{""stimulus"":""run_exp/static/images/task_images/rocket-02.jpg"",""time"":962.0999999046326},{""stimulus"":""run_exp/static/images/task_images/rocket-03.jpg"",""time"":1911.2000000476837},{""stimulus"":""run_exp/static/images/task_images/rocket-04.jpg"",""time"":2859.899999856949},{""stimulus"":""run_exp/static/images/task_images/rocket-05.jpg"",""time"":3813},{""stimulus"":""run_exp/static/images/task_images/rocket-06.jpg"",""time"":4772.200000047684},{""stimulus"":""run_exp/static/images/task_images/rocket-07.jpg"",""time"":5722.599999904633},{""stimulus"":""run_exp/static/images/task_images/rocket-08.jpg"",""time"":6666.200000047684},{""stimulus"":""run_exp/static/images/task_images/rocket-09.jpg"",""time"":7610.899999856949}]",[],6,,,,,,,,,,,,,,
alien_welcome,162,567837,0.0-50.0-1.0,"""event"",""trial"",""time""
""fullscreenenter"",""1"",""4618""
","
","
","""event"",""trial"",""time""
""fullscreenenter"",""1"",""4618""
","
",,null,run_exp/static/images/task_images/aliens/old_aliens/planet/alien_planet-74.jpg,null,,,,,,,,,,,,,74,"19,27,43,1,3,60,74,69,37,9,36,59,68,75,5,38,23,30,14,21,25,80,33,13,71,46,26,54,76,58,41,73,63,70,49,34,18,8,24,78,44,48",,,,,,,,,,
land,163,568345,0.0-50.0-2.0,"""event"",""trial"",""time""
""fullscreenenter"",""1"",""4618""
","
","
","""event"",""trial"",""time""
""fullscreenenter"",""1"",""4618""
","
",,null,run_exp/static/images/task_images/land.jpg,null,,,,,,,104,,,7,,,,,,,,,,,,,,
dig,164,570349,0.0-50.0-3.0,"""event"",""trial"",""time""
""fullscreenenter"",""1"",""4618""
","
","
","""event"",""trial"",""time""
""fullscreenenter"",""1"",""4618""
","
",,,,,,,,,,,,"[{""stimulus"":""run_exp/static/images/task_images/dig.jpg"",""time"":0.19999980926513672},{""stimulus"":""run_exp/static/images/task_images/land.jpg"",""time"":671.6999998092651},{""stimulus"":""run_exp/static/images/task_images/dig.jpg"",""time"":1343.2999999523163}]",[],7,,,,,,,,,,,,,,
harvest,165,571365,0.0-50.0-4.0,"""event"",""trial"",""time""
""fullscreenenter"",""1"",""4618""
","
","
","""event"",""trial"",""time""
""fullscreenenter"",""1"",""4618""
","
",,null,run_exp/static/images/task_images/gems/104.jpg,null,,,,,,,80,,,7,,,,,104,0.766923979,0.769230769,,,,,,,
decision,166,573473,0.0-50.0-5.0,"""event"",""trial"",""time""
""fullscreenenter"",""1"",""4618""
","
","
","""event"",""trial"",""time""
""fullscreenenter"",""1"",""4618""
","
",,2107.4,run_exp/static/images/task_images/land.jpg,65,,,,,,,80,,,7,,,,,,,,206509,1,0,FALSE,,,
dig,167,574372,0.0-51.0-0.0,"""event"",""trial"",""time""
""fullscreenenter"",""1"",""4618""
","
","
","""event"",""trial"",""time""
""fullscreenenter"",""1"",""4618""
","
",,,,,,,,,,,,"[{""stimulus"":""run_exp/static/images/task_images/dig.jpg"",""time"":0.09999990463256836},{""stimulus"":""run_exp/static/images/task_images/land.jpg"",""time"":306.69999980926514},{""stimulus"":""run_exp/static/images/task_images/dig.jpg"",""time"":596.2999999523163}]",[],7,,,,,,,,,,,,,,
harvest,168,575393,0.0-51.0-1.0,"""event"",""trial"",""time""
""fullscreenenter"",""1"",""4618""
","
","
","""event"",""trial"",""time""
""fullscreenenter"",""1"",""4618""
","
",,null,run_exp/static/images/task_images/gems/80.jpg,null,,,,,,,71,,,7,,,,,80,0.892593479,0.8875,,,,,,,
decision,169,576814,0.0-51.0-2.0,"""event"",""trial"",""time""
""fullscreenenter"",""1"",""4618""
","
","
","""event"",""trial"",""time""
""fullscreenenter"",""1"",""4618""
","
",,1418.9,run_exp/static/images/task_images/land.jpg,65,,,,,,,71,,,7,,,,,,,,209850,1,1,FALSE,,,
dig,170,578401,0.0-52.0-0.0,"""event"",""trial"",""time""
""fullscreenenter"",""1"",""4618""
","
","
","""event"",""trial"",""time""
""fullscreenenter"",""1"",""4618""
","
",,,,,,,,,,,,"[{""stimulus"":""run_exp/static/images/task_images/dig.jpg"",""time"":0.10000014305114746},{""stimulus"":""run_exp/static/images/task_images/land.jpg"",""time"":536.9000000953674},{""stimulus"":""run_exp/static/images/task_images/dig.jpg"",""time"":1068.8000001907349}]",[],7,,,,,,,,,,,,,,
harvest,171,579424,0.0-52.0-1.0,"""event"",""trial"",""time""
""fullscreenenter"",""1"",""4618""
","
","
","""event"",""trial"",""time""
""fullscreenenter"",""1"",""4618""
","
",,null,run_exp/static/images/task_images/gems/71.jpg,null,,,,,,,60,,,7,,,,,71,0.838417082,0.845070423,,,,,,,
decision,172,580909,0.0-52.0-2.0,"""event"",""trial"",""time""
""fullscreenenter"",""1"",""4618""
","
","
","""event"",""trial"",""time""
""fullscreenenter"",""1"",""4618""
","
",,1483.5,run_exp/static/images/task_images/land.jpg,65,,,,,,,60,,,7,,,,,,,,213945,1,2,FALSE,,,
dig,173,582430,0.0-53.0-0.0,"""event"",""trial"",""time""
""fullscreenenter"",""1"",""4618""
","
","
","""event"",""trial"",""time""
""fullscreenenter"",""1"",""4618""
","
",,,,,,,,,,,,"[{""stimulus"":""run_exp/static/images/task_images/dig.jpg"",""time"":0.20000004768371582},{""stimulus"":""run_exp/static/images/task_images/land.jpg"",""time"":521},{""stimulus"":""run_exp/static/images/task_images/dig.jpg"",""time"":1013.4000000953674}]",[],7,,,,,,,,,,,,,,
harvest,174,583445,0.0-53.0-1.0,"""event"",""trial"",""time""
""fullscreenenter"",""1"",""4618""
","
","
","""event"",""trial"",""time""
""fullscreenenter"",""1"",""4618""
","
",,null,run_exp/static/images/task_images/gems/60.jpg,null,,,,,,,46,,,7,,,,,60,0.760046857,0.766666667,,,,,,,
decision,175,584851,0.0-53.0-2.0,"""event"",""trial"",""time""
""fullscreenenter"",""1"",""4618""
","
","
","""event"",""trial"",""time""
""fullscreenenter"",""1"",""4618""
","
",,1404.8,run_exp/static/images/task_images/land.jpg,65,,,,,,,46,,,7,,,,,,,,217887,1,3,FALSE,,,
dig,176,586457,0.0-54.0-0.0,"""event"",""trial"",""time""
""fullscreenenter"",""1"",""4618""
","
","
","""event"",""trial"",""time""
""fullscreenenter"",""1"",""4618""
","
",,,,,,,,,,,,"[{""stimulus"":""run_exp/static/images/task_images/dig.jpg"",""time"":0.20000004768371582},{""stimulus"":""run_exp/static/images/task_images/land.jpg"",""time"":536.4000000953674},{""stimulus"":""run_exp/static/images/task_images/dig.jpg"",""time"":1071.5}]",[],7,,,,,,,,,,,,,,
harvest,177,587475,0.0-54.0-1.0,"""event"",""trial"",""time""
""fullscreenenter"",""1"",""4618""
","
","
","""event"",""trial"",""time""
""fullscreenenter"",""1"",""4618""
","
",,null,run_exp/static/images/task_images/gems/46.jpg,null,,,,,,,28,,,7,,,,,46,0.608700043,0.608695652,,,,,,,
decision,178,589804,0.0-54.0-2.0,"""event"",""trial"",""time""
""fullscreenenter"",""1"",""4618""
","
","
","""event"",""trial"",""time""
""fullscreenenter"",""1"",""4618""
","
",,2326.3,run_exp/static/images/task_images/land.jpg,65,,,,,,,28,,,7,,,,,,,,222840,1,4,FALSE,,,
dig,179,590489,0.0-55.0-0.0,"""event"",""trial"",""time""
""fullscreenenter"",""1"",""4618""
","
","
","""event"",""trial"",""time""
""fullscreenenter"",""1"",""4618""
","
",,,,,,,,,,,,"[{""stimulus"":""run_exp/static/images/task_images/dig.jpg"",""time"":0.19999980926513672},{""stimulus"":""run_exp/static/images/task_images/land.jpg"",""time"":234.89999985694885},{""stimulus"":""run_exp/static/images/task_images/dig.jpg"",""time"":459.19999980926514}]",[],7,,,,,,,,,,,,,,
harvest,180,591501,0.0-55.0-1.0,"""event"",""trial"",""time""
""fullscreenenter"",""1"",""4618""
","
","
","""event"",""trial"",""time""
""fullscreenenter"",""1"",""4618""
","
",,null,run_exp/static/images/task_images/gems/28.jpg,null,,,,,,,22,,,7,,,,,28,0.802827953,0.785714286,,,,,,,
decision,181,592775,0.0-55.0-2.0,"""event"",""trial"",""time""
""fullscreenenter"",""1"",""4618""
","
","
","""event"",""trial"",""time""
""fullscreenenter"",""1"",""4618""
","
",,1272.5,run_exp/static/images/task_images/land.jpg,76,,,,,,,22,,,7,,,,,,,,225811,1,5,TRUE,,,
travel,182,601515,0.0-56.0-0.0,"""event"",""trial"",""time""
""fullscreenenter"",""1"",""4618""
","
","
","""event"",""trial"",""time""
""fullscreenenter"",""1"",""4618""
","
",,,,,,,,,,,,"[{""stimulus"":""run_exp/static/images/task_images/rocket-01.jpg"",""time"":0.20000004768371582},{""stimulus"":""run_exp/static/images/task_images/rocket-02.jpg"",""time"":974},{""stimulus"":""run_exp/static/images/task_images/rocket-03.jpg"",""time"":1951},{""stimulus"":""run_exp/static/images/task_images/rocket-04.jpg"",""time"":2923.9000000953674},{""stimulus"":""run_exp/static/images/task_images/rocket-05.jpg"",""time"":3877.7000000476837},{""stimulus"":""run_exp/static/images/task_images/rocket-06.jpg"",""time"":4855.5},{""stimulus"":""run_exp/static/images/task_images/rocket-07.jpg"",""time"":5819.600000143051},{""stimulus"":""run_exp/static/images/task_images/rocket-08.jpg"",""time"":6797.600000143051},{""stimulus"":""run_exp/static/images/task_images/rocket-09.jpg"",""time"":7761.400000095367}]",[],7,,,,,,,,,,,,,,
alien_welcome,183,606530,0.0-56.0-1.0,"""event"",""trial"",""time""
""fullscreenenter"",""1"",""4618""
","
","
","""event"",""trial"",""time""
""fullscreenenter"",""1"",""4618""
","
",,null,run_exp/static/images/task_images/aliens/old_aliens/planet/alien_planet-69.jpg,null,,,,,,,,,,,,,69,"19,27,43,1,3,60,74,69,37,9,36,59,68,75,5,38,23,30,14,21,25,80,33,13,71,46,26,54,76,58,41,73,63,70,49,34,18,8,24,78,44,48",,,,,,,,,,
land,184,607038,0.0-56.0-2.0,"""event"",""trial"",""time""
""fullscreenenter"",""1"",""4618""
","
","
","""event"",""trial"",""time""
""fullscreenenter"",""1"",""4618""
","
",,null,run_exp/static/images/task_images/land.jpg,null,,,,,,,105,,,8,,,,,,,,,,,,,,
dig,185,609049,0.0-56.0-3.0,"""event"",""trial"",""time""
""fullscreenenter"",""1"",""4618""
","
","
","""event"",""trial"",""time""
""fullscreenenter"",""1"",""4618""
","
",,,,,,,,,,,,"[{""stimulus"":""run_exp/static/images/task_images/dig.jpg"",""time"":0.2999999523162842},{""stimulus"":""run_exp/static/images/task_images/land.jpg"",""time"":682.2999999523163},{""stimulus"":""run_exp/static/images/task_images/dig.jpg"",""time"":1338.9000000953674}]",[],8,,,,,,,,,,,,,,
harvest,186,610053,0.0-56.0-4.0,"""event"",""trial"",""time""
""fullscreenenter"",""1"",""4618""
","
","
","""event"",""trial"",""time""
""fullscreenenter"",""1"",""4618""
","
",,null,run_exp/static/images/task_images/gems/105.jpg,null,,,,,,,80,,,8,,,,,105,0.764739486,0.761904762,,,,,,,
decision,187,610093,0.0-56.0-5.0,"""event"",""trial"",""time""
""fullscreenenter"",""1"",""4618""
","
","
","""event"",""trial"",""time""
""fullscreenenter"",""1"",""4618""
","
",,38,run_exp/static/images/task_images/land.jpg,65,,,,,,,80,,,8,,,,,,,,243129,1,0,FALSE,,,
dig,188,613063,0.0-57.0-0.0,"""event"",""trial"",""time""
""fullscreenenter"",""1"",""4618""
","
","
","""event"",""trial"",""time""
""fullscreenenter"",""1"",""4618""
","
",,,,,,,,,,,,"[{""stimulus"":""run_exp/static/images/task_images/dig.jpg"",""time"":0.19999980926513672},{""stimulus"":""run_exp/static/images/task_images/land.jpg"",""time"":1001},{""stimulus"":""run_exp/static/images/task_images/dig.jpg"",""time"":1987.5999999046326}]",[],8,,,,,,,,,,,,,,
harvest,189,614074,0.0-57.0-1.0,"""event"",""trial"",""time""
""fullscreenenter"",""1"",""4618""
","
","
","""event"",""trial"",""time""
""fullscreenenter"",""1"",""4618""
","
",,null,run_exp/static/images/task_images/gems/80.jpg,null,,,,,,,62,,,8,,,,,80,0.77181591,0.775,,,,,,,
decision,190,615358,0.0-57.0-2.0,"""event"",""trial"",""time""
""fullscreenenter"",""1"",""4618""
","
","
","""event"",""trial"",""time""
""fullscreenenter"",""1"",""4618""
","
",,1282.3,run_exp/static/images/task_images/land.jpg,65,,,,,,,62,,,8,,,,,,,,248394,1,1,FALSE,,,
dig,191,617082,0.0-58.0-0.0,"""event"",""trial"",""time""
""fullscreenenter"",""1"",""4618""
","
","
","""event"",""trial"",""time""
""fullscreenenter"",""1"",""4618""
","
",,,,,,,,,,,,"[{""stimulus"":""run_exp/static/images/task_images/dig.jpg"",""time"":0.20000004768371582},{""stimulus"":""run_exp/static/images/task_images/land.jpg"",""time"":587},{""stimulus"":""run_exp/static/images/task_images/dig.jpg"",""time"":1148.2000000476837}]",[],8,,,,,,,,,,,,,,
harvest,192,618100,0.0-58.0-1.0,"""event"",""trial"",""time""
""fullscreenenter"",""1"",""4618""
","
","
","""event"",""trial"",""time""
""fullscreenenter"",""1"",""4618""
","
",,null,run_exp/static/images/task_images/gems/62.jpg,null,,,,,,,47,,,8,,,,,62,0.76369021,0.758064516,,,,,,,
decision,193,619621,0.0-58.0-2.0,"""event"",""trial"",""time""
""fullscreenenter"",""1"",""4618""
","
","
","""event"",""trial"",""time""
""fullscreenenter"",""1"",""4618""
","
",,1519.6,run_exp/static/images/task_images/land.jpg,65,,,,,,,47,,,8,,,,,,,,252657,1,2,FALSE,,,
dig,194,621120,0.0-59.0-0.0,"""event"",""trial"",""time""
""fullscreenenter"",""1"",""4618""
","
","
","""event"",""trial"",""time""
""fullscreenenter"",""1"",""4618""
","
",,,,,,,,,,,,"[{""stimulus"":""run_exp/static/images/task_images/dig.jpg"",""time"":0.19999980926513672},{""stimulus"":""run_exp/static/images/task_images/land.jpg"",""time"":509.69999980926514},{""stimulus"":""run_exp/static/images/task_images/dig.jpg"",""time"":993.6999998092651}]",[],8,,,,,,,,,,,,,,
harvest,195,622127,0.0-59.0-1.0,"""event"",""trial"",""time""
""fullscreenenter"",""1"",""4618""
","
","
","""event"",""trial"",""time""
""fullscreenenter"",""1"",""4618""
","
",,null,run_exp/static/images/task_images/gems/47.jpg,null,,,,,,,41,,,8,,,,,47,0.864796111,0.872340426,,,,,,,
decision,196,624112,0.0-59.0-2.0,"""event"",""trial"",""time""
""fullscreenenter"",""1"",""4618""
","
","
","""event"",""trial"",""time""
""fullscreenenter"",""1"",""4618""
","
",,1983.1,run_exp/static/images/task_images/land.jpg,65,,,,,,,41,,,8,,,,,,,,257148,1,3,FALSE,,,
dig,197,625140,0.0-60.0-0.0,"""event"",""trial"",""time""
""fullscreenenter"",""1"",""4618""
","
","
","""event"",""trial"",""time""
""fullscreenenter"",""1"",""4618""
","
",,,,,,,,,,,,"[{""stimulus"":""run_exp/static/images/task_images/dig.jpg"",""time"":0.20000004768371582},{""stimulus"":""run_exp/static/images/task_images/land.jpg"",""time"":341.2000000476837},{""stimulus"":""run_exp/static/images/task_images/dig.jpg"",""time"":685.2999999523163}]",[],8,,,,,,,,,,,,,,
harvest,198,626154,0.0-60.0-1.0,"""event"",""trial"",""time""
""fullscreenenter"",""1"",""4618""
","
","
","""event"",""trial"",""time""
""fullscreenenter"",""1"",""4618""
","
",,null,run_exp/static/images/task_images/gems/41.jpg,null,,,,,,,29,,,8,,,,,41,0.700601036,0.707317073,,,,,,,
decision,199,627481,0.0-60.0-2.0,"""event"",""trial"",""time""
""fullscreenenter"",""1"",""4618""
","
","
","""event"",""trial"",""time""
""fullscreenenter"",""1"",""4618""
","
",,1325.8,run_exp/static/images/task_images/land.jpg,76,,,,,,,29,,,8,,,,,,,,260517,1,4,TRUE,,,
travel,200,636159,0.0-61.0-0.0,"""event"",""trial"",""time""
""fullscreenenter"",""1"",""4618""
","
","
","""event"",""trial"",""time""
""fullscreenenter"",""1"",""4618""
","
",,,,,,,,,,,,"[{""stimulus"":""run_exp/static/images/task_images/rocket-01.jpg"",""time"":0.09999990463256836},{""stimulus"":""run_exp/static/images/task_images/rocket-02.jpg"",""time"":972.2999999523163},{""stimulus"":""run_exp/static/images/task_images/rocket-03.jpg"",""time"":1934},{""stimulus"":""run_exp/static/images/task_images/rocket-04.jpg"",""time"":2899.0999999046326},{""stimulus"":""run_exp/static/images/task_images/rocket-05.jpg"",""time"":3862.899999856949},{""stimulus"":""run_exp/static/images/task_images/rocket-06.jpg"",""time"":4817.5},{""stimulus"":""run_exp/static/images/task_images/rocket-07.jpg"",""time"":5779.399999856949},{""stimulus"":""run_exp/static/images/task_images/rocket-08.jpg"",""time"":6742.200000047684},{""stimulus"":""run_exp/static/images/task_images/rocket-09.jpg"",""time"":7711.700000047684}]",[],8,,,,,,,,,,,,,,
alien_welcome,201,641182,0.0-61.0-1.0,"""event"",""trial"",""time""
""fullscreenenter"",""1"",""4618""
","
","
","""event"",""trial"",""time""
""fullscreenenter"",""1"",""4618""
","
",,null,run_exp/static/images/task_images/aliens/old_aliens/planet/alien_planet-37.jpg,null,,,,,,,,,,,,,37,"19,27,43,1,3,60,74,69,37,9,36,59,68,75,5,38,23,30,14,21,25,80,33,13,71,46,26,54,76,58,41,73,63,70,49,34,18,8,24,78,44,48",,,,,,,,,,
land,202,641704,0.0-61.0-2.0,"""event"",""trial"",""time""
""fullscreenenter"",""1"",""4618""
","
","
","""event"",""trial"",""time""
""fullscreenenter"",""1"",""4618""
","
",,null,run_exp/static/images/task_images/land.jpg,null,,,,,,,102,,,9,,,,,,,,,,,,,,
dig,203,643713,0.0-61.0-3.0,"""event"",""trial"",""time""
""fullscreenenter"",""1"",""4618""
","
","
","""event"",""trial"",""time""
""fullscreenenter"",""1"",""4618""
","
",,,,,,,,,,,,"[{""stimulus"":""run_exp/static/images/task_images/dig.jpg"",""time"":0.09999990463256836},{""stimulus"":""run_exp/static/images/task_images/land.jpg"",""time"":671},{""stimulus"":""run_exp/static/images/task_images/dig.jpg"",""time"":1345.5999999046326}]",[],9,,,,,,,,,,,,,,
harvest,204,644725,0.0-61.0-4.0,"""event"",""trial"",""time""
""fullscreenenter"",""1"",""4618""
","
","
","""event"",""trial"",""time""
""fullscreenenter"",""1"",""4618""
","
",,null,run_exp/static/images/task_images/gems/102.jpg,null,,,,,,,24,,,9,,,,,102,0.240154292,0.235294118,,,,,,,
decision,205,645592,0.0-61.0-5.0,"""event"",""trial"",""time""
""fullscreenenter"",""1"",""4618""
","
","
","""event"",""trial"",""time""
""fullscreenenter"",""1"",""4618""
","
",,866,run_exp/static/images/task_images/land.jpg,65,,,,,,,24,,,9,,,,,,,,278628,1,0,FALSE,,,
dig,206,647731,0.0-62.0-0.0,"""event"",""trial"",""time""
""fullscreenenter"",""1"",""4618""
","
","
","""event"",""trial"",""time""
""fullscreenenter"",""1"",""4618""
","
",,,,,,,,,,,,"[{""stimulus"":""run_exp/static/images/task_images/dig.jpg"",""time"":0.09999990463256836},{""stimulus"":""run_exp/static/images/task_images/land.jpg"",""time"":724.7000000476837},{""stimulus"":""run_exp/static/images/task_images/dig.jpg"",""time"":1438}]",[],9,,,,,,,,,,,,,,
harvest,207,648748,0.0-62.0-1.0,"""event"",""trial"",""time""
""fullscreenenter"",""1"",""4618""
","
","
","""event"",""trial"",""time""
""fullscreenenter"",""1"",""4618""
","
",,null,run_exp/static/images/task_images/gems/24.jpg,null,,,,,,,3,,,9,,,,,24,0.118096596,0.125,,,,,,,
decision,208,650361,0.0-62.0-2.0,"""event"",""trial"",""time""
""fullscreenenter"",""1"",""4618""
","
","
","""event"",""trial"",""time""
""fullscreenenter"",""1"",""4618""
","
",,1612,run_exp/static/images/task_images/land.jpg,76,,,,,,,3,,,9,,,,,,,,283397,1,1,TRUE,,,
travel,209,658775,0.0-63.0-0.0,"""event"",""trial"",""time""
""fullscreenenter"",""1"",""4618""
","
","
","""event"",""trial"",""time""
""fullscreenenter"",""1"",""4618""
","
",,,,,,,,,,,,"[{""stimulus"":""run_exp/static/images/task_images/rocket-01.jpg"",""time"":0.20000004768371582},{""stimulus"":""run_exp/static/images/task_images/rocket-02.jpg"",""time"":947.7999999523163},{""stimulus"":""run_exp/static/images/task_images/rocket-03.jpg"",""time"":1865.2999999523163},{""stimulus"":""run_exp/static/images/task_images/rocket-04.jpg"",""time"":2807.2000000476837},{""stimulus"":""run_exp/static/images/task_images/rocket-05.jpg"",""time"":3738.4000000953674},{""stimulus"":""run_exp/static/images/task_images/rocket-06.jpg"",""time"":4677.100000143051},{""stimulus"":""run_exp/static/images/task_images/rocket-07.jpg"",""time"":5601.600000143051},{""stimulus"":""run_exp/static/images/task_images/rocket-08.jpg"",""time"":6533.299999952316},{""stimulus"":""run_exp/static/images/task_images/rocket-09.jpg"",""time"":7459.299999952316}]",[],9,,,,,,,,,,,,,,
alien_welcome,210,663782,0.0-63.0-1.0,"""event"",""trial"",""time""
""fullscreenenter"",""1"",""4618""
","
","
","""event"",""trial"",""time""
""fullscreenenter"",""1"",""4618""
","
",,null,run_exp/static/images/task_images/aliens/old_aliens/planet/alien_planet-9.jpg,null,,,,,,,,,,,,,9,"19,27,43,1,3,60,74,69,37,9,36,59,68,75,5,38,23,30,14,21,25,80,33,13,71,46,26,54,76,58,41,73,63,70,49,34,18,8,24,78,44,48",,,,,,,,,,
land,211,664288,0.0-63.0-2.0,"""event"",""trial"",""time""
""fullscreenenter"",""1"",""4618""
","
","
","""event"",""trial"",""time""
""fullscreenenter"",""1"",""4618""
","
",,null,run_exp/static/images/task_images/land.jpg,null,,,,,,,97,,,10,,,,,,,,,,,,,,
dig,212,666302,0.0-63.0-3.0,"""event"",""trial"",""time""
""fullscreenenter"",""1"",""4618""
","
","
","""event"",""trial"",""time""
""fullscreenenter"",""1"",""4618""
","
",,,,,,,,,,,,"[{""stimulus"":""run_exp/static/images/task_images/dig.jpg"",""time"":1},{""stimulus"":""run_exp/static/images/task_images/land.jpg"",""time"":685.1999998092651},{""stimulus"":""run_exp/static/images/task_images/dig.jpg"",""time"":1338.5999999046326}]",[],10,,,,,,,,,,,,,,
harvest,213,667320,0.0-63.0-4.0,"""event"",""trial"",""time""
""fullscreenenter"",""1"",""4618""
","
","
","""event"",""trial"",""time""
""fullscreenenter"",""1"",""4618""
","
",,null,run_exp/static/images/task_images/gems/97.jpg,null,,,,,,,21,,,10,,,,,97,0.215417332,0.216494845,,,,,,,
decision,214,667708,0.0-63.0-5.0,"""event"",""trial"",""time""
""fullscreenenter"",""1"",""4618""
","
","
","""event"",""trial"",""time""
""fullscreenenter"",""1"",""4618""
","
",,385.7,run_exp/static/images/task_images/land.jpg,65,,,,,,,21,,,10,,,,,,,,300744,1,0,TRUE,,,
end_of_block_continue,215,676646,0.0-64.0-0.0,"""event"",""trial"",""time""
""fullscreenenter"",""1"",""4618""
","
","
","""event"",""trial"",""time""
""fullscreenenter"",""1"",""4618""
","
",,null,run_exp/static/audio/clip_32_block_end.m4a,,,,,,,null,,,,,,,,,,,,,,,,,,
alien_welcome,216,681656,0.0-65.0-0.0,"""event"",""trial"",""time""
""fullscreenenter"",""1"",""4618""
","
","
","""event"",""trial"",""time""
""fullscreenenter"",""1"",""4618""
","
",,null,run_exp/static/images/task_images/aliens/old_aliens/planet/alien_planet-36.jpg,null,,,,,,,,,,,,,36,"19,27,43,1,3,60,74,69,37,9,36,59,68,75,5,38,23,30,14,21,25,80,33,13,71,46,26,54,76,58,41,73,63,70,49,34,18,8,24,78,44,48",,,,,,,,,,
land,217,682163,0.0-65.0-1.0,"""event"",""trial"",""time""
""fullscreenenter"",""1"",""4618""
","
","
","""event"",""trial"",""time""
""fullscreenenter"",""1"",""4618""
","
",,null,run_exp/static/images/task_images/land.jpg,null,,,,,,,103,,,11,,,,,,,,,,,,,,
dig,218,684179,0.0-65.0-2.0,"""event"",""trial"",""time""
""fullscreenenter"",""1"",""4618""
","
","
","""event"",""trial"",""time""
""fullscreenenter"",""1"",""4618""
","
",,,,,,,,,,,,"[{""stimulus"":""run_exp/static/images/task_images/dig.jpg"",""time"":0.2999999523162842},{""stimulus"":""run_exp/static/images/task_images/land.jpg"",""time"":679},{""stimulus"":""run_exp/static/images/task_images/dig.jpg"",""time"":1338.7999999523163}]",[],11,,,,,,,,,,,,,,
harvest,219,685201,0.0-65.0-3.0,"""event"",""trial"",""time""
""fullscreenenter"",""1"",""4618""
","
","
","""event"",""trial"",""time""
""fullscreenenter"",""1"",""4618""
","
",,null,run_exp/static/images/task_images/gems/103.jpg,null,,,,,,,24,,,11,,,,,103,0.233051998,0.233009709,,,,,,,
decision,220,685657,0.0-65.0-4.0,"""event"",""trial"",""time""
""fullscreenenter"",""1"",""4618""
","
","
","""event"",""trial"",""time""
""fullscreenenter"",""1"",""4618""
","
",,454.8000002,run_exp/static/images/task_images/land.jpg,65,,,,,,,24,,,11,,,,,,,,9009,2,0,FALSE,,,
dig,221,688217,0.0-66.0-0.0,"""event"",""trial"",""time""
""fullscreenenter"",""1"",""4618""
","
","
","""event"",""trial"",""time""
""fullscreenenter"",""1"",""4618""
","
",,,,,,,,,,,,"[{""stimulus"":""run_exp/static/images/task_images/dig.jpg"",""time"":0.20000004768371582},{""stimulus"":""run_exp/static/images/task_images/land.jpg"",""time"":864.3000001907349},{""stimulus"":""run_exp/static/images/task_images/dig.jpg"",""time"":1698.4000000953674}]",[],11,,,,,,,,,,,,,,
harvest,222,689231,0.0-66.0-1.0,"""event"",""trial"",""time""
""fullscreenenter"",""1"",""4618""
","
","
","""event"",""trial"",""time""
""fullscreenenter"",""1"",""4618""
","
",,null,run_exp/static/images/task_images/gems/24.jpg,null,,,,,,,4,,,11,,,,,24,0.17989352,0.166666667,,,,,,,
decision,223,690457,0.0-66.0-2.0,"""event"",""trial"",""time""
""fullscreenenter"",""1"",""4618""
","
","
","""event"",""trial"",""time""
""fullscreenenter"",""1"",""4618""
","
",,1225.1,run_exp/static/images/task_images/land.jpg,76,,,,,,,4,,,11,,,,,,,,13809,2,1,TRUE,,,
travel,224,699236,0.0-67.0-0.0,"""event"",""trial"",""time""
""fullscreenenter"",""1"",""4618""
","
","
","""event"",""trial"",""time""
""fullscreenenter"",""1"",""4618""
","
",,,,,,,,,,,,"[{""stimulus"":""run_exp/static/images/task_images/rocket-01.jpg"",""time"":0.5},{""stimulus"":""run_exp/static/images/task_images/rocket-02.jpg"",""time"":994.5999999046326},{""stimulus"":""run_exp/static/images/task_images/rocket-03.jpg"",""time"":1962.5999999046326},{""stimulus"":""run_exp/static/images/task_images/rocket-04.jpg"",""time"":2925.7000000476837},{""stimulus"":""run_exp/static/images/task_images/rocket-05.jpg"",""time"":3913.5999999046326},{""stimulus"":""run_exp/static/images/task_images/rocket-06.jpg"",""time"":4884.799999952316},{""stimulus"":""run_exp/static/images/task_images/rocket-07.jpg"",""time"":5857.5},{""stimulus"":""run_exp/static/images/task_images/rocket-08.jpg"",""time"":6834.299999952316},{""stimulus"":""run_exp/static/images/task_images/rocket-09.jpg"",""time"":7797.799999952316}]",[],11,,,,,,,,,,,,,,
alien_welcome,225,704246,0.0-67.0-1.0,"""event"",""trial"",""time""
""fullscreenenter"",""1"",""4618""
","
","
","""event"",""trial"",""time""
""fullscreenenter"",""1"",""4618""
","
",,null,run_exp/static/images/task_images/aliens/old_aliens/planet/alien_planet-59.jpg,null,,,,,,,,,,,,,59,"19,27,43,1,3,60,74,69,37,9,36,59,68,75,5,38,23,30,14,21,25,80,33,13,71,46,26,54,76,58,41,73,63,70,49,34,18,8,24,78,44,48",,,,,,,,,,
land,226,704758,0.0-67.0-2.0,"""event"",""trial"",""time""
""fullscreenenter"",""1"",""4618""
","
","
","""event"",""trial"",""time""
""fullscreenenter"",""1"",""4618""
","
",,null,run_exp/static/images/task_images/land.jpg,null,,,,,,,100,,,12,,,,,,,,,,,,,,
dig,227,706766,0.0-67.0-3.0,"""event"",""trial"",""time""
""fullscreenenter"",""1"",""4618""
","
","
","""event"",""trial"",""time""
""fullscreenenter"",""1"",""4618""
","
",,,,,,,,,,,,"[{""stimulus"":""run_exp/static/images/task_images/dig.jpg"",""time"":0.39999985694885254},{""stimulus"":""run_exp/static/images/task_images/land.jpg"",""time"":676.1999998092651},{""stimulus"":""run_exp/static/images/task_images/dig.jpg"",""time"":1340.3999998569489}]",[],12,,,,,,,,,,,,,,
harvest,228,707777,0.0-67.0-4.0,"""event"",""trial"",""time""
""fullscreenenter"",""1"",""4618""
","
","
","""event"",""trial"",""time""
""fullscreenenter"",""1"",""4618""
","
",,null,run_exp/static/images/task_images/gems/100.jpg,null,,,,,,,19,,,12,,,,,100,0.19090672,0.19,,,,,,,
decision,229,708241,0.0-67.0-5.0,"""event"",""trial"",""time""
""fullscreenenter"",""1"",""4618""
","
","
","""event"",""trial"",""time""
""fullscreenenter"",""1"",""4618""
","
",,463.5,run_exp/static/images/task_images/land.jpg,65,,,,,,,19,,,12,,,,,,,,31593,2,0,FALSE,,,
dig,230,710795,0.0-68.0-0.0,"""event"",""trial"",""time""
""fullscreenenter"",""1"",""4618""
","
","
","""event"",""trial"",""time""
""fullscreenenter"",""1"",""4618""
","
",,,,,,,,,,,,"[{""stimulus"":""run_exp/static/images/task_images/dig.jpg"",""time"":0.09999990463256836},{""stimulus"":""run_exp/static/images/task_images/land.jpg"",""time"":858.8999998569489},{""stimulus"":""run_exp/static/images/task_images/dig.jpg"",""time"":1697.7000000476837}]",[],12,,,,,,,,,,,,,,
harvest,231,711805,0.0-68.0-1.0,"""event"",""trial"",""time""
""fullscreenenter"",""1"",""4618""
","
","
","""event"",""trial"",""time""
""fullscreenenter"",""1"",""4618""
","
",,null,run_exp/static/images/task_images/gems/19.jpg,null,,,,,,,4,,,12,,,,,19,0.192355415,0.210526316,,,,,,,
decision,232,713356,0.0-68.0-2.0,"""event"",""trial"",""time""
""fullscreenenter"",""1"",""4618""
","
","
","""event"",""trial"",""time""
""fullscreenenter"",""1"",""4618""
","
",,1549.5,run_exp/static/images/task_images/land.jpg,65,,,,,,,4,,,12,,,,,,,,36708,2,1,FALSE,,,
dig,233,714818,0.0-69.0-0.0,"""event"",""trial"",""time""
""fullscreenenter"",""1"",""4618""
","
","
","""event"",""trial"",""time""
""fullscreenenter"",""1"",""4618""
","
",,,,,,,,,,,,"[{""stimulus"":""run_exp/static/images/task_images/dig.jpg"",""time"":0.09999990463256836},{""stimulus"":""run_exp/static/images/task_images/land.jpg"",""time"":494.7999999523163},{""stimulus"":""run_exp/static/images/task_images/dig.jpg"",""time"":976.8999998569489}]",[],12,,,,,,,,,,,,,,
harvest,234,715839,0.0-69.0-1.0,"""event"",""trial"",""time""
""fullscreenenter"",""1"",""4618""
","
","
","""event"",""trial"",""time""
""fullscreenenter"",""1"",""4618""
","
",,null,run_exp/static/images/task_images/gems/4.jpg,null,,,,,,,1,,,12,,,,,4,0.150907,0.25,,,,,,,
decision,235,716939,0.0-69.0-2.0,"""event"",""trial"",""time""
""fullscreenenter"",""1"",""4618""
","
","
","""event"",""trial"",""time""
""fullscreenenter"",""1"",""4618""
","
",,1098.5,run_exp/static/images/task_images/land.jpg,76,,,,,,,1,,,12,,,,,,,,40291,2,2,TRUE,,,
travel,236,725851,0.0-70.0-0.0,"""event"",""trial"",""time""
""fullscreenenter"",""1"",""4618""
","
","
","""event"",""trial"",""time""
""fullscreenenter"",""1"",""4618""
","
",,,,,,,,,,,,"[{""stimulus"":""run_exp/static/images/task_images/rocket-01.jpg"",""time"":0.09999990463256836},{""stimulus"":""run_exp/static/images/task_images/rocket-02.jpg"",""time"":1002},{""stimulus"":""run_exp/static/images/task_images/rocket-03.jpg"",""time"":1982},{""stimulus"":""run_exp/static/images/task_images/rocket-04.jpg"",""time"":2977.2000000476837},{""stimulus"":""run_exp/static/images/task_images/rocket-05.jpg"",""time"":3964.0999999046326},{""stimulus"":""run_exp/static/images/task_images/rocket-06.jpg"",""time"":4951.299999952316},{""stimulus"":""run_exp/static/images/task_images/rocket-07.jpg"",""time"":5949.099999904633},{""stimulus"":""run_exp/static/images/task_images/rocket-08.jpg"",""time"":6931.700000047684},{""stimulus"":""run_exp/static/images/task_images/rocket-09.jpg"",""time"":7915.599999904633}]",[],12,,,,,,,,,,,,,,
alien_welcome,237,730869,0.0-70.0-1.0,"""event"",""trial"",""time""
""fullscreenenter"",""1"",""4618""
","
","
","""event"",""trial"",""time""
""fullscreenenter"",""1"",""4618""
","
",,null,run_exp/static/images/task_images/aliens/old_aliens/planet/alien_planet-68.jpg,null,,,,,,,,,,,,,68,"19,27,43,1,3,60,74,69,37,9,36,59,68,75,5,38,23,30,14,21,25,80,33,13,71,46,26,54,76,58,41,73,63,70,49,34,18,8,24,78,44,48",,,,,,,,,,
land,238,731377,0.0-70.0-2.0,"""event"",""trial"",""time""
""fullscreenenter"",""1"",""4618""
","
","
","""event"",""trial"",""time""
""fullscreenenter"",""1"",""4618""
","
",,null,run_exp/static/images/task_images/land.jpg,null,,,,,,,104,,,13,,,,,,,,,,,,,,
dig,239,733398,0.0-70.0-3.0,"""event"",""trial"",""time""
""fullscreenenter"",""1"",""4618""
","
","
","""event"",""trial"",""time""
""fullscreenenter"",""1"",""4618""
","
",,,,,,,,,,,,"[{""stimulus"":""run_exp/static/images/task_images/dig.jpg"",""time"":0.19999980926513672},{""stimulus"":""run_exp/static/images/task_images/land.jpg"",""time"":681.5999999046326},{""stimulus"":""run_exp/static/images/task_images/dig.jpg"",""time"":1341.8999998569489}]",[],13,,,,,,,,,,,,,,
harvest,240,734407,0.0-70.0-4.0,"""event"",""trial"",""time""
""fullscreenenter"",""1"",""4618""
","
","
","""event"",""trial"",""time""
""fullscreenenter"",""1"",""4618""
","
",,null,run_exp/static/images/task_images/gems/104.jpg,null,,,,,,,25,,,13,,,,,104,0.237809225,0.240384615,,,,,,,
decision,241,734801,0.0-70.0-5.0,"""event"",""trial"",""time""
""fullscreenenter"",""1"",""4618""
","
","
","""event"",""trial"",""time""
""fullscreenenter"",""1"",""4618""
","
",,392.6000001,run_exp/static/images/task_images/land.jpg,65,,,,,,,25,,,13,,,,,,,,58153,2,0,FALSE,,,
dig,242,737415,0.0-71.0-0.0,"""event"",""trial"",""time""
""fullscreenenter"",""1"",""4618""
","
","
","""event"",""trial"",""time""
""fullscreenenter"",""1"",""4618""
","
