trial_type,trial_index,time_elapsed,internal_node_id,interactions,blur_events,focus_events,fullscreenenter_events,fullscreenexit_events,success,rt,stimulus,key_press,prompt,subject_id,participant_id,age,gender,button_pressed,next_reward,animation_sequence,responses,planet,curr_prac_trial,n_prac_rounds,alien,aliens,reward_received,decay_rate_actual,decay_rate_exp,time_in_block,block_num,prt,last_trial_on_planet,button_html,bonus,num_failures
pavlovia,0,11,0.0-0.0,"""event"",""trial"",""time""
""fullscreenenter"",""1"",""7249""
","
","
","""event"",""trial"",""time""
""fullscreenenter"",""1"",""7249""
","
",,,,,,,,,,,,,,,,,,,,,,,,,,,,
fullscreen,1,8220,0.0-1.0,"""event"",""trial"",""time""
""fullscreenenter"",""1"",""7249""
","
","
","""event"",""trial"",""time""
""fullscreenenter"",""1"",""7249""
","
",TRUE,,,,,,,,,,,,,,,,,,,,,,,,,,,
instruc_welcome,2,18218,0.0-2.0,"""event"",""trial"",""time""
""fullscreenenter"",""1"",""7249""
","
","
","""event"",""trial"",""time""
""fullscreenenter"",""1"",""7249""
","
",,null,run_exp/static/audio/clip_1_welcome.m4a,null,"<p>Howdy! In this experiment, you’ll be an explorer traveling through space to collect space treasure.</p><p>Your mission is to collect as much treasure as possible.</p><br><br><p><img src='run_exp/static/images/task_images/opening_img-01.jpg' height='300' width='auto'></p>",9289,611,17.06,Male,,,,,,,,,,,,,,,,,,,
audio-keyboard-response,3,34815,0.0-3.0,"""event"",""trial"",""time""
""fullscreenenter"",""1"",""7249""
","
","
","""event"",""trial"",""time""
""fullscreenenter"",""1"",""7249""
","
",,null,run_exp/static/audio/clip_2_move.m4a,null,,,,,,,,,,,,,,,,,,,,,,,,
welcome_dec,4,42219,0.0-4.0,"""event"",""trial"",""time""
""fullscreenenter"",""1"",""7249""
","
","
","""event"",""trial"",""time""
""fullscreenenter"",""1"",""7249""
","
",,7402.7,"<p>Howdy! In this experiment, you’ll be an explorer traveling through space to collect space treasure.</p><p>Your mission is to collect as much treasure as possible.</p><br><br><p><img src='run_exp/static/images/task_images/opening_img-01.jpg' height='300' width='auto'></p>",,,,,,,1,,,,,,,,,,,,,,,,,,
html-keyboard-response,5,43677,0.0-5.0,"""event"",""trial"",""time""
""fullscreenenter"",""1"",""7249""
","
","
","""event"",""trial"",""time""
""fullscreenenter"",""1"",""7249""
","
",,1453.3,"<p>Howdy! In this experiment, you’ll be an explorer traveling through space to collect space treasure.</p><p>Your mission is to collect as much treasure as possible.</p><br><br><p><img src='run_exp/static/images/task_images/opening_img-01.jpg' height='300' width='auto'></p><button class=""jspsych-html-btn-unchosen""><img src=""run_exp/static/images/task_images/planet-01.jpg"" height=""50""></button><button class=""jspsych-html-btn-chosen""><img src=""run_exp/static/images/task_images/planet-02.jpg"" height=""50""></button><p><b>[press the space bar to lock in your answer]<b><br></p>",32,,,,,,,,,,,,,,,,,,,,,,,,
instruc_goal,6,53751,0.0-6.0-0.0,"""event"",""trial"",""time""
""fullscreenenter"",""1"",""7249""
","
","
","""event"",""trial"",""time""
""fullscreenenter"",""1"",""7249""
","
",,null,run_exp/static/audio/clip_3_goal.m4a,null,"<p> As a space explorer, you’ll visit different planets to dig for space treasure, these pink gems.</p> <p> The more treasure you dig up, the more bonus money you’ll win! </p><br><br><p><img src='run_exp/static/images/task_images/pink_gem.jpg' height='300' width='auto'></p>",,,,,,,,,,,,,,,,,,,,,,,
instruc_goal,7,55724,0.0-6.0-1.0,"""event"",""trial"",""time""
""fullscreenenter"",""1"",""7249""
","
","
","""event"",""trial"",""time""
""fullscreenenter"",""1"",""7249""
","
",,1968.7,"<p> As a space explorer, you’ll visit different planets to dig for space treasure, these pink gems.</p> <p> The more treasure you dig up, the more bonus money you’ll win! </p><br><br><p><img src='run_exp/static/images/task_images/pink_gem.jpg' height='300' width='auto'></p>",,,,,,,1,,,,,,,,,,,,,,,,,,
html-keyboard-response,8,56940,0.0-6.0-2.0,"""event"",""trial"",""time""
""fullscreenenter"",""1"",""7249""
","
","
","""event"",""trial"",""time""
""fullscreenenter"",""1"",""7249""
","
",,1214.5,"<p> As a space explorer, you’ll visit different planets to dig for space treasure, these pink gems.</p> <p> The more treasure you dig up, the more bonus money you’ll win! </p><br><br><p><img src='run_exp/static/images/task_images/pink_gem.jpg' height='300' width='auto'></p><button class=""jspsych-html-btn-unchosen""><img src=""run_exp/static/images/task_images/planet-01.jpg"" height=""50""></button><button class=""jspsych-html-btn-chosen""><img src=""run_exp/static/images/task_images/planet-02.jpg"" height=""50""></button><p><b>[press the space bar to lock in your answer]<b><br></p>",32,,,,,,,,,,,,,,,,,,,,,,,,
instruc_dig,9,72951,0.0-7.0-0.0,"""event"",""trial"",""time""
""fullscreenenter"",""1"",""7249""
","
","
","""event"",""trial"",""time""
""fullscreenenter"",""1"",""7249""
","
",,null,run_exp/static/audio/clip_4_dig.m4a,null,,,,,,,100,,,,,,,,,,,,,,,,,
instruc_dig_try,10,79031,0.0-7.0-1.0,"""event"",""trial"",""time""
""fullscreenenter"",""1"",""7249""
","
","
","""event"",""trial"",""time""
""fullscreenenter"",""1"",""7249""
","
",,6075.3,"<p> When you’ve arrived at a new planet, you will dig once. </p> <p>Then, you get to decide if you want to stay on the planet and dig again or travel to a new planet and dig there.</p> <p> To stay and dig, press the letter <strong>‘A’</strong> on your keyboard. Try pressing it now! </p><p><img src='run_exp/static/images/task_images/land.jpg'  height='700' width='auto'></p>",65,"<p> When you’ve arrived at a new planet, you will dig once. </p> <p>Then, you get to decide if you want to stay on the planet and dig again or travel to a new planet and dig there.</p> <p> To stay and dig, press the letter <strong>‘A’</strong> on your keyboard. Try pressing it now! </p><p><img src='run_exp/static/images/task_images/land.jpg'  height='700' width='auto'></p>",,,,,,100,,,,,,,,,,,,,,,,,
dig_prac,11,81059,0.0-7.0-2.0,"""event"",""trial"",""time""
""fullscreenenter"",""1"",""7249""
","
","
","""event"",""trial"",""time""
""fullscreenenter"",""1"",""7249""
","
",,,,,,,,,,,,"[{""stimulus"":""run_exp/static/images/task_images/dig.jpg"",""time"":1.100000023841858},{""stimulus"":""run_exp/static/images/task_images/land.jpg"",""time"":676.7000000476837},{""stimulus"":""run_exp/static/images/task_images/dig.jpg"",""time"":1347.1000000238419}]",[],,,,,,,,,,,,,,,
instruc_travel,12,117315,0.0-7.0-3.0,"""event"",""trial"",""time""
""fullscreenenter"",""1"",""7249""
","
","
","""event"",""trial"",""time""
""fullscreenenter"",""1"",""7249""
","
",,null,run_exp/static/audio/clip_5_travel.m4a,null,"<p>Every time you dig up gems, there are less gems on the planet, so the more you dig on a planet the fewer gems you’ll get with each dig.</p><p>When gems are running low, you may want to travel to a new planet. </p> <p>  Planets are very far apart in this galaxy, so it will take some time to travel between them. </p> <br><p>There are lots and lots of planets for you to visit, so you won’t be able to return to any planets you’ve seen before. </p><br><p>To leave this planet and travel to a new one, press the letter <strong>‘L’</strong> on your keyboard. Try pressing it now! </p><p><img src='run_exp/static/images/task_images/rocket-01.jpg'  height='600' width='auto'></p>",,,,,,,,,,,,,,,,,,,,,,,
instruc_travel_try,13,120278,0.0-7.0-4.0,"""event"",""trial"",""time""
""fullscreenenter"",""1"",""7249""
","
","
","""event"",""trial"",""time""
""fullscreenenter"",""1"",""7249""
","
",,2957.8,"<p>Every time you dig up gems, there are less gems on the planet, so the more you dig on a planet the fewer gems you’ll get with each dig.</p><p>When gems are running low, you may want to travel to a new planet. </p> <p>  Planets are very far apart in this galaxy, so it will take some time to travel between them. </p> <br><p>There are lots and lots of planets for you to visit, so you won’t be able to return to any planets you’ve seen before. </p><br><p>To leave this planet and travel to a new one, press the letter <strong>‘L’</strong> on your keyboard. Try pressing it now! </p><p><img src='run_exp/static/images/task_images/rocket-01.jpg'  height='600' width='auto'></p>",76,"<p>Every time you dig up gems, there are less gems on the planet, so the more you dig on a planet the fewer gems you’ll get with each dig.</p><p>When gems are running low, you may want to travel to a new planet. </p> <p>  Planets are very far apart in this galaxy, so it will take some time to travel between them. </p> <br><p>There are lots and lots of planets for you to visit, so you won’t be able to return to any planets you’ve seen before. </p><br><p>To leave this planet and travel to a new one, press the letter <strong>‘L’</strong> on your keyboard. Try pressing it now! </p><p><img src='run_exp/static/images/task_images/rocket-01.jpg'  height='600' width='auto'></p>",,,,,,,,,,,,,,,,,,,,,,,
travel_prac,14,130287,0.0-7.0-5.0,"""event"",""trial"",""time""
""fullscreenenter"",""1"",""7249""
","
","
","""event"",""trial"",""time""
""fullscreenenter"",""1"",""7249""
","
",,,,,,,,,,,,"[{""stimulus"":""run_exp/static/images/task_images/rocket-01.jpg"",""time"":0.3999999761581421},{""stimulus"":""run_exp/static/images/task_images/rocket-02.jpg"",""time"":1119.800000011921},{""stimulus"":""run_exp/static/images/task_images/rocket-03.jpg"",""time"":2226.5},{""stimulus"":""run_exp/static/images/task_images/rocket-04.jpg"",""time"":3337.199999988079},{""stimulus"":""run_exp/static/images/task_images/rocket-05.jpg"",""time"":4449.199999988079},{""stimulus"":""run_exp/static/images/task_images/rocket-06.jpg"",""time"":5560.199999988079},{""stimulus"":""run_exp/static/images/task_images/rocket-07.jpg"",""time"":6681.399999976158},{""stimulus"":""run_exp/static/images/task_images/rocket-08.jpg"",""time"":7781.800000011921},{""stimulus"":""run_exp/static/images/task_images/rocket-09.jpg"",""time"":8899}]",[],0,,,,,,,,,,,,,,
instruc_alien_greet,15,157463,0.0-7.0-6.0,"""event"",""trial"",""time""
""fullscreenenter"",""1"",""7249""
","
","
","""event"",""trial"",""time""
""fullscreenenter"",""1"",""7249""
","
",,null,run_exp/static/audio/clip_6_alien.m4a,null,"<p>When you arrive at a new planet, the alien who owns the treasure mine on that planet will greet you!</p><p>The better an alien takes care of their mine the easier it is to dig for gems. Some aliens take better care of their mine than others. So, you won’t get exactly the same amount of gems on each planet.</p><p>What the alien looks like does not tell you anything about how many gems there are on the planet.</p><br><p><img src=""run_exp/static/images/task_images/aliens/instructions_aliens/planet/alien_planet-1.jpg""  height=""600"" width=""auto""></p>",,,,,,,,,,,,,,,,,,,,,,,
instruc_alien_greet,16,163358,0.0-7.0-7.0,"""event"",""trial"",""time""
""fullscreenenter"",""1"",""7249""
","
","
","""event"",""trial"",""time""
""fullscreenenter"",""1"",""7249""
","
",,5889.7,"<p>When you arrive at a new planet, the alien who owns the treasure mine on that planet will greet you!</p><p>The better an alien takes care of their mine the easier it is to dig for gems. Some aliens take better care of their mine than others. So, you won’t get exactly the same amount of gems on each planet.</p><p>What the alien looks like does not tell you anything about how many gems there are on the planet.</p><br><p><img src=""run_exp/static/images/task_images/aliens/instructions_aliens/planet/alien_planet-1.jpg""  height=""600"" width=""auto""></p>",,,,,,,1,,,,,,,,,,,,,,,,,,
html-keyboard-response,17,166821,0.0-7.0-8.0,"""event"",""trial"",""time""
""fullscreenenter"",""1"",""7249""
","
","
","""event"",""trial"",""time""
""fullscreenenter"",""1"",""7249""
","
",,3467.2,"<p>When you arrive at a new planet, the alien who owns the treasure mine on that planet will greet you!</p><p>The better an alien takes care of their mine the easier it is to dig for gems. Some aliens take better care of their mine than others. So, you won’t get exactly the same amount of gems on each planet.</p><p>What the alien looks like does not tell you anything about how many gems there are on the planet.</p><br><p><img src=""run_exp/static/images/task_images/aliens/instructions_aliens/planet/alien_planet-1.jpg""  height=""600"" width=""auto""></p><button class=""jspsych-html-btn-unchosen""><img src=""run_exp/static/images/task_images/planet-01.jpg"" height=""50""></button><button class=""jspsych-html-btn-chosen""><img src=""run_exp/static/images/task_images/planet-02.jpg"" height=""50""></button><p><b>[press the space bar to lock in your answer]<b><br></p>",32,,,,,,,,,,,,,,,,,,,,,,,,
time_out,18,177916,0.0-8.0-0.0,"""event"",""trial"",""time""
""fullscreenenter"",""1"",""7249""
","
","
","""event"",""trial"",""time""
""fullscreenenter"",""1"",""7249""
","
",,null,run_exp/static/audio/clip_7_timeout.m4a,null,"<p>If you don't make your choice fast enough, you’ll have to wait a few seconds before you can make another one.</p><p>You can’t dig for more gems or travel to new planets. You just have to sit and wait.</p><br><p><img src='run_exp/static/images/task_images/time_out.jpg'  height='600' width='auto'></p>",,,,,,,,,,,,,,,,,,,,,,,
time_out,19,180412,0.0-8.0-1.0,"""event"",""trial"",""time""
""fullscreenenter"",""1"",""7249""
","
","
","""event"",""trial"",""time""
""fullscreenenter"",""1"",""7249""
","
",,2488.3,"<p>If you don't make your choice fast enough, you’ll have to wait a few seconds before you can make another one.</p><p>You can’t dig for more gems or travel to new planets. You just have to sit and wait.</p><br><p><img src='run_exp/static/images/task_images/time_out.jpg'  height='600' width='auto'></p>",,,,,,,1,,,,,,,,,,,,,,,,,,
html-keyboard-response,20,180719,0.0-8.0-2.0,"""event"",""trial"",""time""
""fullscreenenter"",""1"",""7249""
","
","
","""event"",""trial"",""time""
""fullscreenenter"",""1"",""7249""
","
",,304.7,"<p>If you don't make your choice fast enough, you’ll have to wait a few seconds before you can make another one.</p><p>You can’t dig for more gems or travel to new planets. You just have to sit and wait.</p><br><p><img src='run_exp/static/images/task_images/time_out.jpg'  height='600' width='auto'></p><button class=""jspsych-html-btn-unchosen""><img src=""run_exp/static/images/task_images/planet-01.jpg"" height=""50""></button><button class=""jspsych-html-btn-chosen""><img src=""run_exp/static/images/task_images/planet-02.jpg"" height=""50""></button><p><b>[press the space bar to lock in your answer]<b><br></p>",32,,,,,,,,,,,,,,,,,,,,,,,,
instruc_break,21,196396,0.0-9.0-0.0,"""event"",""trial"",""time""
""fullscreenenter"",""1"",""7249""
","
","
","""event"",""trial"",""time""
""fullscreenenter"",""1"",""7249""
","
",,null,run_exp/static/audio/clip_8_break.m4a,null,"<p> After digging and traveling for a while, you’ll be able to take a break at home base. </p><p>The game will last 20 minutes no matter what.</p><p>You will visit home base every 5 minutes, so, you will visit home base three times during the game.</p><br><p><img src='run_exp/static/images/task_images/home_base.jpg' height='600' width='auto'></p>",,,,,,,,,,,,,,,,,,,,,,,
instruc_break,22,197818,0.0-9.0-1.0,"""event"",""trial"",""time""
""fullscreenenter"",""1"",""7249""
","
","
","""event"",""trial"",""time""
""fullscreenenter"",""1"",""7249""
","
",,1417.9,"<p> After digging and traveling for a while, you’ll be able to take a break at home base. </p><p>The game will last 20 minutes no matter what.</p><p>You will visit home base every 5 minutes, so, you will visit home base three times during the game.</p><br><p><img src='run_exp/static/images/task_images/home_base.jpg' height='600' width='auto'></p>",,,,,,,1,,,,,,,,,,,,,,,,,,
html-keyboard-response,23,198143,0.0-9.0-2.0,"""event"",""trial"",""time""
""fullscreenenter"",""1"",""7249""
","
","
","""event"",""trial"",""time""
""fullscreenenter"",""1"",""7249""
","
",,319.5,"<p> After digging and traveling for a while, you’ll be able to take a break at home base. </p><p>The game will last 20 minutes no matter what.</p><p>You will visit home base every 5 minutes, so, you will visit home base three times during the game.</p><br><p><img src='run_exp/static/images/task_images/home_base.jpg' height='600' width='auto'></p><button class=""jspsych-html-btn-unchosen""><img src=""run_exp/static/images/task_images/planet-01.jpg"" height=""50""></button><button class=""jspsych-html-btn-chosen""><img src=""run_exp/static/images/task_images/planet-02.jpg"" height=""50""></button><p><b>[press the space bar to lock in your answer]<b><br></p>",32,,,,,,,,,,,,,,,,,,,,,,,,
instruc_prac_game,24,208276,0.0-10.0-0.0,"""event"",""trial"",""time""
""fullscreenenter"",""1"",""7249""
","
","
","""event"",""trial"",""time""
""fullscreenenter"",""1"",""7249""
","
",,null,run_exp/static/audio/clip_9_practice.m4a,null,"<p> Are you ready to play a practice game? </p> <p>In this practice game, you'll be digging up barrels of gems. But, in the real game, you'll be digging up the gems themselves. </p>",,,,,,,,,,,,,,,,,,,,,,,
html-button-response,25,210516,0.0-10.0-1.0,"""event"",""trial"",""time""
""fullscreenenter"",""1"",""7249""
","
","
","""event"",""trial"",""time""
""fullscreenenter"",""1"",""7249""
","
",,2235.5,"<p> Are you ready to play a practice game? </p> <p>In this practice game, you'll be digging up barrels of gems. But, in the real game, you'll be digging up the gems themselves. </p>",,,,,,,0,,,,,,,,,,,,,,,,,,
alien_welcome_prac,26,215536,0.0-11.0-0.0,"""event"",""trial"",""time""
""fullscreenenter"",""1"",""7249""
","
","
","""event"",""trial"",""time""
""fullscreenenter"",""1"",""7249""
","
",,null,run_exp/static/images/task_images/aliens/practice_aliens/planet/alien_planet-5.jpg,null,,,,,,,,,,,,,,,,,,,,,,,,
land_prac,27,216044,0.0-11.0-1.0,"""event"",""trial"",""time""
""fullscreenenter"",""1"",""7249""
","
","
","""event"",""trial"",""time""
""fullscreenenter"",""1"",""7249""
","
",,null,run_exp/static/images/task_images/land.jpg,null,,,,,,,97,,,0,,,,,,,,,,,,,,
dig_prac,28,218066,0.0-11.0-2.0,"""event"",""trial"",""time""
""fullscreenenter"",""1"",""7249""
","
","
","""event"",""trial"",""time""
""fullscreenenter"",""1"",""7249""
","
",,,,,,,,,,,,"[{""stimulus"":""run_exp/static/images/task_images/dig.jpg"",""time"":0.40000003576278687},{""stimulus"":""run_exp/static/images/task_images/land.jpg"",""time"":679.6000000238419},{""stimulus"":""run_exp/static/images/task_images/dig.jpg"",""time"":1339.699999988079}]",[],,,,,,,,,,,,,,,
harvest_prac,29,219074,0.0-11.0-3.0,"""event"",""trial"",""time""
""fullscreenenter"",""1"",""7249""
","
","
","""event"",""trial"",""time""
""fullscreenenter"",""1"",""7249""
","
",,null,run_exp/static/images/task_images/barrel_text.jpg,null,,,,,,,,,,,,,,,,,,,,,,,,
decision_prac,30,220970,0.0-11.0-4.0,"""event"",""trial"",""time""
""fullscreenenter"",""1"",""7249""
","
","
","""event"",""trial"",""time""
""fullscreenenter"",""1"",""7249""
","
",,1894,run_exp/static/images/task_images/land.jpg,65,,,,,,,,,,,1,,,,,,,,,,,,,
dig_prac,31,222985,0.0-12.0-0.0,"""event"",""trial"",""time""
""fullscreenenter"",""1"",""7249""
","
","
","""event"",""trial"",""time""
""fullscreenenter"",""1"",""7249""
","
",,,,,,,,,,,,"[{""stimulus"":""run_exp/static/images/task_images/dig.jpg"",""time"":0.8999999761581421},{""stimulus"":""run_exp/static/images/task_images/land.jpg"",""time"":670.6000000238419},{""stimulus"":""run_exp/static/images/task_images/dig.jpg"",""time"":1340.199999988079}]",[],,,,,,,,,,,,,,,
harvest_prac,32,224008,0.0-12.0-1.0,"""event"",""trial"",""time""
""fullscreenenter"",""1"",""7249""
","
","
","""event"",""trial"",""time""
""fullscreenenter"",""1"",""7249""
","
",,null,run_exp/static/images/task_images/barrel_text.jpg,null,,,,,,,,,,,,,,,,,,,,,,,,
decision_prac,33,225620,0.0-12.0-2.0,"""event"",""trial"",""time""
""fullscreenenter"",""1"",""7249""
","
","
","""event"",""trial"",""time""
""fullscreenenter"",""1"",""7249""
","
",,1602.5,run_exp/static/images/task_images/land.jpg,76,,,,,,,,,,,2,,,,,,,,,,,,,
travel,34,234036,0.0-13.0-0.0,"""event"",""trial"",""time""
""fullscreenenter"",""1"",""7249""
","
","
","""event"",""trial"",""time""
""fullscreenenter"",""1"",""7249""
","
",,,,,,,,,,,,"[{""stimulus"":""run_exp/static/images/task_images/rocket-01.jpg"",""time"":0.8999999761581421},{""stimulus"":""run_exp/static/images/task_images/rocket-02.jpg"",""time"":940.6999999880791},{""stimulus"":""run_exp/static/images/task_images/rocket-03.jpg"",""time"":1881.199999988079},{""stimulus"":""run_exp/static/images/task_images/rocket-04.jpg"",""time"":2807.699999988079},{""stimulus"":""run_exp/static/images/task_images/rocket-05.jpg"",""time"":3737.699999988079},{""stimulus"":""run_exp/static/images/task_images/rocket-06.jpg"",""time"":4681.300000011921},{""stimulus"":""run_exp/static/images/task_images/rocket-07.jpg"",""time"":5611.100000023842},{""stimulus"":""run_exp/static/images/task_images/rocket-08.jpg"",""time"":6535.199999988079},{""stimulus"":""run_exp/static/images/task_images/rocket-09.jpg"",""time"":7469.600000023842}]",[],0,,,,,,,,,,,,,,
alien_welcome_prac,35,239049,0.0-13.0-1.0,"""event"",""trial"",""time""
""fullscreenenter"",""1"",""7249""
","
","
","""event"",""trial"",""time""
""fullscreenenter"",""1"",""7249""
","
",,null,run_exp/static/images/task_images/aliens/practice_aliens/planet/alien_planet-4.jpg,null,,,,,,,,,,,,,,,,,,,,,,,,
land_prac,36,239554,0.0-13.0-2.0,"""event"",""trial"",""time""
""fullscreenenter"",""1"",""7249""
","
","
","""event"",""trial"",""time""
""fullscreenenter"",""1"",""7249""
","
",,null,run_exp/static/images/task_images/land.jpg,null,,,,,,,105,,,0,,,,,,,,,,,,,,
dig_prac,37,241571,0.0-13.0-3.0,"""event"",""trial"",""time""
""fullscreenenter"",""1"",""7249""
","
","
","""event"",""trial"",""time""
""fullscreenenter"",""1"",""7249""
","
",,,,,,,,,,,,"[{""stimulus"":""run_exp/static/images/task_images/dig.jpg"",""time"":0.3999999761581421},{""stimulus"":""run_exp/static/images/task_images/land.jpg"",""time"":681.1999999880791},{""stimulus"":""run_exp/static/images/task_images/dig.jpg"",""time"":1340.5999999642372}]",[],,,,,,,,,,,,,,,
harvest_prac,38,242587,0.0-13.0-4.0,"""event"",""trial"",""time""
""fullscreenenter"",""1"",""7249""
","
","
","""event"",""trial"",""time""
""fullscreenenter"",""1"",""7249""
","
",,null,run_exp/static/images/task_images/barrel_text.jpg,null,,,,,,,,,,,,,,,,,,,,,,,,
decision_prac,39,243522,0.0-13.0-5.0,"""event"",""trial"",""time""
""fullscreenenter"",""1"",""7249""
","
","
","""event"",""trial"",""time""
""fullscreenenter"",""1"",""7249""
","
",,932.8,run_exp/static/images/task_images/land.jpg,65,,,,,,,,,,,3,,,,,,,,,,,,,
dig_prac,40,245530,0.0-14.0-0.0,"""event"",""trial"",""time""
""fullscreenenter"",""1"",""7249""
","
","
","""event"",""trial"",""time""
""fullscreenenter"",""1"",""7249""
","
",,,,,,,,,,,,"[{""stimulus"":""run_exp/static/images/task_images/dig.jpg"",""time"":0.30000001192092896},{""stimulus"":""run_exp/static/images/task_images/land.jpg"",""time"":675.0999999642372},{""stimulus"":""run_exp/static/images/task_images/dig.jpg"",""time"":1344.3999999761581}]",[],,,,,,,,,,,,,,,
harvest_prac,41,246539,0.0-14.0-1.0,"""event"",""trial"",""time""
""fullscreenenter"",""1"",""7249""
","
","
","""event"",""trial"",""time""
""fullscreenenter"",""1"",""7249""
","
",,null,run_exp/static/images/task_images/barrel_text.jpg,null,,,,,,,,,,,,,,,,,,,,,,,,
decision_prac,42,247223,0.0-14.0-2.0,"""event"",""trial"",""time""
""fullscreenenter"",""1"",""7249""
","
","
","""event"",""trial"",""time""
""fullscreenenter"",""1"",""7249""
","
",,681.5,run_exp/static/images/task_images/land.jpg,76,,,,,,,,,,,4,,,,,,,,,,,,,
travel,43,256560,0.0-15.0-0.0,"""event"",""trial"",""time""
""fullscreenenter"",""1"",""7249""
","
","
","""event"",""trial"",""time""
""fullscreenenter"",""1"",""7249""
","
",,,,,,,,,,,,"[{""stimulus"":""run_exp/static/images/task_images/rocket-01.jpg"",""time"":0.30000001192092896},{""stimulus"":""run_exp/static/images/task_images/rocket-02.jpg"",""time"":1051.7000000476837},{""stimulus"":""run_exp/static/images/task_images/rocket-03.jpg"",""time"":2085.100000023842},{""stimulus"":""run_exp/static/images/task_images/rocket-04.jpg"",""time"":3114.5},{""stimulus"":""run_exp/static/images/task_images/rocket-05.jpg"",""time"":4160.200000047684},{""stimulus"":""run_exp/static/images/task_images/rocket-06.jpg"",""time"":5184.400000035763},{""stimulus"":""run_exp/static/images/task_images/rocket-07.jpg"",""time"":6214.700000047684},{""stimulus"":""run_exp/static/images/task_images/rocket-08.jpg"",""time"":7254.900000035763},{""stimulus"":""run_exp/static/images/task_images/rocket-09.jpg"",""time"":8285.400000035763}]",[],0,,,,,,,,,,,,,,
alien_welcome_prac,44,261576,0.0-15.0-1.0,"""event"",""trial"",""time""
""fullscreenenter"",""1"",""7249""
","
","
","""event"",""trial"",""time""
""fullscreenenter"",""1"",""7249""
","
",,null,run_exp/static/images/task_images/aliens/practice_aliens/planet/alien_planet-3.jpg,null,,,,,,,,,,,,,,,,,,,,,,,,
land_prac,45,262089,0.0-15.0-2.0,"""event"",""trial"",""time""
""fullscreenenter"",""1"",""7249""
","
","
","""event"",""trial"",""time""
""fullscreenenter"",""1"",""7249""
","
",,null,run_exp/static/images/task_images/land.jpg,null,,,,,,,105,,,0,,,,,,,,,,,,,,
dig_prac,46,264098,0.0-15.0-3.0,"""event"",""trial"",""time""
""fullscreenenter"",""1"",""7249""
","
","
","""event"",""trial"",""time""
""fullscreenenter"",""1"",""7249""
","
",,,,,,,,,,,,"[{""stimulus"":""run_exp/static/images/task_images/dig.jpg"",""time"":0.699999988079071},{""stimulus"":""run_exp/static/images/task_images/land.jpg"",""time"":677.8000000119209},{""stimulus"":""run_exp/static/images/task_images/dig.jpg"",""time"":1347.800000011921}]",[],,,,,,,,,,,,,,,
harvest_prac,47,265107,0.0-15.0-4.0,"""event"",""trial"",""time""
""fullscreenenter"",""1"",""7249""
","
","
","""event"",""trial"",""time""
""fullscreenenter"",""1"",""7249""
","
",,null,run_exp/static/images/task_images/barrel_text.jpg,null,,,,,,,,,,,,,,,,,,,,,,,,
decision_prac,48,265288,0.0-15.0-5.0,"""event"",""trial"",""time""
""fullscreenenter"",""1"",""7249""
","
","
","""event"",""trial"",""time""
""fullscreenenter"",""1"",""7249""
","
",,179.2,run_exp/static/images/task_images/land.jpg,65,,,,,,,,,,,,1,,,,,,,,,,,,
quiz_instruc,49,267917,0.0-16.0-0.0,"""event"",""trial"",""time""
""fullscreenenter"",""1"",""7249""
","
","
","""event"",""trial"",""time""
""fullscreenenter"",""1"",""7249""
","
",,2625,run_exp/static/audio/clip_10_quiz.m4a,,,,,,,0,,,,,,,,,,,,,,,,,,
instruc_repeat,50,310691,0.0-16.0-1.0,"""event"",""trial"",""time""
""fullscreenenter"",""1"",""7249""
","
","
","""event"",""trial"",""time""
""fullscreenenter"",""1"",""7249""
","
",,null,"<p> Are you ready to play a practice game? </p> <p>In this practice game, you'll be digging up barrels of gems. But, in the real game, you'll be digging up the gems themselves. </p>",null,"<p>In this game, your goal is to collect as many gems as you can. That’s how you will win bonus money. </p> <p>The entire game will last 20 minutes no matter how many gems you collect or how many planets you visit. </p><p>To stay on a planet and dig again, press the letter A on your keyboard. To leave for a new planet, press the letter L.</p><p>The more you dig on a planet, the fewer gems you’ll get with each dig which is why you might consider leaving for a new planet. </p><p>When you arrive at a new planet, you’ll be greeted by an alien. What the alien looks like does not tell you anything about how much treasure is on the planet. </p>",,,,,,,,,,,,,,,,,,,,,,,
instruc_repeat_continue,51,312584,0.0-16.0-2.0,"""event"",""trial"",""time""
""fullscreenenter"",""1"",""7249""
","
","
","""event"",""trial"",""time""
""fullscreenenter"",""1"",""7249""
","
",,1890,"<p> Are you ready to play a practice game? </p> <p>In this practice game, you'll be digging up barrels of gems. But, in the real game, you'll be digging up the gems themselves. </p>",,,,,,,0,,,,,,,,,,,,,,,,,,
quiz_q_1_ask,52,316684,0.0-16.0-3.0,"""event"",""trial"",""time""
""fullscreenenter"",""1"",""7249""
","
","
","""event"",""trial"",""time""
""fullscreenenter"",""1"",""7249""
","
",,4092.9,run_exp/static/audio/clip_11_q1_ask.m4a,,,,,,,2,,,,,,,,,,,,,,,,,,
quiz_q_1_fb_correct,53,320550,0.0-17.0-0.0,"""event"",""trial"",""time""
""fullscreenenter"",""1"",""7249""
","
","
","""event"",""trial"",""time""
""fullscreenenter"",""1"",""7249""
","
",,null,run_exp/static/audio/clip_12_q1_correct.m4a,null,<p>That’s correct. You win extra money by collecting more gems.</p>,,,,,,,,,,,,,,,,,,,,,,,
quiz_q_2_ask,54,322651,0.0-17.0-1.0,"""event"",""trial"",""time""
""fullscreenenter"",""1"",""7249""
","
","
","""event"",""trial"",""time""
""fullscreenenter"",""1"",""7249""
","
",,2096.3,run_exp/static/audio/clip_14_q2_ask.m4a,,,,,,,1,,,,,,,,,,,,,,,,,,
quiz_q_2_fb_correct,55,326669,0.0-18.0-0.0,"""event"",""trial"",""time""
""fullscreenenter"",""1"",""7249""
","
","
","""event"",""trial"",""time""
""fullscreenenter"",""1"",""7249""
","
",,null,run_exp/static/audio/clip_15_q2_correct.m4a,null,<p>That’s correct. The experiment is 20 minutes no matter what.</p>,,,,,,,,,,,,,,,,,,,,,,,
quiz_q_3_ask,56,334816,0.0-18.0-1.0,"""event"",""trial"",""time""
""fullscreenenter"",""1"",""7249""
","
","
","""event"",""trial"",""time""
""fullscreenenter"",""1"",""7249""
","
",,8142,run_exp/static/audio/clip_17_q3_ask.m4a,,,,,,,1,,,,,,,,,,,,,,,,,,
quiz_q_3_fb_correct,57,338808,0.0-19.0-0.0,"""event"",""trial"",""time""
""fullscreenenter"",""1"",""7249""
","
","
","""event"",""trial"",""time""
""fullscreenenter"",""1"",""7249""
","
",,null,run_exp/static/audio/clip_18_q3_correct.m4a,null,<p> That’s correct. You press the letter L to travel to a new planet.</p>,,,,,,,,,,,,,,,,,,,,,,,
quiz_q_4_ask,58,341720,0.0-19.0-1.0,"""event"",""trial"",""time""
""fullscreenenter"",""1"",""7249""
","
","
","""event"",""trial"",""time""
""fullscreenenter"",""1"",""7249""
","
",,2908.8,run_exp/static/audio/clip_20_q4_ask.m4a,,,,,,,0,,,,,,,,,,,,,,,,,,
quiz_q_4_fb_correct,59,347049,0.0-20.0-0.0,"""event"",""trial"",""time""
""fullscreenenter"",""1"",""7249""
","
","
","""event"",""trial"",""time""
""fullscreenenter"",""1"",""7249""
","
",,null,run_exp/static/audio/clip_21_q4_correct.m4a,null,<p> That’s correct. The more you dig on a planet the fewer gems you’ll get with each dig. </p>,,,,,,,,,,,,,,,,,,,,,,,
quiz_q_5_ask,60,350170,0.0-20.0-1.0,"""event"",""trial"",""time""
""fullscreenenter"",""1"",""7249""
","
","
","""event"",""trial"",""time""
""fullscreenenter"",""1"",""7249""
","
",,3115.6,run_exp/static/audio/clip_23_q5_ask.m4a,,,,,,,1,,,,,,,,,,,,,,,,,,
quiz_q_5_fb_correct,61,355189,0.0-21.0-0.0,"""event"",""trial"",""time""
""fullscreenenter"",""1"",""7249""
","
","
","""event"",""trial"",""time""
""fullscreenenter"",""1"",""7249""
","
",,null,run_exp/static/audio/clip_24_q5_correct.m4a,null,<p> That’s correct. The alien tells you nothing about how much treasure is on the planet.</p>,,,,,,,,,,,,,,,,,,,,,,,
quiz_correct,62,358669,0.0-22.0-0.0,"""event"",""trial"",""time""
""fullscreenenter"",""1"",""7249""
","
","
","""event"",""trial"",""time""
""fullscreenenter"",""1"",""7249""
","
",,null,run_exp/static/audio/clip_26_correct_quiz.m4a,null,,,,,,,,,,,,,,,,,,,,,,,,
quiz_correct_continue,63,359678,0.0-22.0-1.0,"""event"",""trial"",""time""
""fullscreenenter"",""1"",""7249""
","
","
","""event"",""trial"",""time""
""fullscreenenter"",""1"",""7249""
","
",,1006.8,<p>Good job! You're now ready to move on to the real game!</p>,,,,,,,0,,,,,,,,,,,,,,,,,,
audio-keyboard-response,64,369810,0.0-22.0-2.0,"""event"",""trial"",""time""
""fullscreenenter"",""1"",""7249""
","
","
","""event"",""trial"",""time""
""fullscreenenter"",""1"",""7249""
","
",,null,run_exp/static/audio/clip_28_real_game.m4a,null,,,,,,,,,,,,,,,,,,,,,,,,
instruc_begin_exp_contine,65,371976,0.0-22.0-3.0,"""event"",""trial"",""time""
""fullscreenenter"",""1"",""7249""
","
","
","""event"",""trial"",""time""
""fullscreenenter"",""1"",""7249""
","
",,2160.9,"<p>Now that you know how  to dig for space treasure and travel to new planets,you can start exploring! </p><p>Do you want to go over the instructions again or get started with the real game?</p>",,,,,,,1,,,,,,1,,,,,,,,,,,,
alien_welcome,66,377007,0.0-23.0-0.0,"""event"",""trial"",""time""
""fullscreenenter"",""1"",""7249""
","
","
","""event"",""trial"",""time""
""fullscreenenter"",""1"",""7249""
","
",,null,run_exp/static/images/task_images/aliens/old_aliens/planet/alien_planet-61.jpg,null,,,,,,,,,,,,,61,"61,69,35,28,54,57,75,55,17,43,72,30,64,42,76,3,5,65,19,1,26,27,34,66,47,8,77,78,24,53,37,45,68,49,23,38,18,80,4,32,60,51,73,33,70,79,59,10,50,67,22,63,6,25,15,36,20,58,52,46,56,14,74,41,40",,,,,,,,,,
land,67,377516,0.0-23.0-1.0,"""event"",""trial"",""time""
""fullscreenenter"",""1"",""7249""
","
","
","""event"",""trial"",""time""
""fullscreenenter"",""1"",""7249""
","
",,null,run_exp/static/images/task_images/land.jpg,null,,,,,,,108,,,1,,,,,,,,,,,,,,
dig,68,379528,0.0-23.0-2.0,"""event"",""trial"",""time""
""fullscreenenter"",""1"",""7249""
","
","
","""event"",""trial"",""time""
""fullscreenenter"",""1"",""7249""
","
",,,,,,,,,,,,"[{""stimulus"":""run_exp/static/images/task_images/dig.jpg"",""time"":0.5},{""stimulus"":""run_exp/static/images/task_images/land.jpg"",""time"":669.8999999761581},{""stimulus"":""run_exp/static/images/task_images/dig.jpg"",""time"":1349.199999988079}]",[],1,,,,,,,,,,,,,,
harvest,69,380548,0.0-23.0-3.0,"""event"",""trial"",""time""
""fullscreenenter"",""1"",""7249""
","
","
","""event"",""trial"",""time""
""fullscreenenter"",""1"",""7249""
","
",,null,run_exp/static/images/task_images/gems/108.jpg,null,,,,,,,26,,,1,,,,,108,0.236837888,0.240740741,,,,,,,
decision,70,381098,0.0-23.0-4.0,"""event"",""trial"",""time""
""fullscreenenter"",""1"",""7249""
","
","
","""event"",""trial"",""time""
""fullscreenenter"",""1"",""7249""
","
",,547.4,run_exp/static/images/task_images/land.jpg,65,,,,,,,26,,,1,,,,,,,,9115,1,0,FALSE,,,
dig,71,383567,0.0-24.0-0.0,"""event"",""trial"",""time""
""fullscreenenter"",""1"",""7249""
","
","
","""event"",""trial"",""time""
""fullscreenenter"",""1"",""7249""
","
",,,,,,,,,,,,"[{""stimulus"":""run_exp/static/images/task_images/dig.jpg"",""time"":0.30000001192092896},{""stimulus"":""run_exp/static/images/task_images/land.jpg"",""time"":825},{""stimulus"":""run_exp/static/images/task_images/dig.jpg"",""time"":1644.9000000357628}]",[],1,,,,,,,,,,,,,,
harvest,72,384583,0.0-24.0-1.0,"""event"",""trial"",""time""
""fullscreenenter"",""1"",""7249""
","
","
","""event"",""trial"",""time""
""fullscreenenter"",""1"",""7249""
","
",,null,run_exp/static/images/task_images/gems/26.jpg,null,,,,,,,4,,,1,,,,,26,0.141476334,0.153846154,,,,,,,
decision,73,385152,0.0-24.0-2.0,"""event"",""trial"",""time""
""fullscreenenter"",""1"",""7249""
","
","
","""event"",""trial"",""time""
""fullscreenenter"",""1"",""7249""
","
",,565.5,run_exp/static/images/task_images/land.jpg,65,,,,,,,4,,,1,,,,,,,,13168,1,1,FALSE,,,
dig,74,387610,0.0-25.0-0.0,"""event"",""trial"",""time""
""fullscreenenter"",""1"",""7249""
","
","
","""event"",""trial"",""time""
""fullscreenenter"",""1"",""7249""
","
",,,,,,,,,,,,"[{""stimulus"":""run_exp/static/images/task_images/dig.jpg"",""time"":0.800000011920929},{""stimulus"":""run_exp/static/images/task_images/land.jpg"",""time"":818.0999999642372},{""stimulus"":""run_exp/static/images/task_images/dig.jpg"",""time"":1637.3999999761581}]",[],1,,,,,,,,,,,,,,
harvest,75,388623,0.0-25.0-1.0,"""event"",""trial"",""time""
""fullscreenenter"",""1"",""7249""
","
","
","""event"",""trial"",""time""
""fullscreenenter"",""1"",""7249""
","
",,null,run_exp/static/images/task_images/gems/4.jpg,null,,,,,,,1,,,1,,,,,4,0.188505941,0.25,,,,,,,
decision,76,389189,0.0-25.0-2.0,"""event"",""trial"",""time""
""fullscreenenter"",""1"",""7249""
","
","
","""event"",""trial"",""time""
""fullscreenenter"",""1"",""7249""
","
",,565,run_exp/static/images/task_images/land.jpg,76,,,,,,,1,,,1,,,,,,,,17206,1,2,TRUE,,,
travel,77,398642,0.0-26.0-0.0,"""event"",""trial"",""time""
""fullscreenenter"",""1"",""7249""
","
","
","""event"",""trial"",""time""
""fullscreenenter"",""1"",""7249""
","
",,,,,,,,,,,,"[{""stimulus"":""run_exp/static/images/task_images/rocket-01.jpg"",""time"":0.5999999642372131},{""stimulus"":""run_exp/static/images/task_images/rocket-02.jpg"",""time"":1055.699999988079},{""stimulus"":""run_exp/static/images/task_images/rocket-03.jpg"",""time"":2103.699999988079},{""stimulus"":""run_exp/static/images/task_images/rocket-04.jpg"",""time"":3148.5},{""stimulus"":""run_exp/static/images/task_images/rocket-05.jpg"",""time"":4198.300000011921},{""stimulus"":""run_exp/static/images/task_images/rocket-06.jpg"",""time"":5248.899999976158},{""stimulus"":""run_exp/static/images/task_images/rocket-07.jpg"",""time"":6298.699999988079},{""stimulus"":""run_exp/static/images/task_images/rocket-08.jpg"",""time"":7339.800000011921},{""stimulus"":""run_exp/static/images/task_images/rocket-09.jpg"",""time"":8399.099999964237}]",[],1,,,,,,,,,,,,,,
alien_welcome,78,403661,0.0-26.0-1.0,"""event"",""trial"",""time""
""fullscreenenter"",""1"",""7249""
","
","
","""event"",""trial"",""time""
""fullscreenenter"",""1"",""7249""
","
",,null,run_exp/static/images/task_images/aliens/old_aliens/planet/alien_planet-69.jpg,null,,,,,,,,,,,,,69,"61,69,35,28,54,57,75,55,17,43,72,30,64,42,76,3,5,65,19,1,26,27,34,66,47,8,77,78,24,53,37,45,68,49,23,38,18,80,4,32,60,51,73,33,70,79,59,10,50,67,22,63,6,25,15,36,20,58,52,46,56,14,74,41,40",,,,,,,,,,
land,79,404176,0.0-26.0-2.0,"""event"",""trial"",""time""
""fullscreenenter"",""1"",""7249""
","
","
","""event"",""trial"",""time""
""fullscreenenter"",""1"",""7249""
","
",,null,run_exp/static/images/task_images/land.jpg,null,,,,,,,99,,,2,,,,,,,,,,,,,,
dig,80,406188,0.0-26.0-3.0,"""event"",""trial"",""time""
""fullscreenenter"",""1"",""7249""
","
","
","""event"",""trial"",""time""
""fullscreenenter"",""1"",""7249""
","
",,,,,,,,,,,,"[{""stimulus"":""run_exp/static/images/task_images/dig.jpg"",""time"":0.3999999761581421},{""stimulus"":""run_exp/static/images/task_images/land.jpg"",""time"":670.5},{""stimulus"":""run_exp/static/images/task_images/dig.jpg"",""time"":1339.6000000238419}]",[],2,,,,,,,,,,,,,,
harvest,81,407198,0.0-26.0-4.0,"""event"",""trial"",""time""
""fullscreenenter"",""1"",""7249""
","
","
","""event"",""trial"",""time""
""fullscreenenter"",""1"",""7249""
","
",,null,run_exp/static/images/task_images/gems/99.jpg,null,,,,,,,27,,,2,,,,,99,0.273833634,0.272727273,,,,,,,
decision,82,407795,0.0-26.0-5.0,"""event"",""trial"",""time""
""fullscreenenter"",""1"",""7249""
","
","
","""event"",""trial"",""time""
""fullscreenenter"",""1"",""7249""
","
",,593.6,run_exp/static/images/task_images/land.jpg,65,,,,,,,27,,,2,,,,,,,,35811,1,0,FALSE,,,
dig,83,410218,0.0-27.0-0.0,"""event"",""trial"",""time""
""fullscreenenter"",""1"",""7249""
","
","
","""event"",""trial"",""time""
""fullscreenenter"",""1"",""7249""
","
",,,,,,,,,,,,"[{""stimulus"":""run_exp/static/images/task_images/dig.jpg"",""time"":0.699999988079071},{""stimulus"":""run_exp/static/images/task_images/land.jpg"",""time"":816.6000000238419},{""stimulus"":""run_exp/static/images/task_images/dig.jpg"",""time"":1617}]",[],2,,,,,,,,,,,,,,
harvest,84,411227,0.0-27.0-1.0,"""event"",""trial"",""time""
""fullscreenenter"",""1"",""7249""
","
","
","""event"",""trial"",""time""
""fullscreenenter"",""1"",""7249""
","
",,null,run_exp/static/images/task_images/gems/27.jpg,null,,,,,,,5,,,2,,,,,27,0.188260826,0.185185185,,,,,,,
decision,85,411990,0.0-27.0-2.0,"""event"",""trial"",""time""
""fullscreenenter"",""1"",""7249""
","
","
","""event"",""trial"",""time""
""fullscreenenter"",""1"",""7249""
","
",,761.1,run_exp/static/images/task_images/land.jpg,76,,,,,,,5,,,2,,,,,,,,40006,1,1,TRUE,,,
travel,86,421266,0.0-28.0-0.0,"""event"",""trial"",""time""
""fullscreenenter"",""1"",""7249""
","
","
","""event"",""trial"",""time""
""fullscreenenter"",""1"",""7249""
","
",,,,,,,,,,,,"[{""stimulus"":""run_exp/static/images/task_images/rocket-01.jpg"",""time"":0.6000000238418579},{""stimulus"":""run_exp/static/images/task_images/rocket-02.jpg"",""time"":1033},{""stimulus"":""run_exp/static/images/task_images/rocket-03.jpg"",""time"":2062.899999976158},{""stimulus"":""run_exp/static/images/task_images/rocket-04.jpg"",""time"":3088.399999976158},{""stimulus"":""run_exp/static/images/task_images/rocket-05.jpg"",""time"":4118.100000023842},{""stimulus"":""run_exp/static/images/task_images/rocket-06.jpg"",""time"":5134.5},{""stimulus"":""run_exp/static/images/task_images/rocket-07.jpg"",""time"":6167.399999976158},{""stimulus"":""run_exp/static/images/task_images/rocket-08.jpg"",""time"":7193.100000023842},{""stimulus"":""run_exp/static/images/task_images/rocket-09.jpg"",""time"":8216.100000023842}]",[],2,,,,,,,,,,,,,,
alien_welcome,87,426285,0.0-28.0-1.0,"""event"",""trial"",""time""
""fullscreenenter"",""1"",""7249""
","
","
","""event"",""trial"",""time""
""fullscreenenter"",""1"",""7249""
","
",,null,run_exp/static/images/task_images/aliens/old_aliens/planet/alien_planet-35.jpg,null,,,,,,,,,,,,,35,"61,69,35,28,54,57,75,55,17,43,72,30,64,42,76,3,5,65,19,1,26,27,34,66,47,8,77,78,24,53,37,45,68,49,23,38,18,80,4,32,60,51,73,33,70,79,59,10,50,67,22,63,6,25,15,36,20,58,52,46,56,14,74,41,40",,,,,,,,,,
land,88,426793,0.0-28.0-2.0,"""event"",""trial"",""time""
""fullscreenenter"",""1"",""7249""
","
","
","""event"",""trial"",""time""
""fullscreenenter"",""1"",""7249""
","
",,null,run_exp/static/images/task_images/land.jpg,null,,,,,,,99,,,3,,,,,,,,,,,,,,
dig,89,428802,0.0-28.0-3.0,"""event"",""trial"",""time""
""fullscreenenter"",""1"",""7249""
","
","
","""event"",""trial"",""time""
""fullscreenenter"",""1"",""7249""
","
",,,,,,,,,,,,"[{""stimulus"":""run_exp/static/images/task_images/dig.jpg"",""time"":0.800000011920929},{""stimulus"":""run_exp/static/images/task_images/land.jpg"",""time"":677},{""stimulus"":""run_exp/static/images/task_images/dig.jpg"",""time"":1346.4000000357628}]",[],3,,,,,,,,,,,,,,
harvest,90,429812,0.0-28.0-4.0,"""event"",""trial"",""time""
""fullscreenenter"",""1"",""7249""
","
","
","""event"",""trial"",""time""
""fullscreenenter"",""1"",""7249""
","
",,null,run_exp/static/images/task_images/gems/99.jpg,null,,,,,,,51,,,3,,,,,99,0.512391262,0.515151515,,,,,,,
decision,91,430530,0.0-28.0-5.0,"""event"",""trial"",""time""
""fullscreenenter"",""1"",""7249""
","
","
","""event"",""trial"",""time""
""fullscreenenter"",""1"",""7249""
","
",,715.7,run_exp/static/images/task_images/land.jpg,76,,,,,,,51,,,3,,,,,,,,58546,1,0,TRUE,,,
travel,92,439817,0.0-29.0-0.0,"""event"",""trial"",""time""
""fullscreenenter"",""1"",""7249""
","
","
","""event"",""trial"",""time""
""fullscreenenter"",""1"",""7249""
","
",,,,,,,,,,,,"[{""stimulus"":""run_exp/static/images/task_images/rocket-01.jpg"",""time"":0.5999999642372131},{""stimulus"":""run_exp/static/images/task_images/rocket-02.jpg"",""time"":1048.3999999761581},{""stimulus"":""run_exp/static/images/task_images/rocket-03.jpg"",""time"":2065.399999976158},{""stimulus"":""run_exp/static/images/task_images/rocket-04.jpg"",""time"":3099},{""stimulus"":""run_exp/static/images/task_images/rocket-05.jpg"",""time"":4136.299999952316},{""stimulus"":""run_exp/static/images/task_images/rocket-06.jpg"",""time"":5156.5},{""stimulus"":""run_exp/static/images/task_images/rocket-07.jpg"",""time"":6194.299999952316},{""stimulus"":""run_exp/static/images/task_images/rocket-08.jpg"",""time"":7227.899999976158},{""stimulus"":""run_exp/static/images/task_images/rocket-09.jpg"",""time"":8256.199999988079}]",[],3,,,,,,,,,,,,,,
alien_welcome,93,444824,0.0-29.0-1.0,"""event"",""trial"",""time""
""fullscreenenter"",""1"",""7249""
","
","
","""event"",""trial"",""time""
""fullscreenenter"",""1"",""7249""
","
",,null,run_exp/static/images/task_images/aliens/old_aliens/planet/alien_planet-28.jpg,null,,,,,,,,,,,,,28,"61,69,35,28,54,57,75,55,17,43,72,30,64,42,76,3,5,65,19,1,26,27,34,66,47,8,77,78,24,53,37,45,68,49,23,38,18,80,4,32,60,51,73,33,70,79,59,10,50,67,22,63,6,25,15,36,20,58,52,46,56,14,74,41,40",,,,,,,,,,
land,94,445337,0.0-29.0-2.0,"""event"",""trial"",""time""
""fullscreenenter"",""1"",""7249""
","
","
","""event"",""trial"",""time""
""fullscreenenter"",""1"",""7249""
","
",,null,run_exp/static/images/task_images/land.jpg,null,,,,,,,110,,,4,,,,,,,,,,,,,,
dig,95,447352,0.0-29.0-3.0,"""event"",""trial"",""time""
""fullscreenenter"",""1"",""7249""
","
","
","""event"",""trial"",""time""
""fullscreenenter"",""1"",""7249""
","
",,,,,,,,,,,,"[{""stimulus"":""run_exp/static/images/task_images/dig.jpg"",""time"":0.800000011920929},{""stimulus"":""run_exp/static/images/task_images/land.jpg"",""time"":673.7000000476837},{""stimulus"":""run_exp/static/images/task_images/dig.jpg"",""time"":1345.4000000357628}]",[],4,,,,,,,,,,,,,,
harvest,96,448358,0.0-29.0-4.0,"""event"",""trial"",""time""
""fullscreenenter"",""1"",""7249""
","
","
","""event"",""trial"",""time""
""fullscreenenter"",""1"",""7249""
","
",,null,run_exp/static/images/task_images/gems/110.jpg,null,,,,,,,50,,,4,,,,,110,0.452311012,0.454545455,,,,,,,
decision,97,449097,0.0-29.0-5.0,"""event"",""trial"",""time""
""fullscreenenter"",""1"",""7249""
","
","
","""event"",""trial"",""time""
""fullscreenenter"",""1"",""7249""
","
",,736.5,run_exp/static/images/task_images/land.jpg,65,,,,,,,50,,,4,,,,,,,,77113,1,0,FALSE,,,
dig,98,451382,0.0-30.0-0.0,"""event"",""trial"",""time""
""fullscreenenter"",""1"",""7249""
","
","
","""event"",""trial"",""time""
""fullscreenenter"",""1"",""7249""
","
",,,,,,,,,,,,"[{""stimulus"":""run_exp/static/images/task_images/dig.jpg"",""time"":0.699999988079071},{""stimulus"":""run_exp/static/images/task_images/land.jpg"",""time"":766},{""stimulus"":""run_exp/static/images/task_images/dig.jpg"",""time"":1526.300000011921}]",[],4,,,,,,,,,,,,,,
harvest,99,452390,0.0-30.0-1.0,"""event"",""trial"",""time""
""fullscreenenter"",""1"",""7249""
","
","
","""event"",""trial"",""time""
""fullscreenenter"",""1"",""7249""
","
",,null,run_exp/static/images/task_images/gems/50.jpg,null,,,,,,,24,,,4,,,,,50,0.481479429,0.48,,,,,,,
decision,100,452785,0.0-30.0-2.0,"""event"",""trial"",""time""
""fullscreenenter"",""1"",""7249""
","
","
","""event"",""trial"",""time""
""fullscreenenter"",""1"",""7249""
","
",,391.5,run_exp/static/images/task_images/land.jpg,76,,,,,,,24,,,4,,,,,,,,80801,1,1,TRUE,,,
travel,101,462409,0.0-31.0-0.0,"""event"",""trial"",""time""
""fullscreenenter"",""1"",""7249""
","
","
","""event"",""trial"",""time""
""fullscreenenter"",""1"",""7249""
","
",,,,,,,,,,,,"[{""stimulus"":""run_exp/static/images/task_images/rocket-01.jpg"",""time"":0.800000011920929},{""stimulus"":""run_exp/static/images/task_images/rocket-02.jpg"",""time"":1076.5},{""stimulus"":""run_exp/static/images/task_images/rocket-03.jpg"",""time"":2150.899999976158},{""stimulus"":""run_exp/static/images/task_images/rocket-04.jpg"",""time"":3207.5},{""stimulus"":""run_exp/static/images/task_images/rocket-05.jpg"",""time"":4278.300000011921},{""stimulus"":""run_exp/static/images/task_images/rocket-06.jpg"",""time"":5351.199999988079},{""stimulus"":""run_exp/static/images/task_images/rocket-07.jpg"",""time"":6413.800000011921},{""stimulus"":""run_exp/static/images/task_images/rocket-08.jpg"",""time"":7481.300000011921},{""stimulus"":""run_exp/static/images/task_images/rocket-09.jpg"",""time"":8548.100000023842}]",[],4,,,,,,,,,,,,,,
alien_welcome,102,467422,0.0-31.0-1.0,"""event"",""trial"",""time""
""fullscreenenter"",""1"",""7249""
","
","
","""event"",""trial"",""time""
""fullscreenenter"",""1"",""7249""
","
",,null,run_exp/static/images/task_images/aliens/old_aliens/planet/alien_planet-54.jpg,null,,,,,,,,,,,,,54,"61,69,35,28,54,57,75,55,17,43,72,30,64,42,76,3,5,65,19,1,26,27,34,66,47,8,77,78,24,53,37,45,68,49,23,38,18,80,4,32,60,51,73,33,70,79,59,10,50,67,22,63,6,25,15,36,20,58,52,46,56,14,74,41,40",,,,,,,,,,
land,103,467933,0.0-31.0-2.0,"""event"",""trial"",""time""
""fullscreenenter"",""1"",""7249""
","
","
","""event"",""trial"",""time""
""fullscreenenter"",""1"",""7249""
","
",,null,run_exp/static/images/task_images/land.jpg,null,,,,,,,103,,,5,,,,,,,,,,,,,,
dig,104,469947,0.0-31.0-3.0,"""event"",""trial"",""time""
""fullscreenenter"",""1"",""7249""
","
","
","""event"",""trial"",""time""
""fullscreenenter"",""1"",""7249""
","
",,,,,,,,,,,,"[{""stimulus"":""run_exp/static/images/task_images/dig.jpg"",""time"":0.5},{""stimulus"":""run_exp/static/images/task_images/land.jpg"",""time"":675.5},{""stimulus"":""run_exp/static/images/task_images/dig.jpg"",""time"":1337.3999999761581}]",[],5,,,,,,,,,,,,,,
harvest,105,470953,0.0-31.0-4.0,"""event"",""trial"",""time""
""fullscreenenter"",""1"",""7249""
","
","
","""event"",""trial"",""time""
""fullscreenenter"",""1"",""7249""
","
",,null,run_exp/static/images/task_images/gems/103.jpg,null,,,,,,,44,,,5,,,,,103,0.429383056,0.427184466,,,,,,,
decision,106,471430,0.0-31.0-5.0,"""event"",""trial"",""time""
""fullscreenenter"",""1"",""7249""
","
","
","""event"",""trial"",""time""
""fullscreenenter"",""1"",""7249""
","
",,475,run_exp/static/images/task_images/land.jpg,76,,,,,,,44,,,5,,,,,,,,99447,1,0,TRUE,,,
travel,107,480956,0.0-32.0-0.0,"""event"",""trial"",""time""
""fullscreenenter"",""1"",""7249""
","
","
","""event"",""trial"",""time""
""fullscreenenter"",""1"",""7249""
","
",,,,,,,,,,,,"[{""stimulus"":""run_exp/static/images/task_images/rocket-01.jpg"",""time"":0.699999988079071},{""stimulus"":""run_exp/static/images/task_images/rocket-02.jpg"",""time"":1066.800000011921},{""stimulus"":""run_exp/static/images/task_images/rocket-03.jpg"",""time"":2127.5},{""stimulus"":""run_exp/static/images/task_images/rocket-04.jpg"",""time"":3182.899999976158},{""stimulus"":""run_exp/static/images/task_images/rocket-05.jpg"",""time"":4249.199999988079},{""stimulus"":""run_exp/static/images/task_images/rocket-06.jpg"",""time"":5292.800000011921},{""stimulus"":""run_exp/static/images/task_images/rocket-07.jpg"",""time"":6358.199999988079},{""stimulus"":""run_exp/static/images/task_images/rocket-08.jpg"",""time"":7410.199999988079},{""stimulus"":""run_exp/static/images/task_images/rocket-09.jpg"",""time"":8468.699999988079}]",[],5,,,,,,,,,,,,,,
alien_welcome,108,485965,0.0-32.0-1.0,"""event"",""trial"",""time""
""fullscreenenter"",""1"",""7249""
","
","
","""event"",""trial"",""time""
""fullscreenenter"",""1"",""7249""
","
",,null,run_exp/static/images/task_images/aliens/old_aliens/planet/alien_planet-57.jpg,null,,,,,,,,,,,,,57,"61,69,35,28,54,57,75,55,17,43,72,30,64,42,76,3,5,65,19,1,26,27,34,66,47,8,77,78,24,53,37,45,68,49,23,38,18,80,4,32,60,51,73,33,70,79,59,10,50,67,22,63,6,25,15,36,20,58,52,46,56,14,74,41,40",,,,,,,,,,
land,109,486475,0.0-32.0-2.0,"""event"",""trial"",""time""
""fullscreenenter"",""1"",""7249""
","
","
","""event"",""trial"",""time""
""fullscreenenter"",""1"",""7249""
","
",,null,run_exp/static/images/task_images/land.jpg,null,,,,,,,95,,,6,,,,,,,,,,,,,,
dig,110,488496,0.0-32.0-3.0,"""event"",""trial"",""time""
""fullscreenenter"",""1"",""7249""
","
","
","""event"",""trial"",""time""
""fullscreenenter"",""1"",""7249""
","
",,,,,,,,,,,,"[{""stimulus"":""run_exp/static/images/task_images/dig.jpg"",""time"":0.2999999523162842},{""stimulus"":""run_exp/static/images/task_images/land.jpg"",""time"":685.2999999523163},{""stimulus"":""run_exp/static/images/task_images/dig.jpg"",""time"":1347.2999999523163}]",[],6,,,,,,,,,,,,,,
harvest,111,489504,0.0-32.0-4.0,"""event"",""trial"",""time""
""fullscreenenter"",""1"",""7249""
","
","
","""event"",""trial"",""time""
""fullscreenenter"",""1"",""7249""
","
",,null,run_exp/static/images/task_images/gems/95.jpg,null,,,,,,,86,,,6,,,,,95,0.904139637,0.905263158,,,,,,,
decision,112,490456,0.0-32.0-5.0,"""event"",""trial"",""time""
""fullscreenenter"",""1"",""7249""
","
","
","""event"",""trial"",""time""
""fullscreenenter"",""1"",""7249""
","
",,948.9,run_exp/static/images/task_images/land.jpg,76,,,,,,,86,,,6,,,,,,,,118472,1,0,TRUE,,,
travel,113,499516,0.0-33.0-0.0,"""event"",""trial"",""time""
""fullscreenenter"",""1"",""7249""
","
","
","""event"",""trial"",""time""
""fullscreenenter"",""1"",""7249""
","
",,,,,,,,,,,,"[{""stimulus"":""run_exp/static/images/task_images/rocket-01.jpg"",""time"":0.6000000238418579},{""stimulus"":""run_exp/static/images/task_images/rocket-02.jpg"",""time"":1010.3000000119209},{""stimulus"":""run_exp/static/images/task_images/rocket-03.jpg"",""time"":2015.1000000238419},{""stimulus"":""run_exp/static/images/task_images/rocket-04.jpg"",""time"":3021.2000000476837},{""stimulus"":""run_exp/static/images/task_images/rocket-05.jpg"",""time"":4031.2000000476837},{""stimulus"":""run_exp/static/images/task_images/rocket-06.jpg"",""time"":5040.400000035763},{""stimulus"":""run_exp/static/images/task_images/rocket-07.jpg"",""time"":6038.800000011921},{""stimulus"":""run_exp/static/images/task_images/rocket-08.jpg"",""time"":7038.200000047684},{""stimulus"":""run_exp/static/images/task_images/rocket-09.jpg"",""time"":8046.800000011921}]",[],6,,,,,,,,,,,,,,
alien_welcome,114,504525,0.0-33.0-1.0,"""event"",""trial"",""time""
""fullscreenenter"",""1"",""7249""
","
","
","""event"",""trial"",""time""
""fullscreenenter"",""1"",""7249""
","
",,null,run_exp/static/images/task_images/aliens/old_aliens/planet/alien_planet-75.jpg,null,,,,,,,,,,,,,75,"61,69,35,28,54,57,75,55,17,43,72,30,64,42,76,3,5,65,19,1,26,27,34,66,47,8,77,78,24,53,37,45,68,49,23,38,18,80,4,32,60,51,73,33,70,79,59,10,50,67,22,63,6,25,15,36,20,58,52,46,56,14,74,41,40",,,,,,,,,,
land,115,505036,0.0-33.0-2.0,"""event"",""trial"",""time""
""fullscreenenter"",""1"",""7249""
","
","
","""event"",""trial"",""time""
""fullscreenenter"",""1"",""7249""
","
",,null,run_exp/static/images/task_images/land.jpg,null,,,,,,,91,,,7,,,,,,,,,,,,,,
dig,116,507056,0.0-33.0-3.0,"""event"",""trial"",""time""
""fullscreenenter"",""1"",""7249""
","
","
","""event"",""trial"",""time""
""fullscreenenter"",""1"",""7249""
","
",,,,,,,,,,,,"[{""stimulus"":""run_exp/static/images/task_images/dig.jpg"",""time"":0.9000000357627869},{""stimulus"":""run_exp/static/images/task_images/land.jpg"",""time"":670.4000000357628},{""stimulus"":""run_exp/static/images/task_images/dig.jpg"",""time"":1337.9000000357628}]",[],7,,,,,,,,,,,,,,
harvest,117,508066,0.0-33.0-4.0,"""event"",""trial"",""time""
""fullscreenenter"",""1"",""7249""
","
","
","""event"",""trial"",""time""
""fullscreenenter"",""1"",""7249""
","
",,null,run_exp/static/images/task_images/gems/91.jpg,null,,,,,,,71,,,7,,,,,91,0.776365252,0.78021978,,,,,,,
decision,118,508602,0.0-33.0-5.0,"""event"",""trial"",""time""
""fullscreenenter"",""1"",""7249""
","
","
","""event"",""trial"",""time""
""fullscreenenter"",""1"",""7249""
","
",,532.3,run_exp/static/images/task_images/land.jpg,76,,,,,,,71,,,7,,,,,,,,136619,1,0,TRUE,,,
travel,119,518083,0.0-34.0-0.0,"""event"",""trial"",""time""
""fullscreenenter"",""1"",""7249""
","
","
","""event"",""trial"",""time""
""fullscreenenter"",""1"",""7249""
","
",,,,,,,,,,,,"[{""stimulus"":""run_exp/static/images/task_images/rocket-01.jpg"",""time"":0.800000011920929},{""stimulus"":""run_exp/static/images/task_images/rocket-02.jpg"",""time"":1058.8999999761581},{""stimulus"":""run_exp/static/images/task_images/rocket-03.jpg"",""time"":2122.899999976158},{""stimulus"":""run_exp/static/images/task_images/rocket-04.jpg"",""time"":3164.899999976158},{""stimulus"":""run_exp/static/images/task_images/rocket-05.jpg"",""time"":4214.399999976158},{""stimulus"":""run_exp/static/images/task_images/rocket-06.jpg"",""time"":5262.199999988079},{""stimulus"":""run_exp/static/images/task_images/rocket-07.jpg"",""time"":6310.599999964237},{""stimulus"":""run_exp/static/images/task_images/rocket-08.jpg"",""time"":7366.099999964237},{""stimulus"":""run_exp/static/images/task_images/rocket-09.jpg"",""time"":8415}]",[],7,,,,,,,,,,,,,,
alien_welcome,120,523104,0.0-34.0-1.0,"""event"",""trial"",""time""
""fullscreenenter"",""1"",""7249""
","
","
","""event"",""trial"",""time""
""fullscreenenter"",""1"",""7249""
","
",,null,run_exp/static/images/task_images/aliens/old_aliens/planet/alien_planet-55.jpg,null,,,,,,,,,,,,,55,"61,69,35,28,54,57,75,55,17,43,72,30,64,42,76,3,5,65,19,1,26,27,34,66,47,8,77,78,24,53,37,45,68,49,23,38,18,80,4,32,60,51,73,33,70,79,59,10,50,67,22,63,6,25,15,36,20,58,52,46,56,14,74,41,40",,,,,,,,,,
land,121,523616,0.0-34.0-2.0,"""event"",""trial"",""time""
""fullscreenenter"",""1"",""7249""
","
","
","""event"",""trial"",""time""
""fullscreenenter"",""1"",""7249""
","
",,null,run_exp/static/images/task_images/land.jpg,null,,,,,,,103,,,8,,,,,,,,,,,,,,
dig,122,525636,0.0-34.0-3.0,"""event"",""trial"",""time""
""fullscreenenter"",""1"",""7249""
","
","
","""event"",""trial"",""time""
""fullscreenenter"",""1"",""7249""
","
",,,,,,,,,,,,"[{""stimulus"":""run_exp/static/images/task_images/dig.jpg"",""time"":0.5999999642372131},{""stimulus"":""run_exp/static/images/task_images/land.jpg"",""time"":685.3999999761581},{""stimulus"":""run_exp/static/images/task_images/dig.jpg"",""time"":1346}]",[],8,,,,,,,,,,,,,,
harvest,123,526651,0.0-34.0-4.0,"""event"",""trial"",""time""
""fullscreenenter"",""1"",""7249""
","
","
","""event"",""trial"",""time""
""fullscreenenter"",""1"",""7249""
","
",,null,run_exp/static/images/task_images/gems/103.jpg,null,,,,,,,73,,,8,,,,,103,0.708698981,0.708737864,,,,,,,
decision,124,527328,0.0-34.0-5.0,"""event"",""trial"",""time""
""fullscreenenter"",""1"",""7249""
","
","
","""event"",""trial"",""time""
""fullscreenenter"",""1"",""7249""
","
",,675.3,run_exp/static/images/task_images/land.jpg,65,,,,,,,73,,,8,,,,,,,,155344,1,0,FALSE,,,
dig,125,529656,0.0-35.0-0.0,"""event"",""trial"",""time""
""fullscreenenter"",""1"",""7249""
","
","
","""event"",""trial"",""time""
""fullscreenenter"",""1"",""7249""
","
",,,,,,,,,,,,"[{""stimulus"":""run_exp/static/images/task_images/dig.jpg"",""time"":0.30000001192092896},{""stimulus"":""run_exp/static/images/task_images/land.jpg"",""time"":784.7000000476837},{""stimulus"":""run_exp/static/images/task_images/dig.jpg"",""time"":1555.2000000476837}]",[],8,,,,,,,,,,,,,,
harvest,126,530665,0.0-35.0-1.0,"""event"",""trial"",""time""
""fullscreenenter"",""1"",""7249""
","
","
","""event"",""trial"",""time""
""fullscreenenter"",""1"",""7249""
","
",,null,run_exp/static/images/task_images/gems/73.jpg,null,,,,,,,60,,,8,,,,,73,0.824723152,0.821917808,,,,,,,
decision,127,531169,0.0-35.0-2.0,"""event"",""trial"",""time""
""fullscreenenter"",""1"",""7249""
","
","
","""event"",""trial"",""time""
""fullscreenenter"",""1"",""7249""
","
",,502.6,run_exp/static/images/task_images/land.jpg,76,,,,,,,60,,,8,,,,,,,,159186,1,1,TRUE,,,
travel,128,540690,0.0-36.0-0.0,"""event"",""trial"",""time""
""fullscreenenter"",""1"",""7249""
","
","
","""event"",""trial"",""time""
""fullscreenenter"",""1"",""7249""
","
",,,,,,,,,,,,"[{""stimulus"":""run_exp/static/images/task_images/rocket-01.jpg"",""time"":0.699999988079071},{""stimulus"":""run_exp/static/images/task_images/rocket-02.jpg"",""time"":1064.5},{""stimulus"":""run_exp/static/images/task_images/rocket-03.jpg"",""time"":2114.900000035763},{""stimulus"":""run_exp/static/images/task_images/rocket-04.jpg"",""time"":3176},{""stimulus"":""run_exp/static/images/task_images/rocket-05.jpg"",""time"":4225.300000011921},{""stimulus"":""run_exp/static/images/task_images/rocket-06.jpg"",""time"":5282.699999988079},{""stimulus"":""run_exp/static/images/task_images/rocket-07.jpg"",""time"":6335},{""stimulus"":""run_exp/static/images/task_images/rocket-08.jpg"",""time"":7388.199999988079},{""stimulus"":""run_exp/static/images/task_images/rocket-09.jpg"",""time"":8456.400000035763}]",[],8,,,,,,,,,,,,,,
alien_welcome,129,545701,0.0-36.0-1.0,"""event"",""trial"",""time""
""fullscreenenter"",""1"",""7249""
","
","
","""event"",""trial"",""time""
""fullscreenenter"",""1"",""7249""
","
",,null,run_exp/static/images/task_images/aliens/old_aliens/planet/alien_planet-17.jpg,null,,,,,,,,,,,,,17,"61,69,35,28,54,57,75,55,17,43,72,30,64,42,76,3,5,65,19,1,26,27,34,66,47,8,77,78,24,53,37,45,68,49,23,38,18,80,4,32,60,51,73,33,70,79,59,10,50,67,22,63,6,25,15,36,20,58,52,46,56,14,74,41,40",,,,,,,,,,
land,130,546217,0.0-36.0-2.0,"""event"",""trial"",""time""
""fullscreenenter"",""1"",""7249""
","
","
","""event"",""trial"",""time""
""fullscreenenter"",""1"",""7249""
","
",,null,run_exp/static/images/task_images/land.jpg,null,,,,,,,95,,,9,,,,,,,,,,,,,,
dig,131,548241,0.0-36.0-3.0,"""event"",""trial"",""time""
""fullscreenenter"",""1"",""7249""
","
","
","""event"",""trial"",""time""
""fullscreenenter"",""1"",""7249""
","
",,,,,,,,,,,,"[{""stimulus"":""run_exp/static/images/task_images/dig.jpg"",""time"":0.7000000476837158},{""stimulus"":""run_exp/static/images/task_images/land.jpg"",""time"":677.8000000119209},{""stimulus"":""run_exp/static/images/task_images/dig.jpg"",""time"":1341.300000011921}]",[],9,,,,,,,,,,,,,,
harvest,132,549249,0.0-36.0-4.0,"""event"",""trial"",""time""
""fullscreenenter"",""1"",""7249""
","
","
","""event"",""trial"",""time""
""fullscreenenter"",""1"",""7249""
","
",,null,run_exp/static/images/task_images/gems/95.jpg,null,,,,,,,17,,,9,,,,,95,0.183586278,0.178947368,,,,,,,
decision,133,549680,0.0-36.0-5.0,"""event"",""trial"",""time""
""fullscreenenter"",""1"",""7249""
","
","
","""event"",""trial"",""time""
""fullscreenenter"",""1"",""7249""
","
",,428,run_exp/static/images/task_images/land.jpg,76,,,,,,,17,,,9,,,,,,,,177697,1,0,TRUE,,,
travel,134,559261,0.0-37.0-0.0,"""event"",""trial"",""time""
""fullscreenenter"",""1"",""7249""
","
","
","""event"",""trial"",""time""
""fullscreenenter"",""1"",""7249""
","
",,,,,,,,,,,,"[{""stimulus"":""run_exp/static/images/task_images/rocket-01.jpg"",""time"":0.6000000238418579},{""stimulus"":""run_exp/static/images/task_images/rocket-02.jpg"",""time"":1065.699999988079},{""stimulus"":""run_exp/static/images/task_images/rocket-03.jpg"",""time"":2136},{""stimulus"":""run_exp/static/images/task_images/rocket-04.jpg"",""time"":3203.600000023842},{""stimulus"":""run_exp/static/images/task_images/rocket-05.jpg"",""time"":4261.899999976158},{""stimulus"":""run_exp/static/images/task_images/rocket-06.jpg"",""time"":5328},{""stimulus"":""run_exp/static/images/task_images/rocket-07.jpg"",""time"":6396.699999988079},{""stimulus"":""run_exp/static/images/task_images/rocket-08.jpg"",""time"":7453.399999976158},{""stimulus"":""run_exp/static/images/task_images/rocket-09.jpg"",""time"":8517.199999988079}]",[],9,,,,,,,,,,,,,,
alien_welcome,135,564271,0.0-37.0-1.0,"""event"",""trial"",""time""
""fullscreenenter"",""1"",""7249""
","
","
","""event"",""trial"",""time""
""fullscreenenter"",""1"",""7249""
","
",,null,run_exp/static/images/task_images/aliens/old_aliens/planet/alien_planet-43.jpg,null,,,,,,,,,,,,,43,"61,69,35,28,54,57,75,55,17,43,72,30,64,42,76,3,5,65,19,1,26,27,34,66,47,8,77,78,24,53,37,45,68,49,23,38,18,80,4,32,60,51,73,33,70,79,59,10,50,67,22,63,6,25,15,36,20,58,52,46,56,14,74,41,40",,,,,,,,,,
land,136,564782,0.0-37.0-2.0,"""event"",""trial"",""time""
""fullscreenenter"",""1"",""7249""
","
","
","""event"",""trial"",""time""
""fullscreenenter"",""1"",""7249""
","
",,null,run_exp/static/images/task_images/land.jpg,null,,,,,,,104,,,10,,,,,,,,,,,,,,
dig,137,566787,0.0-37.0-3.0,"""event"",""trial"",""time""
""fullscreenenter"",""1"",""7249""
","
","
","""event"",""trial"",""time""
""fullscreenenter"",""1"",""7249""
","
",,,,,,,,,,,,"[{""stimulus"":""run_exp/static/images/task_images/dig.jpg"",""time"":0.3999999761581421},{""stimulus"":""run_exp/static/images/task_images/land.jpg"",""time"":677.8999999761581},{""stimulus"":""run_exp/static/images/task_images/dig.jpg"",""time"":1346.5999999642372}]",[],10,,,,,,,,,,,,,,
harvest,138,567801,0.0-37.0-4.0,"""event"",""trial"",""time""
""fullscreenenter"",""1"",""7249""
","
","
","""event"",""trial"",""time""
""fullscreenenter"",""1"",""7249""
","
",,null,run_exp/static/images/task_images/gems/104.jpg,null,,,,,,,23,,,10,,,,,104,0.225237735,0.221153846,,,,,,,
decision,139,568258,0.0-37.0-5.0,"""event"",""trial"",""time""
""fullscreenenter"",""1"",""7249""
","
","
","""event"",""trial"",""time""
""fullscreenenter"",""1"",""7249""
","
",,455.7,run_exp/static/images/task_images/land.jpg,76,,,,,,,23,,,10,,,,,,,,196275,1,0,TRUE,,,
travel,140,577832,0.0-38.0-0.0,"""event"",""trial"",""time""
""fullscreenenter"",""1"",""7249""
","
","
","""event"",""trial"",""time""
""fullscreenenter"",""1"",""7249""
","
",,,,,,,,,,,,"[{""stimulus"":""run_exp/static/images/task_images/rocket-01.jpg"",""time"":0.800000011920929},{""stimulus"":""run_exp/static/images/task_images/rocket-02.jpg"",""time"":1067},{""stimulus"":""run_exp/static/images/task_images/rocket-03.jpg"",""time"":2131.5},{""stimulus"":""run_exp/static/images/task_images/rocket-04.jpg"",""time"":3188.599999964237},{""stimulus"":""run_exp/static/images/task_images/rocket-05.jpg"",""time"":4249.099999964237},{""stimulus"":""run_exp/static/images/task_images/rocket-06.jpg"",""time"":5310.800000011921},{""stimulus"":""run_exp/static/images/task_images/rocket-07.jpg"",""time"":6374.300000011921},{""stimulus"":""run_exp/static/images/task_images/rocket-08.jpg"",""time"":7431},{""stimulus"":""run_exp/static/images/task_images/rocket-09.jpg"",""time"":8491.599999964237}]",[],10,,,,,,,,,,,,,,
alien_welcome,141,582838,0.0-38.0-1.0,"""event"",""trial"",""time""
""fullscreenenter"",""1"",""7249""
","
","
","""event"",""trial"",""time""
""fullscreenenter"",""1"",""7249""
","
",,null,run_exp/static/images/task_images/aliens/old_aliens/planet/alien_planet-72.jpg,null,,,,,,,,,,,,,72,"61,69,35,28,54,57,75,55,17,43,72,30,64,42,76,3,5,65,19,1,26,27,34,66,47,8,77,78,24,53,37,45,68,49,23,38,18,80,4,32,60,51,73,33,70,79,59,10,50,67,22,63,6,25,15,36,20,58,52,46,56,14,74,41,40",,,,,,,,,,
land,142,583342,0.0-38.0-2.0,"""event"",""trial"",""time""
""fullscreenenter"",""1"",""7249""
","
","
","""event"",""trial"",""time""
""fullscreenenter"",""1"",""7249""
","
",,null,run_exp/static/images/task_images/land.jpg,null,,,,,,,111,,,11,,,,,,,,,,,,,,
dig,143,585362,0.0-38.0-3.0,"""event"",""trial"",""time""
""fullscreenenter"",""1"",""7249""
","
","
","""event"",""trial"",""time""
""fullscreenenter"",""1"",""7249""
","
",,,,,,,,,,,,"[{""stimulus"":""run_exp/static/images/task_images/dig.jpg"",""time"":0.30000001192092896},{""stimulus"":""run_exp/static/images/task_images/land.jpg"",""time"":669.8000000119209},{""stimulus"":""run_exp/static/images/task_images/dig.jpg"",""time"":1338.3999999761581}]",[],11,,,,,,,,,,,,,,
harvest,144,586372,0.0-38.0-4.0,"""event"",""trial"",""time""
""fullscreenenter"",""1"",""7249""
","
","
","""event"",""trial"",""time""
""fullscreenenter"",""1"",""7249""
","
",,null,run_exp/static/images/task_images/gems/111.jpg,null,,,,,,,14,,,11,,,,,111,0.12692259,0.126126126,,,,,,,
decision,145,587004,0.0-38.0-5.0,"""event"",""trial"",""time""
""fullscreenenter"",""1"",""7249""
","
","
","""event"",""trial"",""time""
""fullscreenenter"",""1"",""7249""
","
",,630.2,run_exp/static/images/task_images/land.jpg,65,,,,,,,14,,,11,,,,,,,,215020,1,0,FALSE,,,
dig,146,589391,0.0-39.0-0.0,"""event"",""trial"",""time""
""fullscreenenter"",""1"",""7249""
","
","
","""event"",""trial"",""time""
""fullscreenenter"",""1"",""7249""
","
",,,,,,,,,,,,"[{""stimulus"":""run_exp/static/images/task_images/dig.jpg"",""time"":0.9000000357627869},{""stimulus"":""run_exp/static/images/task_images/land.jpg"",""time"":792.8000000119209},{""stimulus"":""run_exp/static/images/task_images/dig.jpg"",""time"":1585.6000000238419}]",[],11,,,,,,,,,,,,,,
harvest,147,590397,0.0-39.0-1.0,"""event"",""trial"",""time""
""fullscreenenter"",""1"",""7249""
","
","
","""event"",""trial"",""time""
""fullscreenenter"",""1"",""7249""
","
",,null,run_exp/static/images/task_images/gems/14.jpg,null,,,,,,,4,,,11,,,,,14,0.255978896,0.285714286,,,,,,,
decision,148,590680,0.0-39.0-2.0,"""event"",""trial"",""time""
""fullscreenenter"",""1"",""7249""
","
","
","""event"",""trial"",""time""
""fullscreenenter"",""1"",""7249""
","
",,280.3,run_exp/static/images/task_images/land.jpg,76,,,,,,,4,,,11,,,,,,,,218696,1,1,TRUE,,,
travel,149,600412,0.0-40.0-0.0,"""event"",""trial"",""time""
""fullscreenenter"",""1"",""7249""
","
","
","""event"",""trial"",""time""
""fullscreenenter"",""1"",""7249""
","
",,,,,,,,,,,,"[{""stimulus"":""run_exp/static/images/task_images/rocket-01.jpg"",""time"":0.9000000357627869},{""stimulus"":""run_exp/static/images/task_images/rocket-02.jpg"",""time"":1091.699999988079},{""stimulus"":""run_exp/static/images/task_images/rocket-03.jpg"",""time"":2167.600000023842},{""stimulus"":""run_exp/static/images/task_images/rocket-04.jpg"",""time"":3242.100000023842},{""stimulus"":""run_exp/static/images/task_images/rocket-05.jpg"",""time"":4321.800000011921},{""stimulus"":""run_exp/static/images/task_images/rocket-06.jpg"",""time"":5401.900000035763},{""stimulus"":""run_exp/static/images/task_images/rocket-07.jpg"",""time"":6477.199999988079},{""stimulus"":""run_exp/static/images/task_images/rocket-08.jpg"",""time"":7560.199999988079},{""stimulus"":""run_exp/static/images/task_images/rocket-09.jpg"",""time"":8643.199999988079}]",[],11,,,,,,,,,,,,,,
alien_welcome,150,605422,0.0-40.0-1.0,"""event"",""trial"",""time""
""fullscreenenter"",""1"",""7249""
","
","
","""event"",""trial"",""time""
""fullscreenenter"",""1"",""7249""
","
",,null,run_exp/static/images/task_images/aliens/old_aliens/planet/alien_planet-30.jpg,null,,,,,,,,,,,,,30,"61,69,35,28,54,57,75,55,17,43,72,30,64,42,76,3,5,65,19,1,26,27,34,66,47,8,77,78,24,53,37,45,68,49,23,38,18,80,4,32,60,51,73,33,70,79,59,10,50,67,22,63,6,25,15,36,20,58,52,46,56,14,74,41,40",,,,,,,,,,
land,151,605931,0.0-40.0-2.0,"""event"",""trial"",""time""
""fullscreenenter"",""1"",""7249""
","
","
","""event"",""trial"",""time""
""fullscreenenter"",""1"",""7249""
","
",,null,run_exp/static/images/task_images/land.jpg,null,,,,,,,92,,,12,,,,,,,,,,,,,,
dig,152,607941,0.0-40.0-3.0,"""event"",""trial"",""time""
""fullscreenenter"",""1"",""7249""
","
","
","""event"",""trial"",""time""
""fullscreenenter"",""1"",""7249""
","
",,,,,,,,,,,,"[{""stimulus"":""run_exp/static/images/task_images/dig.jpg"",""time"":0.5},{""stimulus"":""run_exp/static/images/task_images/land.jpg"",""time"":676.5999999642372},{""stimulus"":""run_exp/static/images/task_images/dig.jpg"",""time"":1343.8999999761581}]",[],12,,,,,,,,,,,,,,
harvest,153,608950,0.0-40.0-4.0,"""event"",""trial"",""time""
""fullscreenenter"",""1"",""7249""
","
","
","""event"",""trial"",""time""
""fullscreenenter"",""1"",""7249""
","
",,null,run_exp/static/images/task_images/gems/92.jpg,null,,,,,,,14,,,12,,,,,92,0.152516532,0.152173913,,,,,,,
decision,154,609699,0.0-40.0-5.0,"""event"",""trial"",""time""
""fullscreenenter"",""1"",""7249""
","
","
","""event"",""trial"",""time""
""fullscreenenter"",""1"",""7249""
","
",,746.4,run_exp/static/images/task_images/land.jpg,76,,,,,,,14,,,12,,,,,,,,237716,1,0,TRUE,,,
travel,155,618967,0.0-41.0-0.0,"""event"",""trial"",""time""
""fullscreenenter"",""1"",""7249""
","
","
","""event"",""trial"",""time""
""fullscreenenter"",""1"",""7249""
","
",,,,,,,,,,,,"[{""stimulus"":""run_exp/static/images/task_images/rocket-01.jpg"",""time"":0.5},{""stimulus"":""run_exp/static/images/task_images/rocket-02.jpg"",""time"":1051.300000011921},{""stimulus"":""run_exp/static/images/task_images/rocket-03.jpg"",""time"":2064.400000035763},{""stimulus"":""run_exp/static/images/task_images/rocket-04.jpg"",""time"":3089.900000035763},{""stimulus"":""run_exp/static/images/task_images/rocket-05.jpg"",""time"":4115.199999988079},{""stimulus"":""run_exp/static/images/task_images/rocket-06.jpg"",""time"":5143.800000011921},{""stimulus"":""run_exp/static/images/task_images/rocket-07.jpg"",""time"":6174.600000023842},{""stimulus"":""run_exp/static/images/task_images/rocket-08.jpg"",""time"":7214.900000035763},{""stimulus"":""run_exp/static/images/task_images/rocket-09.jpg"",""time"":8233.699999988079}]",[],12,,,,,,,,,,,,,,
alien_welcome,156,623973,0.0-41.0-1.0,"""event"",""trial"",""time""
""fullscreenenter"",""1"",""7249""
","
","
","""event"",""trial"",""time""
""fullscreenenter"",""1"",""7249""
","
",,null,run_exp/static/images/task_images/aliens/old_aliens/planet/alien_planet-64.jpg,null,,,,,,,,,,,,,64,"61,69,35,28,54,57,75,55,17,43,72,30,64,42,76,3,5,65,19,1,26,27,34,66,47,8,77,78,24,53,37,45,68,49,23,38,18,80,4,32,60,51,73,33,70,79,59,10,50,67,22,63,6,25,15,36,20,58,52,46,56,14,74,41,40",,,,,,,,,,
land,157,624483,0.0-41.0-2.0,"""event"",""trial"",""time""
""fullscreenenter"",""1"",""7249""
","
","
","""event"",""trial"",""time""
""fullscreenenter"",""1"",""7249""
","
",,null,run_exp/static/images/task_images/land.jpg,null,,,,,,,100,,,13,,,,,,,,,,,,,,
dig,158,626493,0.0-41.0-3.0,"""event"",""trial"",""time""
""fullscreenenter"",""1"",""7249""
","
","
","""event"",""trial"",""time""
""fullscreenenter"",""1"",""7249""
","
",,,,,,,,,,,,"[{""stimulus"":""run_exp/static/images/task_images/dig.jpg"",""time"":0.40000003576278687},{""stimulus"":""run_exp/static/images/task_images/land.jpg"",""time"":673.2000000476837},{""stimulus"":""run_exp/static/images/task_images/dig.jpg"",""time"":1337.7000000476837}]",[],13,,,,,,,,,,,,,,
harvest,159,627510,0.0-41.0-4.0,"""event"",""trial"",""time""
""fullscreenenter"",""1"",""7249""
","
","
","""event"",""trial"",""time""
""fullscreenenter"",""1"",""7249""
","
",,null,run_exp/static/images/task_images/gems/100.jpg,null,,,,,,,15,,,13,,,,,100,0.153006166,0.15,,,,,,,
decision,160,627854,0.0-41.0-5.0,"""event"",""trial"",""time""
""fullscreenenter"",""1"",""7249""
","
","
","""event"",""trial"",""time""
""fullscreenenter"",""1"",""7249""
","
",,343,run_exp/static/images/task_images/land.jpg,76,,,,,,,15,,,13,,,,,,,,255871,1,0,TRUE,,,
travel,161,637520,0.0-42.0-0.0,"""event"",""trial"",""time""
""fullscreenenter"",""1"",""7249""
","
","
","""event"",""trial"",""time""
""fullscreenenter"",""1"",""7249""
","
",,,,,,,,,,,,"[{""stimulus"":""run_exp/static/images/task_images/rocket-01.jpg"",""time"":0.5},{""stimulus"":""run_exp/static/images/task_images/rocket-02.jpg"",""time"":1088.5999999642372},{""stimulus"":""run_exp/static/images/task_images/rocket-03.jpg"",""time"":2155.599999964237},{""stimulus"":""run_exp/static/images/task_images/rocket-04.jpg"",""time"":3225.5},{""stimulus"":""run_exp/static/images/task_images/rocket-05.jpg"",""time"":4294.099999964237},{""stimulus"":""run_exp/static/images/task_images/rocket-06.jpg"",""time"":5371.099999964237},{""stimulus"":""run_exp/static/images/task_images/rocket-07.jpg"",""time"":6444.099999964237},{""stimulus"":""run_exp/static/images/task_images/rocket-08.jpg"",""time"":7519},{""stimulus"":""run_exp/static/images/task_images/rocket-09.jpg"",""time"":8591.599999964237}]",[],13,,,,,,,,,,,,,,
alien_welcome,162,642529,0.0-42.0-1.0,"""event"",""trial"",""time""
""fullscreenenter"",""1"",""7249""
","
","
","""event"",""trial"",""time""
""fullscreenenter"",""1"",""7249""
","
",,null,run_exp/static/images/task_images/aliens/old_aliens/planet/alien_planet-42.jpg,null,,,,,,,,,,,,,42,"61,69,35,28,54,57,75,55,17,43,72,30,64,42,76,3,5,65,19,1,26,27,34,66,47,8,77,78,24,53,37,45,68,49,23,38,18,80,4,32,60,51,73,33,70,79,59,10,50,67,22,63,6,25,15,36,20,58,52,46,56,14,74,41,40",,,,,,,,,,
land,163,643034,0.0-42.0-2.0,"""event"",""trial"",""time""
""fullscreenenter"",""1"",""7249""
","
","
","""event"",""trial"",""time""
""fullscreenenter"",""1"",""7249""
","
",,null,run_exp/static/images/task_images/land.jpg,null,,,,,,,101,,,14,,,,,,,,,,,,,,
dig,164,645051,0.0-42.0-3.0,"""event"",""trial"",""time""
""fullscreenenter"",""1"",""7249""
","
","
","""event"",""trial"",""time""
""fullscreenenter"",""1"",""7249""
","
",,,,,,,,,,,,"[{""stimulus"":""run_exp/static/images/task_images/dig.jpg"",""time"":0.699999988079071},{""stimulus"":""run_exp/static/images/task_images/land.jpg"",""time"":671.8999999761581},{""stimulus"":""run_exp/static/images/task_images/dig.jpg"",""time"":1341.8999999761581}]",[],14,,,,,,,,,,,,,,
harvest,165,646062,0.0-42.0-4.0,"""event"",""trial"",""time""
""fullscreenenter"",""1"",""7249""
","
","
","""event"",""trial"",""time""
""fullscreenenter"",""1"",""7249""
","
",,null,run_exp/static/images/task_images/gems/101.jpg,null,,,,,,,77,,,14,,,,,101,0.762900413,0.762376238,,,,,,,
decision,166,646495,0.0-42.0-5.0,"""event"",""trial"",""time""
""fullscreenenter"",""1"",""7249""
","
","
","""event"",""trial"",""time""
""fullscreenenter"",""1"",""7249""
","
",,429,run_exp/static/images/task_images/land.jpg,76,,,,,,,77,,,14,,,,,,,,274511,1,0,TRUE,,,
travel,167,656092,0.0-43.0-0.0,"""event"",""trial"",""time""
""fullscreenenter"",""1"",""7249""
","
","
","""event"",""trial"",""time""
""fullscreenenter"",""1"",""7249""
","
",,,,,,,,,,,,"[{""stimulus"":""run_exp/static/images/task_images/rocket-01.jpg"",""time"":0.699999988079071},{""stimulus"":""run_exp/static/images/task_images/rocket-02.jpg"",""time"":1074},{""stimulus"":""run_exp/static/images/task_images/rocket-03.jpg"",""time"":2140.800000011921},{""stimulus"":""run_exp/static/images/task_images/rocket-04.jpg"",""time"":3203.399999976158},{""stimulus"":""run_exp/static/images/task_images/rocket-05.jpg"",""time"":4263.5},{""stimulus"":""run_exp/static/images/task_images/rocket-06.jpg"",""time"":5333.800000011921},{""stimulus"":""run_exp/static/images/task_images/rocket-07.jpg"",""time"":6383},{""stimulus"":""run_exp/static/images/task_images/rocket-08.jpg"",""time"":7454},{""stimulus"":""run_exp/static/images/task_images/rocket-09.jpg"",""time"":8522.600000023842}]",[],14,,,,,,,,,,,,,,
alien_welcome,168,661103,0.0-43.0-1.0,"""event"",""trial"",""time""
""fullscreenenter"",""1"",""7249""
","
","
","""event"",""trial"",""time""
""fullscreenenter"",""1"",""7249""
","
",,null,run_exp/static/images/task_images/aliens/old_aliens/planet/alien_planet-76.jpg,null,,,,,,,,,,,,,76,"61,69,35,28,54,57,75,55,17,43,72,30,64,42,76,3,5,65,19,1,26,27,34,66,47,8,77,78,24,53,37,45,68,49,23,38,18,80,4,32,60,51,73,33,70,79,59,10,50,67,22,63,6,25,15,36,20,58,52,46,56,14,74,41,40",,,,,,,,,,
land,169,661615,0.0-43.0-2.0,"""event"",""trial"",""time""
""fullscreenenter"",""1"",""7249""
","
","
","""event"",""trial"",""time""
""fullscreenenter"",""1"",""7249""
","
",,null,run_exp/static/images/task_images/land.jpg,null,,,,,,,90,,,15,,,,,,,,,,,,,,
dig,170,663638,0.0-43.0-3.0,"""event"",""trial"",""time""
""fullscreenenter"",""1"",""7249""
","
","
","""event"",""trial"",""time""
""fullscreenenter"",""1"",""7249""
","
",,,,,,,,,,,,"[{""stimulus"":""run_exp/static/images/task_images/dig.jpg"",""time"":0.699999988079071},{""stimulus"":""run_exp/static/images/task_images/land.jpg"",""time"":673.3000000119209},{""stimulus"":""run_exp/static/images/task_images/dig.jpg"",""time"":1349.300000011921}]",[],15,,,,,,,,,,,,,,
harvest,171,664642,0.0-43.0-4.0,"""event"",""trial"",""time""
""fullscreenenter"",""1"",""7249""
","
","
","""event"",""trial"",""time""
""fullscreenenter"",""1"",""7249""
","
",,null,run_exp/static/images/task_images/gems/90.jpg,null,,,,,,,81,,,15,,,,,90,0.903804939,0.9,,,,,,,
decision,172,665101,0.0-43.0-5.0,"""event"",""trial"",""time""
""fullscreenenter"",""1"",""7249""
","
","
","""event"",""trial"",""time""
""fullscreenenter"",""1"",""7249""
","
",,456.7,run_exp/static/images/task_images/land.jpg,76,,,,,,,81,,,15,,,,,,,,293117,1,0,TRUE,,,
travel,173,674652,0.0-44.0-0.0,"""event"",""trial"",""time""
""fullscreenenter"",""1"",""7249""
","
","
","""event"",""trial"",""time""
""fullscreenenter"",""1"",""7249""
","
",,,,,,,,,,,,"[{""stimulus"":""run_exp/static/images/task_images/rocket-01.jpg"",""time"":0.6000000238418579},{""stimulus"":""run_exp/static/images/task_images/rocket-02.jpg"",""time"":1066.5},{""stimulus"":""run_exp/static/images/task_images/rocket-03.jpg"",""time"":2142.7000000476837},{""stimulus"":""run_exp/static/images/task_images/rocket-04.jpg"",""time"":3190.100000023842},{""stimulus"":""run_exp/static/images/task_images/rocket-05.jpg"",""time"":4247.200000047684},{""stimulus"":""run_exp/static/images/task_images/rocket-06.jpg"",""time"":5304.5},{""stimulus"":""run_exp/static/images/task_images/rocket-07.jpg"",""time"":6364.700000047684},{""stimulus"":""run_exp/static/images/task_images/rocket-08.jpg"",""time"":7426.800000011921},{""stimulus"":""run_exp/static/images/task_images/rocket-09.jpg"",""time"":8492.600000023842}]",[],15,,,,,,,,,,,,,,
alien_welcome,174,679664,0.0-44.0-1.0,"""event"",""trial"",""time""
""fullscreenenter"",""1"",""7249""
","
","
","""event"",""trial"",""time""
""fullscreenenter"",""1"",""7249""
","
",,null,run_exp/static/images/task_images/aliens/old_aliens/planet/alien_planet-3.jpg,null,,,,,,,,,,,,,3,"61,69,35,28,54,57,75,55,17,43,72,30,64,42,76,3,5,65,19,1,26,27,34,66,47,8,77,78,24,53,37,45,68,49,23,38,18,80,4,32,60,51,73,33,70,79,59,10,50,67,22,63,6,25,15,36,20,58,52,46,56,14,74,41,40",,,,,,,,,,
land,175,680170,0.0-44.0-2.0,"""event"",""trial"",""time""
""fullscreenenter"",""1"",""7249""
","
","
","""event"",""trial"",""time""
""fullscreenenter"",""1"",""7249""
","
",,null,run_exp/static/images/task_images/land.jpg,null,,,,,,,106,,,16,,,,,,,,,,,,,,
dig,176,682190,0.0-44.0-3.0,"""event"",""trial"",""time""
""fullscreenenter"",""1"",""7249""
","
","
","""event"",""trial"",""time""
""fullscreenenter"",""1"",""7249""
","
",,,,,,,,,,,,"[{""stimulus"":""run_exp/static/images/task_images/dig.jpg"",""time"":0.6000000238418579},{""stimulus"":""run_exp/static/images/task_images/land.jpg"",""time"":671.4000000357628},{""stimulus"":""run_exp/static/images/task_images/dig.jpg"",""time"":1351.4000000357628}]",[],16,,,,,,,,,,,,,,
harvest,177,683192,0.0-44.0-4.0,"""event"",""trial"",""time""
""fullscreenenter"",""1"",""7249""
","
","
","""event"",""trial"",""time""
""fullscreenenter"",""1"",""7249""
","
",,null,run_exp/static/images/task_images/gems/106.jpg,null,,,,,,,44,,,16,,,,,106,0.410454873,0.41509434,,,,,,,
decision,178,684392,0.0-44.0-5.0,"""event"",""trial"",""time""
""fullscreenenter"",""1"",""7249""
","
","
","""event"",""trial"",""time""
""fullscreenenter"",""1"",""7249""
","
",,1197.5,run_exp/static/images/task_images/land.jpg,76,,,,,,,44,,,16,,,,,,,,312408,1,0,TRUE,,,
end_of_block_continue,179,691295,0.0-45.0-0.0,"""event"",""trial"",""time""
""fullscreenenter"",""1"",""7249""
","
","
","""event"",""trial"",""time""
""fullscreenenter"",""1"",""7249""
","
",,6889.7,run_exp/static/audio/clip_32_block_end.m4a,,,,,,,0,,,,,,,,,,,,,,,,,,
alien_welcome,180,696321,0.0-46.0-0.0,"""event"",""trial"",""time""
""fullscreenenter"",""1"",""7249""
","
","
","""event"",""trial"",""time""
""fullscreenenter"",""1"",""7249""
","
",,null,run_exp/static/images/task_images/aliens/old_aliens/planet/alien_planet-5.jpg,null,,,,,,,,,,,,,5,"61,69,35,28,54,57,75,55,17,43,72,30,64,42,76,3,5,65,19,1,26,27,34,66,47,8,77,78,24,53,37,45,68,49,23,38,18,80,4,32,60,51,73,33,70,79,59,10,50,67,22,63,6,25,15,36,20,58,52,46,56,14,74,41,40",,,,,,,,,,
land,181,696833,0.0-46.0-1.0,"""event"",""trial"",""time""
""fullscreenenter"",""1"",""7249""
","
","
","""event"",""trial"",""time""
""fullscreenenter"",""1"",""7249""
","
",,null,run_exp/static/images/task_images/land.jpg,null,,,,,,,98,,,17,,,,,,,,,,,,,,
dig,182,698852,0.0-46.0-2.0,"""event"",""trial"",""time""
""fullscreenenter"",""1"",""7249""
","
","
","""event"",""trial"",""time""
""fullscreenenter"",""1"",""7249""
","
",,,,,,,,,,,,"[{""stimulus"":""run_exp/static/images/task_images/dig.jpg"",""time"":0.6000000238418579},{""stimulus"":""run_exp/static/images/task_images/land.jpg"",""time"":675.9000000357628},{""stimulus"":""run_exp/static/images/task_images/dig.jpg"",""time"":1349}]",[],17,,,,,,,,,,,,,,
harvest,183,699862,0.0-46.0-3.0,"""event"",""trial"",""time""
""fullscreenenter"",""1"",""7249""
","
","
","""event"",""trial"",""time""
""fullscreenenter"",""1"",""7249""
","
",,null,run_exp/static/images/task_images/gems/98.jpg,null,,,,,,,20,,,17,,,,,98,0.204768105,0.204081633,,,,,,,
decision,184,700086,0.0-46.0-4.0,"""event"",""trial"",""time""
""fullscreenenter"",""1"",""7249""
","
","
","""event"",""trial"",""time""
""fullscreenenter"",""1"",""7249""
","
",,222,run_exp/static/images/task_images/land.jpg,76,,,,,,,20,,,17,,,,,,,,8779,2,0,TRUE,,,
travel,185,709878,0.0-47.0-0.0,"""event"",""trial"",""time""
""fullscreenenter"",""1"",""7249""
","
","
","""event"",""trial"",""time""
""fullscreenenter"",""1"",""7249""
","
",,,,,,,,,,,,"[{""stimulus"":""run_exp/static/images/task_images/rocket-01.jpg"",""time"":0.8999999761581421},{""stimulus"":""run_exp/static/images/task_images/rocket-02.jpg"",""time"":1103.8999999761581},{""stimulus"":""run_exp/static/images/task_images/rocket-03.jpg"",""time"":2175.699999988079},{""stimulus"":""run_exp/static/images/task_images/rocket-04.jpg"",""time"":3266.399999976158},{""stimulus"":""run_exp/static/images/task_images/rocket-05.jpg"",""time"":4348.699999988079},{""stimulus"":""run_exp/static/images/task_images/rocket-06.jpg"",""time"":5447.299999952316},{""stimulus"":""run_exp/static/images/task_images/rocket-07.jpg"",""time"":6519.599999964237},{""stimulus"":""run_exp/static/images/task_images/rocket-08.jpg"",""time"":7611.599999964237},{""stimulus"":""run_exp/static/images/task_images/rocket-09.jpg"",""time"":8702.799999952316}]",[],17,,,,,,,,,,,,,,
alien_welcome,186,714883,0.0-47.0-1.0,"""event"",""trial"",""time""
""fullscreenenter"",""1"",""7249""
","
","
","""event"",""trial"",""time""
""fullscreenenter"",""1"",""7249""
","
",,null,run_exp/static/images/task_images/aliens/old_aliens/planet/alien_planet-65.jpg,null,,,,,,,,,,,,,65,"61,69,35,28,54,57,75,55,17,43,72,30,64,42,76,3,5,65,19,1,26,27,34,66,47,8,77,78,24,53,37,45,68,49,23,38,18,80,4,32,60,51,73,33,70,79,59,10,50,67,22,63,6,25,15,36,20,58,52,46,56,14,74,41,40",,,,,,,,,,
land,187,715393,0.0-47.0-2.0,"""event"",""trial"",""time""
""fullscreenenter"",""1"",""7249""
","
","
","""event"",""trial"",""time""
""fullscreenenter"",""1"",""7249""
","
",,null,run_exp/static/images/task_images/land.jpg,null,,,,,,,97,,,18,,,,,,,,,,,,,,
dig,188,717403,0.0-47.0-3.0,"""event"",""trial"",""time""
""fullscreenenter"",""1"",""7249""
","
","
","""event"",""trial"",""time""
""fullscreenenter"",""1"",""7249""
","
",,,,,,,,,,,,"[{""stimulus"":""run_exp/static/images/task_images/dig.jpg"",""time"":0.800000011920929},{""stimulus"":""run_exp/static/images/task_images/land.jpg"",""time"":686.3000000119209},{""stimulus"":""run_exp/static/images/task_images/dig.jpg"",""time"":1338.800000011921}]",[],18,,,,,,,,,,,,,,
harvest,189,718418,0.0-47.0-4.0,"""event"",""trial"",""time""
""fullscreenenter"",""1"",""7249""
","
","
","""event"",""trial"",""time""
""fullscreenenter"",""1"",""7249""
","
",,null,run_exp/static/images/task_images/gems/97.jpg,null,,,,,,,19,,,18,,,,,97,0.191471867,0.195876289,,,,,,,
decision,190,719807,0.0-47.0-5.0,"""event"",""trial"",""time""
""fullscreenenter"",""1"",""7249""
","
","
","""event"",""trial"",""time""
""fullscreenenter"",""1"",""7249""
","
",,1386.6,run_exp/static/images/task_images/land.jpg,65,,,,,,,19,,,18,,,,,,,,28500,2,0,FALSE,,,
dig,191,721442,0.0-48.0-0.0,"""event"",""trial"",""time""
""fullscreenenter"",""1"",""7249""
","
","
","""event"",""trial"",""time""
""fullscreenenter"",""1"",""7249""
","
",,,,,,,,,,,,"[{""stimulus"":""run_exp/static/images/task_images/dig.jpg"",""time"":1.199999988079071},{""stimulus"":""run_exp/static/images/task_images/land.jpg"",""time"":541.3000000119209},{""stimulus"":""run_exp/static/images/task_images/dig.jpg"",""time"":1086.199999988079}]",[],18,,,,,,,,,,,,,,
harvest,192,722452,0.0-48.0-1.0,"""event"",""trial"",""time""
""fullscreenenter"",""1"",""7249""
","
","
","""event"",""trial"",""time""
""fullscreenenter"",""1"",""7249""
","
",,null,run_exp/static/images/task_images/gems/19.jpg,null,,,,,,,4,,,18,,,,,19,0.221870437,0.210526316,,,,,,,
decision,193,722809,0.0-48.0-2.0,"""event"",""trial"",""time""
""fullscreenenter"",""1"",""7249""
","
","
","""event"",""trial"",""time""
""fullscreenenter"",""1"",""7249""
","
",,354.9,run_exp/static/images/task_images/land.jpg,76,,,,,,,4,,,18,,,,,,,,31502,2,1,TRUE,,,
travel,194,732468,0.0-49.0-0.0,"""event"",""trial"",""time""
""fullscreenenter"",""1"",""7249""
","
","
","""event"",""trial"",""time""
""fullscreenenter"",""1"",""7249""
","
",,,,,,,,,,,,"[{""stimulus"":""run_exp/static/images/task_images/rocket-01.jpg"",""time"":1.199999988079071},{""stimulus"":""run_exp/static/images/task_images/rocket-02.jpg"",""time"":1079.800000011921},{""stimulus"":""run_exp/static/images/task_images/rocket-03.jpg"",""time"":2155.699999988079},{""stimulus"":""run_exp/static/images/task_images/rocket-04.jpg"",""time"":3227.699999988079},{""stimulus"":""run_exp/static/images/task_images/rocket-05.jpg"",""time"":4305},{""stimulus"":""run_exp/static/images/task_images/rocket-06.jpg"",""time"":5370.899999976158},{""stimulus"":""run_exp/static/images/task_images/rocket-07.jpg"",""time"":6430.899999976158},{""stimulus"":""run_exp/static/images/task_images/rocket-08.jpg"",""time"":7503.300000011921},{""stimulus"":""run_exp/static/images/task_images/rocket-09.jpg"",""time"":8571.300000011921}]",[],18,,,,,,,,,,,,,,
alien_welcome,195,737473,0.0-49.0-1.0,"""event"",""trial"",""time""
""fullscreenenter"",""1"",""7249""
","
","
","""event"",""trial"",""time""
""fullscreenenter"",""1"",""7249""
","
",,null,run_exp/static/images/task_images/aliens/old_aliens/planet/alien_planet-19.jpg,null,,,,,,,,,,,,,19,"61,69,35,28,54,57,75,55,17,43,72,30,64,42,76,3,5,65,19,1,26,27,34,66,47,8,77,78,24,53,37,45,68,49,23,38,18,80,4,32,60,51,73,33,70,79,59,10,50,67,22,63,6,25,15,36,20,58,52,46,56,14,74,41,40",,,,,,,,,,
land,196,737989,0.0-49.0-2.0,"""event"",""trial"",""time""
""fullscreenenter"",""1"",""7249""
","
","
","""event"",""trial"",""time""
""fullscreenenter"",""1"",""7249""
","
",,null,run_exp/static/images/task_images/land.jpg,null,,,,,,,94,,,19,,,,,,,,,,,,,,
dig,197,740002,0.0-49.0-3.0,"""event"",""trial"",""time""
""fullscreenenter"",""1"",""7249""
","
","
","""event"",""trial"",""time""
""fullscreenenter"",""1"",""7249""
","
",,,,,,,,,,,,"[{""stimulus"":""run_exp/static/images/task_images/dig.jpg"",""time"":0.699999988079071},{""stimulus"":""run_exp/static/images/task_images/land.jpg"",""time"":674.1999999880791},{""stimulus"":""run_exp/static/images/task_images/dig.jpg"",""time"":1349.0999999642372}]",[],19,,,,,,,,,,,,,,
harvest,198,741011,0.0-49.0-4.0,"""event"",""trial"",""time""
""fullscreenenter"",""1"",""7249""
","
","
","""event"",""trial"",""time""
""fullscreenenter"",""1"",""7249""
","
",,null,run_exp/static/images/task_images/gems/94.jpg,null,,,,,,,15,,,19,,,,,94,0.164480798,0.159574468,,,,,,,
decision,199,741223,0.0-49.0-5.0,"""event"",""trial"",""time""
""fullscreenenter"",""1"",""7249""
","
","
","""event"",""trial"",""time""
""fullscreenenter"",""1"",""7249""
","
",,210.1,run_exp/static/images/task_images/land.jpg,76,,,,,,,15,,,19,,,,,,,,49916,2,0,TRUE,,,
travel,200,751021,0.0-50.0-0.0,"""event"",""trial"",""time""
""fullscreenenter"",""1"",""7249""
","
","
","""event"",""trial"",""time""
""fullscreenenter"",""1"",""7249""
","
",,,,,,,,,,,,"[{""stimulus"":""run_exp/static/images/task_images/rocket-01.jpg"",""time"":0.19999998807907104},{""stimulus"":""run_exp/static/images/task_images/rocket-02.jpg"",""time"":1088},{""stimulus"":""run_exp/static/images/task_images/rocket-03.jpg"",""time"":2178.900000035763},{""stimulus"":""run_exp/static/images/task_images/rocket-04.jpg"",""time"":3262.199999988079},{""stimulus"":""run_exp/static/images/task_images/rocket-05.jpg"",""time"":4363.300000011921},{""stimulus"":""run_exp/static/images/task_images/rocket-06.jpg"",""time"":5452.900000035763},{""stimulus"":""run_exp/static/images/task_images/rocket-07.jpg"",""time"":6533.699999988079},{""stimulus"":""run_exp/static/images/task_images/rocket-08.jpg"",""time"":7613.199999988079},{""stimulus"":""run_exp/static/images/task_images/rocket-09.jpg"",""time"":8701.400000035763}]",[],19,,,,,,,,,,,,,,
alien_welcome,201,756037,0.0-50.0-1.0,"""event"",""trial"",""time""
""fullscreenenter"",""1"",""7249""
","
","
","""event"",""trial"",""time""
""fullscreenenter"",""1"",""7249""
","
",,null,run_exp/static/images/task_images/aliens/old_aliens/planet/alien_planet-1.jpg,null,,,,,,,,,,,,,1,"61,69,35,28,54,57,75,55,17,43,72,30,64,42,76,3,5,65,19,1,26,27,34,66,47,8,77,78,24,53,37,45,68,49,23,38,18,80,4,32,60,51,73,33,70,79,59,10,50,67,22,63,6,25,15,36,20,58,52,46,56,14,74,41,40",,,,,,,,,,
land,202,756541,0.0-50.0-2.0,"""event"",""trial"",""time""
""fullscreenenter"",""1"",""7249""
","
","
","""event"",""trial"",""time""
""fullscreenenter"",""1"",""7249""
","
",,null,run_exp/static/images/task_images/land.jpg,null,,,,,,,97,,,20,,,,,,,,,,,,,,
dig,203,758561,0.0-50.0-3.0,"""event"",""trial"",""time""
""fullscreenenter"",""1"",""7249""
","
","
","""event"",""trial"",""time""
""fullscreenenter"",""1"",""7249""
","
",,,,,,,,,,,,"[{""stimulus"":""run_exp/static/images/task_images/dig.jpg"",""time"":0.699999988079071},{""stimulus"":""run_exp/static/images/task_images/land.jpg"",""time"":677},{""stimulus"":""run_exp/static/images/task_images/dig.jpg"",""time"":1339.5999999642372}]",[],20,,,,,,,,,,,,,,
harvest,204,759569,0.0-50.0-4.0,"""event"",""trial"",""time""
""fullscreenenter"",""1"",""7249""
","
","
","""event"",""trial"",""time""
""fullscreenenter"",""1"",""7249""
","
",,null,run_exp/static/images/task_images/gems/97.jpg,null,,,,,,,79,,,20,,,,,97,0.812826325,0.81443299,,,,,,,
decision,205,759870,0.0-50.0-5.0,"""event"",""trial"",""time""
""fullscreenenter"",""1"",""7249""
","
","
","""event"",""trial"",""time""
""fullscreenenter"",""1"",""7249""
","
",,297.8,run_exp/static/images/task_images/land.jpg,76,,,,,,,79,,,20,,,,,,,,68563,2,0,TRUE,,,
travel,206,769590,0.0-51.0-0.0,"""event"",""trial"",""time""
""fullscreenenter"",""1"",""7249""
","
","
","""event"",""trial"",""time""
""fullscreenenter"",""1"",""7249""
","
",,,,,,,,,,,,"[{""stimulus"":""run_exp/static/images/task_images/rocket-01.jpg"",""time"":0.40000003576278687},{""stimulus"":""run_exp/static/images/task_images/rocket-02.jpg"",""time"":1085.1000000238419},{""stimulus"":""run_exp/static/images/task_images/rocket-03.jpg"",""time"":2161.199999988079},{""stimulus"":""run_exp/static/images/task_images/rocket-04.jpg"",""time"":3245.600000023842},{""stimulus"":""run_exp/static/images/task_images/rocket-05.jpg"",""time"":4325},{""stimulus"":""run_exp/static/images/task_images/rocket-06.jpg"",""time"":5404.900000035763},{""stimulus"":""run_exp/static/images/task_images/rocket-07.jpg"",""time"":6474.900000035763},{""stimulus"":""run_exp/static/images/task_images/rocket-08.jpg"",""time"":7555.199999988079},{""stimulus"":""run_exp/static/images/task_images/rocket-09.jpg"",""time"":8633.400000035763}]",[],20,,,,,,,,,,,,,,
alien_welcome,207,774611,0.0-51.0-1.0,"""event"",""trial"",""time""
""fullscreenenter"",""1"",""7249""
","
","
","""event"",""trial"",""time""
""fullscreenenter"",""1"",""7249""
","
",,null,run_exp/static/images/task_images/aliens/old_aliens/planet/alien_planet-26.jpg,null,,,,,,,,,,,,,26,"61,69,35,28,54,57,75,55,17,43,72,30,64,42,76,3,5,65,19,1,26,27,34,66,47,8,77,78,24,53,37,45,68,49,23,38,18,80,4,32,60,51,73,33,70,79,59,10,50,67,22,63,6,25,15,36,20,58,52,46,56,14,74,41,40",,,,,,,,,,
land,208,775117,0.0-51.0-2.0,"""event"",""trial"",""time""
""fullscreenenter"",""1"",""7249""
","
","
","""event"",""trial"",""time""
""fullscreenenter"",""1"",""7249""
","
",,null,run_exp/static/images/task_images/land.jpg,null,,,,,,,102,,,21,,,,,,,,,,,,,,
dig,209,777131,0.0-51.0-3.0,"""event"",""trial"",""time""
""fullscreenenter"",""1"",""7249""
","
","
","""event"",""trial"",""time""
""fullscreenenter"",""1"",""7249""
","
",,,,,,,,,,,,"[{""stimulus"":""run_exp/static/images/task_images/dig.jpg"",""time"":0.9000000357627869},{""stimulus"":""run_exp/static/images/task_images/land.jpg"",""time"":671.7000000476837},{""stimulus"":""run_exp/static/images/task_images/dig.jpg"",""time"":1342.300000011921}]",[],21,,,,,,,,,,,,,,
harvest,210,778151,0.0-51.0-4.0,"""event"",""trial"",""time""
""fullscreenenter"",""1"",""7249""
","
","
","""event"",""trial"",""time""
""fullscreenenter"",""1"",""7249""
","
",,null,run_exp/static/images/task_images/gems/102.jpg,null,,,,,,,87,,,21,,,,,102,0.851079952,0.852941176,,,,,,,
decision,211,778855,0.0-51.0-5.0,"""event"",""trial"",""time""
""fullscreenenter"",""1"",""7249""
","
","
","""event"",""trial"",""time""
""fullscreenenter"",""1"",""7249""
","
",,702.7,run_exp/static/images/task_images/land.jpg,76,,,,,,,87,,,21,,,,,,,,87548,2,0,TRUE,,,
travel,212,788167,0.0-52.0-0.0,"""event"",""trial"",""time""
""fullscreenenter"",""1"",""7249""
","
","
","""event"",""trial"",""time""
""fullscreenenter"",""1"",""7249""
","
",,,,,,,,,,,,"[{""stimulus"":""run_exp/static/images/task_images/rocket-01.jpg"",""time"":0.2999999523162842},{""stimulus"":""run_exp/static/images/task_images/rocket-02.jpg"",""time"":1039.5999999642372},{""stimulus"":""run_exp/static/images/task_images/rocket-03.jpg"",""time"":2077.099999964237},{""stimulus"":""run_exp/static/images/task_images/rocket-04.jpg"",""time"":3103.2999999523163},{""stimulus"":""run_exp/static/images/task_images/rocket-05.jpg"",""time"":4141.899999976158},{""stimulus"":""run_exp/static/images/task_images/rocket-06.jpg"",""time"":5167},{""stimulus"":""run_exp/static/images/task_images/rocket-07.jpg"",""time"":6201.799999952316},{""stimulus"":""run_exp/static/images/task_images/rocket-08.jpg"",""time"":7235.299999952316},{""stimulus"":""run_exp/static/images/task_images/rocket-09.jpg"",""time"":8267.199999988079}]",[],21,,,,,,,,,,,,,,
alien_welcome,213,793171,0.0-52.0-1.0,"""event"",""trial"",""time""
""fullscreenenter"",""1"",""7249""
","
","
","""event"",""trial"",""time""
""fullscreenenter"",""1"",""7249""
","
",,null,run_exp/static/images/task_images/aliens/old_aliens/planet/alien_planet-27.jpg,null,,,,,,,,,,,,,27,"61,69,35,28,54,57,75,55,17,43,72,30,64,42,76,3,5,65,19,1,26,27,34,66,47,8,77,78,24,53,37,45,68,49,23,38,18,80,4,32,60,51,73,33,70,79,59,10,50,67,22,63,6,25,15,36,20,58,52,46,56,14,74,41,40",,,,,,,,,,
land,214,793681,0.0-52.0-2.0,"""event"",""trial"",""time""
""fullscreenenter"",""1"",""7249""
","
","
","""event"",""trial"",""time""
""fullscreenenter"",""1"",""7249""
","
",,null,run_exp/static/images/task_images/land.jpg,null,,,,,,,104,,,22,,,,,,,,,,,,,,
dig,215,795691,0.0-52.0-3.0,"""event"",""trial"",""time""
""fullscreenenter"",""1"",""7249""
","
","
","""event"",""trial"",""time""
""fullscreenenter"",""1"",""7249""
","
",,,,,,,,,,,,"[{""stimulus"":""run_exp/static/images/task_images/dig.jpg"",""time"":0.6000000238418579},{""stimulus"":""run_exp/static/images/task_images/land.jpg"",""time"":677.8999999761581},{""stimulus"":""run_exp/static/images/task_images/dig.jpg"",""time"":1348.6000000238419}]",[],22,,,,,,,,,,,,,,
harvest,216,796706,0.0-52.0-4.0,"""event"",""trial"",""time""
""fullscreenenter"",""1"",""7249""
","
","
","""event"",""trial"",""time""
""fullscreenenter"",""1"",""7249""
","
",,null,run_exp/static/images/task_images/gems/104.jpg,null,,,,,,,85,,,22,,,,,104,0.813902642,0.817307692,,,,,,,
decision,217,796931,0.0-52.0-5.0,"""event"",""trial"",""time""
""fullscreenenter"",""1"",""7249""
","
","
","""event"",""trial"",""time""
""fullscreenenter"",""1"",""7249""
","
",,221.6,run_exp/static/images/task_images/land.jpg,76,,,,,,,85,,,22,,,,,,,,105624,2,0,TRUE,,,
travel,218,806719,0.0-53.0-0.0,"""event"",""trial"",""time""
""fullscreenenter"",""1"",""7249""
","
","
","""event"",""trial"",""time""
""fullscreenenter"",""1"",""7249""
","
