trial_type,trial_index,time_elapsed,internal_node_id,interactions,blur_events,focus_events,fullscreenenter_events,fullscreenexit_events,success,rt,stimulus,key_press,prompt,subject_id,participant_id,age,gender,button_pressed,next_reward,animation_sequence,responses,planet,curr_prac_trial,n_prac_rounds,alien,aliens,reward_received,decay_rate_actual,decay_rate_exp,time_in_block,block_num,prt,last_trial_on_planet,button_html,bonus,num_failures
pavlovia,0,6,0.0-0.0,"""event"",""trial"",""time""
""fullscreenenter"",""1"",""7599""
","
","
","""event"",""trial"",""time""
""fullscreenenter"",""1"",""7599""
","
",,,,,,,,,,,,,,,,,,,,,,,,,,,,
fullscreen,1,8588,0.0-1.0,"""event"",""trial"",""time""
""fullscreenenter"",""1"",""7599""
","
","
","""event"",""trial"",""time""
""fullscreenenter"",""1"",""7599""
","
",TRUE,,,,,,,,,,,,,,,,,,,,,,,,,,,
instruc_welcome,2,18606,0.0-2.0,"""event"",""trial"",""time""
""fullscreenenter"",""1"",""7599""
","
","
","""event"",""trial"",""time""
""fullscreenenter"",""1"",""7599""
","
",,null,run_exp/static/audio/clip_1_welcome.m4a,null,"<p>Howdy! In this experiment, you’ll be an explorer traveling through space to collect space treasure.</p><p>Your mission is to collect as much treasure as possible.</p><br><br><p><img src='run_exp/static/images/task_images/opening_img-01.jpg' height='300' width='auto'></p>",12693,4004,19.98,Male,,,,,,,,,,,,,,,,,,,
audio-keyboard-response,3,35204,0.0-3.0,"""event"",""trial"",""time""
""fullscreenenter"",""1"",""7599""
","
","
","""event"",""trial"",""time""
""fullscreenenter"",""1"",""7599""
","
",,null,run_exp/static/audio/clip_2_move.m4a,null,,,,,,,,,,,,,,,,,,,,,,,,
welcome_dec,4,39400,0.0-4.0,"""event"",""trial"",""time""
""fullscreenenter"",""1"",""7599""
","
","
","""event"",""trial"",""time""
""fullscreenenter"",""1"",""7599""
","
",,4194.6,"<p>Howdy! In this experiment, you’ll be an explorer traveling through space to collect space treasure.</p><p>Your mission is to collect as much treasure as possible.</p><br><br><p><img src='run_exp/static/images/task_images/opening_img-01.jpg' height='300' width='auto'></p>",,,,,,,1,,,,,,,,,,,,,,,,,,
html-keyboard-response,5,40976,0.0-5.0,"""event"",""trial"",""time""
""fullscreenenter"",""1"",""7599""
","
","
","""event"",""trial"",""time""
""fullscreenenter"",""1"",""7599""
","
",,1573.2,"<p>Howdy! In this experiment, you’ll be an explorer traveling through space to collect space treasure.</p><p>Your mission is to collect as much treasure as possible.</p><br><br><p><img src='run_exp/static/images/task_images/opening_img-01.jpg' height='300' width='auto'></p><button class=""jspsych-html-btn-unchosen""><img src=""run_exp/static/images/task_images/planet-01.jpg"" height=""50""></button><button class=""jspsych-html-btn-chosen""><img src=""run_exp/static/images/task_images/planet-02.jpg"" height=""50""></button><p><b>[press the space bar to lock in your answer]<b><br></p>",32,,,,,,,,,,,,,,,,,,,,,,,,
instruc_goal,6,51055,0.0-6.0-0.0,"""event"",""trial"",""time""
""fullscreenenter"",""1"",""7599""
","
","
","""event"",""trial"",""time""
""fullscreenenter"",""1"",""7599""
","
",,null,run_exp/static/audio/clip_3_goal.m4a,null,"<p> As a space explorer, you’ll visit different planets to dig for space treasure, these pink gems.</p> <p> The more treasure you dig up, the more bonus money you’ll win! </p><br><br><p><img src='run_exp/static/images/task_images/pink_gem.jpg' height='300' width='auto'></p>",,,,,,,,,,,,,,,,,,,,,,,
instruc_goal,7,53472,0.0-6.0-1.0,"""event"",""trial"",""time""
""fullscreenenter"",""1"",""7599""
","
","
","""event"",""trial"",""time""
""fullscreenenter"",""1"",""7599""
","
",,2414.3,"<p> As a space explorer, you’ll visit different planets to dig for space treasure, these pink gems.</p> <p> The more treasure you dig up, the more bonus money you’ll win! </p><br><br><p><img src='run_exp/static/images/task_images/pink_gem.jpg' height='300' width='auto'></p>",,,,,,,1,,,,,,,,,,,,,,,,,,
html-keyboard-response,8,53805,0.0-6.0-2.0,"""event"",""trial"",""time""
""fullscreenenter"",""1"",""7599""
","
","
","""event"",""trial"",""time""
""fullscreenenter"",""1"",""7599""
","
",,331.9,"<p> As a space explorer, you’ll visit different planets to dig for space treasure, these pink gems.</p> <p> The more treasure you dig up, the more bonus money you’ll win! </p><br><br><p><img src='run_exp/static/images/task_images/pink_gem.jpg' height='300' width='auto'></p><button class=""jspsych-html-btn-unchosen""><img src=""run_exp/static/images/task_images/planet-01.jpg"" height=""50""></button><button class=""jspsych-html-btn-chosen""><img src=""run_exp/static/images/task_images/planet-02.jpg"" height=""50""></button><p><b>[press the space bar to lock in your answer]<b><br></p>",32,,,,,,,,,,,,,,,,,,,,,,,,
instruc_dig,9,69830,0.0-7.0-0.0,"""event"",""trial"",""time""
""fullscreenenter"",""1"",""7599""
","
","
","""event"",""trial"",""time""
""fullscreenenter"",""1"",""7599""
","
",,null,run_exp/static/audio/clip_4_dig.m4a,null,,,,,,,100,,,,,,,,,,,,,,,,,
instruc_dig_try,10,69868,0.0-7.0-1.0,"""event"",""trial"",""time""
""fullscreenenter"",""1"",""7599""
","
","
","""event"",""trial"",""time""
""fullscreenenter"",""1"",""7599""
","
",,36.69999999,"<p> When you’ve arrived at a new planet, you will dig once. </p> <p>Then, you get to decide if you want to stay on the planet and dig again or travel to a new planet and dig there.</p> <p> To stay and dig, press the letter <strong>‘A’</strong> on your keyboard. Try pressing it now! </p><p><img src='run_exp/static/images/task_images/land.jpg'  height='700' width='auto'></p>",65,"<p> When you’ve arrived at a new planet, you will dig once. </p> <p>Then, you get to decide if you want to stay on the planet and dig again or travel to a new planet and dig there.</p> <p> To stay and dig, press the letter <strong>‘A’</strong> on your keyboard. Try pressing it now! </p><p><img src='run_exp/static/images/task_images/land.jpg'  height='700' width='auto'></p>",,,,,,100,,,,,,,,,,,,,,,,,
dig_prac,11,71882,0.0-7.0-2.0,"""event"",""trial"",""time""
""fullscreenenter"",""1"",""7599""
","
","
","""event"",""trial"",""time""
""fullscreenenter"",""1"",""7599""
","
",,,,,,,,,,,,"[{""stimulus"":""run_exp/static/images/task_images/dig.jpg"",""time"":0.30000001192092896},{""stimulus"":""run_exp/static/images/task_images/land.jpg"",""time"":683.1999999880791},{""stimulus"":""run_exp/static/images/task_images/dig.jpg"",""time"":1351}]",[],,,,,,,,,,,,,,,
instruc_travel,12,108124,0.0-7.0-3.0,"""event"",""trial"",""time""
""fullscreenenter"",""1"",""7599""
","
","
","""event"",""trial"",""time""
""fullscreenenter"",""1"",""7599""
","
",,null,run_exp/static/audio/clip_5_travel.m4a,null,"<p>Every time you dig up gems, there are less gems on the planet, so the more you dig on a planet the fewer gems you’ll get with each dig.</p><p>When gems are running low, you may want to travel to a new planet. </p> <p>  Planets are very far apart in this galaxy, so it will take some time to travel between them. </p> <br><p>There are lots and lots of planets for you to visit, so you won’t be able to return to any planets you’ve seen before. </p><br><p>To leave this planet and travel to a new one, press the letter <strong>‘L’</strong> on your keyboard. Try pressing it now! </p><p><img src='run_exp/static/images/task_images/rocket-01.jpg'  height='600' width='auto'></p>",,,,,,,,,,,,,,,,,,,,,,,
instruc_travel_try,13,108667,0.0-7.0-4.0,"""event"",""trial"",""time""
""fullscreenenter"",""1"",""7599""
","
","
","""event"",""trial"",""time""
""fullscreenenter"",""1"",""7599""
","
",,541.3,"<p>Every time you dig up gems, there are less gems on the planet, so the more you dig on a planet the fewer gems you’ll get with each dig.</p><p>When gems are running low, you may want to travel to a new planet. </p> <p>  Planets are very far apart in this galaxy, so it will take some time to travel between them. </p> <br><p>There are lots and lots of planets for you to visit, so you won’t be able to return to any planets you’ve seen before. </p><br><p>To leave this planet and travel to a new one, press the letter <strong>‘L’</strong> on your keyboard. Try pressing it now! </p><p><img src='run_exp/static/images/task_images/rocket-01.jpg'  height='600' width='auto'></p>",76,"<p>Every time you dig up gems, there are less gems on the planet, so the more you dig on a planet the fewer gems you’ll get with each dig.</p><p>When gems are running low, you may want to travel to a new planet. </p> <p>  Planets are very far apart in this galaxy, so it will take some time to travel between them. </p> <br><p>There are lots and lots of planets for you to visit, so you won’t be able to return to any planets you’ve seen before. </p><br><p>To leave this planet and travel to a new one, press the letter <strong>‘L’</strong> on your keyboard. Try pressing it now! </p><p><img src='run_exp/static/images/task_images/rocket-01.jpg'  height='600' width='auto'></p>",,,,,,,,,,,,,,,,,,,,,,,
travel_prac,14,118683,0.0-7.0-5.0,"""event"",""trial"",""time""
""fullscreenenter"",""1"",""7599""
","
","
","""event"",""trial"",""time""
""fullscreenenter"",""1"",""7599""
","
",,,,,,,,,,,,"[{""stimulus"":""run_exp/static/images/task_images/rocket-01.jpg"",""time"":0.20000004768371582},{""stimulus"":""run_exp/static/images/task_images/rocket-02.jpg"",""time"":1118.1000000238419},{""stimulus"":""run_exp/static/images/task_images/rocket-03.jpg"",""time"":2226.100000023842},{""stimulus"":""run_exp/static/images/task_images/rocket-04.jpg"",""time"":3341.2000000476837},{""stimulus"":""run_exp/static/images/task_images/rocket-05.jpg"",""time"":4452.700000047684},{""stimulus"":""run_exp/static/images/task_images/rocket-06.jpg"",""time"":5566.300000011921},{""stimulus"":""run_exp/static/images/task_images/rocket-07.jpg"",""time"":6673.200000047684},{""stimulus"":""run_exp/static/images/task_images/rocket-08.jpg"",""time"":7789.300000011921},{""stimulus"":""run_exp/static/images/task_images/rocket-09.jpg"",""time"":8898.700000047684}]",[],0,,,,,,,,,,,,,,
instruc_alien_greet,15,145885,0.0-7.0-6.0,"""event"",""trial"",""time""
""fullscreenenter"",""1"",""7599""
","
","
","""event"",""trial"",""time""
""fullscreenenter"",""1"",""7599""
","
",,null,run_exp/static/audio/clip_6_alien.m4a,null,"<p>When you arrive at a new planet, the alien who owns the treasure mine on that planet will greet you!</p><p>The better an alien takes care of their mine the easier it is to dig for gems. Some aliens take better care of their mine than others. So, you won’t get exactly the same amount of gems on each planet.</p><p>What the alien looks like does not tell you anything about how many gems there are on the planet.</p><br><p><img src=""run_exp/static/images/task_images/aliens/instructions_aliens/planet/alien_planet-1.jpg""  height=""600"" width=""auto""></p>",,,,,,,,,,,,,,,,,,,,,,,
instruc_alien_greet,16,148618,0.0-7.0-7.0,"""event"",""trial"",""time""
""fullscreenenter"",""1"",""7599""
","
","
","""event"",""trial"",""time""
""fullscreenenter"",""1"",""7599""
","
",,2730.8,"<p>When you arrive at a new planet, the alien who owns the treasure mine on that planet will greet you!</p><p>The better an alien takes care of their mine the easier it is to dig for gems. Some aliens take better care of their mine than others. So, you won’t get exactly the same amount of gems on each planet.</p><p>What the alien looks like does not tell you anything about how many gems there are on the planet.</p><br><p><img src=""run_exp/static/images/task_images/aliens/instructions_aliens/planet/alien_planet-1.jpg""  height=""600"" width=""auto""></p>",,,,,,,1,,,,,,,,,,,,,,,,,,
html-keyboard-response,17,149793,0.0-7.0-8.0,"""event"",""trial"",""time""
""fullscreenenter"",""1"",""7599""
","
","
","""event"",""trial"",""time""
""fullscreenenter"",""1"",""7599""
","
",,1174.2,"<p>When you arrive at a new planet, the alien who owns the treasure mine on that planet will greet you!</p><p>The better an alien takes care of their mine the easier it is to dig for gems. Some aliens take better care of their mine than others. So, you won’t get exactly the same amount of gems on each planet.</p><p>What the alien looks like does not tell you anything about how many gems there are on the planet.</p><br><p><img src=""run_exp/static/images/task_images/aliens/instructions_aliens/planet/alien_planet-1.jpg""  height=""600"" width=""auto""></p><button class=""jspsych-html-btn-unchosen""><img src=""run_exp/static/images/task_images/planet-01.jpg"" height=""50""></button><button class=""jspsych-html-btn-chosen""><img src=""run_exp/static/images/task_images/planet-02.jpg"" height=""50""></button><p><b>[press the space bar to lock in your answer]<b><br></p>",32,,,,,,,,,,,,,,,,,,,,,,,,
time_out,18,160884,0.0-8.0-0.0,"""event"",""trial"",""time""
""fullscreenenter"",""1"",""7599""
","
","
","""event"",""trial"",""time""
""fullscreenenter"",""1"",""7599""
","
",,null,run_exp/static/audio/clip_7_timeout.m4a,null,"<p>If you don't make your choice fast enough, you’ll have to wait a few seconds before you can make another one.</p><p>You can’t dig for more gems or travel to new planets. You just have to sit and wait.</p><br><p><img src='run_exp/static/images/task_images/time_out.jpg'  height='600' width='auto'></p>",,,,,,,,,,,,,,,,,,,,,,,
time_out,19,162391,0.0-8.0-1.0,"""event"",""trial"",""time""
""fullscreenenter"",""1"",""7599""
","
","
","""event"",""trial"",""time""
""fullscreenenter"",""1"",""7599""
","
",,1505.2,"<p>If you don't make your choice fast enough, you’ll have to wait a few seconds before you can make another one.</p><p>You can’t dig for more gems or travel to new planets. You just have to sit and wait.</p><br><p><img src='run_exp/static/images/task_images/time_out.jpg'  height='600' width='auto'></p>",,,,,,,1,,,,,,,,,,,,,,,,,,
html-keyboard-response,20,162664,0.0-8.0-2.0,"""event"",""trial"",""time""
""fullscreenenter"",""1"",""7599""
","
","
","""event"",""trial"",""time""
""fullscreenenter"",""1"",""7599""
","
",,272.3,"<p>If you don't make your choice fast enough, you’ll have to wait a few seconds before you can make another one.</p><p>You can’t dig for more gems or travel to new planets. You just have to sit and wait.</p><br><p><img src='run_exp/static/images/task_images/time_out.jpg'  height='600' width='auto'></p><button class=""jspsych-html-btn-unchosen""><img src=""run_exp/static/images/task_images/planet-01.jpg"" height=""50""></button><button class=""jspsych-html-btn-chosen""><img src=""run_exp/static/images/task_images/planet-02.jpg"" height=""50""></button><p><b>[press the space bar to lock in your answer]<b><br></p>",32,,,,,,,,,,,,,,,,,,,,,,,,
instruc_break,21,178356,0.0-9.0-0.0,"""event"",""trial"",""time""
""fullscreenenter"",""1"",""7599""
","
","
","""event"",""trial"",""time""
""fullscreenenter"",""1"",""7599""
","
",,null,run_exp/static/audio/clip_8_break.m4a,null,"<p> After digging and traveling for a while, you’ll be able to take a break at home base. </p><p>The game will last 20 minutes no matter what.</p><p>You will visit home base every 5 minutes, so, you will visit home base three times during the game.</p><br><p><img src='run_exp/static/images/task_images/home_base.jpg' height='600' width='auto'></p>",,,,,,,,,,,,,,,,,,,,,,,
instruc_break,22,180218,0.0-9.0-1.0,"""event"",""trial"",""time""
""fullscreenenter"",""1"",""7599""
","
","
","""event"",""trial"",""time""
""fullscreenenter"",""1"",""7599""
","
",,1859.6,"<p> After digging and traveling for a while, you’ll be able to take a break at home base. </p><p>The game will last 20 minutes no matter what.</p><p>You will visit home base every 5 minutes, so, you will visit home base three times during the game.</p><br><p><img src='run_exp/static/images/task_images/home_base.jpg' height='600' width='auto'></p>",,,,,,,1,,,,,,,,,,,,,,,,,,
html-keyboard-response,23,180585,0.0-9.0-2.0,"""event"",""trial"",""time""
""fullscreenenter"",""1"",""7599""
","
","
","""event"",""trial"",""time""
""fullscreenenter"",""1"",""7599""
","
",,366.5,"<p> After digging and traveling for a while, you’ll be able to take a break at home base. </p><p>The game will last 20 minutes no matter what.</p><p>You will visit home base every 5 minutes, so, you will visit home base three times during the game.</p><br><p><img src='run_exp/static/images/task_images/home_base.jpg' height='600' width='auto'></p><button class=""jspsych-html-btn-unchosen""><img src=""run_exp/static/images/task_images/planet-01.jpg"" height=""50""></button><button class=""jspsych-html-btn-chosen""><img src=""run_exp/static/images/task_images/planet-02.jpg"" height=""50""></button><p><b>[press the space bar to lock in your answer]<b><br></p>",32,,,,,,,,,,,,,,,,,,,,,,,,
instruc_prac_game,24,190729,0.0-10.0-0.0,"""event"",""trial"",""time""
""fullscreenenter"",""1"",""7599""
","
","
","""event"",""trial"",""time""
""fullscreenenter"",""1"",""7599""
","
",,null,run_exp/static/audio/clip_9_practice.m4a,null,"<p> Are you ready to play a practice game? </p> <p>In this practice game, you'll be digging up barrels of gems. But, in the real game, you'll be digging up the gems themselves. </p>",,,,,,,,,,,,,,,,,,,,,,,
html-button-response,25,199213,0.0-10.0-1.0,"""event"",""trial"",""time""
""fullscreenenter"",""1"",""7599""
","
","
","""event"",""trial"",""time""
""fullscreenenter"",""1"",""7599""
","
",,8482.5,"<p> Are you ready to play a practice game? </p> <p>In this practice game, you'll be digging up barrels of gems. But, in the real game, you'll be digging up the gems themselves. </p>",,,,,,,0,,,,,,,,,,,,,,,,,,
alien_welcome_prac,26,204229,0.0-11.0-0.0,"""event"",""trial"",""time""
""fullscreenenter"",""1"",""7599""
","
","
","""event"",""trial"",""time""
""fullscreenenter"",""1"",""7599""
","
",,null,run_exp/static/images/task_images/aliens/practice_aliens/planet/alien_planet-5.jpg,null,,,,,,,,,,,,,,,,,,,,,,,,
land_prac,27,204738,0.0-11.0-1.0,"""event"",""trial"",""time""
""fullscreenenter"",""1"",""7599""
","
","
","""event"",""trial"",""time""
""fullscreenenter"",""1"",""7599""
","
",,null,run_exp/static/images/task_images/land.jpg,null,,,,,,,100,,,0,,,,,,,,,,,,,,
dig_prac,28,206755,0.0-11.0-2.0,"""event"",""trial"",""time""
""fullscreenenter"",""1"",""7599""
","
","
","""event"",""trial"",""time""
""fullscreenenter"",""1"",""7599""
","
",,,,,,,,,,,,"[{""stimulus"":""run_exp/static/images/task_images/dig.jpg"",""time"":0.30000001192092896},{""stimulus"":""run_exp/static/images/task_images/land.jpg"",""time"":673.5},{""stimulus"":""run_exp/static/images/task_images/dig.jpg"",""time"":1336.6000000238419}]",[],,,,,,,,,,,,,,,
harvest_prac,29,207765,0.0-11.0-3.0,"""event"",""trial"",""time""
""fullscreenenter"",""1"",""7599""
","
","
","""event"",""trial"",""time""
""fullscreenenter"",""1"",""7599""
","
",,null,run_exp/static/images/task_images/barrel_text.jpg,null,,,,,,,,,,,,,,,,,,,,,,,,
decision_prac,30,210778,0.0-11.0-4.0,"""event"",""trial"",""time""
""fullscreenenter"",""1"",""7599""
","
","
","""event"",""trial"",""time""
""fullscreenenter"",""1"",""7599""
","
",,null,run_exp/static/images/task_images/land.jpg,null,,,,,,,,,,,1,,,,,,,,,,,,,
time_out,31,212784,0.0-12.0-0.0,"""event"",""trial"",""time""
""fullscreenenter"",""1"",""7599""
","
","
","""event"",""trial"",""time""
""fullscreenenter"",""1"",""7599""
","
",,null,run_exp/static/images/task_images/time_out.jpg,null,,,,,,,,,,,,,,,,,,,,,,,,
decision_prac,32,213180,0.0-12.0-1.0,"""event"",""trial"",""time""
""fullscreenenter"",""1"",""7599""
","
","
","""event"",""trial"",""time""
""fullscreenenter"",""1"",""7599""
","
",,394.9,run_exp/static/images/task_images/land.jpg,65,,,,,,,,,,,2,,,,,,,,,,,,,
dig_prac,33,215199,0.0-13.0-0.0,"""event"",""trial"",""time""
""fullscreenenter"",""1"",""7599""
","
","
","""event"",""trial"",""time""
""fullscreenenter"",""1"",""7599""
","
",,,,,,,,,,,,"[{""stimulus"":""run_exp/static/images/task_images/dig.jpg"",""time"":0.10000002384185791},{""stimulus"":""run_exp/static/images/task_images/land.jpg"",""time"":672.6000000238419},{""stimulus"":""run_exp/static/images/task_images/dig.jpg"",""time"":1340.1000000238419}]",[],,,,,,,,,,,,,,,
harvest_prac,34,216208,0.0-13.0-1.0,"""event"",""trial"",""time""
""fullscreenenter"",""1"",""7599""
","
","
","""event"",""trial"",""time""
""fullscreenenter"",""1"",""7599""
","
",,null,run_exp/static/images/task_images/barrel_text.jpg,null,,,,,,,,,,,,,,,,,,,,,,,,
decision_prac,35,216763,0.0-13.0-2.0,"""event"",""trial"",""time""
""fullscreenenter"",""1"",""7599""
","
","
","""event"",""trial"",""time""
""fullscreenenter"",""1"",""7599""
","
",,553.7,run_exp/static/images/task_images/land.jpg,65,,,,,,,,,,,3,,,,,,,,,,,,,
dig_prac,36,218768,0.0-14.0-0.0,"""event"",""trial"",""time""
""fullscreenenter"",""1"",""7599""
","
","
","""event"",""trial"",""time""
""fullscreenenter"",""1"",""7599""
","
",,,,,,,,,,,,"[{""stimulus"":""run_exp/static/images/task_images/dig.jpg"",""time"":0.09999996423721313},{""stimulus"":""run_exp/static/images/task_images/land.jpg"",""time"":674.0999999642372},{""stimulus"":""run_exp/static/images/task_images/dig.jpg"",""time"":1346.199999988079}]",[],,,,,,,,,,,,,,,
harvest_prac,37,219776,0.0-14.0-1.0,"""event"",""trial"",""time""
""fullscreenenter"",""1"",""7599""
","
","
","""event"",""trial"",""time""
""fullscreenenter"",""1"",""7599""
","
",,null,run_exp/static/images/task_images/barrel_text.jpg,null,,,,,,,,,,,,,,,,,,,,,,,,
decision_prac,38,220231,0.0-14.0-2.0,"""event"",""trial"",""time""
""fullscreenenter"",""1"",""7599""
","
","
","""event"",""trial"",""time""
""fullscreenenter"",""1"",""7599""
","
",,454.2,run_exp/static/images/task_images/land.jpg,65,,,,,,,,,,,4,,,,,,,,,,,,,
dig_prac,39,222239,0.0-15.0-0.0,"""event"",""trial"",""time""
""fullscreenenter"",""1"",""7599""
","
","
","""event"",""trial"",""time""
""fullscreenenter"",""1"",""7599""
","
",,,,,,,,,,,,"[{""stimulus"":""run_exp/static/images/task_images/dig.jpg"",""time"":0.10000002384185791},{""stimulus"":""run_exp/static/images/task_images/land.jpg"",""time"":672.8000000119209},{""stimulus"":""run_exp/static/images/task_images/dig.jpg"",""time"":1345.5}]",[],,,,,,,,,,,,,,,
harvest_prac,40,223253,0.0-15.0-1.0,"""event"",""trial"",""time""
""fullscreenenter"",""1"",""7599""
","
","
","""event"",""trial"",""time""
""fullscreenenter"",""1"",""7599""
","
",,null,run_exp/static/images/task_images/barrel_text.jpg,null,,,,,,,,,,,,,,,,,,,,,,,,
decision_prac,41,223976,0.0-15.0-2.0,"""event"",""trial"",""time""
""fullscreenenter"",""1"",""7599""
","
","
","""event"",""trial"",""time""
""fullscreenenter"",""1"",""7599""
","
",,721.6,run_exp/static/images/task_images/land.jpg,65,,,,,,,,,,,,1,,,,,,,,,,,,
quiz_instruc,42,228659,0.0-16.0-0.0,"""event"",""trial"",""time""
""fullscreenenter"",""1"",""7599""
","
","
","""event"",""trial"",""time""
""fullscreenenter"",""1"",""7599""
","
",,4680.6,run_exp/static/audio/clip_10_quiz.m4a,,,,,,,0,,,,,,,,,,,,,,,,,,
instruc_repeat,43,271429,0.0-16.0-1.0,"""event"",""trial"",""time""
""fullscreenenter"",""1"",""7599""
","
","
","""event"",""trial"",""time""
""fullscreenenter"",""1"",""7599""
","
",,null,"<p> Are you ready to play a practice game? </p> <p>In this practice game, you'll be digging up barrels of gems. But, in the real game, you'll be digging up the gems themselves. </p>",null,"<p>In this game, your goal is to collect as many gems as you can. That’s how you will win bonus money. </p> <p>The entire game will last 20 minutes no matter how many gems you collect or how many planets you visit. </p><p>To stay on a planet and dig again, press the letter A on your keyboard. To leave for a new planet, press the letter L.</p><p>The more you dig on a planet, the fewer gems you’ll get with each dig which is why you might consider leaving for a new planet. </p><p>When you arrive at a new planet, you’ll be greeted by an alien. What the alien looks like does not tell you anything about how much treasure is on the planet. </p>",,,,,,,,,,,,,,,,,,,,,,,
instruc_repeat_continue,44,273484,0.0-16.0-2.0,"""event"",""trial"",""time""
""fullscreenenter"",""1"",""7599""
","
","
","""event"",""trial"",""time""
""fullscreenenter"",""1"",""7599""
","
",,2053.5,"<p> Are you ready to play a practice game? </p> <p>In this practice game, you'll be digging up barrels of gems. But, in the real game, you'll be digging up the gems themselves. </p>",,,,,,,0,,,,,,,,,,,,,,,,,,
quiz_q_1_ask,45,277306,0.0-16.0-3.0,"""event"",""trial"",""time""
""fullscreenenter"",""1"",""7599""
","
","
","""event"",""trial"",""time""
""fullscreenenter"",""1"",""7599""
","
",,3820.5,run_exp/static/audio/clip_11_q1_ask.m4a,,,,,,,2,,,,,,,,,,,,,,,,,,
quiz_q_1_fb_correct,46,281179,0.0-17.0-0.0,"""event"",""trial"",""time""
""fullscreenenter"",""1"",""7599""
","
","
","""event"",""trial"",""time""
""fullscreenenter"",""1"",""7599""
","
",,null,run_exp/static/audio/clip_12_q1_correct.m4a,null,<p>That’s correct. You win extra money by collecting more gems.</p>,,,,,,,,,,,,,,,,,,,,,,,
quiz_q_2_ask,47,285792,0.0-17.0-1.0,"""event"",""trial"",""time""
""fullscreenenter"",""1"",""7599""
","
","
","""event"",""trial"",""time""
""fullscreenenter"",""1"",""7599""
","
",,4611.8,run_exp/static/audio/clip_14_q2_ask.m4a,,,,,,,1,,,,,,,,,,,,,,,,,,
quiz_q_2_fb_correct,48,289797,0.0-18.0-0.0,"""event"",""trial"",""time""
""fullscreenenter"",""1"",""7599""
","
","
","""event"",""trial"",""time""
""fullscreenenter"",""1"",""7599""
","
",,null,run_exp/static/audio/clip_15_q2_correct.m4a,null,<p>That’s correct. The experiment is 20 minutes no matter what.</p>,,,,,,,,,,,,,,,,,,,,,,,
quiz_q_3_ask,49,299265,0.0-18.0-1.0,"""event"",""trial"",""time""
""fullscreenenter"",""1"",""7599""
","
","
","""event"",""trial"",""time""
""fullscreenenter"",""1"",""7599""
","
",,9466,run_exp/static/audio/clip_17_q3_ask.m4a,,,,,,,1,,,,,,,,,,,,,,,,,,
quiz_q_3_fb_correct,50,303260,0.0-19.0-0.0,"""event"",""trial"",""time""
""fullscreenenter"",""1"",""7599""
","
","
","""event"",""trial"",""time""
""fullscreenenter"",""1"",""7599""
","
",,null,run_exp/static/audio/clip_18_q3_correct.m4a,null,<p> That’s correct. You press the letter L to travel to a new planet.</p>,,,,,,,,,,,,,,,,,,,,,,,
quiz_q_4_ask,51,307668,0.0-19.0-1.0,"""event"",""trial"",""time""
""fullscreenenter"",""1"",""7599""
","
","
","""event"",""trial"",""time""
""fullscreenenter"",""1"",""7599""
","
",,4406.4,run_exp/static/audio/clip_20_q4_ask.m4a,,,,,,,0,,,,,,,,,,,,,,,,,,
quiz_q_4_fb_correct,52,313010,0.0-20.0-0.0,"""event"",""trial"",""time""
""fullscreenenter"",""1"",""7599""
","
","
","""event"",""trial"",""time""
""fullscreenenter"",""1"",""7599""
","
",,null,run_exp/static/audio/clip_21_q4_correct.m4a,null,<p> That’s correct. The more you dig on a planet the fewer gems you’ll get with each dig. </p>,,,,,,,,,,,,,,,,,,,,,,,
quiz_q_5_ask,53,315916,0.0-20.0-1.0,"""event"",""trial"",""time""
""fullscreenenter"",""1"",""7599""
","
","
","""event"",""trial"",""time""
""fullscreenenter"",""1"",""7599""
","
",,2905.1,run_exp/static/audio/clip_23_q5_ask.m4a,,,,,,,1,,,,,,,,,,,,,,,,,,
quiz_q_5_fb_correct,54,320924,0.0-21.0-0.0,"""event"",""trial"",""time""
""fullscreenenter"",""1"",""7599""
","
","
","""event"",""trial"",""time""
""fullscreenenter"",""1"",""7599""
","
",,null,run_exp/static/audio/clip_24_q5_correct.m4a,null,<p> That’s correct. The alien tells you nothing about how much treasure is on the planet.</p>,,,,,,,,,,,,,,,,,,,,,,,
quiz_correct,55,324402,0.0-22.0-0.0,"""event"",""trial"",""time""
""fullscreenenter"",""1"",""7599""
","
","
","""event"",""trial"",""time""
""fullscreenenter"",""1"",""7599""
","
",,null,run_exp/static/audio/clip_26_correct_quiz.m4a,null,,,,,,,,,,,,,,,,,,,,,,,,
quiz_correct_continue,56,326242,0.0-22.0-1.0,"""event"",""trial"",""time""
""fullscreenenter"",""1"",""7599""
","
","
","""event"",""trial"",""time""
""fullscreenenter"",""1"",""7599""
","
",,1839.3,<p>Good job! You're now ready to move on to the real game!</p>,,,,,,,0,,,,,,,,,,,,,,,,,,
audio-keyboard-response,57,336371,0.0-22.0-2.0,"""event"",""trial"",""time""
""fullscreenenter"",""1"",""7599""
","
","
","""event"",""trial"",""time""
""fullscreenenter"",""1"",""7599""
","
",,null,run_exp/static/audio/clip_28_real_game.m4a,null,,,,,,,,,,,,,,,,,,,,,,,,
instruc_begin_exp_contine,58,337224,0.0-22.0-3.0,"""event"",""trial"",""time""
""fullscreenenter"",""1"",""7599""
","
","
","""event"",""trial"",""time""
""fullscreenenter"",""1"",""7599""
","
",,851.9,"<p>Now that you know how  to dig for space treasure and travel to new planets,you can start exploring! </p><p>Do you want to go over the instructions again or get started with the real game?</p>",,,,,,,1,,,,,,1,,,,,,,,,,,,
alien_welcome,59,342241,0.0-23.0-0.0,"""event"",""trial"",""time""
""fullscreenenter"",""1"",""7599""
","
","
","""event"",""trial"",""time""
""fullscreenenter"",""1"",""7599""
","
",,null,run_exp/static/images/task_images/aliens/old_aliens/planet/alien_planet-1.jpg,null,,,,,,,,,,,,,1,"1,63,24,8,42,31,40,52,39,12,68,79,20,45,53,3,58,54,17,76,60,66,11,41,48,34,14,4,23,33",,,,,,,,,,
land,60,342758,0.0-23.0-1.0,"""event"",""trial"",""time""
""fullscreenenter"",""1"",""7599""
","
","
","""event"",""trial"",""time""
""fullscreenenter"",""1"",""7599""
","
",,null,run_exp/static/images/task_images/land.jpg,null,,,,,,,101,,,1,,,,,,,,,,,,,,
dig,61,344768,0.0-23.0-2.0,"""event"",""trial"",""time""
""fullscreenenter"",""1"",""7599""
","
","
","""event"",""trial"",""time""
""fullscreenenter"",""1"",""7599""
","
",,,,,,,,,,,,"[{""stimulus"":""run_exp/static/images/task_images/dig.jpg"",""time"":0.30000001192092896},{""stimulus"":""run_exp/static/images/task_images/land.jpg"",""time"":680.8000000119209},{""stimulus"":""run_exp/static/images/task_images/dig.jpg"",""time"":1340.3999999761581}]",[],1,,,,,,,,,,,,,,
harvest,62,345771,0.0-23.0-3.0,"""event"",""trial"",""time""
""fullscreenenter"",""1"",""7599""
","
","
","""event"",""trial"",""time""
""fullscreenenter"",""1"",""7599""
","
",,null,run_exp/static/images/task_images/gems/101.jpg,null,,,,,,,18,,,1,,,,,101,0.176610057,0.178217822,,,,,,,
decision,63,346415,0.0-23.0-4.0,"""event"",""trial"",""time""
""fullscreenenter"",""1"",""7599""
","
","
","""event"",""trial"",""time""
""fullscreenenter"",""1"",""7599""
","
",,642.6,run_exp/static/images/task_images/land.jpg,65,,,,,,,18,,,1,,,,,,,,9190,1,0,FALSE,,,
dig,64,348786,0.0-24.0-0.0,"""event"",""trial"",""time""
""fullscreenenter"",""1"",""7599""
","
","
","""event"",""trial"",""time""
""fullscreenenter"",""1"",""7599""
","
",,,,,,,,,,,,"[{""stimulus"":""run_exp/static/images/task_images/dig.jpg"",""time"":0.09999996423721313},{""stimulus"":""run_exp/static/images/task_images/land.jpg"",""time"":788.3999999761581},{""stimulus"":""run_exp/static/images/task_images/dig.jpg"",""time"":1583.3999999761581}]",[],1,,,,,,,,,,,,,,
harvest,65,349798,0.0-24.0-1.0,"""event"",""trial"",""time""
""fullscreenenter"",""1"",""7599""
","
","
","""event"",""trial"",""time""
""fullscreenenter"",""1"",""7599""
","
",,null,run_exp/static/images/task_images/gems/18.jpg,null,,,,,,,3,,,1,,,,,18,0.17927488,0.166666667,,,,,,,
decision,66,349882,0.0-24.0-2.0,"""event"",""trial"",""time""
""fullscreenenter"",""1"",""7599""
","
","
","""event"",""trial"",""time""
""fullscreenenter"",""1"",""7599""
","
",,82.69999999,run_exp/static/images/task_images/land.jpg,65,,,,,,,3,,,1,,,,,,,,12657,1,1,FALSE,,,
dig,67,352817,0.0-25.0-0.0,"""event"",""trial"",""time""
""fullscreenenter"",""1"",""7599""
","
","
","""event"",""trial"",""time""
""fullscreenenter"",""1"",""7599""
","
",,,,,,,,,,,,"[{""stimulus"":""run_exp/static/images/task_images/dig.jpg"",""time"":0.09999996423721313},{""stimulus"":""run_exp/static/images/task_images/land.jpg"",""time"":987},{""stimulus"":""run_exp/static/images/task_images/dig.jpg"",""time"":1958}]",[],1,,,,,,,,,,,,,,
harvest,68,353819,0.0-25.0-1.0,"""event"",""trial"",""time""
""fullscreenenter"",""1"",""7599""
","
","
","""event"",""trial"",""time""
""fullscreenenter"",""1"",""7599""
","
",,null,run_exp/static/images/task_images/gems/3.jpg,null,,,,,,,1,,,1,,,,,3,0.207451918,0.333333333,,,,,,,
decision,69,354089,0.0-25.0-2.0,"""event"",""trial"",""time""
""fullscreenenter"",""1"",""7599""
","
","
","""event"",""trial"",""time""
""fullscreenenter"",""1"",""7599""
","
",,268,run_exp/static/images/task_images/land.jpg,65,,,,,,,1,,,1,,,,,,,,16864,1,2,FALSE,,,
dig,70,356828,0.0-26.0-0.0,"""event"",""trial"",""time""
""fullscreenenter"",""1"",""7599""
","
","
","""event"",""trial"",""time""
""fullscreenenter"",""1"",""7599""
","
",,,,,,,,,,,,"[{""stimulus"":""run_exp/static/images/task_images/dig.jpg"",""time"":0.09999996423721313},{""stimulus"":""run_exp/static/images/task_images/land.jpg"",""time"":915},{""stimulus"":""run_exp/static/images/task_images/dig.jpg"",""time"":1835.699999988079}]",[],1,,,,,,,,,,,,,,
harvest,71,357843,0.0-26.0-1.0,"""event"",""trial"",""time""
""fullscreenenter"",""1"",""7599""
","
","
","""event"",""trial"",""time""
""fullscreenenter"",""1"",""7599""
","
",,null,run_exp/static/images/task_images/gems/1.jpg,null,,,,,,,0,,,1,,,,,1,0.138140492,0,,,,,,,
decision,72,358068,0.0-26.0-2.0,"""event"",""trial"",""time""
""fullscreenenter"",""1"",""7599""
","
","
","""event"",""trial"",""time""
""fullscreenenter"",""1"",""7599""
","
",,224.4,run_exp/static/images/task_images/land.jpg,76,,,,,,,0,,,1,,,,,,,,20843,1,3,TRUE,,,
travel,73,367859,0.0-27.0-0.0,"""event"",""trial"",""time""
""fullscreenenter"",""1"",""7599""
","
","
","""event"",""trial"",""time""
""fullscreenenter"",""1"",""7599""
","
",,,,,,,,,,,,"[{""stimulus"":""run_exp/static/images/task_images/rocket-01.jpg"",""time"":0.10000002384185791},{""stimulus"":""run_exp/static/images/task_images/rocket-02.jpg"",""time"":1087.2000000476837},{""stimulus"":""run_exp/static/images/task_images/rocket-03.jpg"",""time"":2180.300000011921},{""stimulus"":""run_exp/static/images/task_images/rocket-04.jpg"",""time"":3262.100000023842},{""stimulus"":""run_exp/static/images/task_images/rocket-05.jpg"",""time"":4351.900000035763},{""stimulus"":""run_exp/static/images/task_images/rocket-06.jpg"",""time"":5435.300000011921},{""stimulus"":""run_exp/static/images/task_images/rocket-07.jpg"",""time"":6521.5},{""stimulus"":""run_exp/static/images/task_images/rocket-08.jpg"",""time"":7618.600000023842},{""stimulus"":""run_exp/static/images/task_images/rocket-09.jpg"",""time"":8699.400000035763}]",[],1,,,,,,,,,,,,,,
alien_welcome,74,372864,0.0-27.0-1.0,"""event"",""trial"",""time""
""fullscreenenter"",""1"",""7599""
","
","
","""event"",""trial"",""time""
""fullscreenenter"",""1"",""7599""
","
",,null,run_exp/static/images/task_images/aliens/old_aliens/planet/alien_planet-63.jpg,null,,,,,,,,,,,,,63,"1,63,24,8,42,31,40,52,39,12,68,79,20,45,53,3,58,54,17,76,60,66,11,41,48,34,14,4,23,33",,,,,,,,,,
land,75,373367,0.0-27.0-2.0,"""event"",""trial"",""time""
""fullscreenenter"",""1"",""7599""
","
","
","""event"",""trial"",""time""
""fullscreenenter"",""1"",""7599""
","
",,null,run_exp/static/images/task_images/land.jpg,null,,,,,,,103,,,2,,,,,,,,,,,,,,
dig,76,375379,0.0-27.0-3.0,"""event"",""trial"",""time""
""fullscreenenter"",""1"",""7599""
","
","
","""event"",""trial"",""time""
""fullscreenenter"",""1"",""7599""
","
",,,,,,,,,,,,"[{""stimulus"":""run_exp/static/images/task_images/dig.jpg"",""time"":0.30000001192092896},{""stimulus"":""run_exp/static/images/task_images/land.jpg"",""time"":677.3999999761581},{""stimulus"":""run_exp/static/images/task_images/dig.jpg"",""time"":1342.5}]",[],2,,,,,,,,,,,,,,
harvest,77,376383,0.0-27.0-4.0,"""event"",""trial"",""time""
""fullscreenenter"",""1"",""7599""
","
","
","""event"",""trial"",""time""
""fullscreenenter"",""1"",""7599""
","
",,null,run_exp/static/images/task_images/gems/103.jpg,null,,,,,,,22,,,2,,,,,103,0.211801394,0.213592233,,,,,,,
decision,78,376840,0.0-27.0-5.0,"""event"",""trial"",""time""
""fullscreenenter"",""1"",""7599""
","
","
","""event"",""trial"",""time""
""fullscreenenter"",""1"",""7599""
","
",,455.9,run_exp/static/images/task_images/land.jpg,65,,,,,,,22,,,2,,,,,,,,39615,1,0,FALSE,,,
dig,79,379395,0.0-28.0-0.0,"""event"",""trial"",""time""
""fullscreenenter"",""1"",""7599""
","
","
","""event"",""trial"",""time""
""fullscreenenter"",""1"",""7599""
","
",,,,,,,,,,,,"[{""stimulus"":""run_exp/static/images/task_images/dig.jpg"",""time"":0},{""stimulus"":""run_exp/static/images/task_images/land.jpg"",""time"":851.3000000119209},{""stimulus"":""run_exp/static/images/task_images/dig.jpg"",""time"":1708.5}]",[],2,,,,,,,,,,,,,,
harvest,80,380403,0.0-28.0-1.0,"""event"",""trial"",""time""
""fullscreenenter"",""1"",""7599""
","
","
","""event"",""trial"",""time""
""fullscreenenter"",""1"",""7599""
","
",,null,run_exp/static/images/task_images/gems/22.jpg,null,,,,,,,5,,,2,,,,,22,0.221974072,0.227272727,,,,,,,
decision,81,381482,0.0-28.0-2.0,"""event"",""trial"",""time""
""fullscreenenter"",""1"",""7599""
","
","
","""event"",""trial"",""time""
""fullscreenenter"",""1"",""7599""
","
",,1077.7,run_exp/static/images/task_images/land.jpg,76,,,,,,,5,,,2,,,,,,,,44257,1,1,TRUE,,,
travel,82,390414,0.0-29.0-0.0,"""event"",""trial"",""time""
""fullscreenenter"",""1"",""7599""
","
","
","""event"",""trial"",""time""
""fullscreenenter"",""1"",""7599""
","
",,,,,,,,,,,,"[{""stimulus"":""run_exp/static/images/task_images/rocket-01.jpg"",""time"":0.09999996423721313},{""stimulus"":""run_exp/static/images/task_images/rocket-02.jpg"",""time"":1002.3999999761581},{""stimulus"":""run_exp/static/images/task_images/rocket-03.jpg"",""time"":1997.199999988079},{""stimulus"":""run_exp/static/images/task_images/rocket-04.jpg"",""time"":2988.300000011921},{""stimulus"":""run_exp/static/images/task_images/rocket-05.jpg"",""time"":3981},{""stimulus"":""run_exp/static/images/task_images/rocket-06.jpg"",""time"":4960.399999976158},{""stimulus"":""run_exp/static/images/task_images/rocket-07.jpg"",""time"":5956.599999964237},{""stimulus"":""run_exp/static/images/task_images/rocket-08.jpg"",""time"":6951.399999976158},{""stimulus"":""run_exp/static/images/task_images/rocket-09.jpg"",""time"":7933.099999964237}]",[],2,,,,,,,,,,,,,,
alien_welcome,83,395428,0.0-29.0-1.0,"""event"",""trial"",""time""
""fullscreenenter"",""1"",""7599""
","
","
","""event"",""trial"",""time""
""fullscreenenter"",""1"",""7599""
","
",,null,run_exp/static/images/task_images/aliens/old_aliens/planet/alien_planet-24.jpg,null,,,,,,,,,,,,,24,"1,63,24,8,42,31,40,52,39,12,68,79,20,45,53,3,58,54,17,76,60,66,11,41,48,34,14,4,23,33",,,,,,,,,,
land,84,395940,0.0-29.0-2.0,"""event"",""trial"",""time""
""fullscreenenter"",""1"",""7599""
","
","
","""event"",""trial"",""time""
""fullscreenenter"",""1"",""7599""
","
",,null,run_exp/static/images/task_images/land.jpg,null,,,,,,,98,,,3,,,,,,,,,,,,,,
dig,85,397950,0.0-29.0-3.0,"""event"",""trial"",""time""
""fullscreenenter"",""1"",""7599""
","
","
","""event"",""trial"",""time""
""fullscreenenter"",""1"",""7599""
","
",,,,,,,,,,,,"[{""stimulus"":""run_exp/static/images/task_images/dig.jpg"",""time"":0.20000004768371582},{""stimulus"":""run_exp/static/images/task_images/land.jpg"",""time"":681.6000000238419},{""stimulus"":""run_exp/static/images/task_images/dig.jpg"",""time"":1342.6000000238419}]",[],3,,,,,,,,,,,,,,
harvest,86,398958,0.0-29.0-4.0,"""event"",""trial"",""time""
""fullscreenenter"",""1"",""7599""
","
","
","""event"",""trial"",""time""
""fullscreenenter"",""1"",""7599""
","
",,null,run_exp/static/images/task_images/gems/98.jpg,null,,,,,,,36,,,3,,,,,98,0.367846393,0.367346939,,,,,,,
decision,87,399002,0.0-29.0-5.0,"""event"",""trial"",""time""
""fullscreenenter"",""1"",""7599""
","
","
","""event"",""trial"",""time""
""fullscreenenter"",""1"",""7599""
","
",,42.40000004,run_exp/static/images/task_images/land.jpg,65,,,,,,,36,,,3,,,,,,,,61777,1,0,FALSE,,,
dig,88,401971,0.0-30.0-0.0,"""event"",""trial"",""time""
""fullscreenenter"",""1"",""7599""
","
","
","""event"",""trial"",""time""
""fullscreenenter"",""1"",""7599""
","
",,,,,,,,,,,,"[{""stimulus"":""run_exp/static/images/task_images/dig.jpg"",""time"":0.10000002384185791},{""stimulus"":""run_exp/static/images/task_images/land.jpg"",""time"":988.8000000119209},{""stimulus"":""run_exp/static/images/task_images/dig.jpg"",""time"":1983.199999988079}]",[],3,,,,,,,,,,,,,,
harvest,89,402983,0.0-30.0-1.0,"""event"",""trial"",""time""
""fullscreenenter"",""1"",""7599""
","
","
","""event"",""trial"",""time""
""fullscreenenter"",""1"",""7599""
","
",,null,run_exp/static/images/task_images/gems/36.jpg,null,,,,,,,22,,,3,,,,,36,0.609261706,0.611111111,,,,,,,
decision,90,403238,0.0-30.0-2.0,"""event"",""trial"",""time""
""fullscreenenter"",""1"",""7599""
","
","
","""event"",""trial"",""time""
""fullscreenenter"",""1"",""7599""
","
",,254,run_exp/static/images/task_images/land.jpg,65,,,,,,,22,,,3,,,,,,,,66013,1,1,FALSE,,,
dig,91,405994,0.0-31.0-0.0,"""event"",""trial"",""time""
""fullscreenenter"",""1"",""7599""
","
","
","""event"",""trial"",""time""
""fullscreenenter"",""1"",""7599""
","
",,,,,,,,,,,,"[{""stimulus"":""run_exp/static/images/task_images/dig.jpg"",""time"":0.10000002384185791},{""stimulus"":""run_exp/static/images/task_images/land.jpg"",""time"":916},{""stimulus"":""run_exp/static/images/task_images/dig.jpg"",""time"":1841.7000000476837}]",[],3,,,,,,,,,,,,,,
harvest,92,406996,0.0-31.0-1.0,"""event"",""trial"",""time""
""fullscreenenter"",""1"",""7599""
","
","
","""event"",""trial"",""time""
""fullscreenenter"",""1"",""7599""
","
",,null,run_exp/static/images/task_images/gems/22.jpg,null,,,,,,,12,,,3,,,,,22,0.525990656,0.545454545,,,,,,,
decision,93,407199,0.0-31.0-2.0,"""event"",""trial"",""time""
""fullscreenenter"",""1"",""7599""
","
","
","""event"",""trial"",""time""
""fullscreenenter"",""1"",""7599""
","
",,201.6,run_exp/static/images/task_images/land.jpg,65,,,,,,,12,,,3,,,,,,,,69974,1,2,FALSE,,,
dig,94,410010,0.0-32.0-0.0,"""event"",""trial"",""time""
""fullscreenenter"",""1"",""7599""
","
","
","""event"",""trial"",""time""
""fullscreenenter"",""1"",""7599""
","
",,,,,,,,,,,,"[{""stimulus"":""run_exp/static/images/task_images/dig.jpg"",""time"":0},{""stimulus"":""run_exp/static/images/task_images/land.jpg"",""time"":938.2999999523163},{""stimulus"":""run_exp/static/images/task_images/dig.jpg"",""time"":1880.0999999642372}]",[],3,,,,,,,,,,,,,,
harvest,95,411013,0.0-32.0-1.0,"""event"",""trial"",""time""
""fullscreenenter"",""1"",""7599""
","
","
","""event"",""trial"",""time""
""fullscreenenter"",""1"",""7599""
","
",,null,run_exp/static/images/task_images/gems/12.jpg,null,,,,,,,7,,,3,,,,,12,0.549708499,0.583333333,,,,,,,
decision,96,411303,0.0-32.0-2.0,"""event"",""trial"",""time""
""fullscreenenter"",""1"",""7599""
","
","
","""event"",""trial"",""time""
""fullscreenenter"",""1"",""7599""
","
",,289.8,run_exp/static/images/task_images/land.jpg,65,,,,,,,7,,,3,,,,,,,,74079,1,3,FALSE,,,
dig,97,414031,0.0-33.0-0.0,"""event"",""trial"",""time""
""fullscreenenter"",""1"",""7599""
","
","
","""event"",""trial"",""time""
""fullscreenenter"",""1"",""7599""
","
",,,,,,,,,,,,"[{""stimulus"":""run_exp/static/images/task_images/dig.jpg"",""time"":0.10000002384185791},{""stimulus"":""run_exp/static/images/task_images/land.jpg"",""time"":917.8000000119209},{""stimulus"":""run_exp/static/images/task_images/dig.jpg"",""time"":1823.2000000476837}]",[],3,,,,,,,,,,,,,,
harvest,98,415040,0.0-33.0-1.0,"""event"",""trial"",""time""
""fullscreenenter"",""1"",""7599""
","
","
","""event"",""trial"",""time""
""fullscreenenter"",""1"",""7599""
","
",,null,run_exp/static/images/task_images/gems/7.jpg,null,,,,,,,3,,,3,,,,,7,0.497646129,0.428571429,,,,,,,
decision,99,415147,0.0-33.0-2.0,"""event"",""trial"",""time""
""fullscreenenter"",""1"",""7599""
","
","
","""event"",""trial"",""time""
""fullscreenenter"",""1"",""7599""
","
",,105.6,run_exp/static/images/task_images/land.jpg,76,,,,,,,3,,,3,,,,,,,,77922,1,4,TRUE,,,
travel,100,425054,0.0-34.0-0.0,"""event"",""trial"",""time""
""fullscreenenter"",""1"",""7599""
","
","
","""event"",""trial"",""time""
""fullscreenenter"",""1"",""7599""
","
",,,,,,,,,,,,"[{""stimulus"":""run_exp/static/images/task_images/rocket-01.jpg"",""time"":0.10000002384185791},{""stimulus"":""run_exp/static/images/task_images/rocket-02.jpg"",""time"":1107},{""stimulus"":""run_exp/static/images/task_images/rocket-03.jpg"",""time"":2209.400000035763},{""stimulus"":""run_exp/static/images/task_images/rocket-04.jpg"",""time"":3306},{""stimulus"":""run_exp/static/images/task_images/rocket-05.jpg"",""time"":4403.800000011921},{""stimulus"":""run_exp/static/images/task_images/rocket-06.jpg"",""time"":5505.800000011921},{""stimulus"":""run_exp/static/images/task_images/rocket-07.jpg"",""time"":6597},{""stimulus"":""run_exp/static/images/task_images/rocket-08.jpg"",""time"":7701.400000035763},{""stimulus"":""run_exp/static/images/task_images/rocket-09.jpg"",""time"":8801.700000047684}]",[],3,,,,,,,,,,,,,,
alien_welcome,101,430059,0.0-34.0-1.0,"""event"",""trial"",""time""
""fullscreenenter"",""1"",""7599""
","
","
","""event"",""trial"",""time""
""fullscreenenter"",""1"",""7599""
","
",,null,run_exp/static/images/task_images/aliens/old_aliens/planet/alien_planet-8.jpg,null,,,,,,,,,,,,,8,"1,63,24,8,42,31,40,52,39,12,68,79,20,45,53,3,58,54,17,76,60,66,11,41,48,34,14,4,23,33",,,,,,,,,,
land,102,430565,0.0-34.0-2.0,"""event"",""trial"",""time""
""fullscreenenter"",""1"",""7599""
","
","
","""event"",""trial"",""time""
""fullscreenenter"",""1"",""7599""
","
",,null,run_exp/static/images/task_images/land.jpg,null,,,,,,,106,,,4,,,,,,,,,,,,,,
dig,103,432571,0.0-34.0-3.0,"""event"",""trial"",""time""
""fullscreenenter"",""1"",""7599""
","
","
","""event"",""trial"",""time""
""fullscreenenter"",""1"",""7599""
","
",,,,,,,,,,,,"[{""stimulus"":""run_exp/static/images/task_images/dig.jpg"",""time"":0.19999998807907104},{""stimulus"":""run_exp/static/images/task_images/land.jpg"",""time"":679.2999999523163},{""stimulus"":""run_exp/static/images/task_images/dig.jpg"",""time"":1342.199999988079}]",[],4,,,,,,,,,,,,,,
harvest,104,433583,0.0-34.0-4.0,"""event"",""trial"",""time""
""fullscreenenter"",""1"",""7599""
","
","
","""event"",""trial"",""time""
""fullscreenenter"",""1"",""7599""
","
",,null,run_exp/static/images/task_images/gems/106.jpg,null,,,,,,,56,,,4,,,,,106,0.532308978,0.528301887,,,,,,,
decision,105,433675,0.0-34.0-5.0,"""event"",""trial"",""time""
""fullscreenenter"",""1"",""7599""
","
","
","""event"",""trial"",""time""
""fullscreenenter"",""1"",""7599""
","
",,91.10000002,run_exp/static/images/task_images/land.jpg,65,,,,,,,56,,,4,,,,,,,,96450,1,0,FALSE,,,
dig,106,436591,0.0-35.0-0.0,"""event"",""trial"",""time""
""fullscreenenter"",""1"",""7599""
","
","
","""event"",""trial"",""time""
""fullscreenenter"",""1"",""7599""
","
",,,,,,,,,,,,"[{""stimulus"":""run_exp/static/images/task_images/dig.jpg"",""time"":0.19999998807907104},{""stimulus"":""run_exp/static/images/task_images/land.jpg"",""time"":971},{""stimulus"":""run_exp/static/images/task_images/dig.jpg"",""time"":1944.5}]",[],4,,,,,,,,,,,,,,
harvest,107,437598,0.0-35.0-1.0,"""event"",""trial"",""time""
""fullscreenenter"",""1"",""7599""
","
","
","""event"",""trial"",""time""
""fullscreenenter"",""1"",""7599""
","
",,null,run_exp/static/images/task_images/gems/56.jpg,null,,,,,,,35,,,4,,,,,56,0.629852662,0.625,,,,,,,
decision,108,437704,0.0-35.0-2.0,"""event"",""trial"",""time""
""fullscreenenter"",""1"",""7599""
","
","
","""event"",""trial"",""time""
""fullscreenenter"",""1"",""7599""
","
",,105.1,run_exp/static/images/task_images/land.jpg,65,,,,,,,35,,,4,,,,,,,,100479,1,1,FALSE,,,
dig,109,440607,0.0-36.0-0.0,"""event"",""trial"",""time""
""fullscreenenter"",""1"",""7599""
","
","
","""event"",""trial"",""time""
""fullscreenenter"",""1"",""7599""
","
",,,,,,,,,,,,"[{""stimulus"":""run_exp/static/images/task_images/dig.jpg"",""time"":0.20000004768371582},{""stimulus"":""run_exp/static/images/task_images/land.jpg"",""time"":967.6000000238419},{""stimulus"":""run_exp/static/images/task_images/dig.jpg"",""time"":1930.2000000476837}]",[],4,,,,,,,,,,,,,,
harvest,110,441618,0.0-36.0-1.0,"""event"",""trial"",""time""
""fullscreenenter"",""1"",""7599""
","
","
","""event"",""trial"",""time""
""fullscreenenter"",""1"",""7599""
","
",,null,run_exp/static/images/task_images/gems/35.jpg,null,,,,,,,14,,,4,,,,,35,0.411746322,0.4,,,,,,,
decision,111,442197,0.0-36.0-2.0,"""event"",""trial"",""time""
""fullscreenenter"",""1"",""7599""
","
","
","""event"",""trial"",""time""
""fullscreenenter"",""1"",""7599""
","
",,578.2,run_exp/static/images/task_images/land.jpg,65,,,,,,,14,,,4,,,,,,,,104972,1,2,FALSE,,,
dig,112,444624,0.0-37.0-0.0,"""event"",""trial"",""time""
""fullscreenenter"",""1"",""7599""
","
","
","""event"",""trial"",""time""
""fullscreenenter"",""1"",""7599""
","
",,,,,,,,,,,,"[{""stimulus"":""run_exp/static/images/task_images/dig.jpg"",""time"":0.19999998807907104},{""stimulus"":""run_exp/static/images/task_images/land.jpg"",""time"":809.6999999880791},{""stimulus"":""run_exp/static/images/task_images/dig.jpg"",""time"":1619.300000011921}]",[],4,,,,,,,,,,,,,,
harvest,113,445626,0.0-37.0-1.0,"""event"",""trial"",""time""
""fullscreenenter"",""1"",""7599""
","
","
","""event"",""trial"",""time""
""fullscreenenter"",""1"",""7599""
","
",,null,run_exp/static/images/task_images/gems/14.jpg,null,,,,,,,8,,,4,,,,,14,0.585880537,0.571428571,,,,,,,
decision,114,445741,0.0-37.0-2.0,"""event"",""trial"",""time""
""fullscreenenter"",""1"",""7599""
","
","
","""event"",""trial"",""time""
""fullscreenenter"",""1"",""7599""
","
",,113.6,run_exp/static/images/task_images/land.jpg,65,,,,,,,8,,,4,,,,,,,,108516,1,3,FALSE,,,
dig,115,448640,0.0-38.0-0.0,"""event"",""trial"",""time""
""fullscreenenter"",""1"",""7599""
","
","
","""event"",""trial"",""time""
""fullscreenenter"",""1"",""7599""
","
",,,,,,,,,,,,"[{""stimulus"":""run_exp/static/images/task_images/dig.jpg"",""time"":0.09999996423721313},{""stimulus"":""run_exp/static/images/task_images/land.jpg"",""time"":964.5},{""stimulus"":""run_exp/static/images/task_images/dig.jpg"",""time"":1932.5999999642372}]",[],4,,,,,,,,,,,,,,
harvest,116,449648,0.0-38.0-1.0,"""event"",""trial"",""time""
""fullscreenenter"",""1"",""7599""
","
","
","""event"",""trial"",""time""
""fullscreenenter"",""1"",""7599""
","
",,null,run_exp/static/images/task_images/gems/8.jpg,null,,,,,,,4,,,4,,,,,8,0.521181288,0.5,,,,,,,
decision,117,450005,0.0-38.0-2.0,"""event"",""trial"",""time""
""fullscreenenter"",""1"",""7599""
","
","
","""event"",""trial"",""time""
""fullscreenenter"",""1"",""7599""
","
",,355.9,run_exp/static/images/task_images/land.jpg,76,,,,,,,4,,,4,,,,,,,,112780,1,4,TRUE,,,
travel,118,459652,0.0-39.0-0.0,"""event"",""trial"",""time""
""fullscreenenter"",""1"",""7599""
","
","
","""event"",""trial"",""time""
""fullscreenenter"",""1"",""7599""
","
",,,,,,,,,,,,"[{""stimulus"":""run_exp/static/images/task_images/rocket-01.jpg"",""time"":0.19999998807907104},{""stimulus"":""run_exp/static/images/task_images/rocket-02.jpg"",""time"":1076.199999988079},{""stimulus"":""run_exp/static/images/task_images/rocket-03.jpg"",""time"":2151.5},{""stimulus"":""run_exp/static/images/task_images/rocket-04.jpg"",""time"":3218.099999964237},{""stimulus"":""run_exp/static/images/task_images/rocket-05.jpg"",""time"":4297},{""stimulus"":""run_exp/static/images/task_images/rocket-06.jpg"",""time"":5361},{""stimulus"":""run_exp/static/images/task_images/rocket-07.jpg"",""time"":6427.299999952316},{""stimulus"":""run_exp/static/images/task_images/rocket-08.jpg"",""time"":7503.399999976158},{""stimulus"":""run_exp/static/images/task_images/rocket-09.jpg"",""time"":8585.399999976158}]",[],4,,,,,,,,,,,,,,
alien_welcome,119,464661,0.0-39.0-1.0,"""event"",""trial"",""time""
""fullscreenenter"",""1"",""7599""
","
","
","""event"",""trial"",""time""
""fullscreenenter"",""1"",""7599""
","
",,null,run_exp/static/images/task_images/aliens/old_aliens/planet/alien_planet-42.jpg,null,,,,,,,,,,,,,42,"1,63,24,8,42,31,40,52,39,12,68,79,20,45,53,3,58,54,17,76,60,66,11,41,48,34,14,4,23,33",,,,,,,,,,
land,120,465174,0.0-39.0-2.0,"""event"",""trial"",""time""
""fullscreenenter"",""1"",""7599""
","
","
","""event"",""trial"",""time""
""fullscreenenter"",""1"",""7599""
","
",,null,run_exp/static/images/task_images/land.jpg,null,,,,,,,100,,,5,,,,,,,,,,,,,,
dig,121,467185,0.0-39.0-3.0,"""event"",""trial"",""time""
""fullscreenenter"",""1"",""7599""
","
","
","""event"",""trial"",""time""
""fullscreenenter"",""1"",""7599""
","
",,,,,,,,,,,,"[{""stimulus"":""run_exp/static/images/task_images/dig.jpg"",""time"":0.19999998807907104},{""stimulus"":""run_exp/static/images/task_images/land.jpg"",""time"":670.9000000357628},{""stimulus"":""run_exp/static/images/task_images/dig.jpg"",""time"":1338.4000000357628}]",[],5,,,,,,,,,,,,,,
harvest,122,468193,0.0-39.0-4.0,"""event"",""trial"",""time""
""fullscreenenter"",""1"",""7599""
","
","
","""event"",""trial"",""time""
""fullscreenenter"",""1"",""7599""
","
",,null,run_exp/static/images/task_images/gems/100.jpg,null,,,,,,,49,,,5,,,,,100,0.48936404,0.49,,,,,,,
decision,123,468403,0.0-39.0-5.0,"""event"",""trial"",""time""
""fullscreenenter"",""1"",""7599""
","
","
","""event"",""trial"",""time""
""fullscreenenter"",""1"",""7599""
","
",,209.5,run_exp/static/images/task_images/land.jpg,65,,,,,,,49,,,5,,,,,,,,131178,1,0,FALSE,,,
dig,124,471210,0.0-40.0-0.0,"""event"",""trial"",""time""
""fullscreenenter"",""1"",""7599""
","
","
","""event"",""trial"",""time""
""fullscreenenter"",""1"",""7599""
","
",,,,,,,,,,,,"[{""stimulus"":""run_exp/static/images/task_images/dig.jpg"",""time"":0.20000004768371582},{""stimulus"":""run_exp/static/images/task_images/land.jpg"",""time"":939.2000000476837},{""stimulus"":""run_exp/static/images/task_images/dig.jpg"",""time"":1867.4000000357628}]",[],5,,,,,,,,,,,,,,
harvest,125,472219,0.0-40.0-1.0,"""event"",""trial"",""time""
""fullscreenenter"",""1"",""7599""
","
","
","""event"",""trial"",""time""
""fullscreenenter"",""1"",""7599""
","
",,null,run_exp/static/images/task_images/gems/49.jpg,null,,,,,,,26,,,5,,,,,49,0.531084615,0.530612245,,,,,,,
decision,126,472341,0.0-40.0-2.0,"""event"",""trial"",""time""
""fullscreenenter"",""1"",""7599""
","
","
","""event"",""trial"",""time""
""fullscreenenter"",""1"",""7599""
","
",,121.5,run_exp/static/images/task_images/land.jpg,65,,,,,,,26,,,5,,,,,,,,135116,1,1,FALSE,,,
dig,127,475227,0.0-41.0-0.0,"""event"",""trial"",""time""
""fullscreenenter"",""1"",""7599""
","
","
","""event"",""trial"",""time""
""fullscreenenter"",""1"",""7599""
","
",,,,,,,,,,,,"[{""stimulus"":""run_exp/static/images/task_images/dig.jpg"",""time"":0.10000002384185791},{""stimulus"":""run_exp/static/images/task_images/land.jpg"",""time"":960.6000000238419},{""stimulus"":""run_exp/static/images/task_images/dig.jpg"",""time"":1927.800000011921}]",[],5,,,,,,,,,,,,,,
harvest,128,476235,0.0-41.0-1.0,"""event"",""trial"",""time""
""fullscreenenter"",""1"",""7599""
","
","
","""event"",""trial"",""time""
""fullscreenenter"",""1"",""7599""
","
",,null,run_exp/static/images/task_images/gems/26.jpg,null,,,,,,,12,,,5,,,,,26,0.474518396,0.461538462,,,,,,,
decision,129,476292,0.0-41.0-2.0,"""event"",""trial"",""time""
""fullscreenenter"",""1"",""7599""
","
","
","""event"",""trial"",""time""
""fullscreenenter"",""1"",""7599""
","
",,56.5,run_exp/static/images/task_images/land.jpg,65,,,,,,,12,,,5,,,,,,,,139067,1,2,FALSE,,,
dig,130,479254,0.0-42.0-0.0,"""event"",""trial"",""time""
""fullscreenenter"",""1"",""7599""
","
","
","""event"",""trial"",""time""
""fullscreenenter"",""1"",""7599""
","
",,,,,,,,,,,,"[{""stimulus"":""run_exp/static/images/task_images/dig.jpg"",""time"":0},{""stimulus"":""run_exp/static/images/task_images/land.jpg"",""time"":983.4000000357628},{""stimulus"":""run_exp/static/images/task_images/dig.jpg"",""time"":1971.800000011921}]",[],5,,,,,,,,,,,,,,
harvest,131,480256,0.0-42.0-1.0,"""event"",""trial"",""time""
""fullscreenenter"",""1"",""7599""
","
","
","""event"",""trial"",""time""
""fullscreenenter"",""1"",""7599""
","
",,null,run_exp/static/images/task_images/gems/12.jpg,null,,,,,,,6,,,5,,,,,12,0.491818454,0.5,,,,,,,
decision,132,480369,0.0-42.0-2.0,"""event"",""trial"",""time""
""fullscreenenter"",""1"",""7599""
","
","
","""event"",""trial"",""time""
""fullscreenenter"",""1"",""7599""
","
",,111.3,run_exp/static/images/task_images/land.jpg,65,,,,,,,6,,,5,,,,,,,,143144,1,3,FALSE,,,
dig,133,483270,0.0-43.0-0.0,"""event"",""trial"",""time""
""fullscreenenter"",""1"",""7599""
","
","
","""event"",""trial"",""time""
""fullscreenenter"",""1"",""7599""
","
",,,,,,,,,,,,"[{""stimulus"":""run_exp/static/images/task_images/dig.jpg"",""time"":0.10000002384185791},{""stimulus"":""run_exp/static/images/task_images/land.jpg"",""time"":965.6000000238419},{""stimulus"":""run_exp/static/images/task_images/dig.jpg"",""time"":1939.300000011921}]",[],5,,,,,,,,,,,,,,
harvest,134,484272,0.0-43.0-1.0,"""event"",""trial"",""time""
""fullscreenenter"",""1"",""7599""
","
","
","""event"",""trial"",""time""
""fullscreenenter"",""1"",""7599""
","
",,null,run_exp/static/images/task_images/gems/6.jpg,null,,,,,,,3,,,5,,,,,6,0.429098685,0.5,,,,,,,
decision,135,484274,0.0-43.0-2.0,"""event"",""trial"",""time""
""fullscreenenter"",""1"",""7599""
","
","
","""event"",""trial"",""time""
""fullscreenenter"",""1"",""7599""
","
",,0.699999988,run_exp/static/images/task_images/land.jpg,76,,,,,,,3,,,5,,,,,,,,147049,1,4,TRUE,,,
travel,136,494289,0.0-44.0-0.0,"""event"",""trial"",""time""
""fullscreenenter"",""1"",""7599""
","
","
","""event"",""trial"",""time""
""fullscreenenter"",""1"",""7599""
","
",,,,,,,,,,,,"[{""stimulus"":""run_exp/static/images/task_images/rocket-01.jpg"",""time"":0.20000004768371582},{""stimulus"":""run_exp/static/images/task_images/rocket-02.jpg"",""time"":1114.2000000476837},{""stimulus"":""run_exp/static/images/task_images/rocket-03.jpg"",""time"":2229.7000000476837},{""stimulus"":""run_exp/static/images/task_images/rocket-04.jpg"",""time"":3337.5},{""stimulus"":""run_exp/static/images/task_images/rocket-05.jpg"",""time"":4460.5},{""stimulus"":""run_exp/static/images/task_images/rocket-06.jpg"",""time"":5569.300000011921},{""stimulus"":""run_exp/static/images/task_images/rocket-07.jpg"",""time"":6680.400000035763},{""stimulus"":""run_exp/static/images/task_images/rocket-08.jpg"",""time"":7778.600000023842},{""stimulus"":""run_exp/static/images/task_images/rocket-09.jpg"",""time"":8890.600000023842}]",[],5,,,,,,,,,,,,,,
alien_welcome,137,499298,0.0-44.0-1.0,"""event"",""trial"",""time""
""fullscreenenter"",""1"",""7599""
","
","
","""event"",""trial"",""time""
""fullscreenenter"",""1"",""7599""
","
",,null,run_exp/static/images/task_images/aliens/old_aliens/planet/alien_planet-31.jpg,null,,,,,,,,,,,,,31,"1,63,24,8,42,31,40,52,39,12,68,79,20,45,53,3,58,54,17,76,60,66,11,41,48,34,14,4,23,33",,,,,,,,,,
land,138,499804,0.0-44.0-2.0,"""event"",""trial"",""time""
""fullscreenenter"",""1"",""7599""
","
","
","""event"",""trial"",""time""
""fullscreenenter"",""1"",""7599""
","
",,null,run_exp/static/images/task_images/land.jpg,null,,,,,,,110,,,6,,,,,,,,,,,,,,
dig,139,501814,0.0-44.0-3.0,"""event"",""trial"",""time""
""fullscreenenter"",""1"",""7599""
","
","
","""event"",""trial"",""time""
""fullscreenenter"",""1"",""7599""
","
",,,,,,,,,,,,"[{""stimulus"":""run_exp/static/images/task_images/dig.jpg"",""time"":0.2999999523162842},{""stimulus"":""run_exp/static/images/task_images/land.jpg"",""time"":678.6999999880791},{""stimulus"":""run_exp/static/images/task_images/dig.jpg"",""time"":1344.7999999523163}]",[],6,,,,,,,,,,,,,,
harvest,140,502828,0.0-44.0-4.0,"""event"",""trial"",""time""
""fullscreenenter"",""1"",""7599""
","
","
","""event"",""trial"",""time""
""fullscreenenter"",""1"",""7599""
","
",,null,run_exp/static/images/task_images/gems/110.jpg,null,,,,,,,89,,,6,,,,,110,0.809679784,0.809090909,,,,,,,
decision,141,502992,0.0-44.0-5.0,"""event"",""trial"",""time""
""fullscreenenter"",""1"",""7599""
","
","
","""event"",""trial"",""time""
""fullscreenenter"",""1"",""7599""
","
",,162.6,run_exp/static/images/task_images/land.jpg,65,,,,,,,89,,,6,,,,,,,,165767,1,0,FALSE,,,
dig,142,505836,0.0-45.0-0.0,"""event"",""trial"",""time""
""fullscreenenter"",""1"",""7599""
","
","
","""event"",""trial"",""time""
""fullscreenenter"",""1"",""7599""
","
",,,,,,,,,,,,"[{""stimulus"":""run_exp/static/images/task_images/dig.jpg"",""time"":0.09999996423721313},{""stimulus"":""run_exp/static/images/task_images/land.jpg"",""time"":957.7999999523163},{""stimulus"":""run_exp/static/images/task_images/dig.jpg"",""time"":1893.8999999761581}]",[],6,,,,,,,,,,,,,,
harvest,143,506838,0.0-45.0-1.0,"""event"",""trial"",""time""
""fullscreenenter"",""1"",""7599""
","
","
","""event"",""trial"",""time""
""fullscreenenter"",""1"",""7599""
","
",,null,run_exp/static/images/task_images/gems/89.jpg,null,,,,,,,76,,,6,,,,,89,0.851367917,0.853932584,,,,,,,
decision,144,506925,0.0-45.0-2.0,"""event"",""trial"",""time""
""fullscreenenter"",""1"",""7599""
","
","
","""event"",""trial"",""time""
""fullscreenenter"",""1"",""7599""
","
",,86.39999998,run_exp/static/images/task_images/land.jpg,65,,,,,,,76,,,6,,,,,,,,169700,1,1,FALSE,,,
dig,145,509851,0.0-46.0-0.0,"""event"",""trial"",""time""
""fullscreenenter"",""1"",""7599""
","
","
","""event"",""trial"",""time""
""fullscreenenter"",""1"",""7599""
","
",,,,,,,,,,,,"[{""stimulus"":""run_exp/static/images/task_images/dig.jpg"",""time"":0.19999998807907104},{""stimulus"":""run_exp/static/images/task_images/land.jpg"",""time"":987.3999999761581},{""stimulus"":""run_exp/static/images/task_images/dig.jpg"",""time"":1954.3999999761581}]",[],6,,,,,,,,,,,,,,
harvest,146,510854,0.0-46.0-1.0,"""event"",""trial"",""time""
""fullscreenenter"",""1"",""7599""
","
","
","""event"",""trial"",""time""
""fullscreenenter"",""1"",""7599""
","
",,null,run_exp/static/images/task_images/gems/76.jpg,null,,,,,,,63,,,6,,,,,76,0.833160582,0.828947368,,,,,,,
decision,147,510952,0.0-46.0-2.0,"""event"",""trial"",""time""
""fullscreenenter"",""1"",""7599""
","
","
","""event"",""trial"",""time""
""fullscreenenter"",""1"",""7599""
","
",,97,run_exp/static/images/task_images/land.jpg,65,,,,,,,63,,,6,,,,,,,,173727,1,2,FALSE,,,
dig,148,513860,0.0-47.0-0.0,"""event"",""trial"",""time""
""fullscreenenter"",""1"",""7599""
","
","
","""event"",""trial"",""time""
""fullscreenenter"",""1"",""7599""
","
",,,,,,,,,,,,"[{""stimulus"":""run_exp/static/images/task_images/dig.jpg"",""time"":0.10000002384185791},{""stimulus"":""run_exp/static/images/task_images/land.jpg"",""time"":973.3999999761581},{""stimulus"":""run_exp/static/images/task_images/dig.jpg"",""time"":1938.5}]",[],6,,,,,,,,,,,,,,
harvest,149,514872,0.0-47.0-1.0,"""event"",""trial"",""time""
""fullscreenenter"",""1"",""7599""
","
","
","""event"",""trial"",""time""
""fullscreenenter"",""1"",""7599""
","
",,null,run_exp/static/images/task_images/gems/63.jpg,null,,,,,,,52,,,6,,,,,63,0.829459215,0.825396825,,,,,,,
decision,150,514931,0.0-47.0-2.0,"""event"",""trial"",""time""
""fullscreenenter"",""1"",""7599""
","
","
","""event"",""trial"",""time""
""fullscreenenter"",""1"",""7599""
","
",,58.19999999,run_exp/static/images/task_images/land.jpg,65,,,,,,,52,,,6,,,,,,,,177706,1,3,FALSE,,,
dig,151,517874,0.0-48.0-0.0,"""event"",""trial"",""time""
""fullscreenenter"",""1"",""7599""
","
","
","""event"",""trial"",""time""
""fullscreenenter"",""1"",""7599""
","
",,,,,,,,,,,,"[{""stimulus"":""run_exp/static/images/task_images/dig.jpg"",""time"":0.19999998807907104},{""stimulus"":""run_exp/static/images/task_images/land.jpg"",""time"":988},{""stimulus"":""run_exp/static/images/task_images/dig.jpg"",""time"":1964.5999999642372}]",[],6,,,,,,,,,,,,,,
harvest,152,518877,0.0-48.0-1.0,"""event"",""trial"",""time""
""fullscreenenter"",""1"",""7599""
","
","
","""event"",""trial"",""time""
""fullscreenenter"",""1"",""7599""
","
",,null,run_exp/static/images/task_images/gems/52.jpg,null,,,,,,,41,,,6,,,,,52,0.780827072,0.788461538,,,,,,,
decision,153,519026,0.0-48.0-2.0,"""event"",""trial"",""time""
""fullscreenenter"",""1"",""7599""
","
","
","""event"",""trial"",""time""
""fullscreenenter"",""1"",""7599""
","
",,148.5,run_exp/static/images/task_images/land.jpg,65,,,,,,,41,,,6,,,,,,,,181802,1,4,FALSE,,,
dig,154,521879,0.0-49.0-0.0,"""event"",""trial"",""time""
""fullscreenenter"",""1"",""7599""
","
","
","""event"",""trial"",""time""
""fullscreenenter"",""1"",""7599""
","
",,,,,,,,,,,,"[{""stimulus"":""run_exp/static/images/task_images/dig.jpg"",""time"":0.09999996423721313},{""stimulus"":""run_exp/static/images/task_images/land.jpg"",""time"":963.3999999761581},{""stimulus"":""run_exp/static/images/task_images/dig.jpg"",""time"":1907.0999999642372}]",[],6,,,,,,,,,,,,,,
harvest,155,522893,0.0-49.0-1.0,"""event"",""trial"",""time""
""fullscreenenter"",""1"",""7599""
","
","
","""event"",""trial"",""time""
""fullscreenenter"",""1"",""7599""
","
",,null,run_exp/static/images/task_images/gems/41.jpg,null,,,,,,,34,,,6,,,,,41,0.821491539,0.829268293,,,,,,,
decision,156,522942,0.0-49.0-2.0,"""event"",""trial"",""time""
""fullscreenenter"",""1"",""7599""
","
","
","""event"",""trial"",""time""
""fullscreenenter"",""1"",""7599""
","
",,48.09999996,run_exp/static/images/task_images/land.jpg,65,,,,,,,34,,,6,,,,,,,,185717,1,5,FALSE,,,
dig,157,525895,0.0-50.0-0.0,"""event"",""trial"",""time""
""fullscreenenter"",""1"",""7599""
","
","
","""event"",""trial"",""time""
""fullscreenenter"",""1"",""7599""
","
",,,,,,,,,,,,"[{""stimulus"":""run_exp/static/images/task_images/dig.jpg"",""time"":0.19999998807907104},{""stimulus"":""run_exp/static/images/task_images/land.jpg"",""time"":994.1000000238419},{""stimulus"":""run_exp/static/images/task_images/dig.jpg"",""time"":1969.8999999761581}]",[],6,,,,,,,,,,,,,,
harvest,158,526901,0.0-50.0-1.0,"""event"",""trial"",""time""
""fullscreenenter"",""1"",""7599""
","
","
","""event"",""trial"",""time""
""fullscreenenter"",""1"",""7599""
","
",,null,run_exp/static/images/task_images/gems/34.jpg,null,,,,,,,28,,,6,,,,,34,0.810039817,0.823529412,,,,,,,
decision,159,526973,0.0-50.0-2.0,"""event"",""trial"",""time""
""fullscreenenter"",""1"",""7599""
","
","
","""event"",""trial"",""time""
""fullscreenenter"",""1"",""7599""
","
",,70.30000001,run_exp/static/images/task_images/land.jpg,65,,,,,,,28,,,6,,,,,,,,189748,1,6,FALSE,,,
dig,160,529911,0.0-51.0-0.0,"""event"",""trial"",""time""
""fullscreenenter"",""1"",""7599""
","
","
","""event"",""trial"",""time""
""fullscreenenter"",""1"",""7599""
","
",,,,,,,,,,,,"[{""stimulus"":""run_exp/static/images/task_images/dig.jpg"",""time"":0.10000002384185791},{""stimulus"":""run_exp/static/images/task_images/land.jpg"",""time"":990.3000000119209},{""stimulus"":""run_exp/static/images/task_images/dig.jpg"",""time"":1966.300000011921}]",[],6,,,,,,,,,,,,,,
harvest,161,530912,0.0-51.0-1.0,"""event"",""trial"",""time""
""fullscreenenter"",""1"",""7599""
","
","
","""event"",""trial"",""time""
""fullscreenenter"",""1"",""7599""
","
",,null,run_exp/static/images/task_images/gems/28.jpg,null,,,,,,,23,,,6,,,,,28,0.816601316,0.821428571,,,,,,,
decision,162,530977,0.0-51.0-2.0,"""event"",""trial"",""time""
""fullscreenenter"",""1"",""7599""
","
","
","""event"",""trial"",""time""
""fullscreenenter"",""1"",""7599""
","
",,63.89999998,run_exp/static/images/task_images/land.jpg,65,,,,,,,23,,,6,,,,,,,,193753,1,7,FALSE,,,
dig,163,533928,0.0-52.0-0.0,"""event"",""trial"",""time""
""fullscreenenter"",""1"",""7599""
","
","
","""event"",""trial"",""time""
""fullscreenenter"",""1"",""7599""
","
",,,,,,,,,,,,"[{""stimulus"":""run_exp/static/images/task_images/dig.jpg"",""time"":0.10000002384185791},{""stimulus"":""run_exp/static/images/task_images/land.jpg"",""time"":994.8000000119209},{""stimulus"":""run_exp/static/images/task_images/dig.jpg"",""time"":1961.199999988079}]",[],6,,,,,,,,,,,,,,
harvest,164,534943,0.0-52.0-1.0,"""event"",""trial"",""time""
""fullscreenenter"",""1"",""7599""
","
","
","""event"",""trial"",""time""
""fullscreenenter"",""1"",""7599""
","
",,null,run_exp/static/images/task_images/gems/23.jpg,null,,,,,,,16,,,6,,,,,23,0.714652477,0.695652174,,,,,,,
decision,165,535105,0.0-52.0-2.0,"""event"",""trial"",""time""
""fullscreenenter"",""1"",""7599""
","
","
","""event"",""trial"",""time""
""fullscreenenter"",""1"",""7599""
","
",,160.6,run_exp/static/images/task_images/land.jpg,65,,,,,,,16,,,6,,,,,,,,197880,1,8,FALSE,,,
dig,166,537954,0.0-53.0-0.0,"""event"",""trial"",""time""
""fullscreenenter"",""1"",""7599""
","
","
","""event"",""trial"",""time""
""fullscreenenter"",""1"",""7599""
","
",,,,,,,,,,,,"[{""stimulus"":""run_exp/static/images/task_images/dig.jpg"",""time"":0.09999996423721313},{""stimulus"":""run_exp/static/images/task_images/land.jpg"",""time"":962},{""stimulus"":""run_exp/static/images/task_images/dig.jpg"",""time"":1908.5999999642372}]",[],6,,,,,,,,,,,,,,
harvest,167,538958,0.0-53.0-1.0,"""event"",""trial"",""time""
""fullscreenenter"",""1"",""7599""
","
","
","""event"",""trial"",""time""
""fullscreenenter"",""1"",""7599""
","
",,null,run_exp/static/images/task_images/gems/16.jpg,null,,,,,,,12,,,6,,,,,16,0.771336388,0.75,,,,,,,
decision,168,539069,0.0-53.0-2.0,"""event"",""trial"",""time""
""fullscreenenter"",""1"",""7599""
","
","
","""event"",""trial"",""time""
""fullscreenenter"",""1"",""7599""
","
",,109.3,run_exp/static/images/task_images/land.jpg,65,,,,,,,12,,,6,,,,,,,,201844,1,9,FALSE,,,
dig,169,541970,0.0-54.0-0.0,"""event"",""trial"",""time""
""fullscreenenter"",""1"",""7599""
","
","
","""event"",""trial"",""time""
""fullscreenenter"",""1"",""7599""
","
",,,,,,,,,,,,"[{""stimulus"":""run_exp/static/images/task_images/dig.jpg"",""time"":0.19999998807907104},{""stimulus"":""run_exp/static/images/task_images/land.jpg"",""time"":975.5},{""stimulus"":""run_exp/static/images/task_images/dig.jpg"",""time"":1933.699999988079}]",[],6,,,,,,,,,,,,,,
harvest,170,542984,0.0-54.0-1.0,"""event"",""trial"",""time""
""fullscreenenter"",""1"",""7599""
","
","
","""event"",""trial"",""time""
""fullscreenenter"",""1"",""7599""
","
",,null,run_exp/static/images/task_images/gems/12.jpg,null,,,,,,,8,,,6,,,,,12,0.702140338,0.666666667,,,,,,,
decision,171,543008,0.0-54.0-2.0,"""event"",""trial"",""time""
""fullscreenenter"",""1"",""7599""
","
","
","""event"",""trial"",""time""
""fullscreenenter"",""1"",""7599""
","
",,23.10000002,run_exp/static/images/task_images/land.jpg,65,,,,,,,8,,,6,,,,,,,,205783,1,10,FALSE,,,
dig,172,545989,0.0-55.0-0.0,"""event"",""trial"",""time""
""fullscreenenter"",""1"",""7599""
","
","
","""event"",""trial"",""time""
""fullscreenenter"",""1"",""7599""
","
",,,,,,,,,,,,"[{""stimulus"":""run_exp/static/images/task_images/dig.jpg"",""time"":0.19999998807907104},{""stimulus"":""run_exp/static/images/task_images/land.jpg"",""time"":1004.6000000238419},{""stimulus"":""run_exp/static/images/task_images/dig.jpg"",""time"":1994.800000011921}]",[],6,,,,,,,,,,,,,,
harvest,173,547000,0.0-55.0-1.0,"""event"",""trial"",""time""
""fullscreenenter"",""1"",""7599""
","
","
","""event"",""trial"",""time""
""fullscreenenter"",""1"",""7599""
","
",,null,run_exp/static/images/task_images/gems/8.jpg,null,,,,,,,7,,,6,,,,,8,0.875871853,0.875,,,,,,,
decision,174,547148,0.0-55.0-2.0,"""event"",""trial"",""time""
""fullscreenenter"",""1"",""7599""
","
","
","""event"",""trial"",""time""
""fullscreenenter"",""1"",""7599""
","
",,146.9,run_exp/static/images/task_images/land.jpg,65,,,,,,,7,,,6,,,,,,,,209923,1,11,FALSE,,,
dig,175,550007,0.0-56.0-0.0,"""event"",""trial"",""time""
""fullscreenenter"",""1"",""7599""
","
","
","""event"",""trial"",""time""
""fullscreenenter"",""1"",""7599""
","
",,,,,,,,,,,,"[{""stimulus"":""run_exp/static/images/task_images/dig.jpg"",""time"":0},{""stimulus"":""run_exp/static/images/task_images/land.jpg"",""time"":954.6999999880791},{""stimulus"":""run_exp/static/images/task_images/dig.jpg"",""time"":1914.800000011921}]",[],6,,,,,,,,,,,,,,
harvest,176,551021,0.0-56.0-1.0,"""event"",""trial"",""time""
""fullscreenenter"",""1"",""7599""
","
","
","""event"",""trial"",""time""
""fullscreenenter"",""1"",""7599""
","
",,null,run_exp/static/images/task_images/gems/7.jpg,null,,,,,,,6,,,6,,,,,7,0.830162725,0.857142857,,,,,,,
decision,177,552193,0.0-56.0-2.0,"""event"",""trial"",""time""
""fullscreenenter"",""1"",""7599""
","
","
","""event"",""trial"",""time""
""fullscreenenter"",""1"",""7599""
","
",,1170.6,run_exp/static/images/task_images/land.jpg,65,,,,,,,6,,,6,,,,,,,,214968,1,12,FALSE,,,
dig,178,554024,0.0-57.0-0.0,"""event"",""trial"",""time""
""fullscreenenter"",""1"",""7599""
","
","
","""event"",""trial"",""time""
""fullscreenenter"",""1"",""7599""
","
",,,,,,,,,,,,"[{""stimulus"":""run_exp/static/images/task_images/dig.jpg"",""time"":0.09999996423721313},{""stimulus"":""run_exp/static/images/task_images/land.jpg"",""time"":616.6999999880791},{""stimulus"":""run_exp/static/images/task_images/dig.jpg"",""time"":1223.8999999761581}]",[],6,,,,,,,,,,,,,,
harvest,179,555025,0.0-57.0-1.0,"""event"",""trial"",""time""
""fullscreenenter"",""1"",""7599""
","
","
","""event"",""trial"",""time""
""fullscreenenter"",""1"",""7599""
","
",,null,run_exp/static/images/task_images/gems/6.jpg,null,,,,,,,4,,,6,,,,,6,0.67298142,0.666666667,,,,,,,
decision,180,555137,0.0-57.0-2.0,"""event"",""trial"",""time""
""fullscreenenter"",""1"",""7599""
","
","
","""event"",""trial"",""time""
""fullscreenenter"",""1"",""7599""
","
",,110.3,run_exp/static/images/task_images/land.jpg,65,,,,,,,4,,,6,,,,,,,,217912,1,13,FALSE,,,
dig,181,558034,0.0-58.0-0.0,"""event"",""trial"",""time""
""fullscreenenter"",""1"",""7599""
","
","
","""event"",""trial"",""time""
""fullscreenenter"",""1"",""7599""
","
",,,,,,,,,,,,"[{""stimulus"":""run_exp/static/images/task_images/dig.jpg"",""time"":0},{""stimulus"":""run_exp/static/images/task_images/land.jpg"",""time"":964.9000000357628},{""stimulus"":""run_exp/static/images/task_images/dig.jpg"",""time"":1941.1000000238419}]",[],6,,,,,,,,,,,,,,
harvest,182,559047,0.0-58.0-1.0,"""event"",""trial"",""time""
""fullscreenenter"",""1"",""7599""
","
","
","""event"",""trial"",""time""
""fullscreenenter"",""1"",""7599""
","
",,null,run_exp/static/images/task_images/gems/4.jpg,null,,,,,,,3,,,6,,,,,4,0.794111367,0.75,,,,,,,
decision,183,559227,0.0-58.0-2.0,"""event"",""trial"",""time""
""fullscreenenter"",""1"",""7599""
","
","
","""event"",""trial"",""time""
""fullscreenenter"",""1"",""7599""
","
",,178.8,run_exp/static/images/task_images/land.jpg,76,,,,,,,3,,,6,,,,,,,,222002,1,14,TRUE,,,
travel,184,569053,0.0-59.0-0.0,"""event"",""trial"",""time""
""fullscreenenter"",""1"",""7599""
","
","
","""event"",""trial"",""time""
""fullscreenenter"",""1"",""7599""
","
",,,,,,,,,,,,"[{""stimulus"":""run_exp/static/images/task_images/rocket-01.jpg"",""time"":0},{""stimulus"":""run_exp/static/images/task_images/rocket-02.jpg"",""time"":1093.4000000357628},{""stimulus"":""run_exp/static/images/task_images/rocket-03.jpg"",""time"":2186.600000023842},{""stimulus"":""run_exp/static/images/task_images/rocket-04.jpg"",""time"":3285.100000023842},{""stimulus"":""run_exp/static/images/task_images/rocket-05.jpg"",""time"":4370.700000047684},{""stimulus"":""run_exp/static/images/task_images/rocket-06.jpg"",""time"":5465.100000023842},{""stimulus"":""run_exp/static/images/task_images/rocket-07.jpg"",""time"":6550.5},{""stimulus"":""run_exp/static/images/task_images/rocket-08.jpg"",""time"":7653.300000011921},{""stimulus"":""run_exp/static/images/task_images/rocket-09.jpg"",""time"":8736}]",[],6,,,,,,,,,,,,,,
alien_welcome,185,574062,0.0-59.0-1.0,"""event"",""trial"",""time""
""fullscreenenter"",""1"",""7599""
","
","
","""event"",""trial"",""time""
""fullscreenenter"",""1"",""7599""
","
",,null,run_exp/static/images/task_images/aliens/old_aliens/planet/alien_planet-40.jpg,null,,,,,,,,,,,,,40,"1,63,24,8,42,31,40,52,39,12,68,79,20,45,53,3,58,54,17,76,60,66,11,41,48,34,14,4,23,33",,,,,,,,,,
land,186,574574,0.0-59.0-2.0,"""event"",""trial"",""time""
""fullscreenenter"",""1"",""7599""
","
","
","""event"",""trial"",""time""
""fullscreenenter"",""1"",""7599""
","
",,null,run_exp/static/images/task_images/land.jpg,null,,,,,,,111,,,7,,,,,,,,,,,,,,
dig,187,576584,0.0-59.0-3.0,"""event"",""trial"",""time""
""fullscreenenter"",""1"",""7599""
","
","
","""event"",""trial"",""time""
""fullscreenenter"",""1"",""7599""
","
",,,,,,,,,,,,"[{""stimulus"":""run_exp/static/images/task_images/dig.jpg"",""time"":0.19999998807907104},{""stimulus"":""run_exp/static/images/task_images/land.jpg"",""time"":670.8999999761581},{""stimulus"":""run_exp/static/images/task_images/dig.jpg"",""time"":1350.3999999761581}]",[],7,,,,,,,,,,,,,,
harvest,188,577598,0.0-59.0-4.0,"""event"",""trial"",""time""
""fullscreenenter"",""1"",""7599""
","
","
","""event"",""trial"",""time""
""fullscreenenter"",""1"",""7599""
","
",,null,run_exp/static/images/task_images/gems/111.jpg,null,,,,,,,96,,,7,,,,,111,0.862972818,0.864864865,,,,,,,
decision,189,577602,0.0-59.0-5.0,"""event"",""trial"",""time""
""fullscreenenter"",""1"",""7599""
","
","
","""event"",""trial"",""time""
""fullscreenenter"",""1"",""7599""
","
",,2.599999964,run_exp/static/images/task_images/land.jpg,65,,,,,,,96,,,7,,,,,,,,240377,1,0,FALSE,,,
dig,190,580606,0.0-60.0-0.0,"""event"",""trial"",""time""
""fullscreenenter"",""1"",""7599""
","
","
","""event"",""trial"",""time""
""fullscreenenter"",""1"",""7599""
","
",,,,,,,,,,,,"[{""stimulus"":""run_exp/static/images/task_images/dig.jpg"",""time"":0},{""stimulus"":""run_exp/static/images/task_images/land.jpg"",""time"":1002.1999999880791},{""stimulus"":""run_exp/static/images/task_images/dig.jpg"",""time"":2010.3999999761581}]",[],7,,,,,,,,,,,,,,
harvest,191,581615,0.0-60.0-1.0,"""event"",""trial"",""time""
""fullscreenenter"",""1"",""7599""
","
","
","""event"",""trial"",""time""
""fullscreenenter"",""1"",""7599""
","
",,null,run_exp/static/images/task_images/gems/96.jpg,null,,,,,,,73,,,7,,,,,96,0.755411437,0.760416667,,,,,,,
decision,192,581812,0.0-60.0-2.0,"""event"",""trial"",""time""
""fullscreenenter"",""1"",""7599""
","
","
","""event"",""trial"",""time""
""fullscreenenter"",""1"",""7599""
","
",,195.6,run_exp/static/images/task_images/land.jpg,65,,,,,,,73,,,7,,,,,,,,244587,1,1,FALSE,,,
dig,193,584622,0.0-61.0-0.0,"""event"",""trial"",""time""
""fullscreenenter"",""1"",""7599""
","
","
","""event"",""trial"",""time""
""fullscreenenter"",""1"",""7599""
","
",,,,,,,,,,,,"[{""stimulus"":""run_exp/static/images/task_images/dig.jpg"",""time"":0.10000002384185791},{""stimulus"":""run_exp/static/images/task_images/land.jpg"",""time"":947},{""stimulus"":""run_exp/static/images/task_images/dig.jpg"",""time"":1870.6000000238419}]",[],7,,,,,,,,,,,,,,
harvest,194,585630,0.0-61.0-1.0,"""event"",""trial"",""time""
""fullscreenenter"",""1"",""7599""
","
","
","""event"",""trial"",""time""
""fullscreenenter"",""1"",""7599""
","
",,null,run_exp/static/images/task_images/gems/73.jpg,null,,,,,,,47,,,7,,,,,73,0.63813157,0.643835616,,,,,,,
decision,195,585790,0.0-61.0-2.0,"""event"",""trial"",""time""
""fullscreenenter"",""1"",""7599""
","
","
","""event"",""trial"",""time""
""fullscreenenter"",""1"",""7599""
","
",,159.1,run_exp/static/images/task_images/land.jpg,65,,,,,,,47,,,7,,,,,,,,248566,1,2,FALSE,,,
dig,196,588638,0.0-62.0-0.0,"""event"",""trial"",""time""
""fullscreenenter"",""1"",""7599""
","
","
","""event"",""trial"",""time""
""fullscreenenter"",""1"",""7599""
","
",,,,,,,,,,,,"[{""stimulus"":""run_exp/static/images/task_images/dig.jpg"",""time"":0.20000004768371582},{""stimulus"":""run_exp/static/images/task_images/land.jpg"",""time"":950.3000000119209},{""stimulus"":""run_exp/static/images/task_images/dig.jpg"",""time"":1906.800000011921}]",[],7,,,,,,,,,,,,,,
harvest,197,589652,0.0-62.0-1.0,"""event"",""trial"",""time""
""fullscreenenter"",""1"",""7599""
","
","
","""event"",""trial"",""time""
""fullscreenenter"",""1"",""7599""
","
",,null,run_exp/static/images/task_images/gems/47.jpg,null,,,,,,,39,,,7,,,,,47,0.840104916,0.829787234,,,,,,,
decision,198,589856,0.0-62.0-2.0,"""event"",""trial"",""time""
""fullscreenenter"",""1"",""7599""
","
","
","""event"",""trial"",""time""
""fullscreenenter"",""1"",""7599""
","
",,203.1,run_exp/static/images/task_images/land.jpg,65,,,,,,,39,,,7,,,,,,,,252631,1,3,FALSE,,,
dig,199,592659,0.0-63.0-0.0,"""event"",""trial"",""time""
""fullscreenenter"",""1"",""7599""
","
","
","""event"",""trial"",""time""
""fullscreenenter"",""1"",""7599""
","
",,,,,,,,,,,,"[{""stimulus"":""run_exp/static/images/task_images/dig.jpg"",""time"":0.10000002384185791},{""stimulus"":""run_exp/static/images/task_images/land.jpg"",""time"":934.1999999880791},{""stimulus"":""run_exp/static/images/task_images/dig.jpg"",""time"":1878.9000000357628}]",[],7,,,,,,,,,,,,,,
harvest,200,593667,0.0-63.0-1.0,"""event"",""trial"",""time""
""fullscreenenter"",""1"",""7599""
","
","
","""event"",""trial"",""time""
""fullscreenenter"",""1"",""7599""
","
",,null,run_exp/static/images/task_images/gems/39.jpg,null,,,,,,,30,,,7,,,,,39,0.760786511,0.769230769,,,,,,,
decision,201,594006,0.0-63.0-2.0,"""event"",""trial"",""time""
""fullscreenenter"",""1"",""7599""
","
","
","""event"",""trial"",""time""
""fullscreenenter"",""1"",""7599""
","
",,338,run_exp/static/images/task_images/land.jpg,65,,,,,,,30,,,7,,,,,,,,256782,1,4,FALSE,,,
dig,202,596670,0.0-64.0-0.0,"""event"",""trial"",""time""
""fullscreenenter"",""1"",""7599""
","
","
","""event"",""trial"",""time""
""fullscreenenter"",""1"",""7599""
","
",,,,,,,,,,,,"[{""stimulus"":""run_exp/static/images/task_images/dig.jpg"",""time"":0},{""stimulus"":""run_exp/static/images/task_images/land.jpg"",""time"":888.8000000119209},{""stimulus"":""run_exp/static/images/task_images/dig.jpg"",""time"":1786.699999988079}]",[],7,,,,,,,,,,,,,,
harvest,203,597677,0.0-64.0-1.0,"""event"",""trial"",""time""
""fullscreenenter"",""1"",""7599""
","
","
","""event"",""trial"",""time""
""fullscreenenter"",""1"",""7599""
","
",,null,run_exp/static/images/task_images/gems/30.jpg,null,,,,,,,25,,,7,,,,,30,0.837655185,0.833333333,,,,,,,
decision,204,597825,0.0-64.0-2.0,"""event"",""trial"",""time""
""fullscreenenter"",""1"",""7599""
","
","
","""event"",""trial"",""time""
""fullscreenenter"",""1"",""7599""
","
",,146.3,run_exp/static/images/task_images/land.jpg,65,,,,,,,25,,,7,,,,,,,,260600,1,5,FALSE,,,
dig,205,600686,0.0-65.0-0.0,"""event"",""trial"",""time""
""fullscreenenter"",""1"",""7599""
","
","
","""event"",""trial"",""time""
""fullscreenenter"",""1"",""7599""
","
",,,,,,,,,,,,"[{""stimulus"":""run_exp/static/images/task_images/dig.jpg"",""time"":0.10000002384185791},{""stimulus"":""run_exp/static/images/task_images/land.jpg"",""time"":958.8000000119209},{""stimulus"":""run_exp/static/images/task_images/dig.jpg"",""time"":1904.9000000357628}]",[],7,,,,,,,,,,,,,,
harvest,206,601702,0.0-65.0-1.0,"""event"",""trial"",""time""
""fullscreenenter"",""1"",""7599""
","
","
","""event"",""trial"",""time""
""fullscreenenter"",""1"",""7599""
","
",,null,run_exp/static/images/task_images/gems/25.jpg,null,,,,,,,20,,,7,,,,,25,0.783967863,0.8,,,,,,,
decision,207,601848,0.0-65.0-2.0,"""event"",""trial"",""time""
""fullscreenenter"",""1"",""7599""
","
","
","""event"",""trial"",""time""
""fullscreenenter"",""1"",""7599""
","
",,144.3,run_exp/static/images/task_images/land.jpg,65,,,,,,,20,,,7,,,,,,,,264623,1,6,FALSE,,,
dig,208,604719,0.0-66.0-0.0,"""event"",""trial"",""time""
""fullscreenenter"",""1"",""7599""
","
","
","""event"",""trial"",""time""
""fullscreenenter"",""1"",""7599""
","
",,,,,,,,,,,,"[{""stimulus"":""run_exp/static/images/task_images/dig.jpg"",""time"":0.10000002384185791},{""stimulus"":""run_exp/static/images/task_images/land.jpg"",""time"":961.2000000476837},{""stimulus"":""run_exp/static/images/task_images/dig.jpg"",""time"":1914.5}]",[],7,,,,,,,,,,,,,,
harvest,209,605726,0.0-66.0-1.0,"""event"",""trial"",""time""
""fullscreenenter"",""1"",""7599""
","
","
","""event"",""trial"",""time""
""fullscreenenter"",""1"",""7599""
","
",,null,run_exp/static/images/task_images/gems/20.jpg,null,,,,,,,16,,,7,,,,,20,0.79137763,0.8,,,,,,,
decision,210,606191,0.0-66.0-2.0,"""event"",""trial"",""time""
""fullscreenenter"",""1"",""7599""
","
","
","""event"",""trial"",""time""
""fullscreenenter"",""1"",""7599""
","
",,463.6,run_exp/static/images/task_images/land.jpg,65,,,,,,,16,,,7,,,,,,,,268966,1,7,FALSE,,,
dig,211,608740,0.0-67.0-0.0,"""event"",""trial"",""time""
""fullscreenenter"",""1"",""7599""
","
","
","""event"",""trial"",""time""
""fullscreenenter"",""1"",""7599""
","
",,,,,,,,,,,,"[{""stimulus"":""run_exp/static/images/task_images/dig.jpg"",""time"":0.09999996423721313},{""stimulus"":""run_exp/static/images/task_images/land.jpg"",""time"":857.7999999523163},{""stimulus"":""run_exp/static/images/task_images/dig.jpg"",""time"":1705}]",[],7,,,,,,,,,,,,,,
harvest,212,609753,0.0-67.0-1.0,"""event"",""trial"",""time""
""fullscreenenter"",""1"",""7599""
","
","
","""event"",""trial"",""time""
""fullscreenenter"",""1"",""7599""
","
",,null,run_exp/static/images/task_images/gems/16.jpg,null,,,,,,,13,,,7,,,,,16,0.802517641,0.8125,,,,,,,
decision,213,609825,0.0-67.0-2.0,"""event"",""trial"",""time""
""fullscreenenter"",""1"",""7599""
","
","
","""event"",""trial"",""time""
""fullscreenenter"",""1"",""7599""
","
",,70.19999999,run_exp/static/images/task_images/land.jpg,65,,,,,,,13,,,7,,,,,,,,272600,1,8,FALSE,,,
dig,214,612766,0.0-68.0-0.0,"""event"",""trial"",""time""
""fullscreenenter"",""1"",""7599""
","
","
","""event"",""trial"",""time""
""fullscreenenter"",""1"",""7599""
","
",,,,,,,,,,,,"[{""stimulus"":""run_exp/static/images/task_images/dig.jpg"",""time"":0.20000004768371582},{""stimulus"":""run_exp/static/images/task_images/land.jpg"",""time"":987.3000000119209},{""stimulus"":""run_exp/static/images/task_images/dig.jpg"",""time"":1963.800000011921}]",[],7,,,,,,,,,,,,,,
harvest,215,613780,0.0-68.0-1.0,"""event"",""trial"",""time""
""fullscreenenter"",""1"",""7599""
","
","
","""event"",""trial"",""time""
""fullscreenenter"",""1"",""7599""
","
",,null,run_exp/static/images/task_images/gems/13.jpg,null,,,,,,,11,,,7,,,,,13,0.809378878,0.846153846,,,,,,,
decision,216,613838,0.0-68.0-2.0,"""event"",""trial"",""time""
""fullscreenenter"",""1"",""7599""
","
","
","""event"",""trial"",""time""
""fullscreenenter"",""1"",""7599""
","
",,56.69999999,run_exp/static/images/task_images/land.jpg,65,,,,,,,11,,,7,,,,,,,,276613,1,9,FALSE,,,
dig,217,616788,0.0-69.0-0.0,"""event"",""trial"",""time""
""fullscreenenter"",""1"",""7599""
","
","
","""event"",""trial"",""time""
""fullscreenenter"",""1"",""7599""
","
",,,,,,,,,,,,"[{""stimulus"":""run_exp/static/images/task_images/dig.jpg"",""time"":0.10000002384185791},{""stimulus"":""run_exp/static/images/task_images/land.jpg"",""time"":995.8999999761581},{""stimulus"":""run_exp/static/images/task_images/dig.jpg"",""time"":1967.3999999761581}]",[],7,,,,,,,,,,,,,,
harvest,218,617802,0.0-69.0-1.0,"""event"",""trial"",""time""
""fullscreenenter"",""1"",""7599""
","
","
","""event"",""trial"",""time""
""fullscreenenter"",""1"",""7599""
","
",,null,run_exp/static/images/task_images/gems/11.jpg,null,,,,,,,9,,,7,,,,,11,0.857475923,0.818181818,,,,,,,
decision,219,617803,0.0-69.0-2.0,"""event"",""trial"",""time""
""fullscreenenter"",""1"",""7599""
","
","
","""event"",""trial"",""time""
""fullscreenenter"",""1"",""7599""
","
",,0.599999964,run_exp/static/images/task_images/land.jpg,65,,,,,,,9,,,7,,,,,,,,280578,1,10,FALSE,,,
dig,220,620804,0.0-70.0-0.0,"""event"",""trial"",""time""
""fullscreenenter"",""1"",""7599""
","
","
","""event"",""trial"",""time""
""fullscreenenter"",""1"",""7599""
","
",,,,,,,,,,,,"[{""stimulus"":""run_exp/static/images/task_images/dig.jpg"",""time"":0.09999996423721313},{""stimulus"":""run_exp/static/images/task_images/land.jpg"",""time"":1009.5},{""stimulus"":""run_exp/static/images/task_images/dig.jpg"",""time"":2001.699999988079}]",[],7,,,,,,,,,,,,,,
harvest,221,621818,0.0-70.0-1.0,"""event"",""trial"",""time""
""fullscreenenter"",""1"",""7599""
","
","
","""event"",""trial"",""time""
""fullscreenenter"",""1"",""7599""
","
",,null,run_exp/static/images/task_images/gems/9.jpg,null,,,,,,,7,,,7,,,,,9,0.780427388,0.777777778,,,,,,,
decision,222,622135,0.0-70.0-2.0,"""event"",""trial"",""time""
""fullscreenenter"",""1"",""7599""
","
","
","""event"",""trial"",""time""
""fullscreenenter"",""1"",""7599""
","
",,315.5,run_exp/static/images/task_images/land.jpg,76,,,,,,,7,,,7,,,,,,,,284910,1,11,TRUE,,,
travel,223,631831,0.0-71.0-0.0,"""event"",""trial"",""time""
""fullscreenenter"",""1"",""7599""
","
","
","""event"",""trial"",""time""
""fullscreenenter"",""1"",""7599""
","
",,,,,,,,,,,,"[{""stimulus"":""run_exp/static/images/task_images/rocket-01.jpg"",""time"":0.09999996423721313},{""stimulus"":""run_exp/static/images/task_images/rocket-02.jpg"",""time"":1081.699999988079},{""stimulus"":""run_exp/static/images/task_images/rocket-03.jpg"",""time"":2164.699999988079},{""stimulus"":""run_exp/static/images/task_images/rocket-04.jpg"",""time"":3237.2999999523163},{""stimulus"":""run_exp/static/images/task_images/rocket-05.jpg"",""time"":4314.399999976158},{""stimulus"":""run_exp/static/images/task_images/rocket-06.jpg"",""time"":5391.699999988079},{""stimulus"":""run_exp/static/images/task_images/rocket-07.jpg"",""time"":6469.5},{""stimulus"":""run_exp/static/images/task_images/rocket-08.jpg"",""time"":7536.299999952316},{""stimulus"":""run_exp/static/images/task_images/rocket-09.jpg"",""time"":8617.399999976158}]",[],7,,,,,,,,,,,,,,
alien_welcome,224,636837,0.0-71.0-1.0,"""event"",""trial"",""time""
""fullscreenenter"",""1"",""7599""
","
","
","""event"",""trial"",""time""
""fullscreenenter"",""1"",""7599""
","
",,null,run_exp/static/images/task_images/aliens/old_aliens/planet/alien_planet-52.jpg,null,,,,,,,,,,,,,52,"1,63,24,8,42,31,40,52,39,12,68,79,20,45,53,3,58,54,17,76,60,66,11,41,48,34,14,4,23,33",,,,,,,,,,
land,225,637348,0.0-71.0-2.0,"""event"",""trial"",""time""
""fullscreenenter"",""1"",""7599""
","
","
","""event"",""trial"",""time""
""fullscreenenter"",""1"",""7599""
","
",,null,run_exp/static/images/task_images/land.jpg,null,,,,,,,101,,,8,,,,,,,,,,,,,,
dig,226,639359,0.0-71.0-3.0,"""event"",""trial"",""time""
""fullscreenenter"",""1"",""7599""
","
","
","""event"",""trial"",""time""
""fullscreenenter"",""1"",""7599""
","
",,,,,,,,,,,,"[{""stimulus"":""run_exp/static/images/task_images/dig.jpg"",""time"":0.2999999523162842},{""stimulus"":""run_exp/static/images/task_images/land.jpg"",""time"":681.1999999880791},{""stimulus"":""run_exp/static/images/task_images/dig.jpg"",""time"":1342.8999999761581}]",[],8,,,,,,,,,,,,,,
harvest,227,640367,0.0-71.0-4.0,"""event"",""trial"",""time""
""fullscreenenter"",""1"",""7599""
","
","
","""event"",""trial"",""time""
""fullscreenenter"",""1"",""7599""
","
",,null,run_exp/static/images/task_images/gems/101.jpg,null,,,,,,,89,,,8,,,,,101,0.88053923,0.881188119,,,,,,,
decision,228,640401,0.0-71.0-5.0,"""event"",""trial"",""time""
""fullscreenenter"",""1"",""7599""
","
","
","""event"",""trial"",""time""
""fullscreenenter"",""1"",""7599""
","
",,31.79999995,run_exp/static/images/task_images/land.jpg,65,,,,,,,89,,,8,,,,,,,,303176,1,0,TRUE,,,
end_of_block_continue,229,645831,0.0-72.0-0.0,"""event"",""trial"",""time""
""fullscreenenter"",""1"",""7599""
","
","
","""event"",""trial"",""time""
""fullscreenenter"",""1"",""7599""
","
",,5427.2,run_exp/static/audio/clip_32_block_end.m4a,,,,,,,0,,,,,,,,,,,,,,,,,,
alien_welcome,230,650843,0.0-73.0-0.0,"""event"",""trial"",""time""
""fullscreenenter"",""1"",""7599""
","
","
","""event"",""trial"",""time""
""fullscreenenter"",""1"",""7599""
","
",,null,run_exp/static/images/task_images/aliens/old_aliens/planet/alien_planet-39.jpg,null,,,,,,,,,,,,,39,"1,63,24,8,42,31,40,52,39,12,68,79,20,45,53,3,58,54,17,76,60,66,11,41,48,34,14,4,23,33",,,,,,,,,,
land,231,651354,0.0-73.0-1.0,"""event"",""trial"",""time""
""fullscreenenter"",""1"",""7599""
","
","
","""event"",""trial"",""time""
""fullscreenenter"",""1"",""7599""
","
",,null,run_exp/static/images/task_images/land.jpg,null,,,,,,,99,,,9,,,,,,,,,,,,,,
dig,232,653365,0.0-73.0-2.0,"""event"",""trial"",""time""
""fullscreenenter"",""1"",""7599""
","
","
","""event"",""trial"",""time""
""fullscreenenter"",""1"",""7599""
","
",,,,,,,,,,,,"[{""stimulus"":""run_exp/static/images/task_images/dig.jpg"",""time"":0.30000001192092896},{""stimulus"":""run_exp/static/images/task_images/land.jpg"",""time"":681.8999999761581},{""stimulus"":""run_exp/static/images/task_images/dig.jpg"",""time"":1343.3999999761581}]",[],9,,,,,,,,,,,,,,
harvest,233,654380,0.0-73.0-3.0,"""event"",""trial"",""time""
""fullscreenenter"",""1"",""7599""
","
","
","""event"",""trial"",""time""
""fullscreenenter"",""1"",""7599""
","
",,null,run_exp/static/images/task_images/gems/99.jpg,null,,,,,,,15,,,9,,,,,99,0.146524819,0.151515152,,,,,,,
decision,234,654501,0.0-73.0-4.0,"""event"",""trial"",""time""
""fullscreenenter"",""1"",""7599""
","
","
","""event"",""trial"",""time""
""fullscreenenter"",""1"",""7599""
","
",,120.4,run_exp/static/images/task_images/land.jpg,65,,,,,,,15,,,9,,,,,,,,8670,2,0,FALSE,,,
dig,235,657398,0.0-74.0-0.0,"""event"",""trial"",""time""
""fullscreenenter"",""1"",""7599""
","
","
","""event"",""trial"",""time""
""fullscreenenter"",""1"",""7599""
","
",,,,,,,,,,,,"[{""stimulus"":""run_exp/static/images/task_images/dig.jpg"",""time"":0.09999996423721313},{""stimulus"":""run_exp/static/images/task_images/land.jpg"",""time"":972},{""stimulus"":""run_exp/static/images/task_images/dig.jpg"",""time"":1922.800000011921}]",[],9,,,,,,,,,,,,,,
harvest,236,658416,0.0-74.0-1.0,"""event"",""trial"",""time""
""fullscreenenter"",""1"",""7599""
","
","
","""event"",""trial"",""time""
""fullscreenenter"",""1"",""7599""
","
",,null,run_exp/static/images/task_images/gems/15.jpg,null,,,,,,,3,,,9,,,,,15,0.200665199,0.2,,,,,,,
decision,237,658607,0.0-74.0-2.0,"""event"",""trial"",""time""
""fullscreenenter"",""1"",""7599""
","
","
","""event"",""trial"",""time""
""fullscreenenter"",""1"",""7599""
","
",,190,run_exp/static/images/task_images/land.jpg,65,,,,,,,3,,,9,,,,,,,,12775,2,1,FALSE,,,
dig,238,661419,0.0-75.0-0.0,"""event"",""trial"",""time""
""fullscreenenter"",""1"",""7599""
","
","
","""event"",""trial"",""time""
""fullscreenenter"",""1"",""7599""
","
",,,,,,,,,,,,"[{""stimulus"":""run_exp/static/images/task_images/dig.jpg"",""time"":0.09999996423721313},{""stimulus"":""run_exp/static/images/task_images/land.jpg"",""time"":937.1999999880791},{""stimulus"":""run_exp/static/images/task_images/dig.jpg"",""time"":1886.5999999642372}]",[],9,,,,,,,,,,,,,,
harvest,239,662423,0.0-75.0-1.0,"""event"",""trial"",""time""
""fullscreenenter"",""1"",""7599""
","
","
","""event"",""trial"",""time""
""fullscreenenter"",""1"",""7599""
","
",,null,run_exp/static/images/task_images/gems/3.jpg,null,,,,,,,1,,,9,,,,,3,0.210200351,0.333333333,,,,,,,
decision,240,662800,0.0-75.0-2.0,"""event"",""trial"",""time""
""fullscreenenter"",""1"",""7599""
","
","
","""event"",""trial"",""time""
""fullscreenenter"",""1"",""7599""
","
",,376.2,run_exp/static/images/task_images/land.jpg,76,,,,,,,1,,,9,,,,,,,,16968,2,2,TRUE,,,
travel,241,672439,0.0-76.0-0.0,"""event"",""trial"",""time""
""fullscreenenter"",""1"",""7599""
","
","
","""event"",""trial"",""time""
""fullscreenenter"",""1"",""7599""
","
",,,,,,,,,,,,"[{""stimulus"":""run_exp/static/images/task_images/rocket-01.jpg"",""time"":0.10000002384185791},{""stimulus"":""run_exp/static/images/task_images/rocket-02.jpg"",""time"":1075.2000000476837},{""stimulus"":""run_exp/static/images/task_images/rocket-03.jpg"",""time"":2139.100000023842},{""stimulus"":""run_exp/static/images/task_images/rocket-04.jpg"",""time"":3212.7000000476837},{""stimulus"":""run_exp/static/images/task_images/rocket-05.jpg"",""time"":4279.100000023842},{""stimulus"":""run_exp/static/images/task_images/rocket-06.jpg"",""time"":5361.400000035763},{""stimulus"":""run_exp/static/images/task_images/rocket-07.jpg"",""time"":6419},{""stimulus"":""run_exp/static/images/task_images/rocket-08.jpg"",""time"":7485.300000011921},{""stimulus"":""run_exp/static/images/task_images/rocket-09.jpg"",""time"":8561.5}]",[],9,,,,,,,,,,,,,,
alien_welcome,242,677452,0.0-76.0-1.0,"""event"",""trial"",""time""
""fullscreenenter"",""1"",""7599""
","
","
","""event"",""trial"",""time""
""fullscreenenter"",""1"",""7599""
","
",,null,run_exp/static/images/task_images/aliens/old_aliens/planet/alien_planet-12.jpg,null,,,,,,,,,,,,,12,"1,63,24,8,42,31,40,52,39,12,68,79,20,45,53,3,58,54,17,76,60,66,11,41,48,34,14,4,23,33",,,,,,,,,,
land,243,677963,0.0-76.0-2.0,"""event"",""trial"",""time""
""fullscreenenter"",""1"",""7599""
","
","
","""event"",""trial"",""time""
""fullscreenenter"",""1"",""7599""
","
",,null,run_exp/static/images/task_images/land.jpg,null,,,,,,,103,,,10,,,,,,,,,,,,,,
dig,244,679972,0.0-76.0-3.0,"""event"",""trial"",""time""
""fullscreenenter"",""1"",""7599""
","
","
","""event"",""trial"",""time""
""fullscreenenter"",""1"",""7599""
","
",,,,,,,,,,,,"[{""stimulus"":""run_exp/static/images/task_images/dig.jpg"",""time"":0.30000001192092896},{""stimulus"":""run_exp/static/images/task_images/land.jpg"",""time"":675.5},{""stimulus"":""run_exp/static/images/task_images/dig.jpg"",""time"":1348.4000000357628}]",[],10,,,,,,,,,,,,,,
harvest,245,680977,0.0-76.0-4.0,"""event"",""trial"",""time""
""fullscreenenter"",""1"",""7599""
","
","
","""event"",""trial"",""time""
""fullscreenenter"",""1"",""7599""
","
",,null,run_exp/static/images/task_images/gems/103.jpg,null,,,,,,,27,,,10,,,,,103,0.26311259,0.262135922,,,,,,,
decision,246,681233,0.0-76.0-5.0,"""event"",""trial"",""time""
""fullscreenenter"",""1"",""7599""
","
","
","""event"",""trial"",""time""
""fullscreenenter"",""1"",""7599""
","
",,255.2,run_exp/static/images/task_images/land.jpg,65,,,,,,,27,,,10,,,,,,,,35401,2,0,FALSE,,,
dig,247,683984,0.0-77.0-0.0,"""event"",""trial"",""time""
""fullscreenenter"",""1"",""7599""
","
","
","""event"",""trial"",""time""
""fullscreenenter"",""1"",""7599""
","
",,,,,,,,,,,,"[{""stimulus"":""run_exp/static/images/task_images/dig.jpg"",""time"":0},{""stimulus"":""run_exp/static/images/task_images/land.jpg"",""time"":919.5},{""stimulus"":""run_exp/static/images/task_images/dig.jpg"",""time"":1832.199999988079}]",[],10,,,,,,,,,,,,,,
harvest,248,684993,0.0-77.0-1.0,"""event"",""trial"",""time""
""fullscreenenter"",""1"",""7599""
","
","
","""event"",""trial"",""time""
""fullscreenenter"",""1"",""7599""
","
",,null,run_exp/static/images/task_images/gems/27.jpg,null,,,,,,,3,,,10,,,,,27,0.100447142,0.111111111,,,,,,,
decision,249,685131,0.0-77.0-2.0,"""event"",""trial"",""time""
""fullscreenenter"",""1"",""7599""
","
","
","""event"",""trial"",""time""
""fullscreenenter"",""1"",""7599""
","
",,137,run_exp/static/images/task_images/land.jpg,65,,,,,,,3,,,10,,,,,,,,39299,2,1,FALSE,,,
dig,250,688011,0.0-78.0-0.0,"""event"",""trial"",""time""
""fullscreenenter"",""1"",""7599""
","
","
","""event"",""trial"",""time""
""fullscreenenter"",""1"",""7599""
","
",,,,,,,,,,,,"[{""stimulus"":""run_exp/static/images/task_images/dig.jpg"",""time"":0},{""stimulus"":""run_exp/static/images/task_images/land.jpg"",""time"":965.8000000119209},{""stimulus"":""run_exp/static/images/task_images/dig.jpg"",""time"":1918.5}]",[],10,,,,,,,,,,,,,,
harvest,251,689014,0.0-78.0-1.0,"""event"",""trial"",""time""
""fullscreenenter"",""1"",""7599""
","
","
","""event"",""trial"",""time""
""fullscreenenter"",""1"",""7599""
","
",,null,run_exp/static/images/task_images/gems/3.jpg,null,,,,,,,1,,,10,,,,,3,0.300112433,0.333333333,,,,,,,
decision,252,689089,0.0-78.0-2.0,"""event"",""trial"",""time""
""fullscreenenter"",""1"",""7599""
","
","
","""event"",""trial"",""time""
""fullscreenenter"",""1"",""7599""
","
",,73.89999998,run_exp/static/images/task_images/land.jpg,65,,,,,,,1,,,10,,,,,,,,43257,2,2,FALSE,,,
