trial_type,trial_index,time_elapsed,internal_node_id,interactions,blur_events,focus_events,fullscreenenter_events,fullscreenexit_events,success,rt,stimulus,key_press,prompt,subject_id,participant_id,age,gender,button_pressed,next_reward,animation_sequence,responses,planet,curr_prac_trial,n_prac_rounds,alien,aliens,reward_received,decay_rate_actual,decay_rate_exp,time_in_block,block_num,prt,last_trial_on_planet,button_html,bonus,num_failures
pavlovia,0,2,0.0-0.0,"""event"",""trial"",""time""
""focus"",""0"",""0""
""blur"",""0"",""0""
""focus"",""0"",""0""
""blur"",""0"",""0""
""focus"",""0"",""0""
""blur"",""0"",""0""
""focus"",""0"",""0""
""blur"",""0"",""0""
""focus"",""1"",""11296""
""fullscreenenter"",""1"",""12673""
","""event"",""trial"",""time""
""blur"",""0"",""0""
""blur"",""0"",""0""
""blur"",""0"",""0""
""blur"",""0"",""0""
","""event"",""trial"",""time""
""focus"",""0"",""0""
""focus"",""0"",""0""
""focus"",""0"",""0""
""focus"",""0"",""0""
""focus"",""1"",""11296""
","""event"",""trial"",""time""
""fullscreenenter"",""1"",""12673""
","
",,,,,,,,,,,,,,,,,,,,,,,,,,,,
fullscreen,1,13295,0.0-1.0,"""event"",""trial"",""time""
""focus"",""0"",""0""
""blur"",""0"",""0""
""focus"",""0"",""0""
""blur"",""0"",""0""
""focus"",""0"",""0""
""blur"",""0"",""0""
""focus"",""0"",""0""
""blur"",""0"",""0""
""focus"",""1"",""11296""
""fullscreenenter"",""1"",""12673""
""fullscreenexit"",""2"",""13699""
""blur"",""2"",""16642""
","""event"",""trial"",""time""
""blur"",""0"",""0""
""blur"",""0"",""0""
""blur"",""0"",""0""
""blur"",""0"",""0""
""blur"",""2"",""16642""
","""event"",""trial"",""time""
""focus"",""0"",""0""
""focus"",""0"",""0""
""focus"",""0"",""0""
""focus"",""0"",""0""
""focus"",""1"",""11296""
","""event"",""trial"",""time""
""fullscreenenter"",""1"",""12673""
","""event"",""trial"",""time""
""fullscreenexit"",""2"",""13699""
",TRUE,,,,,,,,,,,,,,,,,,,,,,,,,,,
instruc_welcome,2,23077,0.0-2.0,"""event"",""trial"",""time""
""focus"",""0"",""0""
""blur"",""0"",""0""
""focus"",""0"",""0""
""blur"",""0"",""0""
""focus"",""0"",""0""
""blur"",""0"",""0""
""focus"",""0"",""0""
""blur"",""0"",""0""
""focus"",""1"",""11296""
""fullscreenenter"",""1"",""12673""
""fullscreenexit"",""2"",""13699""
""blur"",""2"",""16642""
","""event"",""trial"",""time""
""blur"",""0"",""0""
""blur"",""0"",""0""
""blur"",""0"",""0""
""blur"",""0"",""0""
""blur"",""2"",""16642""
","""event"",""trial"",""time""
""focus"",""0"",""0""
""focus"",""0"",""0""
""focus"",""0"",""0""
""focus"",""0"",""0""
""focus"",""1"",""11296""
","""event"",""trial"",""time""
""fullscreenenter"",""1"",""12673""
","""event"",""trial"",""time""
""fullscreenexit"",""2"",""13699""
",,null,run_exp/static/audio/clip_1_welcome.m4a,null,"<p>Howdy! In this experiment, you’ll be an explorer traveling through space to collect space treasure.</p><p>Your mission is to collect as much treasure as possible.</p><br><br><p><img src='run_exp/static/images/task_images/opening_img-01.jpg' height='300' width='auto'></p>",12544,2925,23.5,Female,,,,,,,,,,,,,,,,,,,
audio-keyboard-response,3,39688,0.0-3.0,"""event"",""trial"",""time""
""focus"",""0"",""0""
""blur"",""0"",""0""
""focus"",""0"",""0""
""blur"",""0"",""0""
""focus"",""0"",""0""
""blur"",""0"",""0""
""focus"",""0"",""0""
""blur"",""0"",""0""
""focus"",""1"",""11296""
""fullscreenenter"",""1"",""12673""
""fullscreenexit"",""2"",""13699""
""blur"",""2"",""16642""
""focus"",""4"",""85582""
","""event"",""trial"",""time""
""blur"",""0"",""0""
""blur"",""0"",""0""
""blur"",""0"",""0""
""blur"",""0"",""0""
""blur"",""2"",""16642""
","""event"",""trial"",""time""
""focus"",""0"",""0""
""focus"",""0"",""0""
""focus"",""0"",""0""
""focus"",""0"",""0""
""focus"",""1"",""11296""
""focus"",""4"",""85582""
","""event"",""trial"",""time""
""fullscreenenter"",""1"",""12673""
","""event"",""trial"",""time""
""fullscreenexit"",""2"",""13699""
",,null,run_exp/static/audio/clip_2_move.m4a,null,,,,,,,,,,,,,,,,,,,,,,,,
welcome_dec,4,93376,0.0-4.0,"""event"",""trial"",""time""
""focus"",""0"",""0""
""blur"",""0"",""0""
""focus"",""0"",""0""
""blur"",""0"",""0""
""focus"",""0"",""0""
""blur"",""0"",""0""
""focus"",""0"",""0""
""blur"",""0"",""0""
""focus"",""1"",""11296""
""fullscreenenter"",""1"",""12673""
""fullscreenexit"",""2"",""13699""
""blur"",""2"",""16642""
""focus"",""4"",""85582""
","""event"",""trial"",""time""
""blur"",""0"",""0""
""blur"",""0"",""0""
""blur"",""0"",""0""
""blur"",""0"",""0""
""blur"",""2"",""16642""
","""event"",""trial"",""time""
""focus"",""0"",""0""
""focus"",""0"",""0""
""focus"",""0"",""0""
""focus"",""0"",""0""
""focus"",""1"",""11296""
""focus"",""4"",""85582""
","""event"",""trial"",""time""
""fullscreenenter"",""1"",""12673""
","""event"",""trial"",""time""
""fullscreenexit"",""2"",""13699""
",,53687,"<p>Howdy! In this experiment, you’ll be an explorer traveling through space to collect space treasure.</p><p>Your mission is to collect as much treasure as possible.</p><br><br><p><img src='run_exp/static/images/task_images/opening_img-01.jpg' height='300' width='auto'></p>",,,,,,,1,,,,,,,,,,,,,,,,,,
html-keyboard-response,5,94837,0.0-5.0,"""event"",""trial"",""time""
""focus"",""0"",""0""
""blur"",""0"",""0""
""focus"",""0"",""0""
""blur"",""0"",""0""
""focus"",""0"",""0""
""blur"",""0"",""0""
""focus"",""0"",""0""
""blur"",""0"",""0""
""focus"",""1"",""11296""
""fullscreenenter"",""1"",""12673""
""fullscreenexit"",""2"",""13699""
""blur"",""2"",""16642""
""focus"",""4"",""85582""
","""event"",""trial"",""time""
""blur"",""0"",""0""
""blur"",""0"",""0""
""blur"",""0"",""0""
""blur"",""0"",""0""
""blur"",""2"",""16642""
","""event"",""trial"",""time""
""focus"",""0"",""0""
""focus"",""0"",""0""
""focus"",""0"",""0""
""focus"",""0"",""0""
""focus"",""1"",""11296""
""focus"",""4"",""85582""
","""event"",""trial"",""time""
""fullscreenenter"",""1"",""12673""
","""event"",""trial"",""time""
""fullscreenexit"",""2"",""13699""
",,1456,"<p>Howdy! In this experiment, you’ll be an explorer traveling through space to collect space treasure.</p><p>Your mission is to collect as much treasure as possible.</p><br><br><p><img src='run_exp/static/images/task_images/opening_img-01.jpg' height='300' width='auto'></p><button class=""jspsych-html-btn-unchosen""><img src=""run_exp/static/images/task_images/planet-01.jpg"" height=""50""></button><button class=""jspsych-html-btn-chosen""><img src=""run_exp/static/images/task_images/planet-02.jpg"" height=""50""></button><p><b>[press the space bar to lock in your answer]<b><br></p>",32,,,,,,,,,,,,,,,,,,,,,,,,
instruc_goal,6,104964,0.0-6.0-0.0,"""event"",""trial"",""time""
""focus"",""0"",""0""
""blur"",""0"",""0""
""focus"",""0"",""0""
""blur"",""0"",""0""
""focus"",""0"",""0""
""blur"",""0"",""0""
""focus"",""0"",""0""
""blur"",""0"",""0""
""focus"",""1"",""11296""
""fullscreenenter"",""1"",""12673""
""fullscreenexit"",""2"",""13699""
""blur"",""2"",""16642""
""focus"",""4"",""85582""
","""event"",""trial"",""time""
""blur"",""0"",""0""
""blur"",""0"",""0""
""blur"",""0"",""0""
""blur"",""0"",""0""
""blur"",""2"",""16642""
","""event"",""trial"",""time""
""focus"",""0"",""0""
""focus"",""0"",""0""
""focus"",""0"",""0""
""focus"",""0"",""0""
""focus"",""1"",""11296""
""focus"",""4"",""85582""
","""event"",""trial"",""time""
""fullscreenenter"",""1"",""12673""
","""event"",""trial"",""time""
""fullscreenexit"",""2"",""13699""
",,null,run_exp/static/audio/clip_3_goal.m4a,null,"<p> As a space explorer, you’ll visit different planets to dig for space treasure, these pink gems.</p> <p> The more treasure you dig up, the more bonus money you’ll win! </p><br><br><p><img src='run_exp/static/images/task_images/pink_gem.jpg' height='300' width='auto'></p>",,,,,,,,,,,,,,,,,,,,,,,
instruc_goal,7,109162,0.0-6.0-1.0,"""event"",""trial"",""time""
""focus"",""0"",""0""
""blur"",""0"",""0""
""focus"",""0"",""0""
""blur"",""0"",""0""
""focus"",""0"",""0""
""blur"",""0"",""0""
""focus"",""0"",""0""
""blur"",""0"",""0""
""focus"",""1"",""11296""
""fullscreenenter"",""1"",""12673""
""fullscreenexit"",""2"",""13699""
""blur"",""2"",""16642""
""focus"",""4"",""85582""
","""event"",""trial"",""time""
""blur"",""0"",""0""
""blur"",""0"",""0""
""blur"",""0"",""0""
""blur"",""0"",""0""
""blur"",""2"",""16642""
","""event"",""trial"",""time""
""focus"",""0"",""0""
""focus"",""0"",""0""
""focus"",""0"",""0""
""focus"",""0"",""0""
""focus"",""1"",""11296""
""focus"",""4"",""85582""
","""event"",""trial"",""time""
""fullscreenenter"",""1"",""12673""
","""event"",""trial"",""time""
""fullscreenexit"",""2"",""13699""
",,4194,"<p> As a space explorer, you’ll visit different planets to dig for space treasure, these pink gems.</p> <p> The more treasure you dig up, the more bonus money you’ll win! </p><br><br><p><img src='run_exp/static/images/task_images/pink_gem.jpg' height='300' width='auto'></p>",,,,,,,1,,,,,,,,,,,,,,,,,,
html-keyboard-response,8,109628,0.0-6.0-2.0,"""event"",""trial"",""time""
""focus"",""0"",""0""
""blur"",""0"",""0""
""focus"",""0"",""0""
""blur"",""0"",""0""
""focus"",""0"",""0""
""blur"",""0"",""0""
""focus"",""0"",""0""
""blur"",""0"",""0""
""focus"",""1"",""11296""
""fullscreenenter"",""1"",""12673""
""fullscreenexit"",""2"",""13699""
""blur"",""2"",""16642""
""focus"",""4"",""85582""
","""event"",""trial"",""time""
""blur"",""0"",""0""
""blur"",""0"",""0""
""blur"",""0"",""0""
""blur"",""0"",""0""
""blur"",""2"",""16642""
","""event"",""trial"",""time""
""focus"",""0"",""0""
""focus"",""0"",""0""
""focus"",""0"",""0""
""focus"",""0"",""0""
""focus"",""1"",""11296""
""focus"",""4"",""85582""
","""event"",""trial"",""time""
""fullscreenenter"",""1"",""12673""
","""event"",""trial"",""time""
""fullscreenexit"",""2"",""13699""
",,464,"<p> As a space explorer, you’ll visit different planets to dig for space treasure, these pink gems.</p> <p> The more treasure you dig up, the more bonus money you’ll win! </p><br><br><p><img src='run_exp/static/images/task_images/pink_gem.jpg' height='300' width='auto'></p><button class=""jspsych-html-btn-unchosen""><img src=""run_exp/static/images/task_images/planet-01.jpg"" height=""50""></button><button class=""jspsych-html-btn-chosen""><img src=""run_exp/static/images/task_images/planet-02.jpg"" height=""50""></button><p><b>[press the space bar to lock in your answer]<b><br></p>",32,,,,,,,,,,,,,,,,,,,,,,,,
instruc_dig,9,125716,0.0-7.0-0.0,"""event"",""trial"",""time""
""focus"",""0"",""0""
""blur"",""0"",""0""
""focus"",""0"",""0""
""blur"",""0"",""0""
""focus"",""0"",""0""
""blur"",""0"",""0""
""focus"",""0"",""0""
""blur"",""0"",""0""
""focus"",""1"",""11296""
""fullscreenenter"",""1"",""12673""
""fullscreenexit"",""2"",""13699""
""blur"",""2"",""16642""
""focus"",""4"",""85582""
","""event"",""trial"",""time""
""blur"",""0"",""0""
""blur"",""0"",""0""
""blur"",""0"",""0""
""blur"",""0"",""0""
""blur"",""2"",""16642""
","""event"",""trial"",""time""
""focus"",""0"",""0""
""focus"",""0"",""0""
""focus"",""0"",""0""
""focus"",""0"",""0""
""focus"",""1"",""11296""
""focus"",""4"",""85582""
","""event"",""trial"",""time""
""fullscreenenter"",""1"",""12673""
","""event"",""trial"",""time""
""fullscreenexit"",""2"",""13699""
",,null,run_exp/static/audio/clip_4_dig.m4a,null,,,,,,,100,,,,,,,,,,,,,,,,,
instruc_dig_try,10,125836,0.0-7.0-1.0,"""event"",""trial"",""time""
""focus"",""0"",""0""
""blur"",""0"",""0""
""focus"",""0"",""0""
""blur"",""0"",""0""
""focus"",""0"",""0""
""blur"",""0"",""0""
""focus"",""0"",""0""
""blur"",""0"",""0""
""focus"",""1"",""11296""
""fullscreenenter"",""1"",""12673""
""fullscreenexit"",""2"",""13699""
""blur"",""2"",""16642""
""focus"",""4"",""85582""
","""event"",""trial"",""time""
""blur"",""0"",""0""
""blur"",""0"",""0""
""blur"",""0"",""0""
""blur"",""0"",""0""
""blur"",""2"",""16642""
","""event"",""trial"",""time""
""focus"",""0"",""0""
""focus"",""0"",""0""
""focus"",""0"",""0""
""focus"",""0"",""0""
""focus"",""1"",""11296""
""focus"",""4"",""85582""
","""event"",""trial"",""time""
""fullscreenenter"",""1"",""12673""
","""event"",""trial"",""time""
""fullscreenexit"",""2"",""13699""
",,115,"<p> When you’ve arrived at a new planet, you will dig once. </p> <p>Then, you get to decide if you want to stay on the planet and dig again or travel to a new planet and dig there.</p> <p> To stay and dig, press the letter <strong>‘A’</strong> on your keyboard. Try pressing it now! </p><p><img src='run_exp/static/images/task_images/land.jpg'  height='700' width='auto'></p>",65,"<p> When you’ve arrived at a new planet, you will dig once. </p> <p>Then, you get to decide if you want to stay on the planet and dig again or travel to a new planet and dig there.</p> <p> To stay and dig, press the letter <strong>‘A’</strong> on your keyboard. Try pressing it now! </p><p><img src='run_exp/static/images/task_images/land.jpg'  height='700' width='auto'></p>",,,,,,100,,,,,,,,,,,,,,,,,
dig_prac,11,127873,0.0-7.0-2.0,"""event"",""trial"",""time""
""focus"",""0"",""0""
""blur"",""0"",""0""
""focus"",""0"",""0""
""blur"",""0"",""0""
""focus"",""0"",""0""
""blur"",""0"",""0""
""focus"",""0"",""0""
""blur"",""0"",""0""
""focus"",""1"",""11296""
""fullscreenenter"",""1"",""12673""
""fullscreenexit"",""2"",""13699""
""blur"",""2"",""16642""
""focus"",""4"",""85582""
","""event"",""trial"",""time""
""blur"",""0"",""0""
""blur"",""0"",""0""
""blur"",""0"",""0""
""blur"",""0"",""0""
""blur"",""2"",""16642""
","""event"",""trial"",""time""
""focus"",""0"",""0""
""focus"",""0"",""0""
""focus"",""0"",""0""
""focus"",""0"",""0""
""focus"",""1"",""11296""
""focus"",""4"",""85582""
","""event"",""trial"",""time""
""fullscreenenter"",""1"",""12673""
","""event"",""trial"",""time""
""fullscreenexit"",""2"",""13699""
",,,,,,,,,,,,"[{""stimulus"":""run_exp/static/images/task_images/dig.jpg"",""time"":1},{""stimulus"":""run_exp/static/images/task_images/land.jpg"",""time"":672},{""stimulus"":""run_exp/static/images/task_images/dig.jpg"",""time"":1358}]",[],,,,,,,,,,,,,,,
instruc_travel,12,164146,0.0-7.0-3.0,"""event"",""trial"",""time""
""focus"",""0"",""0""
""blur"",""0"",""0""
""focus"",""0"",""0""
""blur"",""0"",""0""
""focus"",""0"",""0""
""blur"",""0"",""0""
""focus"",""0"",""0""
""blur"",""0"",""0""
""focus"",""1"",""11296""
""fullscreenenter"",""1"",""12673""
""fullscreenexit"",""2"",""13699""
""blur"",""2"",""16642""
""focus"",""4"",""85582""
","""event"",""trial"",""time""
""blur"",""0"",""0""
""blur"",""0"",""0""
""blur"",""0"",""0""
""blur"",""0"",""0""
""blur"",""2"",""16642""
","""event"",""trial"",""time""
""focus"",""0"",""0""
""focus"",""0"",""0""
""focus"",""0"",""0""
""focus"",""0"",""0""
""focus"",""1"",""11296""
""focus"",""4"",""85582""
","""event"",""trial"",""time""
""fullscreenenter"",""1"",""12673""
","""event"",""trial"",""time""
""fullscreenexit"",""2"",""13699""
",,null,run_exp/static/audio/clip_5_travel.m4a,null,"<p>Every time you dig up gems, there are less gems on the planet, so the more you dig on a planet the fewer gems you’ll get with each dig.</p><p>When gems are running low, you may want to travel to a new planet. </p> <p>  Planets are very far apart in this galaxy, so it will take some time to travel between them. </p> <br><p>There are lots and lots of planets for you to visit, so you won’t be able to return to any planets you’ve seen before. </p><br><p>To leave this planet and travel to a new one, press the letter <strong>‘L’</strong> on your keyboard. Try pressing it now! </p><p><img src='run_exp/static/images/task_images/rocket-01.jpg'  height='600' width='auto'></p>",,,,,,,,,,,,,,,,,,,,,,,
instruc_travel_try,13,164701,0.0-7.0-4.0,"""event"",""trial"",""time""
""focus"",""0"",""0""
""blur"",""0"",""0""
""focus"",""0"",""0""
""blur"",""0"",""0""
""focus"",""0"",""0""
""blur"",""0"",""0""
""focus"",""0"",""0""
""blur"",""0"",""0""
""focus"",""1"",""11296""
""fullscreenenter"",""1"",""12673""
""fullscreenexit"",""2"",""13699""
""blur"",""2"",""16642""
""focus"",""4"",""85582""
","""event"",""trial"",""time""
""blur"",""0"",""0""
""blur"",""0"",""0""
""blur"",""0"",""0""
""blur"",""0"",""0""
""blur"",""2"",""16642""
","""event"",""trial"",""time""
""focus"",""0"",""0""
""focus"",""0"",""0""
""focus"",""0"",""0""
""focus"",""0"",""0""
""focus"",""1"",""11296""
""focus"",""4"",""85582""
","""event"",""trial"",""time""
""fullscreenenter"",""1"",""12673""
","""event"",""trial"",""time""
""fullscreenexit"",""2"",""13699""
",,539,"<p>Every time you dig up gems, there are less gems on the planet, so the more you dig on a planet the fewer gems you’ll get with each dig.</p><p>When gems are running low, you may want to travel to a new planet. </p> <p>  Planets are very far apart in this galaxy, so it will take some time to travel between them. </p> <br><p>There are lots and lots of planets for you to visit, so you won’t be able to return to any planets you’ve seen before. </p><br><p>To leave this planet and travel to a new one, press the letter <strong>‘L’</strong> on your keyboard. Try pressing it now! </p><p><img src='run_exp/static/images/task_images/rocket-01.jpg'  height='600' width='auto'></p>",76,"<p>Every time you dig up gems, there are less gems on the planet, so the more you dig on a planet the fewer gems you’ll get with each dig.</p><p>When gems are running low, you may want to travel to a new planet. </p> <p>  Planets are very far apart in this galaxy, so it will take some time to travel between them. </p> <br><p>There are lots and lots of planets for you to visit, so you won’t be able to return to any planets you’ve seen before. </p><br><p>To leave this planet and travel to a new one, press the letter <strong>‘L’</strong> on your keyboard. Try pressing it now! </p><p><img src='run_exp/static/images/task_images/rocket-01.jpg'  height='600' width='auto'></p>",,,,,,,,,,,,,,,,,,,,,,,
travel_prac,14,174797,0.0-7.0-5.0,"""event"",""trial"",""time""
""focus"",""0"",""0""
""blur"",""0"",""0""
""focus"",""0"",""0""
""blur"",""0"",""0""
""focus"",""0"",""0""
""blur"",""0"",""0""
""focus"",""0"",""0""
""blur"",""0"",""0""
""focus"",""1"",""11296""
""fullscreenenter"",""1"",""12673""
""fullscreenexit"",""2"",""13699""
""blur"",""2"",""16642""
""focus"",""4"",""85582""
","""event"",""trial"",""time""
""blur"",""0"",""0""
""blur"",""0"",""0""
""blur"",""0"",""0""
""blur"",""0"",""0""
""blur"",""2"",""16642""
","""event"",""trial"",""time""
""focus"",""0"",""0""
""focus"",""0"",""0""
""focus"",""0"",""0""
""focus"",""0"",""0""
""focus"",""1"",""11296""
""focus"",""4"",""85582""
","""event"",""trial"",""time""
""fullscreenenter"",""1"",""12673""
","""event"",""trial"",""time""
""fullscreenexit"",""2"",""13699""
",,,,,,,,,,,,"[{""stimulus"":""run_exp/static/images/task_images/rocket-01.jpg"",""time"":1},{""stimulus"":""run_exp/static/images/task_images/rocket-02.jpg"",""time"":1142},{""stimulus"":""run_exp/static/images/task_images/rocket-03.jpg"",""time"":2257},{""stimulus"":""run_exp/static/images/task_images/rocket-04.jpg"",""time"":3402},{""stimulus"":""run_exp/static/images/task_images/rocket-05.jpg"",""time"":4515},{""stimulus"":""run_exp/static/images/task_images/rocket-06.jpg"",""time"":5632},{""stimulus"":""run_exp/static/images/task_images/rocket-07.jpg"",""time"":6746},{""stimulus"":""run_exp/static/images/task_images/rocket-08.jpg"",""time"":7862},{""stimulus"":""run_exp/static/images/task_images/rocket-09.jpg"",""time"":8975}]",[],0,,,,,,,,,,,,,,
instruc_alien_greet,15,202037,0.0-7.0-6.0,"""event"",""trial"",""time""
""focus"",""0"",""0""
""blur"",""0"",""0""
""focus"",""0"",""0""
""blur"",""0"",""0""
""focus"",""0"",""0""
""blur"",""0"",""0""
""focus"",""0"",""0""
""blur"",""0"",""0""
""focus"",""1"",""11296""
""fullscreenenter"",""1"",""12673""
""fullscreenexit"",""2"",""13699""
""blur"",""2"",""16642""
""focus"",""4"",""85582""
","""event"",""trial"",""time""
""blur"",""0"",""0""
""blur"",""0"",""0""
""blur"",""0"",""0""
""blur"",""0"",""0""
""blur"",""2"",""16642""
","""event"",""trial"",""time""
""focus"",""0"",""0""
""focus"",""0"",""0""
""focus"",""0"",""0""
""focus"",""0"",""0""
""focus"",""1"",""11296""
""focus"",""4"",""85582""
","""event"",""trial"",""time""
""fullscreenenter"",""1"",""12673""
","""event"",""trial"",""time""
""fullscreenexit"",""2"",""13699""
",,null,run_exp/static/audio/clip_6_alien.m4a,null,"<p>When you arrive at a new planet, the alien who owns the treasure mine on that planet will greet you!</p><p>The better an alien takes care of their mine the easier it is to dig for gems. Some aliens take better care of their mine than others. So, you won’t get exactly the same amount of gems on each planet.</p><p>What the alien looks like does not tell you anything about how many gems there are on the planet.</p><br><p><img src=""run_exp/static/images/task_images/aliens/instructions_aliens/planet/alien_planet-1.jpg""  height=""600"" width=""auto""></p>",,,,,,,,,,,,,,,,,,,,,,,
instruc_alien_greet,16,238377,0.0-7.0-7.0,"""event"",""trial"",""time""
""focus"",""0"",""0""
""blur"",""0"",""0""
""focus"",""0"",""0""
""blur"",""0"",""0""
""focus"",""0"",""0""
""blur"",""0"",""0""
""focus"",""0"",""0""
""blur"",""0"",""0""
""focus"",""1"",""11296""
""fullscreenenter"",""1"",""12673""
""fullscreenexit"",""2"",""13699""
""blur"",""2"",""16642""
""focus"",""4"",""85582""
","""event"",""trial"",""time""
""blur"",""0"",""0""
""blur"",""0"",""0""
""blur"",""0"",""0""
""blur"",""0"",""0""
""blur"",""2"",""16642""
","""event"",""trial"",""time""
""focus"",""0"",""0""
""focus"",""0"",""0""
""focus"",""0"",""0""
""focus"",""0"",""0""
""focus"",""1"",""11296""
""focus"",""4"",""85582""
","""event"",""trial"",""time""
""fullscreenenter"",""1"",""12673""
","""event"",""trial"",""time""
""fullscreenexit"",""2"",""13699""
",,36329,"<p>When you arrive at a new planet, the alien who owns the treasure mine on that planet will greet you!</p><p>The better an alien takes care of their mine the easier it is to dig for gems. Some aliens take better care of their mine than others. So, you won’t get exactly the same amount of gems on each planet.</p><p>What the alien looks like does not tell you anything about how many gems there are on the planet.</p><br><p><img src=""run_exp/static/images/task_images/aliens/instructions_aliens/planet/alien_planet-1.jpg""  height=""600"" width=""auto""></p>",,,,,,,1,,,,,,,,,,,,,,,,,,
html-keyboard-response,17,238955,0.0-7.0-8.0,"""event"",""trial"",""time""
""focus"",""0"",""0""
""blur"",""0"",""0""
""focus"",""0"",""0""
""blur"",""0"",""0""
""focus"",""0"",""0""
""blur"",""0"",""0""
""focus"",""0"",""0""
""blur"",""0"",""0""
""focus"",""1"",""11296""
""fullscreenenter"",""1"",""12673""
""fullscreenexit"",""2"",""13699""
""blur"",""2"",""16642""
""focus"",""4"",""85582""
","""event"",""trial"",""time""
""blur"",""0"",""0""
""blur"",""0"",""0""
""blur"",""0"",""0""
""blur"",""0"",""0""
""blur"",""2"",""16642""
","""event"",""trial"",""time""
""focus"",""0"",""0""
""focus"",""0"",""0""
""focus"",""0"",""0""
""focus"",""0"",""0""
""focus"",""1"",""11296""
""focus"",""4"",""85582""
","""event"",""trial"",""time""
""fullscreenenter"",""1"",""12673""
","""event"",""trial"",""time""
""fullscreenexit"",""2"",""13699""
",,574,"<p>When you arrive at a new planet, the alien who owns the treasure mine on that planet will greet you!</p><p>The better an alien takes care of their mine the easier it is to dig for gems. Some aliens take better care of their mine than others. So, you won’t get exactly the same amount of gems on each planet.</p><p>What the alien looks like does not tell you anything about how many gems there are on the planet.</p><br><p><img src=""run_exp/static/images/task_images/aliens/instructions_aliens/planet/alien_planet-1.jpg""  height=""600"" width=""auto""></p><button class=""jspsych-html-btn-unchosen""><img src=""run_exp/static/images/task_images/planet-01.jpg"" height=""50""></button><button class=""jspsych-html-btn-chosen""><img src=""run_exp/static/images/task_images/planet-02.jpg"" height=""50""></button><p><b>[press the space bar to lock in your answer]<b><br></p>",32,,,,,,,,,,,,,,,,,,,,,,,,
time_out,18,250139,0.0-8.0-0.0,"""event"",""trial"",""time""
""focus"",""0"",""0""
""blur"",""0"",""0""
""focus"",""0"",""0""
""blur"",""0"",""0""
""focus"",""0"",""0""
""blur"",""0"",""0""
""focus"",""0"",""0""
""blur"",""0"",""0""
""focus"",""1"",""11296""
""fullscreenenter"",""1"",""12673""
""fullscreenexit"",""2"",""13699""
""blur"",""2"",""16642""
""focus"",""4"",""85582""
","""event"",""trial"",""time""
""blur"",""0"",""0""
""blur"",""0"",""0""
""blur"",""0"",""0""
""blur"",""0"",""0""
""blur"",""2"",""16642""
","""event"",""trial"",""time""
""focus"",""0"",""0""
""focus"",""0"",""0""
""focus"",""0"",""0""
""focus"",""0"",""0""
""focus"",""1"",""11296""
""focus"",""4"",""85582""
","""event"",""trial"",""time""
""fullscreenenter"",""1"",""12673""
","""event"",""trial"",""time""
""fullscreenexit"",""2"",""13699""
",,null,run_exp/static/audio/clip_7_timeout.m4a,null,"<p>If you don't make your choice fast enough, you’ll have to wait a few seconds before you can make another one.</p><p>You can’t dig for more gems or travel to new planets. You just have to sit and wait.</p><br><p><img src='run_exp/static/images/task_images/time_out.jpg'  height='600' width='auto'></p>",,,,,,,,,,,,,,,,,,,,,,,
time_out,19,264592,0.0-8.0-1.0,"""event"",""trial"",""time""
""focus"",""0"",""0""
""blur"",""0"",""0""
""focus"",""0"",""0""
""blur"",""0"",""0""
""focus"",""0"",""0""
""blur"",""0"",""0""
""focus"",""0"",""0""
""blur"",""0"",""0""
""focus"",""1"",""11296""
""fullscreenenter"",""1"",""12673""
""fullscreenexit"",""2"",""13699""
""blur"",""2"",""16642""
""focus"",""4"",""85582""
","""event"",""trial"",""time""
""blur"",""0"",""0""
""blur"",""0"",""0""
""blur"",""0"",""0""
""blur"",""0"",""0""
""blur"",""2"",""16642""
","""event"",""trial"",""time""
""focus"",""0"",""0""
""focus"",""0"",""0""
""focus"",""0"",""0""
""focus"",""0"",""0""
""focus"",""1"",""11296""
""focus"",""4"",""85582""
","""event"",""trial"",""time""
""fullscreenenter"",""1"",""12673""
","""event"",""trial"",""time""
""fullscreenexit"",""2"",""13699""
",,14451,"<p>If you don't make your choice fast enough, you’ll have to wait a few seconds before you can make another one.</p><p>You can’t dig for more gems or travel to new planets. You just have to sit and wait.</p><br><p><img src='run_exp/static/images/task_images/time_out.jpg'  height='600' width='auto'></p>",,,,,,,1,,,,,,,,,,,,,,,,,,
html-keyboard-response,20,264959,0.0-8.0-2.0,"""event"",""trial"",""time""
""focus"",""0"",""0""
""blur"",""0"",""0""
""focus"",""0"",""0""
""blur"",""0"",""0""
""focus"",""0"",""0""
""blur"",""0"",""0""
""focus"",""0"",""0""
""blur"",""0"",""0""
""focus"",""1"",""11296""
""fullscreenenter"",""1"",""12673""
""fullscreenexit"",""2"",""13699""
""blur"",""2"",""16642""
""focus"",""4"",""85582""
""blur"",""21"",""268766""
""focus"",""21"",""269825""
""blur"",""21"",""279780""
","""event"",""trial"",""time""
""blur"",""0"",""0""
""blur"",""0"",""0""
""blur"",""0"",""0""
""blur"",""0"",""0""
""blur"",""2"",""16642""
""blur"",""21"",""268766""
""blur"",""21"",""279780""
","""event"",""trial"",""time""
""focus"",""0"",""0""
""focus"",""0"",""0""
""focus"",""0"",""0""
""focus"",""0"",""0""
""focus"",""1"",""11296""
""focus"",""4"",""85582""
""focus"",""21"",""269825""
","""event"",""trial"",""time""
""fullscreenenter"",""1"",""12673""
","""event"",""trial"",""time""
""fullscreenexit"",""2"",""13699""
",,364,"<p>If you don't make your choice fast enough, you’ll have to wait a few seconds before you can make another one.</p><p>You can’t dig for more gems or travel to new planets. You just have to sit and wait.</p><br><p><img src='run_exp/static/images/task_images/time_out.jpg'  height='600' width='auto'></p><button class=""jspsych-html-btn-unchosen""><img src=""run_exp/static/images/task_images/planet-01.jpg"" height=""50""></button><button class=""jspsych-html-btn-chosen""><img src=""run_exp/static/images/task_images/planet-02.jpg"" height=""50""></button><p><b>[press the space bar to lock in your answer]<b><br></p>",32,,,,,,,,,,,,,,,,,,,,,,,,
instruc_break,21,280709,0.0-9.0-0.0,"""event"",""trial"",""time""
""focus"",""0"",""0""
""blur"",""0"",""0""
""focus"",""0"",""0""
""blur"",""0"",""0""
""focus"",""0"",""0""
""blur"",""0"",""0""
""focus"",""0"",""0""
""blur"",""0"",""0""
""focus"",""1"",""11296""
""fullscreenenter"",""1"",""12673""
""fullscreenexit"",""2"",""13699""
""blur"",""2"",""16642""
""focus"",""4"",""85582""
""blur"",""21"",""268766""
""focus"",""21"",""269825""
""blur"",""21"",""279780""
""focus"",""22"",""282242""
","""event"",""trial"",""time""
""blur"",""0"",""0""
""blur"",""0"",""0""
""blur"",""0"",""0""
""blur"",""0"",""0""
""blur"",""2"",""16642""
""blur"",""21"",""268766""
""blur"",""21"",""279780""
","""event"",""trial"",""time""
""focus"",""0"",""0""
""focus"",""0"",""0""
""focus"",""0"",""0""
""focus"",""0"",""0""
""focus"",""1"",""11296""
""focus"",""4"",""85582""
""focus"",""21"",""269825""
""focus"",""22"",""282242""
","""event"",""trial"",""time""
""fullscreenenter"",""1"",""12673""
","""event"",""trial"",""time""
""fullscreenexit"",""2"",""13699""
",,null,run_exp/static/audio/clip_8_break.m4a,null,"<p> After digging and traveling for a while, you’ll be able to take a break at home base. </p><p>The game will last 20 minutes no matter what.</p><p>You will visit home base every 5 minutes, so, you will visit home base three times during the game.</p><br><p><img src='run_exp/static/images/task_images/home_base.jpg' height='600' width='auto'></p>",,,,,,,,,,,,,,,,,,,,,,,
instruc_break,22,283692,0.0-9.0-1.0,"""event"",""trial"",""time""
""focus"",""0"",""0""
""blur"",""0"",""0""
""focus"",""0"",""0""
""blur"",""0"",""0""
""focus"",""0"",""0""
""blur"",""0"",""0""
""focus"",""0"",""0""
""blur"",""0"",""0""
""focus"",""1"",""11296""
""fullscreenenter"",""1"",""12673""
""fullscreenexit"",""2"",""13699""
""blur"",""2"",""16642""
""focus"",""4"",""85582""
""blur"",""21"",""268766""
""focus"",""21"",""269825""
""blur"",""21"",""279780""
""focus"",""22"",""282242""
","""event"",""trial"",""time""
""blur"",""0"",""0""
""blur"",""0"",""0""
""blur"",""0"",""0""
""blur"",""0"",""0""
""blur"",""2"",""16642""
""blur"",""21"",""268766""
""blur"",""21"",""279780""
","""event"",""trial"",""time""
""focus"",""0"",""0""
""focus"",""0"",""0""
""focus"",""0"",""0""
""focus"",""0"",""0""
""focus"",""1"",""11296""
""focus"",""4"",""85582""
""focus"",""21"",""269825""
""focus"",""22"",""282242""
","""event"",""trial"",""time""
""fullscreenenter"",""1"",""12673""
","""event"",""trial"",""time""
""fullscreenexit"",""2"",""13699""
",,2982,"<p> After digging and traveling for a while, you’ll be able to take a break at home base. </p><p>The game will last 20 minutes no matter what.</p><p>You will visit home base every 5 minutes, so, you will visit home base three times during the game.</p><br><p><img src='run_exp/static/images/task_images/home_base.jpg' height='600' width='auto'></p>",,,,,,,1,,,,,,,,,,,,,,,,,,
html-keyboard-response,23,283878,0.0-9.0-2.0,"""event"",""trial"",""time""
""focus"",""0"",""0""
""blur"",""0"",""0""
""focus"",""0"",""0""
""blur"",""0"",""0""
""focus"",""0"",""0""
""blur"",""0"",""0""
""focus"",""0"",""0""
""blur"",""0"",""0""
""focus"",""1"",""11296""
""fullscreenenter"",""1"",""12673""
""fullscreenexit"",""2"",""13699""
""blur"",""2"",""16642""
""focus"",""4"",""85582""
""blur"",""21"",""268766""
""focus"",""21"",""269825""
""blur"",""21"",""279780""
""focus"",""22"",""282242""
""blur"",""24"",""286227""
""focus"",""24"",""292411""
","""event"",""trial"",""time""
""blur"",""0"",""0""
""blur"",""0"",""0""
""blur"",""0"",""0""
""blur"",""0"",""0""
""blur"",""2"",""16642""
""blur"",""21"",""268766""
""blur"",""21"",""279780""
""blur"",""24"",""286227""
","""event"",""trial"",""time""
""focus"",""0"",""0""
""focus"",""0"",""0""
""focus"",""0"",""0""
""focus"",""0"",""0""
""focus"",""1"",""11296""
""focus"",""4"",""85582""
""focus"",""21"",""269825""
""focus"",""22"",""282242""
""focus"",""24"",""292411""
","""event"",""trial"",""time""
""fullscreenenter"",""1"",""12673""
","""event"",""trial"",""time""
""fullscreenexit"",""2"",""13699""
",,183,"<p> After digging and traveling for a while, you’ll be able to take a break at home base. </p><p>The game will last 20 minutes no matter what.</p><p>You will visit home base every 5 minutes, so, you will visit home base three times during the game.</p><br><p><img src='run_exp/static/images/task_images/home_base.jpg' height='600' width='auto'></p><button class=""jspsych-html-btn-unchosen""><img src=""run_exp/static/images/task_images/planet-01.jpg"" height=""50""></button><button class=""jspsych-html-btn-chosen""><img src=""run_exp/static/images/task_images/planet-02.jpg"" height=""50""></button><p><b>[press the space bar to lock in your answer]<b><br></p>",32,,,,,,,,,,,,,,,,,,,,,,,,
instruc_prac_game,24,294060,0.0-10.0-0.0,"""event"",""trial"",""time""
""focus"",""0"",""0""
""blur"",""0"",""0""
""focus"",""0"",""0""
""blur"",""0"",""0""
""focus"",""0"",""0""
""blur"",""0"",""0""
""focus"",""0"",""0""
""blur"",""0"",""0""
""focus"",""1"",""11296""
""fullscreenenter"",""1"",""12673""
""fullscreenexit"",""2"",""13699""
""blur"",""2"",""16642""
""focus"",""4"",""85582""
""blur"",""21"",""268766""
""focus"",""21"",""269825""
""blur"",""21"",""279780""
""focus"",""22"",""282242""
""blur"",""24"",""286227""
""focus"",""24"",""292411""
","""event"",""trial"",""time""
""blur"",""0"",""0""
""blur"",""0"",""0""
""blur"",""0"",""0""
""blur"",""0"",""0""
""blur"",""2"",""16642""
""blur"",""21"",""268766""
""blur"",""21"",""279780""
""blur"",""24"",""286227""
","""event"",""trial"",""time""
""focus"",""0"",""0""
""focus"",""0"",""0""
""focus"",""0"",""0""
""focus"",""0"",""0""
""focus"",""1"",""11296""
""focus"",""4"",""85582""
""focus"",""21"",""269825""
""focus"",""22"",""282242""
""focus"",""24"",""292411""
","""event"",""trial"",""time""
""fullscreenenter"",""1"",""12673""
","""event"",""trial"",""time""
""fullscreenexit"",""2"",""13699""
",,null,run_exp/static/audio/clip_9_practice.m4a,null,"<p> Are you ready to play a practice game? </p> <p>In this practice game, you'll be digging up barrels of gems. But, in the real game, you'll be digging up the gems themselves. </p>",,,,,,,,,,,,,,,,,,,,,,,
html-button-response,25,295025,0.0-10.0-1.0,"""event"",""trial"",""time""
""focus"",""0"",""0""
""blur"",""0"",""0""
""focus"",""0"",""0""
""blur"",""0"",""0""
""focus"",""0"",""0""
""blur"",""0"",""0""
""focus"",""0"",""0""
""blur"",""0"",""0""
""focus"",""1"",""11296""
""fullscreenenter"",""1"",""12673""
""fullscreenexit"",""2"",""13699""
""blur"",""2"",""16642""
""focus"",""4"",""85582""
""blur"",""21"",""268766""
""focus"",""21"",""269825""
""blur"",""21"",""279780""
""focus"",""22"",""282242""
""blur"",""24"",""286227""
""focus"",""24"",""292411""
","""event"",""trial"",""time""
""blur"",""0"",""0""
""blur"",""0"",""0""
""blur"",""0"",""0""
""blur"",""0"",""0""
""blur"",""2"",""16642""
""blur"",""21"",""268766""
""blur"",""21"",""279780""
""blur"",""24"",""286227""
","""event"",""trial"",""time""
""focus"",""0"",""0""
""focus"",""0"",""0""
""focus"",""0"",""0""
""focus"",""0"",""0""
""focus"",""1"",""11296""
""focus"",""4"",""85582""
""focus"",""21"",""269825""
""focus"",""22"",""282242""
""focus"",""24"",""292411""
","""event"",""trial"",""time""
""fullscreenenter"",""1"",""12673""
","""event"",""trial"",""time""
""fullscreenexit"",""2"",""13699""
",,956,"<p> Are you ready to play a practice game? </p> <p>In this practice game, you'll be digging up barrels of gems. But, in the real game, you'll be digging up the gems themselves. </p>",,,,,,,0,,,,,,,,,,,,,,,,,,
alien_welcome_prac,26,300033,0.0-11.0-0.0,"""event"",""trial"",""time""
""focus"",""0"",""0""
""blur"",""0"",""0""
""focus"",""0"",""0""
""blur"",""0"",""0""
""focus"",""0"",""0""
""blur"",""0"",""0""
""focus"",""0"",""0""
""blur"",""0"",""0""
""focus"",""1"",""11296""
""fullscreenenter"",""1"",""12673""
""fullscreenexit"",""2"",""13699""
""blur"",""2"",""16642""
""focus"",""4"",""85582""
""blur"",""21"",""268766""
""focus"",""21"",""269825""
""blur"",""21"",""279780""
""focus"",""22"",""282242""
""blur"",""24"",""286227""
""focus"",""24"",""292411""
","""event"",""trial"",""time""
""blur"",""0"",""0""
""blur"",""0"",""0""
""blur"",""0"",""0""
""blur"",""0"",""0""
""blur"",""2"",""16642""
""blur"",""21"",""268766""
""blur"",""21"",""279780""
""blur"",""24"",""286227""
","""event"",""trial"",""time""
""focus"",""0"",""0""
""focus"",""0"",""0""
""focus"",""0"",""0""
""focus"",""0"",""0""
""focus"",""1"",""11296""
""focus"",""4"",""85582""
""focus"",""21"",""269825""
""focus"",""22"",""282242""
""focus"",""24"",""292411""
","""event"",""trial"",""time""
""fullscreenenter"",""1"",""12673""
","""event"",""trial"",""time""
""fullscreenexit"",""2"",""13699""
",,null,run_exp/static/images/task_images/aliens/practice_aliens/planet/alien_planet-5.jpg,null,,,,,,,,,,,,,,,,,,,,,,,,
land_prac,27,300540,0.0-11.0-1.0,"""event"",""trial"",""time""
""focus"",""0"",""0""
""blur"",""0"",""0""
""focus"",""0"",""0""
""blur"",""0"",""0""
""focus"",""0"",""0""
""blur"",""0"",""0""
""focus"",""0"",""0""
""blur"",""0"",""0""
""focus"",""1"",""11296""
""fullscreenenter"",""1"",""12673""
""fullscreenexit"",""2"",""13699""
""blur"",""2"",""16642""
""focus"",""4"",""85582""
""blur"",""21"",""268766""
""focus"",""21"",""269825""
""blur"",""21"",""279780""
""focus"",""22"",""282242""
""blur"",""24"",""286227""
""focus"",""24"",""292411""
","""event"",""trial"",""time""
""blur"",""0"",""0""
""blur"",""0"",""0""
""blur"",""0"",""0""
""blur"",""0"",""0""
""blur"",""2"",""16642""
""blur"",""21"",""268766""
""blur"",""21"",""279780""
""blur"",""24"",""286227""
","""event"",""trial"",""time""
""focus"",""0"",""0""
""focus"",""0"",""0""
""focus"",""0"",""0""
""focus"",""0"",""0""
""focus"",""1"",""11296""
""focus"",""4"",""85582""
""focus"",""21"",""269825""
""focus"",""22"",""282242""
""focus"",""24"",""292411""
","""event"",""trial"",""time""
""fullscreenenter"",""1"",""12673""
","""event"",""trial"",""time""
""fullscreenexit"",""2"",""13699""
",,null,run_exp/static/images/task_images/land.jpg,null,,,,,,,97,,,0,,,,,,,,,,,,,,
dig_prac,28,302566,0.0-11.0-2.0,"""event"",""trial"",""time""
""focus"",""0"",""0""
""blur"",""0"",""0""
""focus"",""0"",""0""
""blur"",""0"",""0""
""focus"",""0"",""0""
""blur"",""0"",""0""
""focus"",""0"",""0""
""blur"",""0"",""0""
""focus"",""1"",""11296""
""fullscreenenter"",""1"",""12673""
""fullscreenexit"",""2"",""13699""
""blur"",""2"",""16642""
""focus"",""4"",""85582""
""blur"",""21"",""268766""
""focus"",""21"",""269825""
""blur"",""21"",""279780""
""focus"",""22"",""282242""
""blur"",""24"",""286227""
""focus"",""24"",""292411""
","""event"",""trial"",""time""
""blur"",""0"",""0""
""blur"",""0"",""0""
""blur"",""0"",""0""
""blur"",""0"",""0""
""blur"",""2"",""16642""
""blur"",""21"",""268766""
""blur"",""21"",""279780""
""blur"",""24"",""286227""
","""event"",""trial"",""time""
""focus"",""0"",""0""
""focus"",""0"",""0""
""focus"",""0"",""0""
""focus"",""0"",""0""
""focus"",""1"",""11296""
""focus"",""4"",""85582""
""focus"",""21"",""269825""
""focus"",""22"",""282242""
""focus"",""24"",""292411""
","""event"",""trial"",""time""
""fullscreenenter"",""1"",""12673""
","""event"",""trial"",""time""
""fullscreenexit"",""2"",""13699""
",,,,,,,,,,,,"[{""stimulus"":""run_exp/static/images/task_images/dig.jpg"",""time"":0},{""stimulus"":""run_exp/static/images/task_images/land.jpg"",""time"":673},{""stimulus"":""run_exp/static/images/task_images/dig.jpg"",""time"":1344}]",[],,,,,,,,,,,,,,,
harvest_prac,29,303574,0.0-11.0-3.0,"""event"",""trial"",""time""
""focus"",""0"",""0""
""blur"",""0"",""0""
""focus"",""0"",""0""
""blur"",""0"",""0""
""focus"",""0"",""0""
""blur"",""0"",""0""
""focus"",""0"",""0""
""blur"",""0"",""0""
""focus"",""1"",""11296""
""fullscreenenter"",""1"",""12673""
""fullscreenexit"",""2"",""13699""
""blur"",""2"",""16642""
""focus"",""4"",""85582""
""blur"",""21"",""268766""
""focus"",""21"",""269825""
""blur"",""21"",""279780""
""focus"",""22"",""282242""
""blur"",""24"",""286227""
""focus"",""24"",""292411""
","""event"",""trial"",""time""
""blur"",""0"",""0""
""blur"",""0"",""0""
""blur"",""0"",""0""
""blur"",""0"",""0""
""blur"",""2"",""16642""
""blur"",""21"",""268766""
""blur"",""21"",""279780""
""blur"",""24"",""286227""
","""event"",""trial"",""time""
""focus"",""0"",""0""
""focus"",""0"",""0""
""focus"",""0"",""0""
""focus"",""0"",""0""
""focus"",""1"",""11296""
""focus"",""4"",""85582""
""focus"",""21"",""269825""
""focus"",""22"",""282242""
""focus"",""24"",""292411""
","""event"",""trial"",""time""
""fullscreenenter"",""1"",""12673""
","""event"",""trial"",""time""
""fullscreenexit"",""2"",""13699""
",,null,run_exp/static/images/task_images/barrel_text.jpg,null,,,,,,,,,,,,,,,,,,,,,,,,
decision_prac,30,305631,0.0-11.0-4.0,"""event"",""trial"",""time""
""focus"",""0"",""0""
""blur"",""0"",""0""
""focus"",""0"",""0""
""blur"",""0"",""0""
""focus"",""0"",""0""
""blur"",""0"",""0""
""focus"",""0"",""0""
""blur"",""0"",""0""
""focus"",""1"",""11296""
""fullscreenenter"",""1"",""12673""
""fullscreenexit"",""2"",""13699""
""blur"",""2"",""16642""
""focus"",""4"",""85582""
""blur"",""21"",""268766""
""focus"",""21"",""269825""
""blur"",""21"",""279780""
""focus"",""22"",""282242""
""blur"",""24"",""286227""
""focus"",""24"",""292411""
","""event"",""trial"",""time""
""blur"",""0"",""0""
""blur"",""0"",""0""
""blur"",""0"",""0""
""blur"",""0"",""0""
""blur"",""2"",""16642""
""blur"",""21"",""268766""
""blur"",""21"",""279780""
""blur"",""24"",""286227""
","""event"",""trial"",""time""
""focus"",""0"",""0""
""focus"",""0"",""0""
""focus"",""0"",""0""
""focus"",""0"",""0""
""focus"",""1"",""11296""
""focus"",""4"",""85582""
""focus"",""21"",""269825""
""focus"",""22"",""282242""
""focus"",""24"",""292411""
","""event"",""trial"",""time""
""fullscreenenter"",""1"",""12673""
","""event"",""trial"",""time""
""fullscreenexit"",""2"",""13699""
",,2054,run_exp/static/images/task_images/land.jpg,65,,,,,,,,,,,1,,,,,,,,,,,,,
dig_prac,31,307642,0.0-12.0-0.0,"""event"",""trial"",""time""
""focus"",""0"",""0""
""blur"",""0"",""0""
""focus"",""0"",""0""
""blur"",""0"",""0""
""focus"",""0"",""0""
""blur"",""0"",""0""
""focus"",""0"",""0""
""blur"",""0"",""0""
""focus"",""1"",""11296""
""fullscreenenter"",""1"",""12673""
""fullscreenexit"",""2"",""13699""
""blur"",""2"",""16642""
""focus"",""4"",""85582""
""blur"",""21"",""268766""
""focus"",""21"",""269825""
""blur"",""21"",""279780""
""focus"",""22"",""282242""
""blur"",""24"",""286227""
""focus"",""24"",""292411""
","""event"",""trial"",""time""
""blur"",""0"",""0""
""blur"",""0"",""0""
""blur"",""0"",""0""
""blur"",""0"",""0""
""blur"",""2"",""16642""
""blur"",""21"",""268766""
""blur"",""21"",""279780""
""blur"",""24"",""286227""
","""event"",""trial"",""time""
""focus"",""0"",""0""
""focus"",""0"",""0""
""focus"",""0"",""0""
""focus"",""0"",""0""
""focus"",""1"",""11296""
""focus"",""4"",""85582""
""focus"",""21"",""269825""
""focus"",""22"",""282242""
""focus"",""24"",""292411""
","""event"",""trial"",""time""
""fullscreenenter"",""1"",""12673""
","""event"",""trial"",""time""
""fullscreenexit"",""2"",""13699""
",,,,,,,,,,,,"[{""stimulus"":""run_exp/static/images/task_images/dig.jpg"",""time"":0},{""stimulus"":""run_exp/static/images/task_images/land.jpg"",""time"":669},{""stimulus"":""run_exp/static/images/task_images/dig.jpg"",""time"":1342}]",[],,,,,,,,,,,,,,,
harvest_prac,32,308649,0.0-12.0-1.0,"""event"",""trial"",""time""
""focus"",""0"",""0""
""blur"",""0"",""0""
""focus"",""0"",""0""
""blur"",""0"",""0""
""focus"",""0"",""0""
""blur"",""0"",""0""
""focus"",""0"",""0""
""blur"",""0"",""0""
""focus"",""1"",""11296""
""fullscreenenter"",""1"",""12673""
""fullscreenexit"",""2"",""13699""
""blur"",""2"",""16642""
""focus"",""4"",""85582""
""blur"",""21"",""268766""
""focus"",""21"",""269825""
""blur"",""21"",""279780""
""focus"",""22"",""282242""
""blur"",""24"",""286227""
""focus"",""24"",""292411""
","""event"",""trial"",""time""
""blur"",""0"",""0""
""blur"",""0"",""0""
""blur"",""0"",""0""
""blur"",""0"",""0""
""blur"",""2"",""16642""
""blur"",""21"",""268766""
""blur"",""21"",""279780""
""blur"",""24"",""286227""
","""event"",""trial"",""time""
""focus"",""0"",""0""
""focus"",""0"",""0""
""focus"",""0"",""0""
""focus"",""0"",""0""
""focus"",""1"",""11296""
""focus"",""4"",""85582""
""focus"",""21"",""269825""
""focus"",""22"",""282242""
""focus"",""24"",""292411""
","""event"",""trial"",""time""
""fullscreenenter"",""1"",""12673""
","""event"",""trial"",""time""
""fullscreenexit"",""2"",""13699""
",,null,run_exp/static/images/task_images/barrel_text.jpg,null,,,,,,,,,,,,,,,,,,,,,,,,
decision_prac,33,309134,0.0-12.0-2.0,"""event"",""trial"",""time""
""focus"",""0"",""0""
""blur"",""0"",""0""
""focus"",""0"",""0""
""blur"",""0"",""0""
""focus"",""0"",""0""
""blur"",""0"",""0""
""focus"",""0"",""0""
""blur"",""0"",""0""
""focus"",""1"",""11296""
""fullscreenenter"",""1"",""12673""
""fullscreenexit"",""2"",""13699""
""blur"",""2"",""16642""
""focus"",""4"",""85582""
""blur"",""21"",""268766""
""focus"",""21"",""269825""
""blur"",""21"",""279780""
""focus"",""22"",""282242""
""blur"",""24"",""286227""
""focus"",""24"",""292411""
","""event"",""trial"",""time""
""blur"",""0"",""0""
""blur"",""0"",""0""
""blur"",""0"",""0""
""blur"",""0"",""0""
""blur"",""2"",""16642""
""blur"",""21"",""268766""
""blur"",""21"",""279780""
""blur"",""24"",""286227""
","""event"",""trial"",""time""
""focus"",""0"",""0""
""focus"",""0"",""0""
""focus"",""0"",""0""
""focus"",""0"",""0""
""focus"",""1"",""11296""
""focus"",""4"",""85582""
""focus"",""21"",""269825""
""focus"",""22"",""282242""
""focus"",""24"",""292411""
","""event"",""trial"",""time""
""fullscreenenter"",""1"",""12673""
","""event"",""trial"",""time""
""fullscreenexit"",""2"",""13699""
",,484,run_exp/static/images/task_images/land.jpg,65,,,,,,,,,,,2,,,,,,,,,,,,,
dig_prac,34,311228,0.0-13.0-0.0,"""event"",""trial"",""time""
""focus"",""0"",""0""
""blur"",""0"",""0""
""focus"",""0"",""0""
""blur"",""0"",""0""
""focus"",""0"",""0""
""blur"",""0"",""0""
""focus"",""0"",""0""
""blur"",""0"",""0""
""focus"",""1"",""11296""
""fullscreenenter"",""1"",""12673""
""fullscreenexit"",""2"",""13699""
""blur"",""2"",""16642""
""focus"",""4"",""85582""
""blur"",""21"",""268766""
""focus"",""21"",""269825""
""blur"",""21"",""279780""
""focus"",""22"",""282242""
""blur"",""24"",""286227""
""focus"",""24"",""292411""
","""event"",""trial"",""time""
""blur"",""0"",""0""
""blur"",""0"",""0""
""blur"",""0"",""0""
""blur"",""0"",""0""
""blur"",""2"",""16642""
""blur"",""21"",""268766""
""blur"",""21"",""279780""
""blur"",""24"",""286227""
","""event"",""trial"",""time""
""focus"",""0"",""0""
""focus"",""0"",""0""
""focus"",""0"",""0""
""focus"",""0"",""0""
""focus"",""1"",""11296""
""focus"",""4"",""85582""
""focus"",""21"",""269825""
""focus"",""22"",""282242""
""focus"",""24"",""292411""
","""event"",""trial"",""time""
""fullscreenenter"",""1"",""12673""
","""event"",""trial"",""time""
""fullscreenexit"",""2"",""13699""
",,,,,,,,,,,,"[{""stimulus"":""run_exp/static/images/task_images/dig.jpg"",""time"":0},{""stimulus"":""run_exp/static/images/task_images/land.jpg"",""time"":670},{""stimulus"":""run_exp/static/images/task_images/dig.jpg"",""time"":1418}]",[],,,,,,,,,,,,,,,
harvest_prac,35,312236,0.0-13.0-1.0,"""event"",""trial"",""time""
""focus"",""0"",""0""
""blur"",""0"",""0""
""focus"",""0"",""0""
""blur"",""0"",""0""
""focus"",""0"",""0""
""blur"",""0"",""0""
""focus"",""0"",""0""
""blur"",""0"",""0""
""focus"",""1"",""11296""
""fullscreenenter"",""1"",""12673""
""fullscreenexit"",""2"",""13699""
""blur"",""2"",""16642""
""focus"",""4"",""85582""
""blur"",""21"",""268766""
""focus"",""21"",""269825""
""blur"",""21"",""279780""
""focus"",""22"",""282242""
""blur"",""24"",""286227""
""focus"",""24"",""292411""
","""event"",""trial"",""time""
""blur"",""0"",""0""
""blur"",""0"",""0""
""blur"",""0"",""0""
""blur"",""0"",""0""
""blur"",""2"",""16642""
""blur"",""21"",""268766""
""blur"",""21"",""279780""
""blur"",""24"",""286227""
","""event"",""trial"",""time""
""focus"",""0"",""0""
""focus"",""0"",""0""
""focus"",""0"",""0""
""focus"",""0"",""0""
""focus"",""1"",""11296""
""focus"",""4"",""85582""
""focus"",""21"",""269825""
""focus"",""22"",""282242""
""focus"",""24"",""292411""
","""event"",""trial"",""time""
""fullscreenenter"",""1"",""12673""
","""event"",""trial"",""time""
""fullscreenexit"",""2"",""13699""
",,null,run_exp/static/images/task_images/barrel_text.jpg,null,,,,,,,,,,,,,,,,,,,,,,,,
decision_prac,36,312635,0.0-13.0-2.0,"""event"",""trial"",""time""
""focus"",""0"",""0""
""blur"",""0"",""0""
""focus"",""0"",""0""
""blur"",""0"",""0""
""focus"",""0"",""0""
""blur"",""0"",""0""
""focus"",""0"",""0""
""blur"",""0"",""0""
""focus"",""1"",""11296""
""fullscreenenter"",""1"",""12673""
""fullscreenexit"",""2"",""13699""
""blur"",""2"",""16642""
""focus"",""4"",""85582""
""blur"",""21"",""268766""
""focus"",""21"",""269825""
""blur"",""21"",""279780""
""focus"",""22"",""282242""
""blur"",""24"",""286227""
""focus"",""24"",""292411""
","""event"",""trial"",""time""
""blur"",""0"",""0""
""blur"",""0"",""0""
""blur"",""0"",""0""
""blur"",""0"",""0""
""blur"",""2"",""16642""
""blur"",""21"",""268766""
""blur"",""21"",""279780""
""blur"",""24"",""286227""
","""event"",""trial"",""time""
""focus"",""0"",""0""
""focus"",""0"",""0""
""focus"",""0"",""0""
""focus"",""0"",""0""
""focus"",""1"",""11296""
""focus"",""4"",""85582""
""focus"",""21"",""269825""
""focus"",""22"",""282242""
""focus"",""24"",""292411""
","""event"",""trial"",""time""
""fullscreenenter"",""1"",""12673""
","""event"",""trial"",""time""
""fullscreenexit"",""2"",""13699""
",,397,run_exp/static/images/task_images/land.jpg,65,,,,,,,,,,,3,,,,,,,,,,,,,
dig_prac,37,314656,0.0-14.0-0.0,"""event"",""trial"",""time""
""focus"",""0"",""0""
""blur"",""0"",""0""
""focus"",""0"",""0""
""blur"",""0"",""0""
""focus"",""0"",""0""
""blur"",""0"",""0""
""focus"",""0"",""0""
""blur"",""0"",""0""
""focus"",""1"",""11296""
""fullscreenenter"",""1"",""12673""
""fullscreenexit"",""2"",""13699""
""blur"",""2"",""16642""
""focus"",""4"",""85582""
""blur"",""21"",""268766""
""focus"",""21"",""269825""
""blur"",""21"",""279780""
""focus"",""22"",""282242""
""blur"",""24"",""286227""
""focus"",""24"",""292411""
","""event"",""trial"",""time""
""blur"",""0"",""0""
""blur"",""0"",""0""
""blur"",""0"",""0""
""blur"",""0"",""0""
""blur"",""2"",""16642""
""blur"",""21"",""268766""
""blur"",""21"",""279780""
""blur"",""24"",""286227""
","""event"",""trial"",""time""
""focus"",""0"",""0""
""focus"",""0"",""0""
""focus"",""0"",""0""
""focus"",""0"",""0""
""focus"",""1"",""11296""
""focus"",""4"",""85582""
""focus"",""21"",""269825""
""focus"",""22"",""282242""
""focus"",""24"",""292411""
","""event"",""trial"",""time""
""fullscreenenter"",""1"",""12673""
","""event"",""trial"",""time""
""fullscreenexit"",""2"",""13699""
",,,,,,,,,,,,"[{""stimulus"":""run_exp/static/images/task_images/dig.jpg"",""time"":0},{""stimulus"":""run_exp/static/images/task_images/land.jpg"",""time"":672},{""stimulus"":""run_exp/static/images/task_images/dig.jpg"",""time"":1344}]",[],,,,,,,,,,,,,,,
harvest_prac,38,315660,0.0-14.0-1.0,"""event"",""trial"",""time""
""focus"",""0"",""0""
""blur"",""0"",""0""
""focus"",""0"",""0""
""blur"",""0"",""0""
""focus"",""0"",""0""
""blur"",""0"",""0""
""focus"",""0"",""0""
""blur"",""0"",""0""
""focus"",""1"",""11296""
""fullscreenenter"",""1"",""12673""
""fullscreenexit"",""2"",""13699""
""blur"",""2"",""16642""
""focus"",""4"",""85582""
""blur"",""21"",""268766""
""focus"",""21"",""269825""
""blur"",""21"",""279780""
""focus"",""22"",""282242""
""blur"",""24"",""286227""
""focus"",""24"",""292411""
","""event"",""trial"",""time""
""blur"",""0"",""0""
""blur"",""0"",""0""
""blur"",""0"",""0""
""blur"",""0"",""0""
""blur"",""2"",""16642""
""blur"",""21"",""268766""
""blur"",""21"",""279780""
""blur"",""24"",""286227""
","""event"",""trial"",""time""
""focus"",""0"",""0""
""focus"",""0"",""0""
""focus"",""0"",""0""
""focus"",""0"",""0""
""focus"",""1"",""11296""
""focus"",""4"",""85582""
""focus"",""21"",""269825""
""focus"",""22"",""282242""
""focus"",""24"",""292411""
","""event"",""trial"",""time""
""fullscreenenter"",""1"",""12673""
","""event"",""trial"",""time""
""fullscreenexit"",""2"",""13699""
",,null,run_exp/static/images/task_images/barrel_text.jpg,null,,,,,,,,,,,,,,,,,,,,,,,,
decision_prac,39,316203,0.0-14.0-2.0,"""event"",""trial"",""time""
""focus"",""0"",""0""
""blur"",""0"",""0""
""focus"",""0"",""0""
""blur"",""0"",""0""
""focus"",""0"",""0""
""blur"",""0"",""0""
""focus"",""0"",""0""
""blur"",""0"",""0""
""focus"",""1"",""11296""
""fullscreenenter"",""1"",""12673""
""fullscreenexit"",""2"",""13699""
""blur"",""2"",""16642""
""focus"",""4"",""85582""
""blur"",""21"",""268766""
""focus"",""21"",""269825""
""blur"",""21"",""279780""
""focus"",""22"",""282242""
""blur"",""24"",""286227""
""focus"",""24"",""292411""
","""event"",""trial"",""time""
""blur"",""0"",""0""
""blur"",""0"",""0""
""blur"",""0"",""0""
""blur"",""0"",""0""
""blur"",""2"",""16642""
""blur"",""21"",""268766""
""blur"",""21"",""279780""
""blur"",""24"",""286227""
","""event"",""trial"",""time""
""focus"",""0"",""0""
""focus"",""0"",""0""
""focus"",""0"",""0""
""focus"",""0"",""0""
""focus"",""1"",""11296""
""focus"",""4"",""85582""
""focus"",""21"",""269825""
""focus"",""22"",""282242""
""focus"",""24"",""292411""
","""event"",""trial"",""time""
""fullscreenenter"",""1"",""12673""
","""event"",""trial"",""time""
""fullscreenexit"",""2"",""13699""
",,541,run_exp/static/images/task_images/land.jpg,65,,,,,,,,,,,4,,,,,,,,,,,,,
dig_prac,40,318223,0.0-15.0-0.0,"""event"",""trial"",""time""
""focus"",""0"",""0""
""blur"",""0"",""0""
""focus"",""0"",""0""
""blur"",""0"",""0""
""focus"",""0"",""0""
""blur"",""0"",""0""
""focus"",""0"",""0""
""blur"",""0"",""0""
""focus"",""1"",""11296""
""fullscreenenter"",""1"",""12673""
""fullscreenexit"",""2"",""13699""
""blur"",""2"",""16642""
""focus"",""4"",""85582""
""blur"",""21"",""268766""
""focus"",""21"",""269825""
""blur"",""21"",""279780""
""focus"",""22"",""282242""
""blur"",""24"",""286227""
""focus"",""24"",""292411""
","""event"",""trial"",""time""
""blur"",""0"",""0""
""blur"",""0"",""0""
""blur"",""0"",""0""
""blur"",""0"",""0""
""blur"",""2"",""16642""
""blur"",""21"",""268766""
""blur"",""21"",""279780""
""blur"",""24"",""286227""
","""event"",""trial"",""time""
""focus"",""0"",""0""
""focus"",""0"",""0""
""focus"",""0"",""0""
""focus"",""0"",""0""
""focus"",""1"",""11296""
""focus"",""4"",""85582""
""focus"",""21"",""269825""
""focus"",""22"",""282242""
""focus"",""24"",""292411""
","""event"",""trial"",""time""
""fullscreenenter"",""1"",""12673""
","""event"",""trial"",""time""
""fullscreenexit"",""2"",""13699""
",,,,,,,,,,,,"[{""stimulus"":""run_exp/static/images/task_images/dig.jpg"",""time"":0},{""stimulus"":""run_exp/static/images/task_images/land.jpg"",""time"":671},{""stimulus"":""run_exp/static/images/task_images/dig.jpg"",""time"":1342}]",[],,,,,,,,,,,,,,,
harvest_prac,41,319230,0.0-15.0-1.0,"""event"",""trial"",""time""
""focus"",""0"",""0""
""blur"",""0"",""0""
""focus"",""0"",""0""
""blur"",""0"",""0""
""focus"",""0"",""0""
""blur"",""0"",""0""
""focus"",""0"",""0""
""blur"",""0"",""0""
""focus"",""1"",""11296""
""fullscreenenter"",""1"",""12673""
""fullscreenexit"",""2"",""13699""
""blur"",""2"",""16642""
""focus"",""4"",""85582""
""blur"",""21"",""268766""
""focus"",""21"",""269825""
""blur"",""21"",""279780""
""focus"",""22"",""282242""
""blur"",""24"",""286227""
""focus"",""24"",""292411""
","""event"",""trial"",""time""
""blur"",""0"",""0""
""blur"",""0"",""0""
""blur"",""0"",""0""
""blur"",""0"",""0""
""blur"",""2"",""16642""
""blur"",""21"",""268766""
""blur"",""21"",""279780""
""blur"",""24"",""286227""
","""event"",""trial"",""time""
""focus"",""0"",""0""
""focus"",""0"",""0""
""focus"",""0"",""0""
""focus"",""0"",""0""
""focus"",""1"",""11296""
""focus"",""4"",""85582""
""focus"",""21"",""269825""
""focus"",""22"",""282242""
""focus"",""24"",""292411""
","""event"",""trial"",""time""
""fullscreenenter"",""1"",""12673""
","""event"",""trial"",""time""
""fullscreenexit"",""2"",""13699""
",,null,run_exp/static/images/task_images/barrel_text.jpg,null,,,,,,,,,,,,,,,,,,,,,,,,
decision_prac,42,319625,0.0-15.0-2.0,"""event"",""trial"",""time""
""focus"",""0"",""0""
""blur"",""0"",""0""
""focus"",""0"",""0""
""blur"",""0"",""0""
""focus"",""0"",""0""
""blur"",""0"",""0""
""focus"",""0"",""0""
""blur"",""0"",""0""
""focus"",""1"",""11296""
""fullscreenenter"",""1"",""12673""
""fullscreenexit"",""2"",""13699""
""blur"",""2"",""16642""
""focus"",""4"",""85582""
""blur"",""21"",""268766""
""focus"",""21"",""269825""
""blur"",""21"",""279780""
""focus"",""22"",""282242""
""blur"",""24"",""286227""
""focus"",""24"",""292411""
","""event"",""trial"",""time""
""blur"",""0"",""0""
""blur"",""0"",""0""
""blur"",""0"",""0""
""blur"",""0"",""0""
""blur"",""2"",""16642""
""blur"",""21"",""268766""
""blur"",""21"",""279780""
""blur"",""24"",""286227""
","""event"",""trial"",""time""
""focus"",""0"",""0""
""focus"",""0"",""0""
""focus"",""0"",""0""
""focus"",""0"",""0""
""focus"",""1"",""11296""
""focus"",""4"",""85582""
""focus"",""21"",""269825""
""focus"",""22"",""282242""
""focus"",""24"",""292411""
","""event"",""trial"",""time""
""fullscreenenter"",""1"",""12673""
","""event"",""trial"",""time""
""fullscreenexit"",""2"",""13699""
",,393,run_exp/static/images/task_images/land.jpg,76,,,,,,,,,,,,1,,,,,,,,,,,,
quiz_instruc,43,322759,0.0-16.0-0.0,"""event"",""trial"",""time""
""focus"",""0"",""0""
""blur"",""0"",""0""
""focus"",""0"",""0""
""blur"",""0"",""0""
""focus"",""0"",""0""
""blur"",""0"",""0""
""focus"",""0"",""0""
""blur"",""0"",""0""
""focus"",""1"",""11296""
""fullscreenenter"",""1"",""12673""
""fullscreenexit"",""2"",""13699""
""blur"",""2"",""16642""
""focus"",""4"",""85582""
""blur"",""21"",""268766""
""focus"",""21"",""269825""
""blur"",""21"",""279780""
""focus"",""22"",""282242""
""blur"",""24"",""286227""
""focus"",""24"",""292411""
""blur"",""44"",""325542""
","""event"",""trial"",""time""
""blur"",""0"",""0""
""blur"",""0"",""0""
""blur"",""0"",""0""
""blur"",""0"",""0""
""blur"",""2"",""16642""
""blur"",""21"",""268766""
""blur"",""21"",""279780""
""blur"",""24"",""286227""
""blur"",""44"",""325542""
","""event"",""trial"",""time""
""focus"",""0"",""0""
""focus"",""0"",""0""
""focus"",""0"",""0""
""focus"",""0"",""0""
""focus"",""1"",""11296""
""focus"",""4"",""85582""
""focus"",""21"",""269825""
""focus"",""22"",""282242""
""focus"",""24"",""292411""
","""event"",""trial"",""time""
""fullscreenenter"",""1"",""12673""
","""event"",""trial"",""time""
""fullscreenexit"",""2"",""13699""
",,3130,run_exp/static/audio/clip_10_quiz.m4a,,,,,,,0,,,,,,,,,,,,,,,,,,
instruc_repeat,44,365560,0.0-16.0-1.0,"""event"",""trial"",""time""
""focus"",""0"",""0""
""blur"",""0"",""0""
""focus"",""0"",""0""
""blur"",""0"",""0""
""focus"",""0"",""0""
""blur"",""0"",""0""
""focus"",""0"",""0""
""blur"",""0"",""0""
""focus"",""1"",""11296""
""fullscreenenter"",""1"",""12673""
""fullscreenexit"",""2"",""13699""
""blur"",""2"",""16642""
""focus"",""4"",""85582""
""blur"",""21"",""268766""
""focus"",""21"",""269825""
""blur"",""21"",""279780""
""focus"",""22"",""282242""
""blur"",""24"",""286227""
""focus"",""24"",""292411""
""blur"",""44"",""325542""
""focus"",""45"",""416617""
","""event"",""trial"",""time""
""blur"",""0"",""0""
""blur"",""0"",""0""
""blur"",""0"",""0""
""blur"",""0"",""0""
""blur"",""2"",""16642""
""blur"",""21"",""268766""
""blur"",""21"",""279780""
""blur"",""24"",""286227""
""blur"",""44"",""325542""
","""event"",""trial"",""time""
""focus"",""0"",""0""
""focus"",""0"",""0""
""focus"",""0"",""0""
""focus"",""0"",""0""
""focus"",""1"",""11296""
""focus"",""4"",""85582""
""focus"",""21"",""269825""
""focus"",""22"",""282242""
""focus"",""24"",""292411""
""focus"",""45"",""416617""
","""event"",""trial"",""time""
""fullscreenenter"",""1"",""12673""
","""event"",""trial"",""time""
""fullscreenexit"",""2"",""13699""
",,null,"<p> Are you ready to play a practice game? </p> <p>In this practice game, you'll be digging up barrels of gems. But, in the real game, you'll be digging up the gems themselves. </p>",null,"<p>In this game, your goal is to collect as many gems as you can. That’s how you will win bonus money. </p> <p>The entire game will last 20 minutes no matter how many gems you collect or how many planets you visit. </p><p>To stay on a planet and dig again, press the letter A on your keyboard. To leave for a new planet, press the letter L.</p><p>The more you dig on a planet, the fewer gems you’ll get with each dig which is why you might consider leaving for a new planet. </p><p>When you arrive at a new planet, you’ll be greeted by an alien. What the alien looks like does not tell you anything about how much treasure is on the planet. </p>",,,,,,,,,,,,,,,,,,,,,,,
instruc_repeat_continue,45,417510,0.0-16.0-2.0,"""event"",""trial"",""time""
""focus"",""0"",""0""
""blur"",""0"",""0""
""focus"",""0"",""0""
""blur"",""0"",""0""
""focus"",""0"",""0""
""blur"",""0"",""0""
""focus"",""0"",""0""
""blur"",""0"",""0""
""focus"",""1"",""11296""
""fullscreenenter"",""1"",""12673""
""fullscreenexit"",""2"",""13699""
""blur"",""2"",""16642""
""focus"",""4"",""85582""
""blur"",""21"",""268766""
""focus"",""21"",""269825""
""blur"",""21"",""279780""
""focus"",""22"",""282242""
""blur"",""24"",""286227""
""focus"",""24"",""292411""
""blur"",""44"",""325542""
""focus"",""45"",""416617""
","""event"",""trial"",""time""
""blur"",""0"",""0""
""blur"",""0"",""0""
""blur"",""0"",""0""
""blur"",""0"",""0""
""blur"",""2"",""16642""
""blur"",""21"",""268766""
""blur"",""21"",""279780""
""blur"",""24"",""286227""
""blur"",""44"",""325542""
","""event"",""trial"",""time""
""focus"",""0"",""0""
""focus"",""0"",""0""
""focus"",""0"",""0""
""focus"",""0"",""0""
""focus"",""1"",""11296""
""focus"",""4"",""85582""
""focus"",""21"",""269825""
""focus"",""22"",""282242""
""focus"",""24"",""292411""
""focus"",""45"",""416617""
","""event"",""trial"",""time""
""fullscreenenter"",""1"",""12673""
","""event"",""trial"",""time""
""fullscreenexit"",""2"",""13699""
",,51949,"<p> Are you ready to play a practice game? </p> <p>In this practice game, you'll be digging up barrels of gems. But, in the real game, you'll be digging up the gems themselves. </p>",,,,,,,0,,,,,,,,,,,,,,,,,,
quiz_q_1_ask,46,419293,0.0-16.0-3.0,"""event"",""trial"",""time""
""focus"",""0"",""0""
""blur"",""0"",""0""
""focus"",""0"",""0""
""blur"",""0"",""0""
""focus"",""0"",""0""
""blur"",""0"",""0""
""focus"",""0"",""0""
""blur"",""0"",""0""
""focus"",""1"",""11296""
""fullscreenenter"",""1"",""12673""
""fullscreenexit"",""2"",""13699""
""blur"",""2"",""16642""
""focus"",""4"",""85582""
""blur"",""21"",""268766""
""focus"",""21"",""269825""
""blur"",""21"",""279780""
""focus"",""22"",""282242""
""blur"",""24"",""286227""
""focus"",""24"",""292411""
""blur"",""44"",""325542""
""focus"",""45"",""416617""
""blur"",""47"",""420430""
","""event"",""trial"",""time""
""blur"",""0"",""0""
""blur"",""0"",""0""
""blur"",""0"",""0""
""blur"",""0"",""0""
""blur"",""2"",""16642""
""blur"",""21"",""268766""
""blur"",""21"",""279780""
""blur"",""24"",""286227""
""blur"",""44"",""325542""
""blur"",""47"",""420430""
","""event"",""trial"",""time""
""focus"",""0"",""0""
""focus"",""0"",""0""
""focus"",""0"",""0""
""focus"",""0"",""0""
""focus"",""1"",""11296""
""focus"",""4"",""85582""
""focus"",""21"",""269825""
""focus"",""22"",""282242""
""focus"",""24"",""292411""
""focus"",""45"",""416617""
","""event"",""trial"",""time""
""fullscreenenter"",""1"",""12673""
","""event"",""trial"",""time""
""fullscreenexit"",""2"",""13699""
",,1781,run_exp/static/audio/clip_11_q1_ask.m4a,,,,,,,2,,,,,,,,,,,,,,,,,,
quiz_q_1_fb_correct,47,423199,0.0-17.0-0.0,"""event"",""trial"",""time""
""focus"",""0"",""0""
""blur"",""0"",""0""
""focus"",""0"",""0""
""blur"",""0"",""0""
""focus"",""0"",""0""
""blur"",""0"",""0""
""focus"",""0"",""0""
""blur"",""0"",""0""
""focus"",""1"",""11296""
""fullscreenenter"",""1"",""12673""
""fullscreenexit"",""2"",""13699""
""blur"",""2"",""16642""
""focus"",""4"",""85582""
""blur"",""21"",""268766""
""focus"",""21"",""269825""
""blur"",""21"",""279780""
""focus"",""22"",""282242""
""blur"",""24"",""286227""
""focus"",""24"",""292411""
""blur"",""44"",""325542""
""focus"",""45"",""416617""
""blur"",""47"",""420430""
""focus"",""48"",""427576""
","""event"",""trial"",""time""
""blur"",""0"",""0""
""blur"",""0"",""0""
""blur"",""0"",""0""
""blur"",""0"",""0""
""blur"",""2"",""16642""
""blur"",""21"",""268766""
""blur"",""21"",""279780""
""blur"",""24"",""286227""
""blur"",""44"",""325542""
""blur"",""47"",""420430""
","""event"",""trial"",""time""
""focus"",""0"",""0""
""focus"",""0"",""0""
""focus"",""0"",""0""
""focus"",""0"",""0""
""focus"",""1"",""11296""
""focus"",""4"",""85582""
""focus"",""21"",""269825""
""focus"",""22"",""282242""
""focus"",""24"",""292411""
""focus"",""45"",""416617""
""focus"",""48"",""427576""
","""event"",""trial"",""time""
""fullscreenenter"",""1"",""12673""
","""event"",""trial"",""time""
""fullscreenexit"",""2"",""13699""
",,null,run_exp/static/audio/clip_12_q1_correct.m4a,null,<p>That’s correct. You win extra money by collecting more gems.</p>,,,,,,,,,,,,,,,,,,,,,,,
quiz_q_2_ask,48,429892,0.0-17.0-1.0,"""event"",""trial"",""time""
""focus"",""0"",""0""
""blur"",""0"",""0""
""focus"",""0"",""0""
""blur"",""0"",""0""
""focus"",""0"",""0""
""blur"",""0"",""0""
""focus"",""0"",""0""
""blur"",""0"",""0""
""focus"",""1"",""11296""
""fullscreenenter"",""1"",""12673""
""fullscreenexit"",""2"",""13699""
""blur"",""2"",""16642""
""focus"",""4"",""85582""
""blur"",""21"",""268766""
""focus"",""21"",""269825""
""blur"",""21"",""279780""
""focus"",""22"",""282242""
""blur"",""24"",""286227""
""focus"",""24"",""292411""
""blur"",""44"",""325542""
""focus"",""45"",""416617""
""blur"",""47"",""420430""
""focus"",""48"",""427576""
""blur"",""49"",""430867""
""focus"",""49"",""432831""
","""event"",""trial"",""time""
""blur"",""0"",""0""
""blur"",""0"",""0""
""blur"",""0"",""0""
""blur"",""0"",""0""
""blur"",""2"",""16642""
""blur"",""21"",""268766""
""blur"",""21"",""279780""
""blur"",""24"",""286227""
""blur"",""44"",""325542""
""blur"",""47"",""420430""
""blur"",""49"",""430867""
","""event"",""trial"",""time""
""focus"",""0"",""0""
""focus"",""0"",""0""
""focus"",""0"",""0""
""focus"",""0"",""0""
""focus"",""1"",""11296""
""focus"",""4"",""85582""
""focus"",""21"",""269825""
""focus"",""22"",""282242""
""focus"",""24"",""292411""
""focus"",""45"",""416617""
""focus"",""48"",""427576""
""focus"",""49"",""432831""
","""event"",""trial"",""time""
""fullscreenenter"",""1"",""12673""
","""event"",""trial"",""time""
""fullscreenexit"",""2"",""13699""
",,6679,run_exp/static/audio/clip_14_q2_ask.m4a,,,,,,,1,,,,,,,,,,,,,,,,,,
quiz_q_2_fb_correct,49,433892,0.0-18.0-0.0,"""event"",""trial"",""time""
""focus"",""0"",""0""
""blur"",""0"",""0""
""focus"",""0"",""0""
""blur"",""0"",""0""
""focus"",""0"",""0""
""blur"",""0"",""0""
""focus"",""0"",""0""
""blur"",""0"",""0""
""focus"",""1"",""11296""
""fullscreenenter"",""1"",""12673""
""fullscreenexit"",""2"",""13699""
""blur"",""2"",""16642""
""focus"",""4"",""85582""
""blur"",""21"",""268766""
""focus"",""21"",""269825""
""blur"",""21"",""279780""
""focus"",""22"",""282242""
""blur"",""24"",""286227""
""focus"",""24"",""292411""
""blur"",""44"",""325542""
""focus"",""45"",""416617""
""blur"",""47"",""420430""
""focus"",""48"",""427576""
""blur"",""49"",""430867""
""focus"",""49"",""432831""
","""event"",""trial"",""time""
""blur"",""0"",""0""
""blur"",""0"",""0""
""blur"",""0"",""0""
""blur"",""0"",""0""
""blur"",""2"",""16642""
""blur"",""21"",""268766""
""blur"",""21"",""279780""
""blur"",""24"",""286227""
""blur"",""44"",""325542""
""blur"",""47"",""420430""
""blur"",""49"",""430867""
","""event"",""trial"",""time""
""focus"",""0"",""0""
""focus"",""0"",""0""
""focus"",""0"",""0""
""focus"",""0"",""0""
""focus"",""1"",""11296""
""focus"",""4"",""85582""
""focus"",""21"",""269825""
""focus"",""22"",""282242""
""focus"",""24"",""292411""
""focus"",""45"",""416617""
""focus"",""48"",""427576""
""focus"",""49"",""432831""
","""event"",""trial"",""time""
""fullscreenenter"",""1"",""12673""
","""event"",""trial"",""time""
""fullscreenexit"",""2"",""13699""
",,null,run_exp/static/audio/clip_15_q2_correct.m4a,null,<p>That’s correct. The experiment is 20 minutes no matter what.</p>,,,,,,,,,,,,,,,,,,,,,,,
quiz_q_3_ask,50,436160,0.0-18.0-1.0,"""event"",""trial"",""time""
""focus"",""0"",""0""
""blur"",""0"",""0""
""focus"",""0"",""0""
""blur"",""0"",""0""
""focus"",""0"",""0""
""blur"",""0"",""0""
""focus"",""0"",""0""
""blur"",""0"",""0""
""focus"",""1"",""11296""
""fullscreenenter"",""1"",""12673""
""fullscreenexit"",""2"",""13699""
""blur"",""2"",""16642""
""focus"",""4"",""85582""
""blur"",""21"",""268766""
""focus"",""21"",""269825""
""blur"",""21"",""279780""
""focus"",""22"",""282242""
""blur"",""24"",""286227""
""focus"",""24"",""292411""
""blur"",""44"",""325542""
""focus"",""45"",""416617""
""blur"",""47"",""420430""
""focus"",""48"",""427576""
""blur"",""49"",""430867""
""focus"",""49"",""432831""
""blur"",""51"",""437533""
""focus"",""51"",""438741""
","""event"",""trial"",""time""
""blur"",""0"",""0""
""blur"",""0"",""0""
""blur"",""0"",""0""
""blur"",""0"",""0""
""blur"",""2"",""16642""
""blur"",""21"",""268766""
""blur"",""21"",""279780""
""blur"",""24"",""286227""
""blur"",""44"",""325542""
""blur"",""47"",""420430""
""blur"",""49"",""430867""
""blur"",""51"",""437533""
","""event"",""trial"",""time""
""focus"",""0"",""0""
""focus"",""0"",""0""
""focus"",""0"",""0""
""focus"",""0"",""0""
""focus"",""1"",""11296""
""focus"",""4"",""85582""
""focus"",""21"",""269825""
""focus"",""22"",""282242""
""focus"",""24"",""292411""
""focus"",""45"",""416617""
""focus"",""48"",""427576""
""focus"",""49"",""432831""
""focus"",""51"",""438741""
","""event"",""trial"",""time""
""fullscreenenter"",""1"",""12673""
","""event"",""trial"",""time""
""fullscreenexit"",""2"",""13699""
",,2261,run_exp/static/audio/clip_17_q3_ask.m4a,,,,,,,1,,,,,,,,,,,,,,,,,,
quiz_q_3_fb_correct,51,440107,0.0-19.0-0.0,"""event"",""trial"",""time""
""focus"",""0"",""0""
""blur"",""0"",""0""
""focus"",""0"",""0""
""blur"",""0"",""0""
""focus"",""0"",""0""
""blur"",""0"",""0""
""focus"",""0"",""0""
""blur"",""0"",""0""
""focus"",""1"",""11296""
""fullscreenenter"",""1"",""12673""
""fullscreenexit"",""2"",""13699""
""blur"",""2"",""16642""
""focus"",""4"",""85582""
""blur"",""21"",""268766""
""focus"",""21"",""269825""
""blur"",""21"",""279780""
""focus"",""22"",""282242""
""blur"",""24"",""286227""
""focus"",""24"",""292411""
""blur"",""44"",""325542""
""focus"",""45"",""416617""
""blur"",""47"",""420430""
""focus"",""48"",""427576""
""blur"",""49"",""430867""
""focus"",""49"",""432831""
""blur"",""51"",""437533""
""focus"",""51"",""438741""
","""event"",""trial"",""time""
""blur"",""0"",""0""
""blur"",""0"",""0""
""blur"",""0"",""0""
""blur"",""0"",""0""
""blur"",""2"",""16642""
""blur"",""21"",""268766""
""blur"",""21"",""279780""
""blur"",""24"",""286227""
""blur"",""44"",""325542""
""blur"",""47"",""420430""
""blur"",""49"",""430867""
""blur"",""51"",""437533""
","""event"",""trial"",""time""
""focus"",""0"",""0""
""focus"",""0"",""0""
""focus"",""0"",""0""
""focus"",""0"",""0""
""focus"",""1"",""11296""
""focus"",""4"",""85582""
""focus"",""21"",""269825""
""focus"",""22"",""282242""
""focus"",""24"",""292411""
""focus"",""45"",""416617""
""focus"",""48"",""427576""
""focus"",""49"",""432831""
""focus"",""51"",""438741""
","""event"",""trial"",""time""
""fullscreenenter"",""1"",""12673""
","""event"",""trial"",""time""
""fullscreenexit"",""2"",""13699""
",,null,run_exp/static/audio/clip_18_q3_correct.m4a,null,<p> That’s correct. You press the letter L to travel to a new planet.</p>,,,,,,,,,,,,,,,,,,,,,,,
quiz_q_4_ask,52,445208,0.0-19.0-1.0,"""event"",""trial"",""time""
""focus"",""0"",""0""
""blur"",""0"",""0""
""focus"",""0"",""0""
""blur"",""0"",""0""
""focus"",""0"",""0""
""blur"",""0"",""0""
""focus"",""0"",""0""
""blur"",""0"",""0""
""focus"",""1"",""11296""
""fullscreenenter"",""1"",""12673""
""fullscreenexit"",""2"",""13699""
""blur"",""2"",""16642""
""focus"",""4"",""85582""
""blur"",""21"",""268766""
""focus"",""21"",""269825""
""blur"",""21"",""279780""
""focus"",""22"",""282242""
""blur"",""24"",""286227""
""focus"",""24"",""292411""
""blur"",""44"",""325542""
""focus"",""45"",""416617""
""blur"",""47"",""420430""
""focus"",""48"",""427576""
""blur"",""49"",""430867""
""focus"",""49"",""432831""
""blur"",""51"",""437533""
""focus"",""51"",""438741""
","""event"",""trial"",""time""
""blur"",""0"",""0""
""blur"",""0"",""0""
""blur"",""0"",""0""
""blur"",""0"",""0""
""blur"",""2"",""16642""
""blur"",""21"",""268766""
""blur"",""21"",""279780""
""blur"",""24"",""286227""
""blur"",""44"",""325542""
""blur"",""47"",""420430""
""blur"",""49"",""430867""
""blur"",""51"",""437533""
","""event"",""trial"",""time""
""focus"",""0"",""0""
""focus"",""0"",""0""
""focus"",""0"",""0""
""focus"",""0"",""0""
""focus"",""1"",""11296""
""focus"",""4"",""85582""
""focus"",""21"",""269825""
""focus"",""22"",""282242""
""focus"",""24"",""292411""
""focus"",""45"",""416617""
""focus"",""48"",""427576""
""focus"",""49"",""432831""
""focus"",""51"",""438741""
","""event"",""trial"",""time""
""fullscreenenter"",""1"",""12673""
","""event"",""trial"",""time""
""fullscreenexit"",""2"",""13699""
",,5100,run_exp/static/audio/clip_20_q4_ask.m4a,,,,,,,0,,,,,,,,,,,,,,,,,,
quiz_q_4_fb_correct,53,450543,0.0-20.0-0.0,"""event"",""trial"",""time""
""focus"",""0"",""0""
""blur"",""0"",""0""
""focus"",""0"",""0""
""blur"",""0"",""0""
""focus"",""0"",""0""
""blur"",""0"",""0""
""focus"",""0"",""0""
""blur"",""0"",""0""
""focus"",""1"",""11296""
""fullscreenenter"",""1"",""12673""
""fullscreenexit"",""2"",""13699""
""blur"",""2"",""16642""
""focus"",""4"",""85582""
""blur"",""21"",""268766""
""focus"",""21"",""269825""
""blur"",""21"",""279780""
""focus"",""22"",""282242""
""blur"",""24"",""286227""
""focus"",""24"",""292411""
""blur"",""44"",""325542""
""focus"",""45"",""416617""
""blur"",""47"",""420430""
""focus"",""48"",""427576""
""blur"",""49"",""430867""
""focus"",""49"",""432831""
""blur"",""51"",""437533""
""focus"",""51"",""438741""
","""event"",""trial"",""time""
""blur"",""0"",""0""
""blur"",""0"",""0""
""blur"",""0"",""0""
""blur"",""0"",""0""
""blur"",""2"",""16642""
""blur"",""21"",""268766""
""blur"",""21"",""279780""
""blur"",""24"",""286227""
""blur"",""44"",""325542""
""blur"",""47"",""420430""
""blur"",""49"",""430867""
""blur"",""51"",""437533""
","""event"",""trial"",""time""
""focus"",""0"",""0""
""focus"",""0"",""0""
""focus"",""0"",""0""
""focus"",""0"",""0""
""focus"",""1"",""11296""
""focus"",""4"",""85582""
""focus"",""21"",""269825""
""focus"",""22"",""282242""
""focus"",""24"",""292411""
""focus"",""45"",""416617""
""focus"",""48"",""427576""
""focus"",""49"",""432831""
""focus"",""51"",""438741""
","""event"",""trial"",""time""
""fullscreenenter"",""1"",""12673""
","""event"",""trial"",""time""
""fullscreenexit"",""2"",""13699""
",,null,run_exp/static/audio/clip_21_q4_correct.m4a,null,<p> That’s correct. The more you dig on a planet the fewer gems you’ll get with each dig. </p>,,,,,,,,,,,,,,,,,,,,,,,
quiz_q_5_ask,54,452724,0.0-20.0-1.0,"""event"",""trial"",""time""
""focus"",""0"",""0""
""blur"",""0"",""0""
""focus"",""0"",""0""
""blur"",""0"",""0""
""focus"",""0"",""0""
""blur"",""0"",""0""
""focus"",""0"",""0""
""blur"",""0"",""0""
""focus"",""1"",""11296""
""fullscreenenter"",""1"",""12673""
""fullscreenexit"",""2"",""13699""
""blur"",""2"",""16642""
""focus"",""4"",""85582""
""blur"",""21"",""268766""
""focus"",""21"",""269825""
""blur"",""21"",""279780""
""focus"",""22"",""282242""
""blur"",""24"",""286227""
""focus"",""24"",""292411""
""blur"",""44"",""325542""
""focus"",""45"",""416617""
""blur"",""47"",""420430""
""focus"",""48"",""427576""
""blur"",""49"",""430867""
""focus"",""49"",""432831""
""blur"",""51"",""437533""
""focus"",""51"",""438741""
""blur"",""55"",""454423""
","""event"",""trial"",""time""
""blur"",""0"",""0""
""blur"",""0"",""0""
""blur"",""0"",""0""
""blur"",""0"",""0""
""blur"",""2"",""16642""
""blur"",""21"",""268766""
""blur"",""21"",""279780""
""blur"",""24"",""286227""
""blur"",""44"",""325542""
""blur"",""47"",""420430""
""blur"",""49"",""430867""
""blur"",""51"",""437533""
""blur"",""55"",""454423""
","""event"",""trial"",""time""
""focus"",""0"",""0""
""focus"",""0"",""0""
""focus"",""0"",""0""
""focus"",""0"",""0""
""focus"",""1"",""11296""
""focus"",""4"",""85582""
""focus"",""21"",""269825""
""focus"",""22"",""282242""
""focus"",""24"",""292411""
""focus"",""45"",""416617""
""focus"",""48"",""427576""
""focus"",""49"",""432831""
""focus"",""51"",""438741""
","""event"",""trial"",""time""
""fullscreenenter"",""1"",""12673""
","""event"",""trial"",""time""
""fullscreenexit"",""2"",""13699""
",,2180,run_exp/static/audio/clip_23_q5_ask.m4a,,,,,,,1,,,,,,,,,,,,,,,,,,
quiz_q_5_fb_correct,55,457722,0.0-21.0-0.0,"""event"",""trial"",""time""
""focus"",""0"",""0""
""blur"",""0"",""0""
""focus"",""0"",""0""
""blur"",""0"",""0""
""focus"",""0"",""0""
""blur"",""0"",""0""
""focus"",""0"",""0""
""blur"",""0"",""0""
""focus"",""1"",""11296""
""fullscreenenter"",""1"",""12673""
""fullscreenexit"",""2"",""13699""
""blur"",""2"",""16642""
""focus"",""4"",""85582""
""blur"",""21"",""268766""
""focus"",""21"",""269825""
""blur"",""21"",""279780""
""focus"",""22"",""282242""
""blur"",""24"",""286227""
""focus"",""24"",""292411""
""blur"",""44"",""325542""
""focus"",""45"",""416617""
""blur"",""47"",""420430""
""focus"",""48"",""427576""
""blur"",""49"",""430867""
""focus"",""49"",""432831""
""blur"",""51"",""437533""
""focus"",""51"",""438741""
""blur"",""55"",""454423""
""focus"",""56"",""458947""
""blur"",""56"",""460378""
","""event"",""trial"",""time""
""blur"",""0"",""0""
""blur"",""0"",""0""
""blur"",""0"",""0""
""blur"",""0"",""0""
""blur"",""2"",""16642""
""blur"",""21"",""268766""
""blur"",""21"",""279780""
""blur"",""24"",""286227""
""blur"",""44"",""325542""
""blur"",""47"",""420430""
""blur"",""49"",""430867""
""blur"",""51"",""437533""
""blur"",""55"",""454423""
""blur"",""56"",""460378""
","""event"",""trial"",""time""
""focus"",""0"",""0""
""focus"",""0"",""0""
""focus"",""0"",""0""
""focus"",""0"",""0""
""focus"",""1"",""11296""
""focus"",""4"",""85582""
""focus"",""21"",""269825""
""focus"",""22"",""282242""
""focus"",""24"",""292411""
""focus"",""45"",""416617""
""focus"",""48"",""427576""
""focus"",""49"",""432831""
""focus"",""51"",""438741""
""focus"",""56"",""458947""
","""event"",""trial"",""time""
""fullscreenenter"",""1"",""12673""
","""event"",""trial"",""time""
""fullscreenexit"",""2"",""13699""
",,null,run_exp/static/audio/clip_24_q5_correct.m4a,null,<p> That’s correct. The alien tells you nothing about how much treasure is on the planet.</p>,,,,,,,,,,,,,,,,,,,,,,,
quiz_correct,56,461197,0.0-22.0-0.0,"""event"",""trial"",""time""
""focus"",""0"",""0""
""blur"",""0"",""0""
""focus"",""0"",""0""
""blur"",""0"",""0""
""focus"",""0"",""0""
""blur"",""0"",""0""
""focus"",""0"",""0""
""blur"",""0"",""0""
""focus"",""1"",""11296""
""fullscreenenter"",""1"",""12673""
""fullscreenexit"",""2"",""13699""
""blur"",""2"",""16642""
""focus"",""4"",""85582""
""blur"",""21"",""268766""
""focus"",""21"",""269825""
""blur"",""21"",""279780""
""focus"",""22"",""282242""
""blur"",""24"",""286227""
""focus"",""24"",""292411""
""blur"",""44"",""325542""
""focus"",""45"",""416617""
""blur"",""47"",""420430""
""focus"",""48"",""427576""
""blur"",""49"",""430867""
""focus"",""49"",""432831""
""blur"",""51"",""437533""
""focus"",""51"",""438741""
""blur"",""55"",""454423""
""focus"",""56"",""458947""
""blur"",""56"",""460378""
""focus"",""57"",""461498""
","""event"",""trial"",""time""
""blur"",""0"",""0""
""blur"",""0"",""0""
""blur"",""0"",""0""
""blur"",""0"",""0""
""blur"",""2"",""16642""
""blur"",""21"",""268766""
""blur"",""21"",""279780""
""blur"",""24"",""286227""
""blur"",""44"",""325542""
""blur"",""47"",""420430""
""blur"",""49"",""430867""
""blur"",""51"",""437533""
""blur"",""55"",""454423""
""blur"",""56"",""460378""
","""event"",""trial"",""time""
""focus"",""0"",""0""
""focus"",""0"",""0""
""focus"",""0"",""0""
""focus"",""0"",""0""
""focus"",""1"",""11296""
""focus"",""4"",""85582""
""focus"",""21"",""269825""
""focus"",""22"",""282242""
""focus"",""24"",""292411""
""focus"",""45"",""416617""
""focus"",""48"",""427576""
""focus"",""49"",""432831""
""focus"",""51"",""438741""
""focus"",""56"",""458947""
""focus"",""57"",""461498""
","""event"",""trial"",""time""
""fullscreenenter"",""1"",""12673""
","""event"",""trial"",""time""
""fullscreenexit"",""2"",""13699""
",,null,run_exp/static/audio/clip_26_correct_quiz.m4a,null,,,,,,,,,,,,,,,,,,,,,,,,
quiz_correct_continue,57,462934,0.0-22.0-1.0,"""event"",""trial"",""time""
""focus"",""0"",""0""
""blur"",""0"",""0""
""focus"",""0"",""0""
""blur"",""0"",""0""
""focus"",""0"",""0""
""blur"",""0"",""0""
""focus"",""0"",""0""
""blur"",""0"",""0""
""focus"",""1"",""11296""
""fullscreenenter"",""1"",""12673""
""fullscreenexit"",""2"",""13699""
""blur"",""2"",""16642""
""focus"",""4"",""85582""
""blur"",""21"",""268766""
""focus"",""21"",""269825""
""blur"",""21"",""279780""
""focus"",""22"",""282242""
""blur"",""24"",""286227""
""focus"",""24"",""292411""
""blur"",""44"",""325542""
""focus"",""45"",""416617""
""blur"",""47"",""420430""
""focus"",""48"",""427576""
""blur"",""49"",""430867""
""focus"",""49"",""432831""
""blur"",""51"",""437533""
""focus"",""51"",""438741""
""blur"",""55"",""454423""
""focus"",""56"",""458947""
""blur"",""56"",""460378""
""focus"",""57"",""461498""
""blur"",""58"",""469379""
","""event"",""trial"",""time""
""blur"",""0"",""0""
""blur"",""0"",""0""
""blur"",""0"",""0""
""blur"",""0"",""0""
""blur"",""2"",""16642""
""blur"",""21"",""268766""
""blur"",""21"",""279780""
""blur"",""24"",""286227""
""blur"",""44"",""325542""
""blur"",""47"",""420430""
""blur"",""49"",""430867""
""blur"",""51"",""437533""
""blur"",""55"",""454423""
""blur"",""56"",""460378""
""blur"",""58"",""469379""
","""event"",""trial"",""time""
""focus"",""0"",""0""
""focus"",""0"",""0""
""focus"",""0"",""0""
""focus"",""0"",""0""
""focus"",""1"",""11296""
""focus"",""4"",""85582""
""focus"",""21"",""269825""
""focus"",""22"",""282242""
""focus"",""24"",""292411""
""focus"",""45"",""416617""
""focus"",""48"",""427576""
""focus"",""49"",""432831""
""focus"",""51"",""438741""
""focus"",""56"",""458947""
""focus"",""57"",""461498""
","""event"",""trial"",""time""
""fullscreenenter"",""1"",""12673""
","""event"",""trial"",""time""
""fullscreenexit"",""2"",""13699""
",,1732,<p>Good job! You're now ready to move on to the real game!</p>,,,,,,,0,,,,,,,,,,,,,,,,,,
audio-keyboard-response,58,473093,0.0-22.0-2.0,"""event"",""trial"",""time""
""focus"",""0"",""0""
""blur"",""0"",""0""
""focus"",""0"",""0""
""blur"",""0"",""0""
""focus"",""0"",""0""
""blur"",""0"",""0""
""focus"",""0"",""0""
""blur"",""0"",""0""
""focus"",""1"",""11296""
""fullscreenenter"",""1"",""12673""
""fullscreenexit"",""2"",""13699""
""blur"",""2"",""16642""
""focus"",""4"",""85582""
""blur"",""21"",""268766""
""focus"",""21"",""269825""
""blur"",""21"",""279780""
""focus"",""22"",""282242""
""blur"",""24"",""286227""
""focus"",""24"",""292411""
""blur"",""44"",""325542""
""focus"",""45"",""416617""
""blur"",""47"",""420430""
""focus"",""48"",""427576""
""blur"",""49"",""430867""
""focus"",""49"",""432831""
""blur"",""51"",""437533""
""focus"",""51"",""438741""
""blur"",""55"",""454423""
""focus"",""56"",""458947""
""blur"",""56"",""460378""
""focus"",""57"",""461498""
""blur"",""58"",""469379""
""focus"",""59"",""477646""
","""event"",""trial"",""time""
""blur"",""0"",""0""
""blur"",""0"",""0""
""blur"",""0"",""0""
""blur"",""0"",""0""
""blur"",""2"",""16642""
""blur"",""21"",""268766""
""blur"",""21"",""279780""
""blur"",""24"",""286227""
""blur"",""44"",""325542""
""blur"",""47"",""420430""
""blur"",""49"",""430867""
""blur"",""51"",""437533""
""blur"",""55"",""454423""
""blur"",""56"",""460378""
""blur"",""58"",""469379""
","""event"",""trial"",""time""
""focus"",""0"",""0""
""focus"",""0"",""0""
""focus"",""0"",""0""
""focus"",""0"",""0""
""focus"",""1"",""11296""
""focus"",""4"",""85582""
""focus"",""21"",""269825""
""focus"",""22"",""282242""
""focus"",""24"",""292411""
""focus"",""45"",""416617""
""focus"",""48"",""427576""
""focus"",""49"",""432831""
""focus"",""51"",""438741""
""focus"",""56"",""458947""
""focus"",""57"",""461498""
""focus"",""59"",""477646""
","""event"",""trial"",""time""
""fullscreenenter"",""1"",""12673""
","""event"",""trial"",""time""
""fullscreenexit"",""2"",""13699""
",,null,run_exp/static/audio/clip_28_real_game.m4a,null,,,,,,,,,,,,,,,,,,,,,,,,
instruc_begin_exp_contine,59,478726,0.0-22.0-3.0,"""event"",""trial"",""time""
""focus"",""0"",""0""
""blur"",""0"",""0""
""focus"",""0"",""0""
""blur"",""0"",""0""
""focus"",""0"",""0""
""blur"",""0"",""0""
""focus"",""0"",""0""
""blur"",""0"",""0""
""focus"",""1"",""11296""
""fullscreenenter"",""1"",""12673""
""fullscreenexit"",""2"",""13699""
""blur"",""2"",""16642""
""focus"",""4"",""85582""
""blur"",""21"",""268766""
""focus"",""21"",""269825""
""blur"",""21"",""279780""
""focus"",""22"",""282242""
""blur"",""24"",""286227""
""focus"",""24"",""292411""
""blur"",""44"",""325542""
""focus"",""45"",""416617""
""blur"",""47"",""420430""
""focus"",""48"",""427576""
""blur"",""49"",""430867""
""focus"",""49"",""432831""
""blur"",""51"",""437533""
""focus"",""51"",""438741""
""blur"",""55"",""454423""
""focus"",""56"",""458947""
""blur"",""56"",""460378""
""focus"",""57"",""461498""
""blur"",""58"",""469379""
""focus"",""59"",""477646""
","""event"",""trial"",""time""
""blur"",""0"",""0""
""blur"",""0"",""0""
""blur"",""0"",""0""
""blur"",""0"",""0""
""blur"",""2"",""16642""
""blur"",""21"",""268766""
""blur"",""21"",""279780""
""blur"",""24"",""286227""
""blur"",""44"",""325542""
""blur"",""47"",""420430""
""blur"",""49"",""430867""
""blur"",""51"",""437533""
""blur"",""55"",""454423""
""blur"",""56"",""460378""
""blur"",""58"",""469379""
","""event"",""trial"",""time""
""focus"",""0"",""0""
""focus"",""0"",""0""
""focus"",""0"",""0""
""focus"",""0"",""0""
""focus"",""1"",""11296""
""focus"",""4"",""85582""
""focus"",""21"",""269825""
""focus"",""22"",""282242""
""focus"",""24"",""292411""
""focus"",""45"",""416617""
""focus"",""48"",""427576""
""focus"",""49"",""432831""
""focus"",""51"",""438741""
""focus"",""56"",""458947""
""focus"",""57"",""461498""
""focus"",""59"",""477646""
","""event"",""trial"",""time""
""fullscreenenter"",""1"",""12673""
","""event"",""trial"",""time""
""fullscreenexit"",""2"",""13699""
",,5614,"<p>Now that you know how  to dig for space treasure and travel to new planets,you can start exploring! </p><p>Do you want to go over the instructions again or get started with the real game?</p>",,,,,,,1,,,,,,1,,,,,,,,,,,,
alien_welcome,60,484099,0.0-23.0-0.0,"""event"",""trial"",""time""
""focus"",""0"",""0""
""blur"",""0"",""0""
""focus"",""0"",""0""
""blur"",""0"",""0""
""focus"",""0"",""0""
""blur"",""0"",""0""
""focus"",""0"",""0""
""blur"",""0"",""0""
""focus"",""1"",""11296""
""fullscreenenter"",""1"",""12673""
""fullscreenexit"",""2"",""13699""
""blur"",""2"",""16642""
""focus"",""4"",""85582""
""blur"",""21"",""268766""
""focus"",""21"",""269825""
""blur"",""21"",""279780""
""focus"",""22"",""282242""
""blur"",""24"",""286227""
""focus"",""24"",""292411""
""blur"",""44"",""325542""
""focus"",""45"",""416617""
""blur"",""47"",""420430""
""focus"",""48"",""427576""
""blur"",""49"",""430867""
""focus"",""49"",""432831""
""blur"",""51"",""437533""
""focus"",""51"",""438741""
""blur"",""55"",""454423""
""focus"",""56"",""458947""
""blur"",""56"",""460378""
""focus"",""57"",""461498""
""blur"",""58"",""469379""
""focus"",""59"",""477646""
","""event"",""trial"",""time""
""blur"",""0"",""0""
""blur"",""0"",""0""
""blur"",""0"",""0""
""blur"",""0"",""0""
""blur"",""2"",""16642""
""blur"",""21"",""268766""
""blur"",""21"",""279780""
""blur"",""24"",""286227""
""blur"",""44"",""325542""
""blur"",""47"",""420430""
""blur"",""49"",""430867""
""blur"",""51"",""437533""
""blur"",""55"",""454423""
""blur"",""56"",""460378""
""blur"",""58"",""469379""
","""event"",""trial"",""time""
""focus"",""0"",""0""
""focus"",""0"",""0""
""focus"",""0"",""0""
""focus"",""0"",""0""
""focus"",""1"",""11296""
""focus"",""4"",""85582""
""focus"",""21"",""269825""
""focus"",""22"",""282242""
""focus"",""24"",""292411""
""focus"",""45"",""416617""
""focus"",""48"",""427576""
""focus"",""49"",""432831""
""focus"",""51"",""438741""
""focus"",""56"",""458947""
""focus"",""57"",""461498""
""focus"",""59"",""477646""
","""event"",""trial"",""time""
""fullscreenenter"",""1"",""12673""
","""event"",""trial"",""time""
""fullscreenexit"",""2"",""13699""
",,null,run_exp/static/images/task_images/aliens/old_aliens/planet/alien_planet-12.jpg,null,,,,,,,,,,,,,12,"12,80,45,10,67,70,1,15,25,41,4,6,72,44,37,40,9,51,30,71,56,33,75,69,39,68,66,50,61,62,24,22,53",,,,,,,,,,
land,61,484604,0.0-23.0-1.0,"""event"",""trial"",""time""
""focus"",""0"",""0""
""blur"",""0"",""0""
""focus"",""0"",""0""
""blur"",""0"",""0""
""focus"",""0"",""0""
""blur"",""0"",""0""
""focus"",""0"",""0""
""blur"",""0"",""0""
""focus"",""1"",""11296""
""fullscreenenter"",""1"",""12673""
""fullscreenexit"",""2"",""13699""
""blur"",""2"",""16642""
""focus"",""4"",""85582""
""blur"",""21"",""268766""
""focus"",""21"",""269825""
""blur"",""21"",""279780""
""focus"",""22"",""282242""
""blur"",""24"",""286227""
""focus"",""24"",""292411""
""blur"",""44"",""325542""
""focus"",""45"",""416617""
""blur"",""47"",""420430""
""focus"",""48"",""427576""
""blur"",""49"",""430867""
""focus"",""49"",""432831""
""blur"",""51"",""437533""
""focus"",""51"",""438741""
""blur"",""55"",""454423""
""focus"",""56"",""458947""
""blur"",""56"",""460378""
""focus"",""57"",""461498""
""blur"",""58"",""469379""
""focus"",""59"",""477646""
","""event"",""trial"",""time""
""blur"",""0"",""0""
""blur"",""0"",""0""
""blur"",""0"",""0""
""blur"",""0"",""0""
""blur"",""2"",""16642""
""blur"",""21"",""268766""
""blur"",""21"",""279780""
""blur"",""24"",""286227""
""blur"",""44"",""325542""
""blur"",""47"",""420430""
""blur"",""49"",""430867""
""blur"",""51"",""437533""
""blur"",""55"",""454423""
""blur"",""56"",""460378""
""blur"",""58"",""469379""
","""event"",""trial"",""time""
""focus"",""0"",""0""
""focus"",""0"",""0""
""focus"",""0"",""0""
""focus"",""0"",""0""
""focus"",""1"",""11296""
""focus"",""4"",""85582""
""focus"",""21"",""269825""
""focus"",""22"",""282242""
""focus"",""24"",""292411""
""focus"",""45"",""416617""
""focus"",""48"",""427576""
""focus"",""49"",""432831""
""focus"",""51"",""438741""
""focus"",""56"",""458947""
""focus"",""57"",""461498""
""focus"",""59"",""477646""
","""event"",""trial"",""time""
""fullscreenenter"",""1"",""12673""
","""event"",""trial"",""time""
""fullscreenexit"",""2"",""13699""
",,null,run_exp/static/images/task_images/land.jpg,null,,,,,,,103,,,1,,,,,,,,,,,,,,
dig,62,486641,0.0-23.0-2.0,"""event"",""trial"",""time""
""focus"",""0"",""0""
""blur"",""0"",""0""
""focus"",""0"",""0""
""blur"",""0"",""0""
""focus"",""0"",""0""
""blur"",""0"",""0""
""focus"",""0"",""0""
""blur"",""0"",""0""
""focus"",""1"",""11296""
""fullscreenenter"",""1"",""12673""
""fullscreenexit"",""2"",""13699""
""blur"",""2"",""16642""
""focus"",""4"",""85582""
""blur"",""21"",""268766""
""focus"",""21"",""269825""
""blur"",""21"",""279780""
""focus"",""22"",""282242""
""blur"",""24"",""286227""
""focus"",""24"",""292411""
""blur"",""44"",""325542""
""focus"",""45"",""416617""
""blur"",""47"",""420430""
""focus"",""48"",""427576""
""blur"",""49"",""430867""
""focus"",""49"",""432831""
""blur"",""51"",""437533""
""focus"",""51"",""438741""
""blur"",""55"",""454423""
""focus"",""56"",""458947""
""blur"",""56"",""460378""
""focus"",""57"",""461498""
""blur"",""58"",""469379""
""focus"",""59"",""477646""
","""event"",""trial"",""time""
""blur"",""0"",""0""
""blur"",""0"",""0""
""blur"",""0"",""0""
""blur"",""0"",""0""
""blur"",""2"",""16642""
""blur"",""21"",""268766""
""blur"",""21"",""279780""
""blur"",""24"",""286227""
""blur"",""44"",""325542""
""blur"",""47"",""420430""
""blur"",""49"",""430867""
""blur"",""51"",""437533""
""blur"",""55"",""454423""
""blur"",""56"",""460378""
""blur"",""58"",""469379""
","""event"",""trial"",""time""
""focus"",""0"",""0""
""focus"",""0"",""0""
""focus"",""0"",""0""
""focus"",""0"",""0""
""focus"",""1"",""11296""
""focus"",""4"",""85582""
""focus"",""21"",""269825""
""focus"",""22"",""282242""
""focus"",""24"",""292411""
""focus"",""45"",""416617""
""focus"",""48"",""427576""
""focus"",""49"",""432831""
""focus"",""51"",""438741""
""focus"",""56"",""458947""
""focus"",""57"",""461498""
""focus"",""59"",""477646""
","""event"",""trial"",""time""
""fullscreenenter"",""1"",""12673""
","""event"",""trial"",""time""
""fullscreenexit"",""2"",""13699""
",,,,,,,,,,,,"[{""stimulus"":""run_exp/static/images/task_images/dig.jpg"",""time"":0},{""stimulus"":""run_exp/static/images/task_images/land.jpg"",""time"":688},{""stimulus"":""run_exp/static/images/task_images/dig.jpg"",""time"":1360}]",[],1,,,,,,,,,,,,,,
harvest,63,487649,0.0-23.0-3.0,"""event"",""trial"",""time""
""focus"",""0"",""0""
""blur"",""0"",""0""
""focus"",""0"",""0""
""blur"",""0"",""0""
""focus"",""0"",""0""
""blur"",""0"",""0""
""focus"",""0"",""0""
""blur"",""0"",""0""
""focus"",""1"",""11296""
""fullscreenenter"",""1"",""12673""
""fullscreenexit"",""2"",""13699""
""blur"",""2"",""16642""
""focus"",""4"",""85582""
""blur"",""21"",""268766""
""focus"",""21"",""269825""
""blur"",""21"",""279780""
""focus"",""22"",""282242""
""blur"",""24"",""286227""
""focus"",""24"",""292411""
""blur"",""44"",""325542""
""focus"",""45"",""416617""
""blur"",""47"",""420430""
""focus"",""48"",""427576""
""blur"",""49"",""430867""
""focus"",""49"",""432831""
""blur"",""51"",""437533""
""focus"",""51"",""438741""
""blur"",""55"",""454423""
""focus"",""56"",""458947""
""blur"",""56"",""460378""
""focus"",""57"",""461498""
""blur"",""58"",""469379""
""focus"",""59"",""477646""
","""event"",""trial"",""time""
""blur"",""0"",""0""
""blur"",""0"",""0""
""blur"",""0"",""0""
""blur"",""0"",""0""
""blur"",""2"",""16642""
""blur"",""21"",""268766""
""blur"",""21"",""279780""
""blur"",""24"",""286227""
""blur"",""44"",""325542""
""blur"",""47"",""420430""
""blur"",""49"",""430867""
""blur"",""51"",""437533""
""blur"",""55"",""454423""
""blur"",""56"",""460378""
""blur"",""58"",""469379""
","""event"",""trial"",""time""
""focus"",""0"",""0""
""focus"",""0"",""0""
""focus"",""0"",""0""
""focus"",""0"",""0""
""focus"",""1"",""11296""
""focus"",""4"",""85582""
""focus"",""21"",""269825""
""focus"",""22"",""282242""
""focus"",""24"",""292411""
""focus"",""45"",""416617""
""focus"",""48"",""427576""
""focus"",""49"",""432831""
""focus"",""51"",""438741""
""focus"",""56"",""458947""
""focus"",""57"",""461498""
""focus"",""59"",""477646""
","""event"",""trial"",""time""
""fullscreenenter"",""1"",""12673""
","""event"",""trial"",""time""
""fullscreenexit"",""2"",""13699""
",,null,run_exp/static/images/task_images/gems/103.jpg,null,,,,,,,27,,,1,,,,,103,0.264932452,0.262135922,,,,,,,
decision,64,488679,0.0-23.0-4.0,"""event"",""trial"",""time""
""focus"",""0"",""0""
""blur"",""0"",""0""
""focus"",""0"",""0""
""blur"",""0"",""0""
""focus"",""0"",""0""
""blur"",""0"",""0""
""focus"",""0"",""0""
""blur"",""0"",""0""
""focus"",""1"",""11296""
""fullscreenenter"",""1"",""12673""
""fullscreenexit"",""2"",""13699""
""blur"",""2"",""16642""
""focus"",""4"",""85582""
""blur"",""21"",""268766""
""focus"",""21"",""269825""
""blur"",""21"",""279780""
""focus"",""22"",""282242""
""blur"",""24"",""286227""
""focus"",""24"",""292411""
""blur"",""44"",""325542""
""focus"",""45"",""416617""
""blur"",""47"",""420430""
""focus"",""48"",""427576""
""blur"",""49"",""430867""
""focus"",""49"",""432831""
""blur"",""51"",""437533""
""focus"",""51"",""438741""
""blur"",""55"",""454423""
""focus"",""56"",""458947""
""blur"",""56"",""460378""
""focus"",""57"",""461498""
""blur"",""58"",""469379""
""focus"",""59"",""477646""
","""event"",""trial"",""time""
""blur"",""0"",""0""
""blur"",""0"",""0""
""blur"",""0"",""0""
""blur"",""0"",""0""
""blur"",""2"",""16642""
""blur"",""21"",""268766""
""blur"",""21"",""279780""
""blur"",""24"",""286227""
""blur"",""44"",""325542""
""blur"",""47"",""420430""
""blur"",""49"",""430867""
""blur"",""51"",""437533""
""blur"",""55"",""454423""
""blur"",""56"",""460378""
""blur"",""58"",""469379""
","""event"",""trial"",""time""
""focus"",""0"",""0""
""focus"",""0"",""0""
""focus"",""0"",""0""
""focus"",""0"",""0""
""focus"",""1"",""11296""
""focus"",""4"",""85582""
""focus"",""21"",""269825""
""focus"",""22"",""282242""
""focus"",""24"",""292411""
""focus"",""45"",""416617""
""focus"",""48"",""427576""
""focus"",""49"",""432831""
""focus"",""51"",""438741""
""focus"",""56"",""458947""
""focus"",""57"",""461498""
""focus"",""59"",""477646""
","""event"",""trial"",""time""
""fullscreenenter"",""1"",""12673""
","""event"",""trial"",""time""
""fullscreenexit"",""2"",""13699""
",,1028,run_exp/static/images/task_images/land.jpg,65,,,,,,,27,,,1,,,,,,,,9951,1,0,FALSE,,,
dig,65,490715,0.0-24.0-0.0,"""event"",""trial"",""time""
""focus"",""0"",""0""
""blur"",""0"",""0""
""focus"",""0"",""0""
""blur"",""0"",""0""
""focus"",""0"",""0""
""blur"",""0"",""0""
""focus"",""0"",""0""
""blur"",""0"",""0""
""focus"",""1"",""11296""
""fullscreenenter"",""1"",""12673""
""fullscreenexit"",""2"",""13699""
""blur"",""2"",""16642""
""focus"",""4"",""85582""
""blur"",""21"",""268766""
""focus"",""21"",""269825""
""blur"",""21"",""279780""
""focus"",""22"",""282242""
""blur"",""24"",""286227""
""focus"",""24"",""292411""
""blur"",""44"",""325542""
""focus"",""45"",""416617""
""blur"",""47"",""420430""
""focus"",""48"",""427576""
""blur"",""49"",""430867""
""focus"",""49"",""432831""
""blur"",""51"",""437533""
""focus"",""51"",""438741""
""blur"",""55"",""454423""
""focus"",""56"",""458947""
""blur"",""56"",""460378""
""focus"",""57"",""461498""
""blur"",""58"",""469379""
""focus"",""59"",""477646""
","""event"",""trial"",""time""
""blur"",""0"",""0""
""blur"",""0"",""0""
""blur"",""0"",""0""
""blur"",""0"",""0""
""blur"",""2"",""16642""
""blur"",""21"",""268766""
""blur"",""21"",""279780""
""blur"",""24"",""286227""
""blur"",""44"",""325542""
""blur"",""47"",""420430""
""blur"",""49"",""430867""
""blur"",""51"",""437533""
""blur"",""55"",""454423""
""blur"",""56"",""460378""
""blur"",""58"",""469379""
","""event"",""trial"",""time""
""focus"",""0"",""0""
""focus"",""0"",""0""
""focus"",""0"",""0""
""focus"",""0"",""0""
""focus"",""1"",""11296""
""focus"",""4"",""85582""
""focus"",""21"",""269825""
""focus"",""22"",""282242""
""focus"",""24"",""292411""
""focus"",""45"",""416617""
""focus"",""48"",""427576""
""focus"",""49"",""432831""
""focus"",""51"",""438741""
""focus"",""56"",""458947""
""focus"",""57"",""461498""
""focus"",""59"",""477646""
","""event"",""trial"",""time""
""fullscreenenter"",""1"",""12673""
","""event"",""trial"",""time""
""fullscreenexit"",""2"",""13699""
