trial_type,trial_index,time_elapsed,internal_node_id,interactions,blur_events,focus_events,fullscreenenter_events,fullscreenexit_events,success,rt,stimulus,key_press,prompt,subject_id,participant_id,age,gender,button_pressed,next_reward,animation_sequence,responses,planet,curr_prac_trial,n_prac_rounds,alien,aliens,reward_received,decay_rate_actual,decay_rate_exp,time_in_block,block_num,prt,last_trial_on_planet,button_html,bonus,num_failures
pavlovia,0,4,0.0-0.0,"""event"",""trial"",""time""
""blur"",""0"",""0""
""focus"",""0"",""0""
""blur"",""0"",""0""
""focus"",""0"",""0""
""blur"",""0"",""0""
""focus"",""0"",""0""
""blur"",""0"",""0""
""focus"",""0"",""0""
""blur"",""0"",""0""
""focus"",""0"",""0""
""blur"",""0"",""0""
""focus"",""0"",""0""
""blur"",""0"",""0""
""focus"",""0"",""0""
""blur"",""0"",""0""
""focus"",""0"",""0""
""blur"",""0"",""0""
""focus"",""0"",""0""
""blur"",""0"",""0""
""focus"",""0"",""0""
""blur"",""0"",""0""
""focus"",""0"",""0""
""blur"",""0"",""0""
""focus"",""0"",""0""
""blur"",""0"",""0""
""focus"",""0"",""0""
""blur"",""0"",""0""
""focus"",""0"",""0""
""blur"",""0"",""0""
""focus"",""0"",""0""
""blur"",""0"",""0""
""focus"",""0"",""0""
""fullscreenenter"",""1"",""79972""
","""event"",""trial"",""time""
""blur"",""0"",""0""
""blur"",""0"",""0""
""blur"",""0"",""0""
""blur"",""0"",""0""
""blur"",""0"",""0""
""blur"",""0"",""0""
""blur"",""0"",""0""
""blur"",""0"",""0""
""blur"",""0"",""0""
""blur"",""0"",""0""
""blur"",""0"",""0""
""blur"",""0"",""0""
""blur"",""0"",""0""
""blur"",""0"",""0""
""blur"",""0"",""0""
""blur"",""0"",""0""
","""event"",""trial"",""time""
""focus"",""0"",""0""
""focus"",""0"",""0""
""focus"",""0"",""0""
""focus"",""0"",""0""
""focus"",""0"",""0""
""focus"",""0"",""0""
""focus"",""0"",""0""
""focus"",""0"",""0""
""focus"",""0"",""0""
""focus"",""0"",""0""
""focus"",""0"",""0""
""focus"",""0"",""0""
""focus"",""0"",""0""
""focus"",""0"",""0""
""focus"",""0"",""0""
""focus"",""0"",""0""
","""event"",""trial"",""time""
""fullscreenenter"",""1"",""79972""
","
",,,,,,,,,,,,,,,,,,,,,,,,,,,,
fullscreen,1,80954,0.0-1.0,"""event"",""trial"",""time""
""blur"",""0"",""0""
""focus"",""0"",""0""
""blur"",""0"",""0""
""focus"",""0"",""0""
""blur"",""0"",""0""
""focus"",""0"",""0""
""blur"",""0"",""0""
""focus"",""0"",""0""
""blur"",""0"",""0""
""focus"",""0"",""0""
""blur"",""0"",""0""
""focus"",""0"",""0""
""blur"",""0"",""0""
""focus"",""0"",""0""
""blur"",""0"",""0""
""focus"",""0"",""0""
""blur"",""0"",""0""
""focus"",""0"",""0""
""blur"",""0"",""0""
""focus"",""0"",""0""
""blur"",""0"",""0""
""focus"",""0"",""0""
""blur"",""0"",""0""
""focus"",""0"",""0""
""blur"",""0"",""0""
""focus"",""0"",""0""
""blur"",""0"",""0""
""focus"",""0"",""0""
""blur"",""0"",""0""
""focus"",""0"",""0""
""blur"",""0"",""0""
""focus"",""0"",""0""
""fullscreenenter"",""1"",""79972""
","""event"",""trial"",""time""
""blur"",""0"",""0""
""blur"",""0"",""0""
""blur"",""0"",""0""
""blur"",""0"",""0""
""blur"",""0"",""0""
""blur"",""0"",""0""
""blur"",""0"",""0""
""blur"",""0"",""0""
""blur"",""0"",""0""
""blur"",""0"",""0""
""blur"",""0"",""0""
""blur"",""0"",""0""
""blur"",""0"",""0""
""blur"",""0"",""0""
""blur"",""0"",""0""
""blur"",""0"",""0""
","""event"",""trial"",""time""
""focus"",""0"",""0""
""focus"",""0"",""0""
""focus"",""0"",""0""
""focus"",""0"",""0""
""focus"",""0"",""0""
""focus"",""0"",""0""
""focus"",""0"",""0""
""focus"",""0"",""0""
""focus"",""0"",""0""
""focus"",""0"",""0""
""focus"",""0"",""0""
""focus"",""0"",""0""
""focus"",""0"",""0""
""focus"",""0"",""0""
""focus"",""0"",""0""
""focus"",""0"",""0""
","""event"",""trial"",""time""
""fullscreenenter"",""1"",""79972""
","
",TRUE,,,,,,,,,,,,,,,,,,,,,,,,,,,
instruc_welcome,2,91221,0.0-2.0,"""event"",""trial"",""time""
""blur"",""0"",""0""
""focus"",""0"",""0""
""blur"",""0"",""0""
""focus"",""0"",""0""
""blur"",""0"",""0""
""focus"",""0"",""0""
""blur"",""0"",""0""
""focus"",""0"",""0""
""blur"",""0"",""0""
""focus"",""0"",""0""
""blur"",""0"",""0""
""focus"",""0"",""0""
""blur"",""0"",""0""
""focus"",""0"",""0""
""blur"",""0"",""0""
""focus"",""0"",""0""
""blur"",""0"",""0""
""focus"",""0"",""0""
""blur"",""0"",""0""
""focus"",""0"",""0""
""blur"",""0"",""0""
""focus"",""0"",""0""
""blur"",""0"",""0""
""focus"",""0"",""0""
""blur"",""0"",""0""
""focus"",""0"",""0""
""blur"",""0"",""0""
""focus"",""0"",""0""
""blur"",""0"",""0""
""focus"",""0"",""0""
""blur"",""0"",""0""
""focus"",""0"",""0""
""fullscreenenter"",""1"",""79972""
","""event"",""trial"",""time""
""blur"",""0"",""0""
""blur"",""0"",""0""
""blur"",""0"",""0""
""blur"",""0"",""0""
""blur"",""0"",""0""
""blur"",""0"",""0""
""blur"",""0"",""0""
""blur"",""0"",""0""
""blur"",""0"",""0""
""blur"",""0"",""0""
""blur"",""0"",""0""
""blur"",""0"",""0""
""blur"",""0"",""0""
""blur"",""0"",""0""
""blur"",""0"",""0""
""blur"",""0"",""0""
","""event"",""trial"",""time""
""focus"",""0"",""0""
""focus"",""0"",""0""
""focus"",""0"",""0""
""focus"",""0"",""0""
""focus"",""0"",""0""
""focus"",""0"",""0""
""focus"",""0"",""0""
""focus"",""0"",""0""
""focus"",""0"",""0""
""focus"",""0"",""0""
""focus"",""0"",""0""
""focus"",""0"",""0""
""focus"",""0"",""0""
""focus"",""0"",""0""
""focus"",""0"",""0""
""focus"",""0"",""0""
","""event"",""trial"",""time""
""fullscreenenter"",""1"",""79972""
","
",,null,run_exp/static/audio/clip_1_welcome.m4a,null,"<p>Howdy! In this experiment, you’ll be an explorer traveling through space to collect space treasure.</p><p>Your mission is to collect as much treasure as possible.</p><br><br><p><img src='run_exp/static/images/task_images/opening_img-01.jpg' height='300' width='auto'></p>",9236,3197,21.22,Male,,,,,,,,,,,,,,,,,,,
audio-keyboard-response,3,107820,0.0-3.0,"""event"",""trial"",""time""
""blur"",""0"",""0""
""focus"",""0"",""0""
""blur"",""0"",""0""
""focus"",""0"",""0""
""blur"",""0"",""0""
""focus"",""0"",""0""
""blur"",""0"",""0""
""focus"",""0"",""0""
""blur"",""0"",""0""
""focus"",""0"",""0""
""blur"",""0"",""0""
""focus"",""0"",""0""
""blur"",""0"",""0""
""focus"",""0"",""0""
""blur"",""0"",""0""
""focus"",""0"",""0""
""blur"",""0"",""0""
""focus"",""0"",""0""
""blur"",""0"",""0""
""focus"",""0"",""0""
""blur"",""0"",""0""
""focus"",""0"",""0""
""blur"",""0"",""0""
""focus"",""0"",""0""
""blur"",""0"",""0""
""focus"",""0"",""0""
""blur"",""0"",""0""
""focus"",""0"",""0""
""blur"",""0"",""0""
""focus"",""0"",""0""
""blur"",""0"",""0""
""focus"",""0"",""0""
""fullscreenenter"",""1"",""79972""
","""event"",""trial"",""time""
""blur"",""0"",""0""
""blur"",""0"",""0""
""blur"",""0"",""0""
""blur"",""0"",""0""
""blur"",""0"",""0""
""blur"",""0"",""0""
""blur"",""0"",""0""
""blur"",""0"",""0""
""blur"",""0"",""0""
""blur"",""0"",""0""
""blur"",""0"",""0""
""blur"",""0"",""0""
""blur"",""0"",""0""
""blur"",""0"",""0""
""blur"",""0"",""0""
""blur"",""0"",""0""
","""event"",""trial"",""time""
""focus"",""0"",""0""
""focus"",""0"",""0""
""focus"",""0"",""0""
""focus"",""0"",""0""
""focus"",""0"",""0""
""focus"",""0"",""0""
""focus"",""0"",""0""
""focus"",""0"",""0""
""focus"",""0"",""0""
""focus"",""0"",""0""
""focus"",""0"",""0""
""focus"",""0"",""0""
""focus"",""0"",""0""
""focus"",""0"",""0""
""focus"",""0"",""0""
""focus"",""0"",""0""
","""event"",""trial"",""time""
""fullscreenenter"",""1"",""79972""
","
",,null,run_exp/static/audio/clip_2_move.m4a,null,,,,,,,,,,,,,,,,,,,,,,,,
welcome_dec,4,113881,0.0-4.0,"""event"",""trial"",""time""
""blur"",""0"",""0""
""focus"",""0"",""0""
""blur"",""0"",""0""
""focus"",""0"",""0""
""blur"",""0"",""0""
""focus"",""0"",""0""
""blur"",""0"",""0""
""focus"",""0"",""0""
""blur"",""0"",""0""
""focus"",""0"",""0""
""blur"",""0"",""0""
""focus"",""0"",""0""
""blur"",""0"",""0""
""focus"",""0"",""0""
""blur"",""0"",""0""
""focus"",""0"",""0""
""blur"",""0"",""0""
""focus"",""0"",""0""
""blur"",""0"",""0""
""focus"",""0"",""0""
""blur"",""0"",""0""
""focus"",""0"",""0""
""blur"",""0"",""0""
""focus"",""0"",""0""
""blur"",""0"",""0""
""focus"",""0"",""0""
""blur"",""0"",""0""
""focus"",""0"",""0""
""blur"",""0"",""0""
""focus"",""0"",""0""
""blur"",""0"",""0""
""focus"",""0"",""0""
""fullscreenenter"",""1"",""79972""
","""event"",""trial"",""time""
""blur"",""0"",""0""
""blur"",""0"",""0""
""blur"",""0"",""0""
""blur"",""0"",""0""
""blur"",""0"",""0""
""blur"",""0"",""0""
""blur"",""0"",""0""
""blur"",""0"",""0""
""blur"",""0"",""0""
""blur"",""0"",""0""
""blur"",""0"",""0""
""blur"",""0"",""0""
""blur"",""0"",""0""
""blur"",""0"",""0""
""blur"",""0"",""0""
""blur"",""0"",""0""
","""event"",""trial"",""time""
""focus"",""0"",""0""
""focus"",""0"",""0""
""focus"",""0"",""0""
""focus"",""0"",""0""
""focus"",""0"",""0""
""focus"",""0"",""0""
""focus"",""0"",""0""
""focus"",""0"",""0""
""focus"",""0"",""0""
""focus"",""0"",""0""
""focus"",""0"",""0""
""focus"",""0"",""0""
""focus"",""0"",""0""
""focus"",""0"",""0""
""focus"",""0"",""0""
""focus"",""0"",""0""
","""event"",""trial"",""time""
""fullscreenenter"",""1"",""79972""
","
",,6058.6,"<p>Howdy! In this experiment, you’ll be an explorer traveling through space to collect space treasure.</p><p>Your mission is to collect as much treasure as possible.</p><br><br><p><img src='run_exp/static/images/task_images/opening_img-01.jpg' height='300' width='auto'></p>",,,,,,,1,,,,,,,,,,,,,,,,,,
html-keyboard-response,5,117691,0.0-5.0,"""event"",""trial"",""time""
""blur"",""0"",""0""
""focus"",""0"",""0""
""blur"",""0"",""0""
""focus"",""0"",""0""
""blur"",""0"",""0""
""focus"",""0"",""0""
""blur"",""0"",""0""
""focus"",""0"",""0""
""blur"",""0"",""0""
""focus"",""0"",""0""
""blur"",""0"",""0""
""focus"",""0"",""0""
""blur"",""0"",""0""
""focus"",""0"",""0""
""blur"",""0"",""0""
""focus"",""0"",""0""
""blur"",""0"",""0""
""focus"",""0"",""0""
""blur"",""0"",""0""
""focus"",""0"",""0""
""blur"",""0"",""0""
""focus"",""0"",""0""
""blur"",""0"",""0""
""focus"",""0"",""0""
""blur"",""0"",""0""
""focus"",""0"",""0""
""blur"",""0"",""0""
""focus"",""0"",""0""
""blur"",""0"",""0""
""focus"",""0"",""0""
""blur"",""0"",""0""
""focus"",""0"",""0""
""fullscreenenter"",""1"",""79972""
","""event"",""trial"",""time""
""blur"",""0"",""0""
""blur"",""0"",""0""
""blur"",""0"",""0""
""blur"",""0"",""0""
""blur"",""0"",""0""
""blur"",""0"",""0""
""blur"",""0"",""0""
""blur"",""0"",""0""
""blur"",""0"",""0""
""blur"",""0"",""0""
""blur"",""0"",""0""
""blur"",""0"",""0""
""blur"",""0"",""0""
""blur"",""0"",""0""
""blur"",""0"",""0""
""blur"",""0"",""0""
","""event"",""trial"",""time""
""focus"",""0"",""0""
""focus"",""0"",""0""
""focus"",""0"",""0""
""focus"",""0"",""0""
""focus"",""0"",""0""
""focus"",""0"",""0""
""focus"",""0"",""0""
""focus"",""0"",""0""
""focus"",""0"",""0""
""focus"",""0"",""0""
""focus"",""0"",""0""
""focus"",""0"",""0""
""focus"",""0"",""0""
""focus"",""0"",""0""
""focus"",""0"",""0""
""focus"",""0"",""0""
","""event"",""trial"",""time""
""fullscreenenter"",""1"",""79972""
","
",,3807.4,"<p>Howdy! In this experiment, you’ll be an explorer traveling through space to collect space treasure.</p><p>Your mission is to collect as much treasure as possible.</p><br><br><p><img src='run_exp/static/images/task_images/opening_img-01.jpg' height='300' width='auto'></p><button class=""jspsych-html-btn-unchosen""><img src=""run_exp/static/images/task_images/planet-01.jpg"" height=""50""></button><button class=""jspsych-html-btn-chosen""><img src=""run_exp/static/images/task_images/planet-02.jpg"" height=""50""></button><p><b>[press the space bar to lock in your answer]<b><br></p>",32,,,,,,,,,,,,,,,,,,,,,,,,
instruc_goal,6,127779,0.0-6.0-0.0,"""event"",""trial"",""time""
""blur"",""0"",""0""
""focus"",""0"",""0""
""blur"",""0"",""0""
""focus"",""0"",""0""
""blur"",""0"",""0""
""focus"",""0"",""0""
""blur"",""0"",""0""
""focus"",""0"",""0""
""blur"",""0"",""0""
""focus"",""0"",""0""
""blur"",""0"",""0""
""focus"",""0"",""0""
""blur"",""0"",""0""
""focus"",""0"",""0""
""blur"",""0"",""0""
""focus"",""0"",""0""
""blur"",""0"",""0""
""focus"",""0"",""0""
""blur"",""0"",""0""
""focus"",""0"",""0""
""blur"",""0"",""0""
""focus"",""0"",""0""
""blur"",""0"",""0""
""focus"",""0"",""0""
""blur"",""0"",""0""
""focus"",""0"",""0""
""blur"",""0"",""0""
""focus"",""0"",""0""
""blur"",""0"",""0""
""focus"",""0"",""0""
""blur"",""0"",""0""
""focus"",""0"",""0""
""fullscreenenter"",""1"",""79972""
","""event"",""trial"",""time""
""blur"",""0"",""0""
""blur"",""0"",""0""
""blur"",""0"",""0""
""blur"",""0"",""0""
""blur"",""0"",""0""
""blur"",""0"",""0""
""blur"",""0"",""0""
""blur"",""0"",""0""
""blur"",""0"",""0""
""blur"",""0"",""0""
""blur"",""0"",""0""
""blur"",""0"",""0""
""blur"",""0"",""0""
""blur"",""0"",""0""
""blur"",""0"",""0""
""blur"",""0"",""0""
","""event"",""trial"",""time""
""focus"",""0"",""0""
""focus"",""0"",""0""
""focus"",""0"",""0""
""focus"",""0"",""0""
""focus"",""0"",""0""
""focus"",""0"",""0""
""focus"",""0"",""0""
""focus"",""0"",""0""
""focus"",""0"",""0""
""focus"",""0"",""0""
""focus"",""0"",""0""
""focus"",""0"",""0""
""focus"",""0"",""0""
""focus"",""0"",""0""
""focus"",""0"",""0""
""focus"",""0"",""0""
","""event"",""trial"",""time""
""fullscreenenter"",""1"",""79972""
","
",,null,run_exp/static/audio/clip_3_goal.m4a,null,"<p> As a space explorer, you’ll visit different planets to dig for space treasure, these pink gems.</p> <p> The more treasure you dig up, the more bonus money you’ll win! </p><br><br><p><img src='run_exp/static/images/task_images/pink_gem.jpg' height='300' width='auto'></p>",,,,,,,,,,,,,,,,,,,,,,,
instruc_goal,7,129185,0.0-6.0-1.0,"""event"",""trial"",""time""
""blur"",""0"",""0""
""focus"",""0"",""0""
""blur"",""0"",""0""
""focus"",""0"",""0""
""blur"",""0"",""0""
""focus"",""0"",""0""
""blur"",""0"",""0""
""focus"",""0"",""0""
""blur"",""0"",""0""
""focus"",""0"",""0""
""blur"",""0"",""0""
""focus"",""0"",""0""
""blur"",""0"",""0""
""focus"",""0"",""0""
""blur"",""0"",""0""
""focus"",""0"",""0""
""blur"",""0"",""0""
""focus"",""0"",""0""
""blur"",""0"",""0""
""focus"",""0"",""0""
""blur"",""0"",""0""
""focus"",""0"",""0""
""blur"",""0"",""0""
""focus"",""0"",""0""
""blur"",""0"",""0""
""focus"",""0"",""0""
""blur"",""0"",""0""
""focus"",""0"",""0""
""blur"",""0"",""0""
""focus"",""0"",""0""
""blur"",""0"",""0""
""focus"",""0"",""0""
""fullscreenenter"",""1"",""79972""
","""event"",""trial"",""time""
""blur"",""0"",""0""
""blur"",""0"",""0""
""blur"",""0"",""0""
""blur"",""0"",""0""
""blur"",""0"",""0""
""blur"",""0"",""0""
""blur"",""0"",""0""
""blur"",""0"",""0""
""blur"",""0"",""0""
""blur"",""0"",""0""
""blur"",""0"",""0""
""blur"",""0"",""0""
""blur"",""0"",""0""
""blur"",""0"",""0""
""blur"",""0"",""0""
""blur"",""0"",""0""
","""event"",""trial"",""time""
""focus"",""0"",""0""
""focus"",""0"",""0""
""focus"",""0"",""0""
""focus"",""0"",""0""
""focus"",""0"",""0""
""focus"",""0"",""0""
""focus"",""0"",""0""
""focus"",""0"",""0""
""focus"",""0"",""0""
""focus"",""0"",""0""
""focus"",""0"",""0""
""focus"",""0"",""0""
""focus"",""0"",""0""
""focus"",""0"",""0""
""focus"",""0"",""0""
""focus"",""0"",""0""
","""event"",""trial"",""time""
""fullscreenenter"",""1"",""79972""
","
",,1402.8,"<p> As a space explorer, you’ll visit different planets to dig for space treasure, these pink gems.</p> <p> The more treasure you dig up, the more bonus money you’ll win! </p><br><br><p><img src='run_exp/static/images/task_images/pink_gem.jpg' height='300' width='auto'></p>",,,,,,,1,,,,,,,,,,,,,,,,,,
html-keyboard-response,8,129676,0.0-6.0-2.0,"""event"",""trial"",""time""
""blur"",""0"",""0""
""focus"",""0"",""0""
""blur"",""0"",""0""
""focus"",""0"",""0""
""blur"",""0"",""0""
""focus"",""0"",""0""
""blur"",""0"",""0""
""focus"",""0"",""0""
""blur"",""0"",""0""
""focus"",""0"",""0""
""blur"",""0"",""0""
""focus"",""0"",""0""
""blur"",""0"",""0""
""focus"",""0"",""0""
""blur"",""0"",""0""
""focus"",""0"",""0""
""blur"",""0"",""0""
""focus"",""0"",""0""
""blur"",""0"",""0""
""focus"",""0"",""0""
""blur"",""0"",""0""
""focus"",""0"",""0""
""blur"",""0"",""0""
""focus"",""0"",""0""
""blur"",""0"",""0""
""focus"",""0"",""0""
""blur"",""0"",""0""
""focus"",""0"",""0""
""blur"",""0"",""0""
""focus"",""0"",""0""
""blur"",""0"",""0""
""focus"",""0"",""0""
""fullscreenenter"",""1"",""79972""
","""event"",""trial"",""time""
""blur"",""0"",""0""
""blur"",""0"",""0""
""blur"",""0"",""0""
""blur"",""0"",""0""
""blur"",""0"",""0""
""blur"",""0"",""0""
""blur"",""0"",""0""
""blur"",""0"",""0""
""blur"",""0"",""0""
""blur"",""0"",""0""
""blur"",""0"",""0""
""blur"",""0"",""0""
""blur"",""0"",""0""
""blur"",""0"",""0""
""blur"",""0"",""0""
""blur"",""0"",""0""
","""event"",""trial"",""time""
""focus"",""0"",""0""
""focus"",""0"",""0""
""focus"",""0"",""0""
""focus"",""0"",""0""
""focus"",""0"",""0""
""focus"",""0"",""0""
""focus"",""0"",""0""
""focus"",""0"",""0""
""focus"",""0"",""0""
""focus"",""0"",""0""
""focus"",""0"",""0""
""focus"",""0"",""0""
""focus"",""0"",""0""
""focus"",""0"",""0""
""focus"",""0"",""0""
""focus"",""0"",""0""
","""event"",""trial"",""time""
""fullscreenenter"",""1"",""79972""
","
",,489,"<p> As a space explorer, you’ll visit different planets to dig for space treasure, these pink gems.</p> <p> The more treasure you dig up, the more bonus money you’ll win! </p><br><br><p><img src='run_exp/static/images/task_images/pink_gem.jpg' height='300' width='auto'></p><button class=""jspsych-html-btn-unchosen""><img src=""run_exp/static/images/task_images/planet-01.jpg"" height=""50""></button><button class=""jspsych-html-btn-chosen""><img src=""run_exp/static/images/task_images/planet-02.jpg"" height=""50""></button><p><b>[press the space bar to lock in your answer]<b><br></p>",32,,,,,,,,,,,,,,,,,,,,,,,,
instruc_dig,9,145720,0.0-7.0-0.0,"""event"",""trial"",""time""
""blur"",""0"",""0""
""focus"",""0"",""0""
""blur"",""0"",""0""
""focus"",""0"",""0""
""blur"",""0"",""0""
""focus"",""0"",""0""
""blur"",""0"",""0""
""focus"",""0"",""0""
""blur"",""0"",""0""
""focus"",""0"",""0""
""blur"",""0"",""0""
""focus"",""0"",""0""
""blur"",""0"",""0""
""focus"",""0"",""0""
""blur"",""0"",""0""
""focus"",""0"",""0""
""blur"",""0"",""0""
""focus"",""0"",""0""
""blur"",""0"",""0""
""focus"",""0"",""0""
""blur"",""0"",""0""
""focus"",""0"",""0""
""blur"",""0"",""0""
""focus"",""0"",""0""
""blur"",""0"",""0""
""focus"",""0"",""0""
""blur"",""0"",""0""
""focus"",""0"",""0""
""blur"",""0"",""0""
""focus"",""0"",""0""
""blur"",""0"",""0""
""focus"",""0"",""0""
""fullscreenenter"",""1"",""79972""
","""event"",""trial"",""time""
""blur"",""0"",""0""
""blur"",""0"",""0""
""blur"",""0"",""0""
""blur"",""0"",""0""
""blur"",""0"",""0""
""blur"",""0"",""0""
""blur"",""0"",""0""
""blur"",""0"",""0""
""blur"",""0"",""0""
""blur"",""0"",""0""
""blur"",""0"",""0""
""blur"",""0"",""0""
""blur"",""0"",""0""
""blur"",""0"",""0""
""blur"",""0"",""0""
""blur"",""0"",""0""
","""event"",""trial"",""time""
""focus"",""0"",""0""
""focus"",""0"",""0""
""focus"",""0"",""0""
""focus"",""0"",""0""
""focus"",""0"",""0""
""focus"",""0"",""0""
""focus"",""0"",""0""
""focus"",""0"",""0""
""focus"",""0"",""0""
""focus"",""0"",""0""
""focus"",""0"",""0""
""focus"",""0"",""0""
""focus"",""0"",""0""
""focus"",""0"",""0""
""focus"",""0"",""0""
""focus"",""0"",""0""
","""event"",""trial"",""time""
""fullscreenenter"",""1"",""79972""
","
",,null,run_exp/static/audio/clip_4_dig.m4a,null,,,,,,,100,,,,,,,,,,,,,,,,,
instruc_dig_try,10,146536,0.0-7.0-1.0,"""event"",""trial"",""time""
""blur"",""0"",""0""
""focus"",""0"",""0""
""blur"",""0"",""0""
""focus"",""0"",""0""
""blur"",""0"",""0""
""focus"",""0"",""0""
""blur"",""0"",""0""
""focus"",""0"",""0""
""blur"",""0"",""0""
""focus"",""0"",""0""
""blur"",""0"",""0""
""focus"",""0"",""0""
""blur"",""0"",""0""
""focus"",""0"",""0""
""blur"",""0"",""0""
""focus"",""0"",""0""
""blur"",""0"",""0""
""focus"",""0"",""0""
""blur"",""0"",""0""
""focus"",""0"",""0""
""blur"",""0"",""0""
""focus"",""0"",""0""
""blur"",""0"",""0""
""focus"",""0"",""0""
""blur"",""0"",""0""
""focus"",""0"",""0""
""blur"",""0"",""0""
""focus"",""0"",""0""
""blur"",""0"",""0""
""focus"",""0"",""0""
""blur"",""0"",""0""
""focus"",""0"",""0""
""fullscreenenter"",""1"",""79972""
","""event"",""trial"",""time""
""blur"",""0"",""0""
""blur"",""0"",""0""
""blur"",""0"",""0""
""blur"",""0"",""0""
""blur"",""0"",""0""
""blur"",""0"",""0""
""blur"",""0"",""0""
""blur"",""0"",""0""
""blur"",""0"",""0""
""blur"",""0"",""0""
""blur"",""0"",""0""
""blur"",""0"",""0""
""blur"",""0"",""0""
""blur"",""0"",""0""
""blur"",""0"",""0""
""blur"",""0"",""0""
","""event"",""trial"",""time""
""focus"",""0"",""0""
""focus"",""0"",""0""
""focus"",""0"",""0""
""focus"",""0"",""0""
""focus"",""0"",""0""
""focus"",""0"",""0""
""focus"",""0"",""0""
""focus"",""0"",""0""
""focus"",""0"",""0""
""focus"",""0"",""0""
""focus"",""0"",""0""
""focus"",""0"",""0""
""focus"",""0"",""0""
""focus"",""0"",""0""
""focus"",""0"",""0""
""focus"",""0"",""0""
","""event"",""trial"",""time""
""fullscreenenter"",""1"",""79972""
","
",,814.6,"<p> When you’ve arrived at a new planet, you will dig once. </p> <p>Then, you get to decide if you want to stay on the planet and dig again or travel to a new planet and dig there.</p> <p> To stay and dig, press the letter <strong>‘A’</strong> on your keyboard. Try pressing it now! </p><p><img src='run_exp/static/images/task_images/land.jpg'  height='700' width='auto'></p>",65,"<p> When you’ve arrived at a new planet, you will dig once. </p> <p>Then, you get to decide if you want to stay on the planet and dig again or travel to a new planet and dig there.</p> <p> To stay and dig, press the letter <strong>‘A’</strong> on your keyboard. Try pressing it now! </p><p><img src='run_exp/static/images/task_images/land.jpg'  height='700' width='auto'></p>",,,,,,100,,,,,,,,,,,,,,,,,
dig_prac,11,148554,0.0-7.0-2.0,"""event"",""trial"",""time""
""blur"",""0"",""0""
""focus"",""0"",""0""
""blur"",""0"",""0""
""focus"",""0"",""0""
""blur"",""0"",""0""
""focus"",""0"",""0""
""blur"",""0"",""0""
""focus"",""0"",""0""
""blur"",""0"",""0""
""focus"",""0"",""0""
""blur"",""0"",""0""
""focus"",""0"",""0""
""blur"",""0"",""0""
""focus"",""0"",""0""
""blur"",""0"",""0""
""focus"",""0"",""0""
""blur"",""0"",""0""
""focus"",""0"",""0""
""blur"",""0"",""0""
""focus"",""0"",""0""
""blur"",""0"",""0""
""focus"",""0"",""0""
""blur"",""0"",""0""
""focus"",""0"",""0""
""blur"",""0"",""0""
""focus"",""0"",""0""
""blur"",""0"",""0""
""focus"",""0"",""0""
""blur"",""0"",""0""
""focus"",""0"",""0""
""blur"",""0"",""0""
""focus"",""0"",""0""
""fullscreenenter"",""1"",""79972""
","""event"",""trial"",""time""
""blur"",""0"",""0""
""blur"",""0"",""0""
""blur"",""0"",""0""
""blur"",""0"",""0""
""blur"",""0"",""0""
""blur"",""0"",""0""
""blur"",""0"",""0""
""blur"",""0"",""0""
""blur"",""0"",""0""
""blur"",""0"",""0""
""blur"",""0"",""0""
""blur"",""0"",""0""
""blur"",""0"",""0""
""blur"",""0"",""0""
""blur"",""0"",""0""
""blur"",""0"",""0""
","""event"",""trial"",""time""
""focus"",""0"",""0""
""focus"",""0"",""0""
""focus"",""0"",""0""
""focus"",""0"",""0""
""focus"",""0"",""0""
""focus"",""0"",""0""
""focus"",""0"",""0""
""focus"",""0"",""0""
""focus"",""0"",""0""
""focus"",""0"",""0""
""focus"",""0"",""0""
""focus"",""0"",""0""
""focus"",""0"",""0""
""focus"",""0"",""0""
""focus"",""0"",""0""
""focus"",""0"",""0""
","""event"",""trial"",""time""
""fullscreenenter"",""1"",""79972""
","
",,,,,,,,,,,,"[{""stimulus"":""run_exp/static/images/task_images/dig.jpg"",""time"":0.29999999701976776},{""stimulus"":""run_exp/static/images/task_images/land.jpg"",""time"":674.3999999910593},{""stimulus"":""run_exp/static/images/task_images/dig.jpg"",""time"":1344.2999999970198}]",[],,,,,,,,,,,,,,,
instruc_travel,12,184839,0.0-7.0-3.0,"""event"",""trial"",""time""
""blur"",""0"",""0""
""focus"",""0"",""0""
""blur"",""0"",""0""
""focus"",""0"",""0""
""blur"",""0"",""0""
""focus"",""0"",""0""
""blur"",""0"",""0""
""focus"",""0"",""0""
""blur"",""0"",""0""
""focus"",""0"",""0""
""blur"",""0"",""0""
""focus"",""0"",""0""
""blur"",""0"",""0""
""focus"",""0"",""0""
""blur"",""0"",""0""
""focus"",""0"",""0""
""blur"",""0"",""0""
""focus"",""0"",""0""
""blur"",""0"",""0""
""focus"",""0"",""0""
""blur"",""0"",""0""
""focus"",""0"",""0""
""blur"",""0"",""0""
""focus"",""0"",""0""
""blur"",""0"",""0""
""focus"",""0"",""0""
""blur"",""0"",""0""
""focus"",""0"",""0""
""blur"",""0"",""0""
""focus"",""0"",""0""
""blur"",""0"",""0""
""focus"",""0"",""0""
""fullscreenenter"",""1"",""79972""
","""event"",""trial"",""time""
""blur"",""0"",""0""
""blur"",""0"",""0""
""blur"",""0"",""0""
""blur"",""0"",""0""
""blur"",""0"",""0""
""blur"",""0"",""0""
""blur"",""0"",""0""
""blur"",""0"",""0""
""blur"",""0"",""0""
""blur"",""0"",""0""
""blur"",""0"",""0""
""blur"",""0"",""0""
""blur"",""0"",""0""
""blur"",""0"",""0""
""blur"",""0"",""0""
""blur"",""0"",""0""
","""event"",""trial"",""time""
""focus"",""0"",""0""
""focus"",""0"",""0""
""focus"",""0"",""0""
""focus"",""0"",""0""
""focus"",""0"",""0""
""focus"",""0"",""0""
""focus"",""0"",""0""
""focus"",""0"",""0""
""focus"",""0"",""0""
""focus"",""0"",""0""
""focus"",""0"",""0""
""focus"",""0"",""0""
""focus"",""0"",""0""
""focus"",""0"",""0""
""focus"",""0"",""0""
""focus"",""0"",""0""
","""event"",""trial"",""time""
""fullscreenenter"",""1"",""79972""
","
",,null,run_exp/static/audio/clip_5_travel.m4a,null,"<p>Every time you dig up gems, there are less gems on the planet, so the more you dig on a planet the fewer gems you’ll get with each dig.</p><p>When gems are running low, you may want to travel to a new planet. </p> <p>  Planets are very far apart in this galaxy, so it will take some time to travel between them. </p> <br><p>There are lots and lots of planets for you to visit, so you won’t be able to return to any planets you’ve seen before. </p><br><p>To leave this planet and travel to a new one, press the letter <strong>‘L’</strong> on your keyboard. Try pressing it now! </p><p><img src='run_exp/static/images/task_images/rocket-01.jpg'  height='600' width='auto'></p>",,,,,,,,,,,,,,,,,,,,,,,
instruc_travel_try,13,185353,0.0-7.0-4.0,"""event"",""trial"",""time""
""blur"",""0"",""0""
""focus"",""0"",""0""
""blur"",""0"",""0""
""focus"",""0"",""0""
""blur"",""0"",""0""
""focus"",""0"",""0""
""blur"",""0"",""0""
""focus"",""0"",""0""
""blur"",""0"",""0""
""focus"",""0"",""0""
""blur"",""0"",""0""
""focus"",""0"",""0""
""blur"",""0"",""0""
""focus"",""0"",""0""
""blur"",""0"",""0""
""focus"",""0"",""0""
""blur"",""0"",""0""
""focus"",""0"",""0""
""blur"",""0"",""0""
""focus"",""0"",""0""
""blur"",""0"",""0""
""focus"",""0"",""0""
""blur"",""0"",""0""
""focus"",""0"",""0""
""blur"",""0"",""0""
""focus"",""0"",""0""
""blur"",""0"",""0""
""focus"",""0"",""0""
""blur"",""0"",""0""
""focus"",""0"",""0""
""blur"",""0"",""0""
""focus"",""0"",""0""
""fullscreenenter"",""1"",""79972""
","""event"",""trial"",""time""
""blur"",""0"",""0""
""blur"",""0"",""0""
""blur"",""0"",""0""
""blur"",""0"",""0""
""blur"",""0"",""0""
""blur"",""0"",""0""
""blur"",""0"",""0""
""blur"",""0"",""0""
""blur"",""0"",""0""
""blur"",""0"",""0""
""blur"",""0"",""0""
""blur"",""0"",""0""
""blur"",""0"",""0""
""blur"",""0"",""0""
""blur"",""0"",""0""
""blur"",""0"",""0""
","""event"",""trial"",""time""
""focus"",""0"",""0""
""focus"",""0"",""0""
""focus"",""0"",""0""
""focus"",""0"",""0""
""focus"",""0"",""0""
""focus"",""0"",""0""
""focus"",""0"",""0""
""focus"",""0"",""0""
""focus"",""0"",""0""
""focus"",""0"",""0""
""focus"",""0"",""0""
""focus"",""0"",""0""
""focus"",""0"",""0""
""focus"",""0"",""0""
""focus"",""0"",""0""
""focus"",""0"",""0""
","""event"",""trial"",""time""
""fullscreenenter"",""1"",""79972""
","
",,512.4,"<p>Every time you dig up gems, there are less gems on the planet, so the more you dig on a planet the fewer gems you’ll get with each dig.</p><p>When gems are running low, you may want to travel to a new planet. </p> <p>  Planets are very far apart in this galaxy, so it will take some time to travel between them. </p> <br><p>There are lots and lots of planets for you to visit, so you won’t be able to return to any planets you’ve seen before. </p><br><p>To leave this planet and travel to a new one, press the letter <strong>‘L’</strong> on your keyboard. Try pressing it now! </p><p><img src='run_exp/static/images/task_images/rocket-01.jpg'  height='600' width='auto'></p>",76,"<p>Every time you dig up gems, there are less gems on the planet, so the more you dig on a planet the fewer gems you’ll get with each dig.</p><p>When gems are running low, you may want to travel to a new planet. </p> <p>  Planets are very far apart in this galaxy, so it will take some time to travel between them. </p> <br><p>There are lots and lots of planets for you to visit, so you won’t be able to return to any planets you’ve seen before. </p><br><p>To leave this planet and travel to a new one, press the letter <strong>‘L’</strong> on your keyboard. Try pressing it now! </p><p><img src='run_exp/static/images/task_images/rocket-01.jpg'  height='600' width='auto'></p>",,,,,,,,,,,,,,,,,,,,,,,
travel_prac,14,195362,0.0-7.0-5.0,"""event"",""trial"",""time""
""blur"",""0"",""0""
""focus"",""0"",""0""
""blur"",""0"",""0""
""focus"",""0"",""0""
""blur"",""0"",""0""
""focus"",""0"",""0""
""blur"",""0"",""0""
""focus"",""0"",""0""
""blur"",""0"",""0""
""focus"",""0"",""0""
""blur"",""0"",""0""
""focus"",""0"",""0""
""blur"",""0"",""0""
""focus"",""0"",""0""
""blur"",""0"",""0""
""focus"",""0"",""0""
""blur"",""0"",""0""
""focus"",""0"",""0""
""blur"",""0"",""0""
""focus"",""0"",""0""
""blur"",""0"",""0""
""focus"",""0"",""0""
""blur"",""0"",""0""
""focus"",""0"",""0""
""blur"",""0"",""0""
""focus"",""0"",""0""
""blur"",""0"",""0""
""focus"",""0"",""0""
""blur"",""0"",""0""
""focus"",""0"",""0""
""blur"",""0"",""0""
""focus"",""0"",""0""
""fullscreenenter"",""1"",""79972""
","""event"",""trial"",""time""
""blur"",""0"",""0""
""blur"",""0"",""0""
""blur"",""0"",""0""
""blur"",""0"",""0""
""blur"",""0"",""0""
""blur"",""0"",""0""
""blur"",""0"",""0""
""blur"",""0"",""0""
""blur"",""0"",""0""
""blur"",""0"",""0""
""blur"",""0"",""0""
""blur"",""0"",""0""
""blur"",""0"",""0""
""blur"",""0"",""0""
""blur"",""0"",""0""
""blur"",""0"",""0""
","""event"",""trial"",""time""
""focus"",""0"",""0""
""focus"",""0"",""0""
""focus"",""0"",""0""
""focus"",""0"",""0""
""focus"",""0"",""0""
""focus"",""0"",""0""
""focus"",""0"",""0""
""focus"",""0"",""0""
""focus"",""0"",""0""
""focus"",""0"",""0""
""focus"",""0"",""0""
""focus"",""0"",""0""
""focus"",""0"",""0""
""focus"",""0"",""0""
""focus"",""0"",""0""
""focus"",""0"",""0""
","""event"",""trial"",""time""
""fullscreenenter"",""1"",""79972""
","
",,,,,,,,,,,,"[{""stimulus"":""run_exp/static/images/task_images/rocket-01.jpg"",""time"":0.19999998807907104},{""stimulus"":""run_exp/static/images/task_images/rocket-02.jpg"",""time"":1112.5},{""stimulus"":""run_exp/static/images/task_images/rocket-03.jpg"",""time"":2234.8999999910593},{""stimulus"":""run_exp/static/images/task_images/rocket-04.jpg"",""time"":3334.2999999970198},{""stimulus"":""run_exp/static/images/task_images/rocket-05.jpg"",""time"":4457.199999988079},{""stimulus"":""run_exp/static/images/task_images/rocket-06.jpg"",""time"":5564.699999988079},{""stimulus"":""run_exp/static/images/task_images/rocket-07.jpg"",""time"":6672.699999988079},{""stimulus"":""run_exp/static/images/task_images/rocket-08.jpg"",""time"":7779.5},{""stimulus"":""run_exp/static/images/task_images/rocket-09.jpg"",""time"":8889.699999988079}]",[],0,,,,,,,,,,,,,,
instruc_alien_greet,15,222581,0.0-7.0-6.0,"""event"",""trial"",""time""
""blur"",""0"",""0""
""focus"",""0"",""0""
""blur"",""0"",""0""
""focus"",""0"",""0""
""blur"",""0"",""0""
""focus"",""0"",""0""
""blur"",""0"",""0""
""focus"",""0"",""0""
""blur"",""0"",""0""
""focus"",""0"",""0""
""blur"",""0"",""0""
""focus"",""0"",""0""
""blur"",""0"",""0""
""focus"",""0"",""0""
""blur"",""0"",""0""
""focus"",""0"",""0""
""blur"",""0"",""0""
""focus"",""0"",""0""
""blur"",""0"",""0""
""focus"",""0"",""0""
""blur"",""0"",""0""
""focus"",""0"",""0""
""blur"",""0"",""0""
""focus"",""0"",""0""
""blur"",""0"",""0""
""focus"",""0"",""0""
""blur"",""0"",""0""
""focus"",""0"",""0""
""blur"",""0"",""0""
""focus"",""0"",""0""
""blur"",""0"",""0""
""focus"",""0"",""0""
""fullscreenenter"",""1"",""79972""
","""event"",""trial"",""time""
""blur"",""0"",""0""
""blur"",""0"",""0""
""blur"",""0"",""0""
""blur"",""0"",""0""
""blur"",""0"",""0""
""blur"",""0"",""0""
""blur"",""0"",""0""
""blur"",""0"",""0""
""blur"",""0"",""0""
""blur"",""0"",""0""
""blur"",""0"",""0""
""blur"",""0"",""0""
""blur"",""0"",""0""
""blur"",""0"",""0""
""blur"",""0"",""0""
""blur"",""0"",""0""
","""event"",""trial"",""time""
""focus"",""0"",""0""
""focus"",""0"",""0""
""focus"",""0"",""0""
""focus"",""0"",""0""
""focus"",""0"",""0""
""focus"",""0"",""0""
""focus"",""0"",""0""
""focus"",""0"",""0""
""focus"",""0"",""0""
""focus"",""0"",""0""
""focus"",""0"",""0""
""focus"",""0"",""0""
""focus"",""0"",""0""
""focus"",""0"",""0""
""focus"",""0"",""0""
""focus"",""0"",""0""
","""event"",""trial"",""time""
""fullscreenenter"",""1"",""79972""
","
",,null,run_exp/static/audio/clip_6_alien.m4a,null,"<p>When you arrive at a new planet, the alien who owns the treasure mine on that planet will greet you!</p><p>The better an alien takes care of their mine the easier it is to dig for gems. Some aliens take better care of their mine than others. So, you won’t get exactly the same amount of gems on each planet.</p><p>What the alien looks like does not tell you anything about how many gems there are on the planet.</p><br><p><img src=""run_exp/static/images/task_images/aliens/instructions_aliens/planet/alien_planet-1.jpg""  height=""600"" width=""auto""></p>",,,,,,,,,,,,,,,,,,,,,,,
instruc_alien_greet,16,231270,0.0-7.0-7.0,"""event"",""trial"",""time""
""blur"",""0"",""0""
""focus"",""0"",""0""
""blur"",""0"",""0""
""focus"",""0"",""0""
""blur"",""0"",""0""
""focus"",""0"",""0""
""blur"",""0"",""0""
""focus"",""0"",""0""
""blur"",""0"",""0""
""focus"",""0"",""0""
""blur"",""0"",""0""
""focus"",""0"",""0""
""blur"",""0"",""0""
""focus"",""0"",""0""
""blur"",""0"",""0""
""focus"",""0"",""0""
""blur"",""0"",""0""
""focus"",""0"",""0""
""blur"",""0"",""0""
""focus"",""0"",""0""
""blur"",""0"",""0""
""focus"",""0"",""0""
""blur"",""0"",""0""
""focus"",""0"",""0""
""blur"",""0"",""0""
""focus"",""0"",""0""
""blur"",""0"",""0""
""focus"",""0"",""0""
""blur"",""0"",""0""
""focus"",""0"",""0""
""blur"",""0"",""0""
""focus"",""0"",""0""
""fullscreenenter"",""1"",""79972""
","""event"",""trial"",""time""
""blur"",""0"",""0""
""blur"",""0"",""0""
""blur"",""0"",""0""
""blur"",""0"",""0""
""blur"",""0"",""0""
""blur"",""0"",""0""
""blur"",""0"",""0""
""blur"",""0"",""0""
""blur"",""0"",""0""
""blur"",""0"",""0""
""blur"",""0"",""0""
""blur"",""0"",""0""
""blur"",""0"",""0""
""blur"",""0"",""0""
""blur"",""0"",""0""
""blur"",""0"",""0""
","""event"",""trial"",""time""
""focus"",""0"",""0""
""focus"",""0"",""0""
""focus"",""0"",""0""
""focus"",""0"",""0""
""focus"",""0"",""0""
""focus"",""0"",""0""
""focus"",""0"",""0""
""focus"",""0"",""0""
""focus"",""0"",""0""
""focus"",""0"",""0""
""focus"",""0"",""0""
""focus"",""0"",""0""
""focus"",""0"",""0""
""focus"",""0"",""0""
""focus"",""0"",""0""
""focus"",""0"",""0""
","""event"",""trial"",""time""
""fullscreenenter"",""1"",""79972""
","
",,8687.6,"<p>When you arrive at a new planet, the alien who owns the treasure mine on that planet will greet you!</p><p>The better an alien takes care of their mine the easier it is to dig for gems. Some aliens take better care of their mine than others. So, you won’t get exactly the same amount of gems on each planet.</p><p>What the alien looks like does not tell you anything about how many gems there are on the planet.</p><br><p><img src=""run_exp/static/images/task_images/aliens/instructions_aliens/planet/alien_planet-1.jpg""  height=""600"" width=""auto""></p>",,,,,,,1,,,,,,,,,,,,,,,,,,
html-keyboard-response,17,232485,0.0-7.0-8.0,"""event"",""trial"",""time""
""blur"",""0"",""0""
""focus"",""0"",""0""
""blur"",""0"",""0""
""focus"",""0"",""0""
""blur"",""0"",""0""
""focus"",""0"",""0""
""blur"",""0"",""0""
""focus"",""0"",""0""
""blur"",""0"",""0""
""focus"",""0"",""0""
""blur"",""0"",""0""
""focus"",""0"",""0""
""blur"",""0"",""0""
""focus"",""0"",""0""
""blur"",""0"",""0""
""focus"",""0"",""0""
""blur"",""0"",""0""
""focus"",""0"",""0""
""blur"",""0"",""0""
""focus"",""0"",""0""
""blur"",""0"",""0""
""focus"",""0"",""0""
""blur"",""0"",""0""
""focus"",""0"",""0""
""blur"",""0"",""0""
""focus"",""0"",""0""
""blur"",""0"",""0""
""focus"",""0"",""0""
""blur"",""0"",""0""
""focus"",""0"",""0""
""blur"",""0"",""0""
""focus"",""0"",""0""
""fullscreenenter"",""1"",""79972""
","""event"",""trial"",""time""
""blur"",""0"",""0""
""blur"",""0"",""0""
""blur"",""0"",""0""
""blur"",""0"",""0""
""blur"",""0"",""0""
""blur"",""0"",""0""
""blur"",""0"",""0""
""blur"",""0"",""0""
""blur"",""0"",""0""
""blur"",""0"",""0""
""blur"",""0"",""0""
""blur"",""0"",""0""
""blur"",""0"",""0""
""blur"",""0"",""0""
""blur"",""0"",""0""
""blur"",""0"",""0""
","""event"",""trial"",""time""
""focus"",""0"",""0""
""focus"",""0"",""0""
""focus"",""0"",""0""
""focus"",""0"",""0""
""focus"",""0"",""0""
""focus"",""0"",""0""
""focus"",""0"",""0""
""focus"",""0"",""0""
""focus"",""0"",""0""
""focus"",""0"",""0""
""focus"",""0"",""0""
""focus"",""0"",""0""
""focus"",""0"",""0""
""focus"",""0"",""0""
""focus"",""0"",""0""
""focus"",""0"",""0""
","""event"",""trial"",""time""
""fullscreenenter"",""1"",""79972""
","
",,1212.9,"<p>When you arrive at a new planet, the alien who owns the treasure mine on that planet will greet you!</p><p>The better an alien takes care of their mine the easier it is to dig for gems. Some aliens take better care of their mine than others. So, you won’t get exactly the same amount of gems on each planet.</p><p>What the alien looks like does not tell you anything about how many gems there are on the planet.</p><br><p><img src=""run_exp/static/images/task_images/aliens/instructions_aliens/planet/alien_planet-1.jpg""  height=""600"" width=""auto""></p><button class=""jspsych-html-btn-unchosen""><img src=""run_exp/static/images/task_images/planet-01.jpg"" height=""50""></button><button class=""jspsych-html-btn-chosen""><img src=""run_exp/static/images/task_images/planet-02.jpg"" height=""50""></button><p><b>[press the space bar to lock in your answer]<b><br></p>",32,,,,,,,,,,,,,,,,,,,,,,,,
time_out,18,243601,0.0-8.0-0.0,"""event"",""trial"",""time""
""blur"",""0"",""0""
""focus"",""0"",""0""
""blur"",""0"",""0""
""focus"",""0"",""0""
""blur"",""0"",""0""
""focus"",""0"",""0""
""blur"",""0"",""0""
""focus"",""0"",""0""
""blur"",""0"",""0""
""focus"",""0"",""0""
""blur"",""0"",""0""
""focus"",""0"",""0""
""blur"",""0"",""0""
""focus"",""0"",""0""
""blur"",""0"",""0""
""focus"",""0"",""0""
""blur"",""0"",""0""
""focus"",""0"",""0""
""blur"",""0"",""0""
""focus"",""0"",""0""
""blur"",""0"",""0""
""focus"",""0"",""0""
""blur"",""0"",""0""
""focus"",""0"",""0""
""blur"",""0"",""0""
""focus"",""0"",""0""
""blur"",""0"",""0""
""focus"",""0"",""0""
""blur"",""0"",""0""
""focus"",""0"",""0""
""blur"",""0"",""0""
""focus"",""0"",""0""
""fullscreenenter"",""1"",""79972""
","""event"",""trial"",""time""
""blur"",""0"",""0""
""blur"",""0"",""0""
""blur"",""0"",""0""
""blur"",""0"",""0""
""blur"",""0"",""0""
""blur"",""0"",""0""
""blur"",""0"",""0""
""blur"",""0"",""0""
""blur"",""0"",""0""
""blur"",""0"",""0""
""blur"",""0"",""0""
""blur"",""0"",""0""
""blur"",""0"",""0""
""blur"",""0"",""0""
""blur"",""0"",""0""
""blur"",""0"",""0""
","""event"",""trial"",""time""
""focus"",""0"",""0""
""focus"",""0"",""0""
""focus"",""0"",""0""
""focus"",""0"",""0""
""focus"",""0"",""0""
""focus"",""0"",""0""
""focus"",""0"",""0""
""focus"",""0"",""0""
""focus"",""0"",""0""
""focus"",""0"",""0""
""focus"",""0"",""0""
""focus"",""0"",""0""
""focus"",""0"",""0""
""focus"",""0"",""0""
""focus"",""0"",""0""
""focus"",""0"",""0""
","""event"",""trial"",""time""
""fullscreenenter"",""1"",""79972""
","
",,null,run_exp/static/audio/clip_7_timeout.m4a,null,"<p>If you don't make your choice fast enough, you’ll have to wait a few seconds before you can make another one.</p><p>You can’t dig for more gems or travel to new planets. You just have to sit and wait.</p><br><p><img src='run_exp/static/images/task_images/time_out.jpg'  height='600' width='auto'></p>",,,,,,,,,,,,,,,,,,,,,,,
time_out,19,245038,0.0-8.0-1.0,"""event"",""trial"",""time""
""blur"",""0"",""0""
""focus"",""0"",""0""
""blur"",""0"",""0""
""focus"",""0"",""0""
""blur"",""0"",""0""
""focus"",""0"",""0""
""blur"",""0"",""0""
""focus"",""0"",""0""
""blur"",""0"",""0""
""focus"",""0"",""0""
""blur"",""0"",""0""
""focus"",""0"",""0""
""blur"",""0"",""0""
""focus"",""0"",""0""
""blur"",""0"",""0""
""focus"",""0"",""0""
""blur"",""0"",""0""
""focus"",""0"",""0""
""blur"",""0"",""0""
""focus"",""0"",""0""
""blur"",""0"",""0""
""focus"",""0"",""0""
""blur"",""0"",""0""
""focus"",""0"",""0""
""blur"",""0"",""0""
""focus"",""0"",""0""
""blur"",""0"",""0""
""focus"",""0"",""0""
""blur"",""0"",""0""
""focus"",""0"",""0""
""blur"",""0"",""0""
""focus"",""0"",""0""
""fullscreenenter"",""1"",""79972""
","""event"",""trial"",""time""
""blur"",""0"",""0""
""blur"",""0"",""0""
""blur"",""0"",""0""
""blur"",""0"",""0""
""blur"",""0"",""0""
""blur"",""0"",""0""
""blur"",""0"",""0""
""blur"",""0"",""0""
""blur"",""0"",""0""
""blur"",""0"",""0""
""blur"",""0"",""0""
""blur"",""0"",""0""
""blur"",""0"",""0""
""blur"",""0"",""0""
""blur"",""0"",""0""
""blur"",""0"",""0""
","""event"",""trial"",""time""
""focus"",""0"",""0""
""focus"",""0"",""0""
""focus"",""0"",""0""
""focus"",""0"",""0""
""focus"",""0"",""0""
""focus"",""0"",""0""
""focus"",""0"",""0""
""focus"",""0"",""0""
""focus"",""0"",""0""
""focus"",""0"",""0""
""focus"",""0"",""0""
""focus"",""0"",""0""
""focus"",""0"",""0""
""focus"",""0"",""0""
""focus"",""0"",""0""
""focus"",""0"",""0""
","""event"",""trial"",""time""
""fullscreenenter"",""1"",""79972""
","
",,1433.6,"<p>If you don't make your choice fast enough, you’ll have to wait a few seconds before you can make another one.</p><p>You can’t dig for more gems or travel to new planets. You just have to sit and wait.</p><br><p><img src='run_exp/static/images/task_images/time_out.jpg'  height='600' width='auto'></p>",,,,,,,1,,,,,,,,,,,,,,,,,,
html-keyboard-response,20,245228,0.0-8.0-2.0,"""event"",""trial"",""time""
""blur"",""0"",""0""
""focus"",""0"",""0""
""blur"",""0"",""0""
""focus"",""0"",""0""
""blur"",""0"",""0""
""focus"",""0"",""0""
""blur"",""0"",""0""
""focus"",""0"",""0""
""blur"",""0"",""0""
""focus"",""0"",""0""
""blur"",""0"",""0""
""focus"",""0"",""0""
""blur"",""0"",""0""
""focus"",""0"",""0""
""blur"",""0"",""0""
""focus"",""0"",""0""
""blur"",""0"",""0""
""focus"",""0"",""0""
""blur"",""0"",""0""
""focus"",""0"",""0""
""blur"",""0"",""0""
""focus"",""0"",""0""
""blur"",""0"",""0""
""focus"",""0"",""0""
""blur"",""0"",""0""
""focus"",""0"",""0""
""blur"",""0"",""0""
""focus"",""0"",""0""
""blur"",""0"",""0""
""focus"",""0"",""0""
""blur"",""0"",""0""
""focus"",""0"",""0""
""fullscreenenter"",""1"",""79972""
","""event"",""trial"",""time""
""blur"",""0"",""0""
""blur"",""0"",""0""
""blur"",""0"",""0""
""blur"",""0"",""0""
""blur"",""0"",""0""
""blur"",""0"",""0""
""blur"",""0"",""0""
""blur"",""0"",""0""
""blur"",""0"",""0""
""blur"",""0"",""0""
""blur"",""0"",""0""
""blur"",""0"",""0""
""blur"",""0"",""0""
""blur"",""0"",""0""
""blur"",""0"",""0""
""blur"",""0"",""0""
","""event"",""trial"",""time""
""focus"",""0"",""0""
""focus"",""0"",""0""
""focus"",""0"",""0""
""focus"",""0"",""0""
""focus"",""0"",""0""
""focus"",""0"",""0""
""focus"",""0"",""0""
""focus"",""0"",""0""
""focus"",""0"",""0""
""focus"",""0"",""0""
""focus"",""0"",""0""
""focus"",""0"",""0""
""focus"",""0"",""0""
""focus"",""0"",""0""
""focus"",""0"",""0""
""focus"",""0"",""0""
","""event"",""trial"",""time""
""fullscreenenter"",""1"",""79972""
","
",,188.9,"<p>If you don't make your choice fast enough, you’ll have to wait a few seconds before you can make another one.</p><p>You can’t dig for more gems or travel to new planets. You just have to sit and wait.</p><br><p><img src='run_exp/static/images/task_images/time_out.jpg'  height='600' width='auto'></p><button class=""jspsych-html-btn-unchosen""><img src=""run_exp/static/images/task_images/planet-01.jpg"" height=""50""></button><button class=""jspsych-html-btn-chosen""><img src=""run_exp/static/images/task_images/planet-02.jpg"" height=""50""></button><p><b>[press the space bar to lock in your answer]<b><br></p>",32,,,,,,,,,,,,,,,,,,,,,,,,
instruc_break,21,260920,0.0-9.0-0.0,"""event"",""trial"",""time""
""blur"",""0"",""0""
""focus"",""0"",""0""
""blur"",""0"",""0""
""focus"",""0"",""0""
""blur"",""0"",""0""
""focus"",""0"",""0""
""blur"",""0"",""0""
""focus"",""0"",""0""
""blur"",""0"",""0""
""focus"",""0"",""0""
""blur"",""0"",""0""
""focus"",""0"",""0""
""blur"",""0"",""0""
""focus"",""0"",""0""
""blur"",""0"",""0""
""focus"",""0"",""0""
""blur"",""0"",""0""
""focus"",""0"",""0""
""blur"",""0"",""0""
""focus"",""0"",""0""
""blur"",""0"",""0""
""focus"",""0"",""0""
""blur"",""0"",""0""
""focus"",""0"",""0""
""blur"",""0"",""0""
""focus"",""0"",""0""
""blur"",""0"",""0""
""focus"",""0"",""0""
""blur"",""0"",""0""
""focus"",""0"",""0""
""blur"",""0"",""0""
""focus"",""0"",""0""
""fullscreenenter"",""1"",""79972""
","""event"",""trial"",""time""
""blur"",""0"",""0""
""blur"",""0"",""0""
""blur"",""0"",""0""
""blur"",""0"",""0""
""blur"",""0"",""0""
""blur"",""0"",""0""
""blur"",""0"",""0""
""blur"",""0"",""0""
""blur"",""0"",""0""
""blur"",""0"",""0""
""blur"",""0"",""0""
""blur"",""0"",""0""
""blur"",""0"",""0""
""blur"",""0"",""0""
""blur"",""0"",""0""
""blur"",""0"",""0""
","""event"",""trial"",""time""
""focus"",""0"",""0""
""focus"",""0"",""0""
""focus"",""0"",""0""
""focus"",""0"",""0""
""focus"",""0"",""0""
""focus"",""0"",""0""
""focus"",""0"",""0""
""focus"",""0"",""0""
""focus"",""0"",""0""
""focus"",""0"",""0""
""focus"",""0"",""0""
""focus"",""0"",""0""
""focus"",""0"",""0""
""focus"",""0"",""0""
""focus"",""0"",""0""
""focus"",""0"",""0""
","""event"",""trial"",""time""
""fullscreenenter"",""1"",""79972""
","
",,null,run_exp/static/audio/clip_8_break.m4a,null,"<p> After digging and traveling for a while, you’ll be able to take a break at home base. </p><p>The game will last 20 minutes no matter what.</p><p>You will visit home base every 5 minutes, so, you will visit home base three times during the game.</p><br><p><img src='run_exp/static/images/task_images/home_base.jpg' height='600' width='auto'></p>",,,,,,,,,,,,,,,,,,,,,,,
instruc_break,22,262743,0.0-9.0-1.0,"""event"",""trial"",""time""
""blur"",""0"",""0""
""focus"",""0"",""0""
""blur"",""0"",""0""
""focus"",""0"",""0""
""blur"",""0"",""0""
""focus"",""0"",""0""
""blur"",""0"",""0""
""focus"",""0"",""0""
""blur"",""0"",""0""
""focus"",""0"",""0""
""blur"",""0"",""0""
""focus"",""0"",""0""
""blur"",""0"",""0""
""focus"",""0"",""0""
""blur"",""0"",""0""
""focus"",""0"",""0""
""blur"",""0"",""0""
""focus"",""0"",""0""
""blur"",""0"",""0""
""focus"",""0"",""0""
""blur"",""0"",""0""
""focus"",""0"",""0""
""blur"",""0"",""0""
""focus"",""0"",""0""
""blur"",""0"",""0""
""focus"",""0"",""0""
""blur"",""0"",""0""
""focus"",""0"",""0""
""blur"",""0"",""0""
""focus"",""0"",""0""
""blur"",""0"",""0""
""focus"",""0"",""0""
""fullscreenenter"",""1"",""79972""
","""event"",""trial"",""time""
""blur"",""0"",""0""
""blur"",""0"",""0""
""blur"",""0"",""0""
""blur"",""0"",""0""
""blur"",""0"",""0""
""blur"",""0"",""0""
""blur"",""0"",""0""
""blur"",""0"",""0""
""blur"",""0"",""0""
""blur"",""0"",""0""
""blur"",""0"",""0""
""blur"",""0"",""0""
""blur"",""0"",""0""
""blur"",""0"",""0""
""blur"",""0"",""0""
""blur"",""0"",""0""
","""event"",""trial"",""time""
""focus"",""0"",""0""
""focus"",""0"",""0""
""focus"",""0"",""0""
""focus"",""0"",""0""
""focus"",""0"",""0""
""focus"",""0"",""0""
""focus"",""0"",""0""
""focus"",""0"",""0""
""focus"",""0"",""0""
""focus"",""0"",""0""
""focus"",""0"",""0""
""focus"",""0"",""0""
""focus"",""0"",""0""
""focus"",""0"",""0""
""focus"",""0"",""0""
""focus"",""0"",""0""
","""event"",""trial"",""time""
""fullscreenenter"",""1"",""79972""
","
",,1820.9,"<p> After digging and traveling for a while, you’ll be able to take a break at home base. </p><p>The game will last 20 minutes no matter what.</p><p>You will visit home base every 5 minutes, so, you will visit home base three times during the game.</p><br><p><img src='run_exp/static/images/task_images/home_base.jpg' height='600' width='auto'></p>",,,,,,,1,,,,,,,,,,,,,,,,,,
html-keyboard-response,23,262860,0.0-9.0-2.0,"""event"",""trial"",""time""
""blur"",""0"",""0""
""focus"",""0"",""0""
""blur"",""0"",""0""
""focus"",""0"",""0""
""blur"",""0"",""0""
""focus"",""0"",""0""
""blur"",""0"",""0""
""focus"",""0"",""0""
""blur"",""0"",""0""
""focus"",""0"",""0""
""blur"",""0"",""0""
""focus"",""0"",""0""
""blur"",""0"",""0""
""focus"",""0"",""0""
""blur"",""0"",""0""
""focus"",""0"",""0""
""blur"",""0"",""0""
""focus"",""0"",""0""
""blur"",""0"",""0""
""focus"",""0"",""0""
""blur"",""0"",""0""
""focus"",""0"",""0""
""blur"",""0"",""0""
""focus"",""0"",""0""
""blur"",""0"",""0""
""focus"",""0"",""0""
""blur"",""0"",""0""
""focus"",""0"",""0""
""blur"",""0"",""0""
""focus"",""0"",""0""
""blur"",""0"",""0""
""focus"",""0"",""0""
""fullscreenenter"",""1"",""79972""
","""event"",""trial"",""time""
""blur"",""0"",""0""
""blur"",""0"",""0""
""blur"",""0"",""0""
""blur"",""0"",""0""
""blur"",""0"",""0""
""blur"",""0"",""0""
""blur"",""0"",""0""
""blur"",""0"",""0""
""blur"",""0"",""0""
""blur"",""0"",""0""
""blur"",""0"",""0""
""blur"",""0"",""0""
""blur"",""0"",""0""
""blur"",""0"",""0""
""blur"",""0"",""0""
""blur"",""0"",""0""
","""event"",""trial"",""time""
""focus"",""0"",""0""
""focus"",""0"",""0""
""focus"",""0"",""0""
""focus"",""0"",""0""
""focus"",""0"",""0""
""focus"",""0"",""0""
""focus"",""0"",""0""
""focus"",""0"",""0""
""focus"",""0"",""0""
""focus"",""0"",""0""
""focus"",""0"",""0""
""focus"",""0"",""0""
""focus"",""0"",""0""
""focus"",""0"",""0""
""focus"",""0"",""0""
""focus"",""0"",""0""
","""event"",""trial"",""time""
""fullscreenenter"",""1"",""79972""
","
",,115.7,"<p> After digging and traveling for a while, you’ll be able to take a break at home base. </p><p>The game will last 20 minutes no matter what.</p><p>You will visit home base every 5 minutes, so, you will visit home base three times during the game.</p><br><p><img src='run_exp/static/images/task_images/home_base.jpg' height='600' width='auto'></p><button class=""jspsych-html-btn-unchosen""><img src=""run_exp/static/images/task_images/planet-01.jpg"" height=""50""></button><button class=""jspsych-html-btn-chosen""><img src=""run_exp/static/images/task_images/planet-02.jpg"" height=""50""></button><p><b>[press the space bar to lock in your answer]<b><br></p>",32,,,,,,,,,,,,,,,,,,,,,,,,
instruc_prac_game,24,273000,0.0-10.0-0.0,"""event"",""trial"",""time""
""blur"",""0"",""0""
""focus"",""0"",""0""
""blur"",""0"",""0""
""focus"",""0"",""0""
""blur"",""0"",""0""
""focus"",""0"",""0""
""blur"",""0"",""0""
""focus"",""0"",""0""
""blur"",""0"",""0""
""focus"",""0"",""0""
""blur"",""0"",""0""
""focus"",""0"",""0""
""blur"",""0"",""0""
""focus"",""0"",""0""
""blur"",""0"",""0""
""focus"",""0"",""0""
""blur"",""0"",""0""
""focus"",""0"",""0""
""blur"",""0"",""0""
""focus"",""0"",""0""
""blur"",""0"",""0""
""focus"",""0"",""0""
""blur"",""0"",""0""
""focus"",""0"",""0""
""blur"",""0"",""0""
""focus"",""0"",""0""
""blur"",""0"",""0""
""focus"",""0"",""0""
""blur"",""0"",""0""
""focus"",""0"",""0""
""blur"",""0"",""0""
""focus"",""0"",""0""
""fullscreenenter"",""1"",""79972""
","""event"",""trial"",""time""
""blur"",""0"",""0""
""blur"",""0"",""0""
""blur"",""0"",""0""
""blur"",""0"",""0""
""blur"",""0"",""0""
""blur"",""0"",""0""
""blur"",""0"",""0""
""blur"",""0"",""0""
""blur"",""0"",""0""
""blur"",""0"",""0""
""blur"",""0"",""0""
""blur"",""0"",""0""
""blur"",""0"",""0""
""blur"",""0"",""0""
""blur"",""0"",""0""
""blur"",""0"",""0""
","""event"",""trial"",""time""
""focus"",""0"",""0""
""focus"",""0"",""0""
""focus"",""0"",""0""
""focus"",""0"",""0""
""focus"",""0"",""0""
""focus"",""0"",""0""
""focus"",""0"",""0""
""focus"",""0"",""0""
""focus"",""0"",""0""
""focus"",""0"",""0""
""focus"",""0"",""0""
""focus"",""0"",""0""
""focus"",""0"",""0""
""focus"",""0"",""0""
""focus"",""0"",""0""
""focus"",""0"",""0""
","""event"",""trial"",""time""
""fullscreenenter"",""1"",""79972""
","
",,null,run_exp/static/audio/clip_9_practice.m4a,null,"<p> Are you ready to play a practice game? </p> <p>In this practice game, you'll be digging up barrels of gems. But, in the real game, you'll be digging up the gems themselves. </p>",,,,,,,,,,,,,,,,,,,,,,,
html-button-response,25,275191,0.0-10.0-1.0,"""event"",""trial"",""time""
""blur"",""0"",""0""
""focus"",""0"",""0""
""blur"",""0"",""0""
""focus"",""0"",""0""
""blur"",""0"",""0""
""focus"",""0"",""0""
""blur"",""0"",""0""
""focus"",""0"",""0""
""blur"",""0"",""0""
""focus"",""0"",""0""
""blur"",""0"",""0""
""focus"",""0"",""0""
""blur"",""0"",""0""
""focus"",""0"",""0""
""blur"",""0"",""0""
""focus"",""0"",""0""
""blur"",""0"",""0""
""focus"",""0"",""0""
""blur"",""0"",""0""
""focus"",""0"",""0""
""blur"",""0"",""0""
""focus"",""0"",""0""
""blur"",""0"",""0""
""focus"",""0"",""0""
""blur"",""0"",""0""
""focus"",""0"",""0""
""blur"",""0"",""0""
""focus"",""0"",""0""
""blur"",""0"",""0""
""focus"",""0"",""0""
""blur"",""0"",""0""
""focus"",""0"",""0""
""fullscreenenter"",""1"",""79972""
","""event"",""trial"",""time""
""blur"",""0"",""0""
""blur"",""0"",""0""
""blur"",""0"",""0""
""blur"",""0"",""0""
""blur"",""0"",""0""
""blur"",""0"",""0""
""blur"",""0"",""0""
""blur"",""0"",""0""
""blur"",""0"",""0""
""blur"",""0"",""0""
""blur"",""0"",""0""
""blur"",""0"",""0""
""blur"",""0"",""0""
""blur"",""0"",""0""
""blur"",""0"",""0""
""blur"",""0"",""0""
","""event"",""trial"",""time""
""focus"",""0"",""0""
""focus"",""0"",""0""
""focus"",""0"",""0""
""focus"",""0"",""0""
""focus"",""0"",""0""
""focus"",""0"",""0""
""focus"",""0"",""0""
""focus"",""0"",""0""
""focus"",""0"",""0""
""focus"",""0"",""0""
""focus"",""0"",""0""
""focus"",""0"",""0""
""focus"",""0"",""0""
""focus"",""0"",""0""
""focus"",""0"",""0""
""focus"",""0"",""0""
","""event"",""trial"",""time""
""fullscreenenter"",""1"",""79972""
","
",,2189.2,"<p> Are you ready to play a practice game? </p> <p>In this practice game, you'll be digging up barrels of gems. But, in the real game, you'll be digging up the gems themselves. </p>",,,,,,,0,,,,,,,,,,,,,,,,,,
alien_welcome_prac,26,280200,0.0-11.0-0.0,"""event"",""trial"",""time""
""blur"",""0"",""0""
""focus"",""0"",""0""
""blur"",""0"",""0""
""focus"",""0"",""0""
""blur"",""0"",""0""
""focus"",""0"",""0""
""blur"",""0"",""0""
""focus"",""0"",""0""
""blur"",""0"",""0""
""focus"",""0"",""0""
""blur"",""0"",""0""
""focus"",""0"",""0""
""blur"",""0"",""0""
""focus"",""0"",""0""
""blur"",""0"",""0""
""focus"",""0"",""0""
""blur"",""0"",""0""
""focus"",""0"",""0""
""blur"",""0"",""0""
""focus"",""0"",""0""
""blur"",""0"",""0""
""focus"",""0"",""0""
""blur"",""0"",""0""
""focus"",""0"",""0""
""blur"",""0"",""0""
""focus"",""0"",""0""
""blur"",""0"",""0""
""focus"",""0"",""0""
""blur"",""0"",""0""
""focus"",""0"",""0""
""blur"",""0"",""0""
""focus"",""0"",""0""
""fullscreenenter"",""1"",""79972""
","""event"",""trial"",""time""
""blur"",""0"",""0""
""blur"",""0"",""0""
""blur"",""0"",""0""
""blur"",""0"",""0""
""blur"",""0"",""0""
""blur"",""0"",""0""
""blur"",""0"",""0""
""blur"",""0"",""0""
""blur"",""0"",""0""
""blur"",""0"",""0""
""blur"",""0"",""0""
""blur"",""0"",""0""
""blur"",""0"",""0""
""blur"",""0"",""0""
""blur"",""0"",""0""
""blur"",""0"",""0""
","""event"",""trial"",""time""
""focus"",""0"",""0""
""focus"",""0"",""0""
""focus"",""0"",""0""
""focus"",""0"",""0""
""focus"",""0"",""0""
""focus"",""0"",""0""
""focus"",""0"",""0""
""focus"",""0"",""0""
""focus"",""0"",""0""
""focus"",""0"",""0""
""focus"",""0"",""0""
""focus"",""0"",""0""
""focus"",""0"",""0""
""focus"",""0"",""0""
""focus"",""0"",""0""
""focus"",""0"",""0""
","""event"",""trial"",""time""
""fullscreenenter"",""1"",""79972""
","
",,null,run_exp/static/images/task_images/aliens/practice_aliens/planet/alien_planet-5.jpg,null,,,,,,,,,,,,,,,,,,,,,,,,
land_prac,27,280702,0.0-11.0-1.0,"""event"",""trial"",""time""
""blur"",""0"",""0""
""focus"",""0"",""0""
""blur"",""0"",""0""
""focus"",""0"",""0""
""blur"",""0"",""0""
""focus"",""0"",""0""
""blur"",""0"",""0""
""focus"",""0"",""0""
""blur"",""0"",""0""
""focus"",""0"",""0""
""blur"",""0"",""0""
""focus"",""0"",""0""
""blur"",""0"",""0""
""focus"",""0"",""0""
""blur"",""0"",""0""
""focus"",""0"",""0""
""blur"",""0"",""0""
""focus"",""0"",""0""
""blur"",""0"",""0""
""focus"",""0"",""0""
""blur"",""0"",""0""
""focus"",""0"",""0""
""blur"",""0"",""0""
""focus"",""0"",""0""
""blur"",""0"",""0""
""focus"",""0"",""0""
""blur"",""0"",""0""
""focus"",""0"",""0""
""blur"",""0"",""0""
""focus"",""0"",""0""
""blur"",""0"",""0""
""focus"",""0"",""0""
""fullscreenenter"",""1"",""79972""
","""event"",""trial"",""time""
""blur"",""0"",""0""
""blur"",""0"",""0""
""blur"",""0"",""0""
""blur"",""0"",""0""
""blur"",""0"",""0""
""blur"",""0"",""0""
""blur"",""0"",""0""
""blur"",""0"",""0""
""blur"",""0"",""0""
""blur"",""0"",""0""
""blur"",""0"",""0""
""blur"",""0"",""0""
""blur"",""0"",""0""
""blur"",""0"",""0""
""blur"",""0"",""0""
""blur"",""0"",""0""
","""event"",""trial"",""time""
""focus"",""0"",""0""
""focus"",""0"",""0""
""focus"",""0"",""0""
""focus"",""0"",""0""
""focus"",""0"",""0""
""focus"",""0"",""0""
""focus"",""0"",""0""
""focus"",""0"",""0""
""focus"",""0"",""0""
""focus"",""0"",""0""
""focus"",""0"",""0""
""focus"",""0"",""0""
""focus"",""0"",""0""
""focus"",""0"",""0""
""focus"",""0"",""0""
""focus"",""0"",""0""
","""event"",""trial"",""time""
""fullscreenenter"",""1"",""79972""
","
",,null,run_exp/static/images/task_images/land.jpg,null,,,,,,,106,,,0,,,,,,,,,,,,,,
dig_prac,28,282705,0.0-11.0-2.0,"""event"",""trial"",""time""
""blur"",""0"",""0""
""focus"",""0"",""0""
""blur"",""0"",""0""
""focus"",""0"",""0""
""blur"",""0"",""0""
""focus"",""0"",""0""
""blur"",""0"",""0""
""focus"",""0"",""0""
""blur"",""0"",""0""
""focus"",""0"",""0""
""blur"",""0"",""0""
""focus"",""0"",""0""
""blur"",""0"",""0""
""focus"",""0"",""0""
""blur"",""0"",""0""
""focus"",""0"",""0""
""blur"",""0"",""0""
""focus"",""0"",""0""
""blur"",""0"",""0""
""focus"",""0"",""0""
""blur"",""0"",""0""
""focus"",""0"",""0""
""blur"",""0"",""0""
""focus"",""0"",""0""
""blur"",""0"",""0""
""focus"",""0"",""0""
""blur"",""0"",""0""
""focus"",""0"",""0""
""blur"",""0"",""0""
""focus"",""0"",""0""
""blur"",""0"",""0""
""focus"",""0"",""0""
""fullscreenenter"",""1"",""79972""
","""event"",""trial"",""time""
""blur"",""0"",""0""
""blur"",""0"",""0""
""blur"",""0"",""0""
""blur"",""0"",""0""
""blur"",""0"",""0""
""blur"",""0"",""0""
""blur"",""0"",""0""
""blur"",""0"",""0""
""blur"",""0"",""0""
""blur"",""0"",""0""
""blur"",""0"",""0""
""blur"",""0"",""0""
""blur"",""0"",""0""
""blur"",""0"",""0""
""blur"",""0"",""0""
""blur"",""0"",""0""
","""event"",""trial"",""time""
""focus"",""0"",""0""
""focus"",""0"",""0""
""focus"",""0"",""0""
""focus"",""0"",""0""
""focus"",""0"",""0""
""focus"",""0"",""0""
""focus"",""0"",""0""
""focus"",""0"",""0""
""focus"",""0"",""0""
""focus"",""0"",""0""
""focus"",""0"",""0""
""focus"",""0"",""0""
""focus"",""0"",""0""
""focus"",""0"",""0""
""focus"",""0"",""0""
""focus"",""0"",""0""
","""event"",""trial"",""time""
""fullscreenenter"",""1"",""79972""
","
",,,,,,,,,,,,"[{""stimulus"":""run_exp/static/images/task_images/dig.jpg"",""time"":0.10000000894069672},{""stimulus"":""run_exp/static/images/task_images/land.jpg"",""time"":668.7999999970198},{""stimulus"":""run_exp/static/images/task_images/dig.jpg"",""time"":1341.7000000029802}]",[],,,,,,,,,,,,,,,
harvest_prac,29,283706,0.0-11.0-3.0,"""event"",""trial"",""time""
""blur"",""0"",""0""
""focus"",""0"",""0""
""blur"",""0"",""0""
""focus"",""0"",""0""
""blur"",""0"",""0""
""focus"",""0"",""0""
""blur"",""0"",""0""
""focus"",""0"",""0""
""blur"",""0"",""0""
""focus"",""0"",""0""
""blur"",""0"",""0""
""focus"",""0"",""0""
""blur"",""0"",""0""
""focus"",""0"",""0""
""blur"",""0"",""0""
""focus"",""0"",""0""
""blur"",""0"",""0""
""focus"",""0"",""0""
""blur"",""0"",""0""
""focus"",""0"",""0""
""blur"",""0"",""0""
""focus"",""0"",""0""
""blur"",""0"",""0""
""focus"",""0"",""0""
""blur"",""0"",""0""
""focus"",""0"",""0""
""blur"",""0"",""0""
""focus"",""0"",""0""
""blur"",""0"",""0""
""focus"",""0"",""0""
""blur"",""0"",""0""
""focus"",""0"",""0""
""fullscreenenter"",""1"",""79972""
","""event"",""trial"",""time""
""blur"",""0"",""0""
""blur"",""0"",""0""
""blur"",""0"",""0""
""blur"",""0"",""0""
""blur"",""0"",""0""
""blur"",""0"",""0""
""blur"",""0"",""0""
""blur"",""0"",""0""
""blur"",""0"",""0""
""blur"",""0"",""0""
""blur"",""0"",""0""
""blur"",""0"",""0""
""blur"",""0"",""0""
""blur"",""0"",""0""
""blur"",""0"",""0""
""blur"",""0"",""0""
","""event"",""trial"",""time""
""focus"",""0"",""0""
""focus"",""0"",""0""
""focus"",""0"",""0""
""focus"",""0"",""0""
""focus"",""0"",""0""
""focus"",""0"",""0""
""focus"",""0"",""0""
""focus"",""0"",""0""
""focus"",""0"",""0""
""focus"",""0"",""0""
""focus"",""0"",""0""
""focus"",""0"",""0""
""focus"",""0"",""0""
""focus"",""0"",""0""
""focus"",""0"",""0""
""focus"",""0"",""0""
","""event"",""trial"",""time""
""fullscreenenter"",""1"",""79972""
","
",,null,run_exp/static/images/task_images/barrel_text.jpg,null,,,,,,,,,,,,,,,,,,,,,,,,
decision_prac,30,285013,0.0-11.0-4.0,"""event"",""trial"",""time""
""blur"",""0"",""0""
""focus"",""0"",""0""
""blur"",""0"",""0""
""focus"",""0"",""0""
""blur"",""0"",""0""
""focus"",""0"",""0""
""blur"",""0"",""0""
""focus"",""0"",""0""
""blur"",""0"",""0""
""focus"",""0"",""0""
""blur"",""0"",""0""
""focus"",""0"",""0""
""blur"",""0"",""0""
""focus"",""0"",""0""
""blur"",""0"",""0""
""focus"",""0"",""0""
""blur"",""0"",""0""
""focus"",""0"",""0""
""blur"",""0"",""0""
""focus"",""0"",""0""
""blur"",""0"",""0""
""focus"",""0"",""0""
""blur"",""0"",""0""
""focus"",""0"",""0""
""blur"",""0"",""0""
""focus"",""0"",""0""
""blur"",""0"",""0""
""focus"",""0"",""0""
""blur"",""0"",""0""
""focus"",""0"",""0""
""blur"",""0"",""0""
""focus"",""0"",""0""
""fullscreenenter"",""1"",""79972""
","""event"",""trial"",""time""
""blur"",""0"",""0""
""blur"",""0"",""0""
""blur"",""0"",""0""
""blur"",""0"",""0""
""blur"",""0"",""0""
""blur"",""0"",""0""
""blur"",""0"",""0""
""blur"",""0"",""0""
""blur"",""0"",""0""
""blur"",""0"",""0""
""blur"",""0"",""0""
""blur"",""0"",""0""
""blur"",""0"",""0""
""blur"",""0"",""0""
""blur"",""0"",""0""
""blur"",""0"",""0""
","""event"",""trial"",""time""
""focus"",""0"",""0""
""focus"",""0"",""0""
""focus"",""0"",""0""
""focus"",""0"",""0""
""focus"",""0"",""0""
""focus"",""0"",""0""
""focus"",""0"",""0""
""focus"",""0"",""0""
""focus"",""0"",""0""
""focus"",""0"",""0""
""focus"",""0"",""0""
""focus"",""0"",""0""
""focus"",""0"",""0""
""focus"",""0"",""0""
""focus"",""0"",""0""
""focus"",""0"",""0""
","""event"",""trial"",""time""
""fullscreenenter"",""1"",""79972""
","
",,1305.4,run_exp/static/images/task_images/land.jpg,65,,,,,,,,,,,1,,,,,,,,,,,,,
dig_prac,31,287030,0.0-12.0-0.0,"""event"",""trial"",""time""
""blur"",""0"",""0""
""focus"",""0"",""0""
""blur"",""0"",""0""
""focus"",""0"",""0""
""blur"",""0"",""0""
""focus"",""0"",""0""
""blur"",""0"",""0""
""focus"",""0"",""0""
""blur"",""0"",""0""
""focus"",""0"",""0""
""blur"",""0"",""0""
""focus"",""0"",""0""
""blur"",""0"",""0""
""focus"",""0"",""0""
""blur"",""0"",""0""
""focus"",""0"",""0""
""blur"",""0"",""0""
""focus"",""0"",""0""
""blur"",""0"",""0""
""focus"",""0"",""0""
""blur"",""0"",""0""
""focus"",""0"",""0""
""blur"",""0"",""0""
""focus"",""0"",""0""
""blur"",""0"",""0""
""focus"",""0"",""0""
""blur"",""0"",""0""
""focus"",""0"",""0""
""blur"",""0"",""0""
""focus"",""0"",""0""
""blur"",""0"",""0""
""focus"",""0"",""0""
""fullscreenenter"",""1"",""79972""
","""event"",""trial"",""time""
""blur"",""0"",""0""
""blur"",""0"",""0""
""blur"",""0"",""0""
""blur"",""0"",""0""
""blur"",""0"",""0""
""blur"",""0"",""0""
""blur"",""0"",""0""
""blur"",""0"",""0""
""blur"",""0"",""0""
""blur"",""0"",""0""
""blur"",""0"",""0""
""blur"",""0"",""0""
""blur"",""0"",""0""
""blur"",""0"",""0""
""blur"",""0"",""0""
""blur"",""0"",""0""
","""event"",""trial"",""time""
""focus"",""0"",""0""
""focus"",""0"",""0""
""focus"",""0"",""0""
""focus"",""0"",""0""
""focus"",""0"",""0""
""focus"",""0"",""0""
""focus"",""0"",""0""
""focus"",""0"",""0""
""focus"",""0"",""0""
""focus"",""0"",""0""
""focus"",""0"",""0""
""focus"",""0"",""0""
""focus"",""0"",""0""
""focus"",""0"",""0""
""focus"",""0"",""0""
""focus"",""0"",""0""
","""event"",""trial"",""time""
""fullscreenenter"",""1"",""79972""
","
",,,,,,,,,,,,"[{""stimulus"":""run_exp/static/images/task_images/dig.jpg"",""time"":0.20000000298023224},{""stimulus"":""run_exp/static/images/task_images/land.jpg"",""time"":676},{""stimulus"":""run_exp/static/images/task_images/dig.jpg"",""time"":1347.4000000059605}]",[],,,,,,,,,,,,,,,
harvest_prac,32,288031,0.0-12.0-1.0,"""event"",""trial"",""time""
""blur"",""0"",""0""
""focus"",""0"",""0""
""blur"",""0"",""0""
""focus"",""0"",""0""
""blur"",""0"",""0""
""focus"",""0"",""0""
""blur"",""0"",""0""
""focus"",""0"",""0""
""blur"",""0"",""0""
""focus"",""0"",""0""
""blur"",""0"",""0""
""focus"",""0"",""0""
""blur"",""0"",""0""
""focus"",""0"",""0""
""blur"",""0"",""0""
""focus"",""0"",""0""
""blur"",""0"",""0""
""focus"",""0"",""0""
""blur"",""0"",""0""
""focus"",""0"",""0""
""blur"",""0"",""0""
""focus"",""0"",""0""
""blur"",""0"",""0""
""focus"",""0"",""0""
""blur"",""0"",""0""
""focus"",""0"",""0""
""blur"",""0"",""0""
""focus"",""0"",""0""
""blur"",""0"",""0""
""focus"",""0"",""0""
""blur"",""0"",""0""
""focus"",""0"",""0""
""fullscreenenter"",""1"",""79972""
","""event"",""trial"",""time""
""blur"",""0"",""0""
""blur"",""0"",""0""
""blur"",""0"",""0""
""blur"",""0"",""0""
""blur"",""0"",""0""
""blur"",""0"",""0""
""blur"",""0"",""0""
""blur"",""0"",""0""
""blur"",""0"",""0""
""blur"",""0"",""0""
""blur"",""0"",""0""
""blur"",""0"",""0""
""blur"",""0"",""0""
""blur"",""0"",""0""
""blur"",""0"",""0""
""blur"",""0"",""0""
","""event"",""trial"",""time""
""focus"",""0"",""0""
""focus"",""0"",""0""
""focus"",""0"",""0""
""focus"",""0"",""0""
""focus"",""0"",""0""
""focus"",""0"",""0""
""focus"",""0"",""0""
""focus"",""0"",""0""
""focus"",""0"",""0""
""focus"",""0"",""0""
""focus"",""0"",""0""
""focus"",""0"",""0""
""focus"",""0"",""0""
""focus"",""0"",""0""
""focus"",""0"",""0""
""focus"",""0"",""0""
","""event"",""trial"",""time""
""fullscreenenter"",""1"",""79972""
","
",,null,run_exp/static/images/task_images/barrel_text.jpg,null,,,,,,,,,,,,,,,,,,,,,,,,
decision_prac,33,288354,0.0-12.0-2.0,"""event"",""trial"",""time""
""blur"",""0"",""0""
""focus"",""0"",""0""
""blur"",""0"",""0""
""focus"",""0"",""0""
""blur"",""0"",""0""
""focus"",""0"",""0""
""blur"",""0"",""0""
""focus"",""0"",""0""
""blur"",""0"",""0""
""focus"",""0"",""0""
""blur"",""0"",""0""
""focus"",""0"",""0""
""blur"",""0"",""0""
""focus"",""0"",""0""
""blur"",""0"",""0""
""focus"",""0"",""0""
""blur"",""0"",""0""
""focus"",""0"",""0""
""blur"",""0"",""0""
""focus"",""0"",""0""
""blur"",""0"",""0""
""focus"",""0"",""0""
""blur"",""0"",""0""
""focus"",""0"",""0""
""blur"",""0"",""0""
""focus"",""0"",""0""
""blur"",""0"",""0""
""focus"",""0"",""0""
""blur"",""0"",""0""
""focus"",""0"",""0""
""blur"",""0"",""0""
""focus"",""0"",""0""
""fullscreenenter"",""1"",""79972""
","""event"",""trial"",""time""
""blur"",""0"",""0""
""blur"",""0"",""0""
""blur"",""0"",""0""
""blur"",""0"",""0""
""blur"",""0"",""0""
""blur"",""0"",""0""
""blur"",""0"",""0""
""blur"",""0"",""0""
""blur"",""0"",""0""
""blur"",""0"",""0""
""blur"",""0"",""0""
""blur"",""0"",""0""
""blur"",""0"",""0""
""blur"",""0"",""0""
""blur"",""0"",""0""
""blur"",""0"",""0""
","""event"",""trial"",""time""
""focus"",""0"",""0""
""focus"",""0"",""0""
""focus"",""0"",""0""
""focus"",""0"",""0""
""focus"",""0"",""0""
""focus"",""0"",""0""
""focus"",""0"",""0""
""focus"",""0"",""0""
""focus"",""0"",""0""
""focus"",""0"",""0""
""focus"",""0"",""0""
""focus"",""0"",""0""
""focus"",""0"",""0""
""focus"",""0"",""0""
""focus"",""0"",""0""
""focus"",""0"",""0""
","""event"",""trial"",""time""
""fullscreenenter"",""1"",""79972""
","
",,320.7,run_exp/static/images/task_images/land.jpg,65,,,,,,,,,,,2,,,,,,,,,,,,,
dig_prac,34,290358,0.0-13.0-0.0,"""event"",""trial"",""time""
""blur"",""0"",""0""
""focus"",""0"",""0""
""blur"",""0"",""0""
""focus"",""0"",""0""
""blur"",""0"",""0""
""focus"",""0"",""0""
""blur"",""0"",""0""
""focus"",""0"",""0""
""blur"",""0"",""0""
""focus"",""0"",""0""
""blur"",""0"",""0""
""focus"",""0"",""0""
""blur"",""0"",""0""
""focus"",""0"",""0""
""blur"",""0"",""0""
""focus"",""0"",""0""
""blur"",""0"",""0""
""focus"",""0"",""0""
""blur"",""0"",""0""
""focus"",""0"",""0""
""blur"",""0"",""0""
""focus"",""0"",""0""
""blur"",""0"",""0""
""focus"",""0"",""0""
""blur"",""0"",""0""
""focus"",""0"",""0""
""blur"",""0"",""0""
""focus"",""0"",""0""
""blur"",""0"",""0""
""focus"",""0"",""0""
""blur"",""0"",""0""
""focus"",""0"",""0""
""fullscreenenter"",""1"",""79972""
","""event"",""trial"",""time""
""blur"",""0"",""0""
""blur"",""0"",""0""
""blur"",""0"",""0""
""blur"",""0"",""0""
""blur"",""0"",""0""
""blur"",""0"",""0""
""blur"",""0"",""0""
""blur"",""0"",""0""
""blur"",""0"",""0""
""blur"",""0"",""0""
""blur"",""0"",""0""
""blur"",""0"",""0""
""blur"",""0"",""0""
""blur"",""0"",""0""
""blur"",""0"",""0""
""blur"",""0"",""0""
","""event"",""trial"",""time""
""focus"",""0"",""0""
""focus"",""0"",""0""
""focus"",""0"",""0""
""focus"",""0"",""0""
""focus"",""0"",""0""
""focus"",""0"",""0""
""focus"",""0"",""0""
""focus"",""0"",""0""
""focus"",""0"",""0""
""focus"",""0"",""0""
""focus"",""0"",""0""
""focus"",""0"",""0""
""focus"",""0"",""0""
""focus"",""0"",""0""
""focus"",""0"",""0""
""focus"",""0"",""0""
","""event"",""trial"",""time""
""fullscreenenter"",""1"",""79972""
","
",,,,,,,,,,,,"[{""stimulus"":""run_exp/static/images/task_images/dig.jpg"",""time"":0.09999999403953552},{""stimulus"":""run_exp/static/images/task_images/land.jpg"",""time"":668.5},{""stimulus"":""run_exp/static/images/task_images/dig.jpg"",""time"":1334.5999999940395}]",[],,,,,,,,,,,,,,,
harvest_prac,35,291373,0.0-13.0-1.0,"""event"",""trial"",""time""
""blur"",""0"",""0""
""focus"",""0"",""0""
""blur"",""0"",""0""
""focus"",""0"",""0""
""blur"",""0"",""0""
""focus"",""0"",""0""
""blur"",""0"",""0""
""focus"",""0"",""0""
""blur"",""0"",""0""
""focus"",""0"",""0""
""blur"",""0"",""0""
""focus"",""0"",""0""
""blur"",""0"",""0""
""focus"",""0"",""0""
""blur"",""0"",""0""
""focus"",""0"",""0""
""blur"",""0"",""0""
""focus"",""0"",""0""
""blur"",""0"",""0""
""focus"",""0"",""0""
""blur"",""0"",""0""
""focus"",""0"",""0""
""blur"",""0"",""0""
""focus"",""0"",""0""
""blur"",""0"",""0""
""focus"",""0"",""0""
""blur"",""0"",""0""
""focus"",""0"",""0""
""blur"",""0"",""0""
""focus"",""0"",""0""
""blur"",""0"",""0""
""focus"",""0"",""0""
""fullscreenenter"",""1"",""79972""
","""event"",""trial"",""time""
""blur"",""0"",""0""
""blur"",""0"",""0""
""blur"",""0"",""0""
""blur"",""0"",""0""
""blur"",""0"",""0""
""blur"",""0"",""0""
""blur"",""0"",""0""
""blur"",""0"",""0""
""blur"",""0"",""0""
""blur"",""0"",""0""
""blur"",""0"",""0""
""blur"",""0"",""0""
""blur"",""0"",""0""
""blur"",""0"",""0""
""blur"",""0"",""0""
""blur"",""0"",""0""
","""event"",""trial"",""time""
""focus"",""0"",""0""
""focus"",""0"",""0""
""focus"",""0"",""0""
""focus"",""0"",""0""
""focus"",""0"",""0""
""focus"",""0"",""0""
""focus"",""0"",""0""
""focus"",""0"",""0""
""focus"",""0"",""0""
""focus"",""0"",""0""
""focus"",""0"",""0""
""focus"",""0"",""0""
""focus"",""0"",""0""
""focus"",""0"",""0""
""focus"",""0"",""0""
""focus"",""0"",""0""
","""event"",""trial"",""time""
""fullscreenenter"",""1"",""79972""
","
",,null,run_exp/static/images/task_images/barrel_text.jpg,null,,,,,,,,,,,,,,,,,,,,,,,,
decision_prac,36,291750,0.0-13.0-2.0,"""event"",""trial"",""time""
""blur"",""0"",""0""
""focus"",""0"",""0""
""blur"",""0"",""0""
""focus"",""0"",""0""
""blur"",""0"",""0""
""focus"",""0"",""0""
""blur"",""0"",""0""
""focus"",""0"",""0""
""blur"",""0"",""0""
""focus"",""0"",""0""
""blur"",""0"",""0""
""focus"",""0"",""0""
""blur"",""0"",""0""
""focus"",""0"",""0""
""blur"",""0"",""0""
""focus"",""0"",""0""
""blur"",""0"",""0""
""focus"",""0"",""0""
""blur"",""0"",""0""
""focus"",""0"",""0""
""blur"",""0"",""0""
""focus"",""0"",""0""
""blur"",""0"",""0""
""focus"",""0"",""0""
""blur"",""0"",""0""
""focus"",""0"",""0""
""blur"",""0"",""0""
""focus"",""0"",""0""
""blur"",""0"",""0""
""focus"",""0"",""0""
""blur"",""0"",""0""
""focus"",""0"",""0""
""fullscreenenter"",""1"",""79972""
","""event"",""trial"",""time""
""blur"",""0"",""0""
""blur"",""0"",""0""
""blur"",""0"",""0""
""blur"",""0"",""0""
""blur"",""0"",""0""
""blur"",""0"",""0""
""blur"",""0"",""0""
""blur"",""0"",""0""
""blur"",""0"",""0""
""blur"",""0"",""0""
""blur"",""0"",""0""
""blur"",""0"",""0""
""blur"",""0"",""0""
""blur"",""0"",""0""
""blur"",""0"",""0""
""blur"",""0"",""0""
","""event"",""trial"",""time""
""focus"",""0"",""0""
""focus"",""0"",""0""
""focus"",""0"",""0""
""focus"",""0"",""0""
""focus"",""0"",""0""
""focus"",""0"",""0""
""focus"",""0"",""0""
""focus"",""0"",""0""
""focus"",""0"",""0""
""focus"",""0"",""0""
""focus"",""0"",""0""
""focus"",""0"",""0""
""focus"",""0"",""0""
""focus"",""0"",""0""
""focus"",""0"",""0""
""focus"",""0"",""0""
","""event"",""trial"",""time""
""fullscreenenter"",""1"",""79972""
","
",,376.4,run_exp/static/images/task_images/land.jpg,65,,,,,,,,,,,3,,,,,,,,,,,,,
dig_prac,37,293763,0.0-14.0-0.0,"""event"",""trial"",""time""
""blur"",""0"",""0""
""focus"",""0"",""0""
""blur"",""0"",""0""
""focus"",""0"",""0""
""blur"",""0"",""0""
""focus"",""0"",""0""
""blur"",""0"",""0""
""focus"",""0"",""0""
""blur"",""0"",""0""
""focus"",""0"",""0""
""blur"",""0"",""0""
""focus"",""0"",""0""
""blur"",""0"",""0""
""focus"",""0"",""0""
""blur"",""0"",""0""
""focus"",""0"",""0""
""blur"",""0"",""0""
""focus"",""0"",""0""
""blur"",""0"",""0""
""focus"",""0"",""0""
""blur"",""0"",""0""
""focus"",""0"",""0""
""blur"",""0"",""0""
""focus"",""0"",""0""
""blur"",""0"",""0""
""focus"",""0"",""0""
""blur"",""0"",""0""
""focus"",""0"",""0""
""blur"",""0"",""0""
""focus"",""0"",""0""
""blur"",""0"",""0""
""focus"",""0"",""0""
""fullscreenenter"",""1"",""79972""
","""event"",""trial"",""time""
""blur"",""0"",""0""
""blur"",""0"",""0""
""blur"",""0"",""0""
""blur"",""0"",""0""
""blur"",""0"",""0""
""blur"",""0"",""0""
""blur"",""0"",""0""
""blur"",""0"",""0""
""blur"",""0"",""0""
""blur"",""0"",""0""
""blur"",""0"",""0""
""blur"",""0"",""0""
""blur"",""0"",""0""
""blur"",""0"",""0""
""blur"",""0"",""0""
""blur"",""0"",""0""
","""event"",""trial"",""time""
""focus"",""0"",""0""
""focus"",""0"",""0""
""focus"",""0"",""0""
""focus"",""0"",""0""
""focus"",""0"",""0""
""focus"",""0"",""0""
""focus"",""0"",""0""
""focus"",""0"",""0""
""focus"",""0"",""0""
""focus"",""0"",""0""
""focus"",""0"",""0""
""focus"",""0"",""0""
""focus"",""0"",""0""
""focus"",""0"",""0""
""focus"",""0"",""0""
""focus"",""0"",""0""
","""event"",""trial"",""time""
""fullscreenenter"",""1"",""79972""
","
",,,,,,,,,,,,"[{""stimulus"":""run_exp/static/images/task_images/dig.jpg"",""time"":0.20000000298023224},{""stimulus"":""run_exp/static/images/task_images/land.jpg"",""time"":681.7999999970198},{""stimulus"":""run_exp/static/images/task_images/dig.jpg"",""time"":1336.5}]",[],,,,,,,,,,,,,,,
harvest_prac,38,294764,0.0-14.0-1.0,"""event"",""trial"",""time""
""blur"",""0"",""0""
""focus"",""0"",""0""
""blur"",""0"",""0""
""focus"",""0"",""0""
""blur"",""0"",""0""
""focus"",""0"",""0""
""blur"",""0"",""0""
""focus"",""0"",""0""
""blur"",""0"",""0""
""focus"",""0"",""0""
""blur"",""0"",""0""
""focus"",""0"",""0""
""blur"",""0"",""0""
""focus"",""0"",""0""
""blur"",""0"",""0""
""focus"",""0"",""0""
""blur"",""0"",""0""
""focus"",""0"",""0""
""blur"",""0"",""0""
""focus"",""0"",""0""
""blur"",""0"",""0""
""focus"",""0"",""0""
""blur"",""0"",""0""
""focus"",""0"",""0""
""blur"",""0"",""0""
""focus"",""0"",""0""
""blur"",""0"",""0""
""focus"",""0"",""0""
""blur"",""0"",""0""
""focus"",""0"",""0""
""blur"",""0"",""0""
""focus"",""0"",""0""
""fullscreenenter"",""1"",""79972""
","""event"",""trial"",""time""
""blur"",""0"",""0""
""blur"",""0"",""0""
""blur"",""0"",""0""
""blur"",""0"",""0""
""blur"",""0"",""0""
""blur"",""0"",""0""
""blur"",""0"",""0""
""blur"",""0"",""0""
""blur"",""0"",""0""
""blur"",""0"",""0""
""blur"",""0"",""0""
""blur"",""0"",""0""
""blur"",""0"",""0""
""blur"",""0"",""0""
""blur"",""0"",""0""
""blur"",""0"",""0""
","""event"",""trial"",""time""
""focus"",""0"",""0""
""focus"",""0"",""0""
""focus"",""0"",""0""
""focus"",""0"",""0""
""focus"",""0"",""0""
""focus"",""0"",""0""
""focus"",""0"",""0""
""focus"",""0"",""0""
""focus"",""0"",""0""
""focus"",""0"",""0""
""focus"",""0"",""0""
""focus"",""0"",""0""
""focus"",""0"",""0""
""focus"",""0"",""0""
""focus"",""0"",""0""
""focus"",""0"",""0""
","""event"",""trial"",""time""
""fullscreenenter"",""1"",""79972""
","
",,null,run_exp/static/images/task_images/barrel_text.jpg,null,,,,,,,,,,,,,,,,,,,,,,,,
decision_prac,39,295190,0.0-14.0-2.0,"""event"",""trial"",""time""
""blur"",""0"",""0""
""focus"",""0"",""0""
""blur"",""0"",""0""
""focus"",""0"",""0""
""blur"",""0"",""0""
""focus"",""0"",""0""
""blur"",""0"",""0""
""focus"",""0"",""0""
""blur"",""0"",""0""
""focus"",""0"",""0""
""blur"",""0"",""0""
""focus"",""0"",""0""
""blur"",""0"",""0""
""focus"",""0"",""0""
""blur"",""0"",""0""
""focus"",""0"",""0""
""blur"",""0"",""0""
""focus"",""0"",""0""
""blur"",""0"",""0""
""focus"",""0"",""0""
""blur"",""0"",""0""
""focus"",""0"",""0""
""blur"",""0"",""0""
""focus"",""0"",""0""
""blur"",""0"",""0""
""focus"",""0"",""0""
""blur"",""0"",""0""
""focus"",""0"",""0""
""blur"",""0"",""0""
""focus"",""0"",""0""
""blur"",""0"",""0""
""focus"",""0"",""0""
""fullscreenenter"",""1"",""79972""
","""event"",""trial"",""time""
""blur"",""0"",""0""
""blur"",""0"",""0""
""blur"",""0"",""0""
""blur"",""0"",""0""
""blur"",""0"",""0""
""blur"",""0"",""0""
""blur"",""0"",""0""
""blur"",""0"",""0""
""blur"",""0"",""0""
""blur"",""0"",""0""
""blur"",""0"",""0""
""blur"",""0"",""0""
""blur"",""0"",""0""
""blur"",""0"",""0""
""blur"",""0"",""0""
""blur"",""0"",""0""
","""event"",""trial"",""time""
""focus"",""0"",""0""
""focus"",""0"",""0""
""focus"",""0"",""0""
""focus"",""0"",""0""
""focus"",""0"",""0""
""focus"",""0"",""0""
""focus"",""0"",""0""
""focus"",""0"",""0""
""focus"",""0"",""0""
""focus"",""0"",""0""
""focus"",""0"",""0""
""focus"",""0"",""0""
""focus"",""0"",""0""
""focus"",""0"",""0""
""focus"",""0"",""0""
""focus"",""0"",""0""
","""event"",""trial"",""time""
""fullscreenenter"",""1"",""79972""
","
",,423.9,run_exp/static/images/task_images/land.jpg,65,,,,,,,,,,,4,,,,,,,,,,,,,
dig_prac,40,297203,0.0-15.0-0.0,"""event"",""trial"",""time""
""blur"",""0"",""0""
""focus"",""0"",""0""
""blur"",""0"",""0""
""focus"",""0"",""0""
""blur"",""0"",""0""
""focus"",""0"",""0""
""blur"",""0"",""0""
""focus"",""0"",""0""
""blur"",""0"",""0""
""focus"",""0"",""0""
""blur"",""0"",""0""
""focus"",""0"",""0""
""blur"",""0"",""0""
""focus"",""0"",""0""
""blur"",""0"",""0""
""focus"",""0"",""0""
""blur"",""0"",""0""
""focus"",""0"",""0""
""blur"",""0"",""0""
""focus"",""0"",""0""
""blur"",""0"",""0""
""focus"",""0"",""0""
""blur"",""0"",""0""
""focus"",""0"",""0""
""blur"",""0"",""0""
""focus"",""0"",""0""
""blur"",""0"",""0""
""focus"",""0"",""0""
""blur"",""0"",""0""
""focus"",""0"",""0""
""blur"",""0"",""0""
""focus"",""0"",""0""
""fullscreenenter"",""1"",""79972""
","""event"",""trial"",""time""
""blur"",""0"",""0""
""blur"",""0"",""0""
""blur"",""0"",""0""
""blur"",""0"",""0""
""blur"",""0"",""0""
""blur"",""0"",""0""
""blur"",""0"",""0""
""blur"",""0"",""0""
""blur"",""0"",""0""
""blur"",""0"",""0""
""blur"",""0"",""0""
""blur"",""0"",""0""
""blur"",""0"",""0""
""blur"",""0"",""0""
""blur"",""0"",""0""
""blur"",""0"",""0""
","""event"",""trial"",""time""
""focus"",""0"",""0""
""focus"",""0"",""0""
""focus"",""0"",""0""
""focus"",""0"",""0""
""focus"",""0"",""0""
""focus"",""0"",""0""
""focus"",""0"",""0""
""focus"",""0"",""0""
""focus"",""0"",""0""
""focus"",""0"",""0""
""focus"",""0"",""0""
""focus"",""0"",""0""
""focus"",""0"",""0""
""focus"",""0"",""0""
""focus"",""0"",""0""
""focus"",""0"",""0""
","""event"",""trial"",""time""
""fullscreenenter"",""1"",""79972""
","
",,,,,,,,,,,,"[{""stimulus"":""run_exp/static/images/task_images/dig.jpg"",""time"":0},{""stimulus"":""run_exp/static/images/task_images/land.jpg"",""time"":672.3999999910593},{""stimulus"":""run_exp/static/images/task_images/dig.jpg"",""time"":1342.2999999970198}]",[],,,,,,,,,,,,,,,
harvest_prac,41,298214,0.0-15.0-1.0,"""event"",""trial"",""time""
""blur"",""0"",""0""
""focus"",""0"",""0""
""blur"",""0"",""0""
""focus"",""0"",""0""
""blur"",""0"",""0""
""focus"",""0"",""0""
""blur"",""0"",""0""
""focus"",""0"",""0""
""blur"",""0"",""0""
""focus"",""0"",""0""
""blur"",""0"",""0""
""focus"",""0"",""0""
""blur"",""0"",""0""
""focus"",""0"",""0""
""blur"",""0"",""0""
""focus"",""0"",""0""
""blur"",""0"",""0""
""focus"",""0"",""0""
""blur"",""0"",""0""
""focus"",""0"",""0""
""blur"",""0"",""0""
""focus"",""0"",""0""
""blur"",""0"",""0""
""focus"",""0"",""0""
""blur"",""0"",""0""
""focus"",""0"",""0""
""blur"",""0"",""0""
""focus"",""0"",""0""
""blur"",""0"",""0""
""focus"",""0"",""0""
""blur"",""0"",""0""
""focus"",""0"",""0""
""fullscreenenter"",""1"",""79972""
","""event"",""trial"",""time""
""blur"",""0"",""0""
""blur"",""0"",""0""
""blur"",""0"",""0""
""blur"",""0"",""0""
""blur"",""0"",""0""
""blur"",""0"",""0""
""blur"",""0"",""0""
""blur"",""0"",""0""
""blur"",""0"",""0""
""blur"",""0"",""0""
""blur"",""0"",""0""
""blur"",""0"",""0""
""blur"",""0"",""0""
""blur"",""0"",""0""
""blur"",""0"",""0""
""blur"",""0"",""0""
","""event"",""trial"",""time""
""focus"",""0"",""0""
""focus"",""0"",""0""
""focus"",""0"",""0""
""focus"",""0"",""0""
""focus"",""0"",""0""
""focus"",""0"",""0""
""focus"",""0"",""0""
""focus"",""0"",""0""
""focus"",""0"",""0""
""focus"",""0"",""0""
""focus"",""0"",""0""
""focus"",""0"",""0""
""focus"",""0"",""0""
""focus"",""0"",""0""
""focus"",""0"",""0""
""focus"",""0"",""0""
","""event"",""trial"",""time""
""fullscreenenter"",""1"",""79972""
","
",,null,run_exp/static/images/task_images/barrel_text.jpg,null,,,,,,,,,,,,,,,,,,,,,,,,
decision_prac,42,299241,0.0-15.0-2.0,"""event"",""trial"",""time""
""blur"",""0"",""0""
""focus"",""0"",""0""
""blur"",""0"",""0""
""focus"",""0"",""0""
""blur"",""0"",""0""
""focus"",""0"",""0""
""blur"",""0"",""0""
""focus"",""0"",""0""
""blur"",""0"",""0""
""focus"",""0"",""0""
""blur"",""0"",""0""
""focus"",""0"",""0""
""blur"",""0"",""0""
""focus"",""0"",""0""
""blur"",""0"",""0""
""focus"",""0"",""0""
""blur"",""0"",""0""
""focus"",""0"",""0""
""blur"",""0"",""0""
""focus"",""0"",""0""
""blur"",""0"",""0""
""focus"",""0"",""0""
""blur"",""0"",""0""
""focus"",""0"",""0""
""blur"",""0"",""0""
""focus"",""0"",""0""
""blur"",""0"",""0""
""focus"",""0"",""0""
""blur"",""0"",""0""
""focus"",""0"",""0""
""blur"",""0"",""0""
""focus"",""0"",""0""
""fullscreenenter"",""1"",""79972""
","""event"",""trial"",""time""
""blur"",""0"",""0""
""blur"",""0"",""0""
""blur"",""0"",""0""
""blur"",""0"",""0""
""blur"",""0"",""0""
""blur"",""0"",""0""
""blur"",""0"",""0""
""blur"",""0"",""0""
""blur"",""0"",""0""
""blur"",""0"",""0""
""blur"",""0"",""0""
""blur"",""0"",""0""
""blur"",""0"",""0""
""blur"",""0"",""0""
""blur"",""0"",""0""
""blur"",""0"",""0""
","""event"",""trial"",""time""
""focus"",""0"",""0""
""focus"",""0"",""0""
""focus"",""0"",""0""
""focus"",""0"",""0""
""focus"",""0"",""0""
""focus"",""0"",""0""
""focus"",""0"",""0""
""focus"",""0"",""0""
""focus"",""0"",""0""
""focus"",""0"",""0""
""focus"",""0"",""0""
""focus"",""0"",""0""
""focus"",""0"",""0""
""focus"",""0"",""0""
""focus"",""0"",""0""
""focus"",""0"",""0""
","""event"",""trial"",""time""
""fullscreenenter"",""1"",""79972""
","
",,1026.8,run_exp/static/images/task_images/land.jpg,65,,,,,,,,,,,,1,,,,,,,,,,,,
quiz_instruc,43,311949,0.0-16.0-0.0,"""event"",""trial"",""time""
""blur"",""0"",""0""
""focus"",""0"",""0""
""blur"",""0"",""0""
""focus"",""0"",""0""
""blur"",""0"",""0""
""focus"",""0"",""0""
""blur"",""0"",""0""
""focus"",""0"",""0""
""blur"",""0"",""0""
""focus"",""0"",""0""
""blur"",""0"",""0""
""focus"",""0"",""0""
""blur"",""0"",""0""
""focus"",""0"",""0""
""blur"",""0"",""0""
""focus"",""0"",""0""
""blur"",""0"",""0""
""focus"",""0"",""0""
""blur"",""0"",""0""
""focus"",""0"",""0""
""blur"",""0"",""0""
""focus"",""0"",""0""
""blur"",""0"",""0""
""focus"",""0"",""0""
""blur"",""0"",""0""
""focus"",""0"",""0""
""blur"",""0"",""0""
""focus"",""0"",""0""
""blur"",""0"",""0""
""focus"",""0"",""0""
""blur"",""0"",""0""
""focus"",""0"",""0""
""fullscreenenter"",""1"",""79972""
","""event"",""trial"",""time""
""blur"",""0"",""0""
""blur"",""0"",""0""
""blur"",""0"",""0""
""blur"",""0"",""0""
""blur"",""0"",""0""
""blur"",""0"",""0""
""blur"",""0"",""0""
""blur"",""0"",""0""
""blur"",""0"",""0""
""blur"",""0"",""0""
""blur"",""0"",""0""
""blur"",""0"",""0""
""blur"",""0"",""0""
""blur"",""0"",""0""
""blur"",""0"",""0""
""blur"",""0"",""0""
","""event"",""trial"",""time""
""focus"",""0"",""0""
""focus"",""0"",""0""
""focus"",""0"",""0""
""focus"",""0"",""0""
""focus"",""0"",""0""
""focus"",""0"",""0""
""focus"",""0"",""0""
""focus"",""0"",""0""
""focus"",""0"",""0""
""focus"",""0"",""0""
""focus"",""0"",""0""
""focus"",""0"",""0""
""focus"",""0"",""0""
""focus"",""0"",""0""
""focus"",""0"",""0""
""focus"",""0"",""0""
","""event"",""trial"",""time""
""fullscreenenter"",""1"",""79972""
","
",,12705.1,run_exp/static/audio/clip_10_quiz.m4a,,,,,,,0,,,,,,,,,,,,,,,,,,
instruc_repeat,44,354730,0.0-16.0-1.0,"""event"",""trial"",""time""
""blur"",""0"",""0""
""focus"",""0"",""0""
""blur"",""0"",""0""
""focus"",""0"",""0""
""blur"",""0"",""0""
""focus"",""0"",""0""
""blur"",""0"",""0""
""focus"",""0"",""0""
""blur"",""0"",""0""
""focus"",""0"",""0""
""blur"",""0"",""0""
""focus"",""0"",""0""
""blur"",""0"",""0""
""focus"",""0"",""0""
""blur"",""0"",""0""
""focus"",""0"",""0""
""blur"",""0"",""0""
""focus"",""0"",""0""
""blur"",""0"",""0""
""focus"",""0"",""0""
""blur"",""0"",""0""
""focus"",""0"",""0""
""blur"",""0"",""0""
""focus"",""0"",""0""
""blur"",""0"",""0""
""focus"",""0"",""0""
""blur"",""0"",""0""
""focus"",""0"",""0""
""blur"",""0"",""0""
""focus"",""0"",""0""
""blur"",""0"",""0""
""focus"",""0"",""0""
""fullscreenenter"",""1"",""79972""
","""event"",""trial"",""time""
""blur"",""0"",""0""
""blur"",""0"",""0""
""blur"",""0"",""0""
""blur"",""0"",""0""
""blur"",""0"",""0""
""blur"",""0"",""0""
""blur"",""0"",""0""
""blur"",""0"",""0""
""blur"",""0"",""0""
""blur"",""0"",""0""
""blur"",""0"",""0""
""blur"",""0"",""0""
""blur"",""0"",""0""
""blur"",""0"",""0""
""blur"",""0"",""0""
""blur"",""0"",""0""
","""event"",""trial"",""time""
""focus"",""0"",""0""
""focus"",""0"",""0""
""focus"",""0"",""0""
""focus"",""0"",""0""
""focus"",""0"",""0""
""focus"",""0"",""0""
""focus"",""0"",""0""
""focus"",""0"",""0""
""focus"",""0"",""0""
""focus"",""0"",""0""
""focus"",""0"",""0""
""focus"",""0"",""0""
""focus"",""0"",""0""
""focus"",""0"",""0""
""focus"",""0"",""0""
""focus"",""0"",""0""
","""event"",""trial"",""time""
""fullscreenenter"",""1"",""79972""
","
",,null,"<p> Are you ready to play a practice game? </p> <p>In this practice game, you'll be digging up barrels of gems. But, in the real game, you'll be digging up the gems themselves. </p>",null,"<p>In this game, your goal is to collect as many gems as you can. That’s how you will win bonus money. </p> <p>The entire game will last 20 minutes no matter how many gems you collect or how many planets you visit. </p><p>To stay on a planet and dig again, press the letter A on your keyboard. To leave for a new planet, press the letter L.</p><p>The more you dig on a planet, the fewer gems you’ll get with each dig which is why you might consider leaving for a new planet. </p><p>When you arrive at a new planet, you’ll be greeted by an alien. What the alien looks like does not tell you anything about how much treasure is on the planet. </p>",,,,,,,,,,,,,,,,,,,,,,,
instruc_repeat_continue,45,356306,0.0-16.0-2.0,"""event"",""trial"",""time""
""blur"",""0"",""0""
""focus"",""0"",""0""
""blur"",""0"",""0""
""focus"",""0"",""0""
""blur"",""0"",""0""
""focus"",""0"",""0""
""blur"",""0"",""0""
""focus"",""0"",""0""
""blur"",""0"",""0""
""focus"",""0"",""0""
""blur"",""0"",""0""
""focus"",""0"",""0""
""blur"",""0"",""0""
""focus"",""0"",""0""
""blur"",""0"",""0""
""focus"",""0"",""0""
""blur"",""0"",""0""
""focus"",""0"",""0""
""blur"",""0"",""0""
""focus"",""0"",""0""
""blur"",""0"",""0""
""focus"",""0"",""0""
""blur"",""0"",""0""
""focus"",""0"",""0""
""blur"",""0"",""0""
""focus"",""0"",""0""
""blur"",""0"",""0""
""focus"",""0"",""0""
""blur"",""0"",""0""
""focus"",""0"",""0""
""blur"",""0"",""0""
""focus"",""0"",""0""
""fullscreenenter"",""1"",""79972""
","""event"",""trial"",""time""
""blur"",""0"",""0""
""blur"",""0"",""0""
""blur"",""0"",""0""
""blur"",""0"",""0""
""blur"",""0"",""0""
""blur"",""0"",""0""
""blur"",""0"",""0""
""blur"",""0"",""0""
""blur"",""0"",""0""
""blur"",""0"",""0""
""blur"",""0"",""0""
""blur"",""0"",""0""
""blur"",""0"",""0""
""blur"",""0"",""0""
""blur"",""0"",""0""
""blur"",""0"",""0""
","""event"",""trial"",""time""
""focus"",""0"",""0""
""focus"",""0"",""0""
""focus"",""0"",""0""
""focus"",""0"",""0""
""focus"",""0"",""0""
""focus"",""0"",""0""
""focus"",""0"",""0""
""focus"",""0"",""0""
""focus"",""0"",""0""
""focus"",""0"",""0""
""focus"",""0"",""0""
""focus"",""0"",""0""
""focus"",""0"",""0""
""focus"",""0"",""0""
""focus"",""0"",""0""
""focus"",""0"",""0""
","""event"",""trial"",""time""
""fullscreenenter"",""1"",""79972""
","
",,1573.8,"<p> Are you ready to play a practice game? </p> <p>In this practice game, you'll be digging up barrels of gems. But, in the real game, you'll be digging up the gems themselves. </p>",,,,,,,0,,,,,,,,,,,,,,,,,,
quiz_q_1_ask,46,363934,0.0-16.0-3.0,"""event"",""trial"",""time""
""blur"",""0"",""0""
""focus"",""0"",""0""
""blur"",""0"",""0""
""focus"",""0"",""0""
""blur"",""0"",""0""
""focus"",""0"",""0""
""blur"",""0"",""0""
""focus"",""0"",""0""
""blur"",""0"",""0""
""focus"",""0"",""0""
""blur"",""0"",""0""
""focus"",""0"",""0""
""blur"",""0"",""0""
""focus"",""0"",""0""
""blur"",""0"",""0""
""focus"",""0"",""0""
""blur"",""0"",""0""
""focus"",""0"",""0""
""blur"",""0"",""0""
""focus"",""0"",""0""
""blur"",""0"",""0""
""focus"",""0"",""0""
""blur"",""0"",""0""
""focus"",""0"",""0""
""blur"",""0"",""0""
""focus"",""0"",""0""
""blur"",""0"",""0""
""focus"",""0"",""0""
""blur"",""0"",""0""
""focus"",""0"",""0""
""blur"",""0"",""0""
""focus"",""0"",""0""
""fullscreenenter"",""1"",""79972""
","""event"",""trial"",""time""
""blur"",""0"",""0""
""blur"",""0"",""0""
""blur"",""0"",""0""
""blur"",""0"",""0""
""blur"",""0"",""0""
""blur"",""0"",""0""
""blur"",""0"",""0""
""blur"",""0"",""0""
""blur"",""0"",""0""
""blur"",""0"",""0""
""blur"",""0"",""0""
""blur"",""0"",""0""
""blur"",""0"",""0""
""blur"",""0"",""0""
""blur"",""0"",""0""
""blur"",""0"",""0""
","""event"",""trial"",""time""
""focus"",""0"",""0""
""focus"",""0"",""0""
""focus"",""0"",""0""
""focus"",""0"",""0""
""focus"",""0"",""0""
""focus"",""0"",""0""
""focus"",""0"",""0""
""focus"",""0"",""0""
""focus"",""0"",""0""
""focus"",""0"",""0""
""focus"",""0"",""0""
""focus"",""0"",""0""
""focus"",""0"",""0""
""focus"",""0"",""0""
""focus"",""0"",""0""
""focus"",""0"",""0""
","""event"",""trial"",""time""
""fullscreenenter"",""1"",""79972""
","
",,7626.7,run_exp/static/audio/clip_11_q1_ask.m4a,,,,,,,2,,,,,,,,,,,,,,,,,,
quiz_q_1_fb_correct,47,367789,0.0-17.0-0.0,"""event"",""trial"",""time""
""blur"",""0"",""0""
""focus"",""0"",""0""
""blur"",""0"",""0""
""focus"",""0"",""0""
""blur"",""0"",""0""
""focus"",""0"",""0""
""blur"",""0"",""0""
""focus"",""0"",""0""
""blur"",""0"",""0""
""focus"",""0"",""0""
""blur"",""0"",""0""
""focus"",""0"",""0""
""blur"",""0"",""0""
""focus"",""0"",""0""
""blur"",""0"",""0""
""focus"",""0"",""0""
""blur"",""0"",""0""
""focus"",""0"",""0""
""blur"",""0"",""0""
""focus"",""0"",""0""
""blur"",""0"",""0""
""focus"",""0"",""0""
""blur"",""0"",""0""
""focus"",""0"",""0""
""blur"",""0"",""0""
""focus"",""0"",""0""
""blur"",""0"",""0""
""focus"",""0"",""0""
""blur"",""0"",""0""
""focus"",""0"",""0""
""blur"",""0"",""0""
""focus"",""0"",""0""
""fullscreenenter"",""1"",""79972""
","""event"",""trial"",""time""
""blur"",""0"",""0""
""blur"",""0"",""0""
""blur"",""0"",""0""
""blur"",""0"",""0""
""blur"",""0"",""0""
""blur"",""0"",""0""
""blur"",""0"",""0""
""blur"",""0"",""0""
""blur"",""0"",""0""
""blur"",""0"",""0""
""blur"",""0"",""0""
""blur"",""0"",""0""
""blur"",""0"",""0""
""blur"",""0"",""0""
""blur"",""0"",""0""
""blur"",""0"",""0""
","""event"",""trial"",""time""
""focus"",""0"",""0""
""focus"",""0"",""0""
""focus"",""0"",""0""
""focus"",""0"",""0""
""focus"",""0"",""0""
""focus"",""0"",""0""
""focus"",""0"",""0""
""focus"",""0"",""0""
""focus"",""0"",""0""
""focus"",""0"",""0""
""focus"",""0"",""0""
""focus"",""0"",""0""
""focus"",""0"",""0""
""focus"",""0"",""0""
""focus"",""0"",""0""
""focus"",""0"",""0""
","""event"",""trial"",""time""
""fullscreenenter"",""1"",""79972""
","
",,null,run_exp/static/audio/clip_12_q1_correct.m4a,null,<p>That’s correct. You win extra money by collecting more gems.</p>,,,,,,,,,,,,,,,,,,,,,,,
quiz_q_2_ask,48,382033,0.0-17.0-1.0,"""event"",""trial"",""time""
""blur"",""0"",""0""
""focus"",""0"",""0""
""blur"",""0"",""0""
""focus"",""0"",""0""
""blur"",""0"",""0""
""focus"",""0"",""0""
""blur"",""0"",""0""
""focus"",""0"",""0""
""blur"",""0"",""0""
""focus"",""0"",""0""
""blur"",""0"",""0""
""focus"",""0"",""0""
""blur"",""0"",""0""
""focus"",""0"",""0""
""blur"",""0"",""0""
""focus"",""0"",""0""
""blur"",""0"",""0""
""focus"",""0"",""0""
""blur"",""0"",""0""
""focus"",""0"",""0""
""blur"",""0"",""0""
""focus"",""0"",""0""
""blur"",""0"",""0""
""focus"",""0"",""0""
""blur"",""0"",""0""
""focus"",""0"",""0""
""blur"",""0"",""0""
""focus"",""0"",""0""
""blur"",""0"",""0""
""focus"",""0"",""0""
""blur"",""0"",""0""
""focus"",""0"",""0""
""fullscreenenter"",""1"",""79972""
","""event"",""trial"",""time""
""blur"",""0"",""0""
""blur"",""0"",""0""
""blur"",""0"",""0""
""blur"",""0"",""0""
""blur"",""0"",""0""
""blur"",""0"",""0""
""blur"",""0"",""0""
""blur"",""0"",""0""
""blur"",""0"",""0""
""blur"",""0"",""0""
""blur"",""0"",""0""
""blur"",""0"",""0""
""blur"",""0"",""0""
""blur"",""0"",""0""
""blur"",""0"",""0""
""blur"",""0"",""0""
","""event"",""trial"",""time""
""focus"",""0"",""0""
""focus"",""0"",""0""
""focus"",""0"",""0""
""focus"",""0"",""0""
""focus"",""0"",""0""
""focus"",""0"",""0""
""focus"",""0"",""0""
""focus"",""0"",""0""
""focus"",""0"",""0""
""focus"",""0"",""0""
""focus"",""0"",""0""
""focus"",""0"",""0""
""focus"",""0"",""0""
""focus"",""0"",""0""
""focus"",""0"",""0""
""focus"",""0"",""0""
","""event"",""trial"",""time""
""fullscreenenter"",""1"",""79972""
","
",,14241.6,run_exp/static/audio/clip_14_q2_ask.m4a,,,,,,,1,,,,,,,,,,,,,,,,,,
quiz_q_2_fb_correct,49,386049,0.0-18.0-0.0,"""event"",""trial"",""time""
""blur"",""0"",""0""
""focus"",""0"",""0""
""blur"",""0"",""0""
""focus"",""0"",""0""
""blur"",""0"",""0""
""focus"",""0"",""0""
""blur"",""0"",""0""
""focus"",""0"",""0""
""blur"",""0"",""0""
""focus"",""0"",""0""
""blur"",""0"",""0""
""focus"",""0"",""0""
""blur"",""0"",""0""
""focus"",""0"",""0""
""blur"",""0"",""0""
""focus"",""0"",""0""
""blur"",""0"",""0""
""focus"",""0"",""0""
""blur"",""0"",""0""
""focus"",""0"",""0""
""blur"",""0"",""0""
""focus"",""0"",""0""
""blur"",""0"",""0""
""focus"",""0"",""0""
""blur"",""0"",""0""
""focus"",""0"",""0""
""blur"",""0"",""0""
""focus"",""0"",""0""
""blur"",""0"",""0""
""focus"",""0"",""0""
""blur"",""0"",""0""
""focus"",""0"",""0""
""fullscreenenter"",""1"",""79972""
","""event"",""trial"",""time""
""blur"",""0"",""0""
""blur"",""0"",""0""
""blur"",""0"",""0""
""blur"",""0"",""0""
""blur"",""0"",""0""
""blur"",""0"",""0""
""blur"",""0"",""0""
""blur"",""0"",""0""
""blur"",""0"",""0""
""blur"",""0"",""0""
""blur"",""0"",""0""
""blur"",""0"",""0""
""blur"",""0"",""0""
""blur"",""0"",""0""
""blur"",""0"",""0""
""blur"",""0"",""0""
","""event"",""trial"",""time""
""focus"",""0"",""0""
""focus"",""0"",""0""
""focus"",""0"",""0""
""focus"",""0"",""0""
""focus"",""0"",""0""
""focus"",""0"",""0""
""focus"",""0"",""0""
""focus"",""0"",""0""
""focus"",""0"",""0""
""focus"",""0"",""0""
""focus"",""0"",""0""
""focus"",""0"",""0""
""focus"",""0"",""0""
""focus"",""0"",""0""
""focus"",""0"",""0""
""focus"",""0"",""0""
","""event"",""trial"",""time""
""fullscreenenter"",""1"",""79972""
","
",,null,run_exp/static/audio/clip_15_q2_correct.m4a,null,<p>That’s correct. The experiment is 20 minutes no matter what.</p>,,,,,,,,,,,,,,,,,,,,,,,
quiz_q_3_ask,50,399332,0.0-18.0-1.0,"""event"",""trial"",""time""
""blur"",""0"",""0""
""focus"",""0"",""0""
""blur"",""0"",""0""
""focus"",""0"",""0""
""blur"",""0"",""0""
""focus"",""0"",""0""
""blur"",""0"",""0""
""focus"",""0"",""0""
""blur"",""0"",""0""
""focus"",""0"",""0""
""blur"",""0"",""0""
""focus"",""0"",""0""
""blur"",""0"",""0""
""focus"",""0"",""0""
""blur"",""0"",""0""
""focus"",""0"",""0""
""blur"",""0"",""0""
""focus"",""0"",""0""
""blur"",""0"",""0""
""focus"",""0"",""0""
""blur"",""0"",""0""
""focus"",""0"",""0""
""blur"",""0"",""0""
""focus"",""0"",""0""
""blur"",""0"",""0""
""focus"",""0"",""0""
""blur"",""0"",""0""
""focus"",""0"",""0""
""blur"",""0"",""0""
""focus"",""0"",""0""
""blur"",""0"",""0""
""focus"",""0"",""0""
""fullscreenenter"",""1"",""79972""
","""event"",""trial"",""time""
""blur"",""0"",""0""
""blur"",""0"",""0""
""blur"",""0"",""0""
""blur"",""0"",""0""
""blur"",""0"",""0""
""blur"",""0"",""0""
""blur"",""0"",""0""
""blur"",""0"",""0""
""blur"",""0"",""0""
""blur"",""0"",""0""
""blur"",""0"",""0""
""blur"",""0"",""0""
""blur"",""0"",""0""
""blur"",""0"",""0""
""blur"",""0"",""0""
""blur"",""0"",""0""
","""event"",""trial"",""time""
""focus"",""0"",""0""
""focus"",""0"",""0""
""focus"",""0"",""0""
""focus"",""0"",""0""
""focus"",""0"",""0""
""focus"",""0"",""0""
""focus"",""0"",""0""
""focus"",""0"",""0""
""focus"",""0"",""0""
""focus"",""0"",""0""
""focus"",""0"",""0""
""focus"",""0"",""0""
""focus"",""0"",""0""
""focus"",""0"",""0""
""focus"",""0"",""0""
""focus"",""0"",""0""
","""event"",""trial"",""time""
""fullscreenenter"",""1"",""79972""
","
",,13281.1,run_exp/static/audio/clip_17_q3_ask.m4a,,,,,,,1,,,,,,,,,,,,,,,,,,
quiz_q_3_fb_correct,51,403329,0.0-19.0-0.0,"""event"",""trial"",""time""
""blur"",""0"",""0""
""focus"",""0"",""0""
""blur"",""0"",""0""
""focus"",""0"",""0""
""blur"",""0"",""0""
""focus"",""0"",""0""
""blur"",""0"",""0""
""focus"",""0"",""0""
""blur"",""0"",""0""
""focus"",""0"",""0""
""blur"",""0"",""0""
""focus"",""0"",""0""
""blur"",""0"",""0""
""focus"",""0"",""0""
""blur"",""0"",""0""
""focus"",""0"",""0""
""blur"",""0"",""0""
""focus"",""0"",""0""
""blur"",""0"",""0""
""focus"",""0"",""0""
""blur"",""0"",""0""
""focus"",""0"",""0""
