trial_type,trial_index,time_elapsed,internal_node_id,interactions,blur_events,focus_events,fullscreenenter_events,fullscreenexit_events,success,rt,stimulus,key_press,prompt,subject_id,participant_id,age,gender,button_pressed,next_reward,animation_sequence,responses,planet,curr_prac_trial,n_prac_rounds,alien,aliens,reward_received,decay_rate_actual,decay_rate_exp,time_in_block,block_num,prt,last_trial_on_planet,button_html,bonus,num_failures
pavlovia,0,5,0.0-0.0,"""event"",""trial"",""time""
""blur"",""0"",""0""
""focus"",""0"",""0""
""fullscreenenter"",""1"",""5139""
","""event"",""trial"",""time""
""blur"",""0"",""0""
","""event"",""trial"",""time""
""focus"",""0"",""0""
","""event"",""trial"",""time""
""fullscreenenter"",""1"",""5139""
","
",,,,,,,,,,,,,,,,,,,,,,,,,,,,
fullscreen,1,6138,0.0-1.0,"""event"",""trial"",""time""
""blur"",""0"",""0""
""focus"",""0"",""0""
""fullscreenenter"",""1"",""5139""
","""event"",""trial"",""time""
""blur"",""0"",""0""
","""event"",""trial"",""time""
""focus"",""0"",""0""
","""event"",""trial"",""time""
""fullscreenenter"",""1"",""5139""
","
",TRUE,,,,,,,,,,,,,,,,,,,,,,,,,,,
instruc_welcome,2,16074,0.0-2.0,"""event"",""trial"",""time""
""blur"",""0"",""0""
""focus"",""0"",""0""
""fullscreenenter"",""1"",""5139""
""blur"",""3"",""18471""
""focus"",""3"",""23967""
","""event"",""trial"",""time""
""blur"",""0"",""0""
""blur"",""3"",""18471""
","""event"",""trial"",""time""
""focus"",""0"",""0""
""focus"",""3"",""23967""
","""event"",""trial"",""time""
""fullscreenenter"",""1"",""5139""
","
",,null,run_exp/static/audio/clip_1_welcome.m4a,null,"<p>Howdy! In this experiment, you’ll be an explorer traveling through space to collect space treasure.</p><p>Your mission is to collect as much treasure as possible.</p><br><br><p><img src='run_exp/static/images/task_images/opening_img-01.jpg' height='300' width='auto'></p>",8546,1301,24.92,Female,,,,,,,,,,,,,,,,,,,
audio-keyboard-response,3,32674,0.0-3.0,"""event"",""trial"",""time""
""blur"",""0"",""0""
""focus"",""0"",""0""
""fullscreenenter"",""1"",""5139""
""blur"",""3"",""18471""
""focus"",""3"",""23967""
","""event"",""trial"",""time""
""blur"",""0"",""0""
""blur"",""3"",""18471""
","""event"",""trial"",""time""
""focus"",""0"",""0""
""focus"",""3"",""23967""
","""event"",""trial"",""time""
""fullscreenenter"",""1"",""5139""
","
",,null,run_exp/static/audio/clip_2_move.m4a,null,,,,,,,,,,,,,,,,,,,,,,,,
welcome_dec,4,36364,0.0-4.0,"""event"",""trial"",""time""
""blur"",""0"",""0""
""focus"",""0"",""0""
""fullscreenenter"",""1"",""5139""
""blur"",""3"",""18471""
""focus"",""3"",""23967""
","""event"",""trial"",""time""
""blur"",""0"",""0""
""blur"",""3"",""18471""
","""event"",""trial"",""time""
""focus"",""0"",""0""
""focus"",""3"",""23967""
","""event"",""trial"",""time""
""fullscreenenter"",""1"",""5139""
","
",,3679.2,"<p>Howdy! In this experiment, you’ll be an explorer traveling through space to collect space treasure.</p><p>Your mission is to collect as much treasure as possible.</p><br><br><p><img src='run_exp/static/images/task_images/opening_img-01.jpg' height='300' width='auto'></p>",,,,,,,1,,,,,,,,,,,,,,,,,,
html-keyboard-response,5,39103,0.0-5.0,"""event"",""trial"",""time""
""blur"",""0"",""0""
""focus"",""0"",""0""
""fullscreenenter"",""1"",""5139""
""blur"",""3"",""18471""
""focus"",""3"",""23967""
","""event"",""trial"",""time""
""blur"",""0"",""0""
""blur"",""3"",""18471""
","""event"",""trial"",""time""
""focus"",""0"",""0""
""focus"",""3"",""23967""
","""event"",""trial"",""time""
""fullscreenenter"",""1"",""5139""
","
",,2734.1,"<p>Howdy! In this experiment, you’ll be an explorer traveling through space to collect space treasure.</p><p>Your mission is to collect as much treasure as possible.</p><br><br><p><img src='run_exp/static/images/task_images/opening_img-01.jpg' height='300' width='auto'></p><button class=""jspsych-html-btn-unchosen""><img src=""run_exp/static/images/task_images/planet-01.jpg"" height=""50""></button><button class=""jspsych-html-btn-chosen""><img src=""run_exp/static/images/task_images/planet-02.jpg"" height=""50""></button><p><b>[press the space bar to lock in your answer]<b><br></p>",32,,,,,,,,,,,,,,,,,,,,,,,,
instruc_goal,6,49172,0.0-6.0-0.0,"""event"",""trial"",""time""
""blur"",""0"",""0""
""focus"",""0"",""0""
""fullscreenenter"",""1"",""5139""
""blur"",""3"",""18471""
""focus"",""3"",""23967""
","""event"",""trial"",""time""
""blur"",""0"",""0""
""blur"",""3"",""18471""
","""event"",""trial"",""time""
""focus"",""0"",""0""
""focus"",""3"",""23967""
","""event"",""trial"",""time""
""fullscreenenter"",""1"",""5139""
","
",,null,run_exp/static/audio/clip_3_goal.m4a,null,"<p> As a space explorer, you’ll visit different planets to dig for space treasure, these pink gems.</p> <p> The more treasure you dig up, the more bonus money you’ll win! </p><br><br><p><img src='run_exp/static/images/task_images/pink_gem.jpg' height='300' width='auto'></p>",,,,,,,,,,,,,,,,,,,,,,,
instruc_goal,7,75158,0.0-6.0-1.0,"""event"",""trial"",""time""
""blur"",""0"",""0""
""focus"",""0"",""0""
""fullscreenenter"",""1"",""5139""
""blur"",""3"",""18471""
""focus"",""3"",""23967""
","""event"",""trial"",""time""
""blur"",""0"",""0""
""blur"",""3"",""18471""
","""event"",""trial"",""time""
""focus"",""0"",""0""
""focus"",""3"",""23967""
","""event"",""trial"",""time""
""fullscreenenter"",""1"",""5139""
","
",,25983.1,"<p> As a space explorer, you’ll visit different planets to dig for space treasure, these pink gems.</p> <p> The more treasure you dig up, the more bonus money you’ll win! </p><br><br><p><img src='run_exp/static/images/task_images/pink_gem.jpg' height='300' width='auto'></p>",,,,,,,1,,,,,,,,,,,,,,,,,,
html-keyboard-response,8,76067,0.0-6.0-2.0,"""event"",""trial"",""time""
""blur"",""0"",""0""
""focus"",""0"",""0""
""fullscreenenter"",""1"",""5139""
""blur"",""3"",""18471""
""focus"",""3"",""23967""
","""event"",""trial"",""time""
""blur"",""0"",""0""
""blur"",""3"",""18471""
","""event"",""trial"",""time""
""focus"",""0"",""0""
""focus"",""3"",""23967""
","""event"",""trial"",""time""
""fullscreenenter"",""1"",""5139""
","
",,896.1,"<p> As a space explorer, you’ll visit different planets to dig for space treasure, these pink gems.</p> <p> The more treasure you dig up, the more bonus money you’ll win! </p><br><br><p><img src='run_exp/static/images/task_images/pink_gem.jpg' height='300' width='auto'></p><button class=""jspsych-html-btn-unchosen""><img src=""run_exp/static/images/task_images/planet-01.jpg"" height=""50""></button><button class=""jspsych-html-btn-chosen""><img src=""run_exp/static/images/task_images/planet-02.jpg"" height=""50""></button><p><b>[press the space bar to lock in your answer]<b><br></p>",32,,,,,,,,,,,,,,,,,,,,,,,,
instruc_dig,9,92277,0.0-7.0-0.0,"""event"",""trial"",""time""
""blur"",""0"",""0""
""focus"",""0"",""0""
""fullscreenenter"",""1"",""5139""
""blur"",""3"",""18471""
""focus"",""3"",""23967""
","""event"",""trial"",""time""
""blur"",""0"",""0""
""blur"",""3"",""18471""
","""event"",""trial"",""time""
""focus"",""0"",""0""
""focus"",""3"",""23967""
","""event"",""trial"",""time""
""fullscreenenter"",""1"",""5139""
","
",,null,run_exp/static/audio/clip_4_dig.m4a,null,,,,,,,100,,,,,,,,,,,,,,,,,
instruc_dig_try,10,93319,0.0-7.0-1.0,"""event"",""trial"",""time""
""blur"",""0"",""0""
""focus"",""0"",""0""
""fullscreenenter"",""1"",""5139""
""blur"",""3"",""18471""
""focus"",""3"",""23967""
","""event"",""trial"",""time""
""blur"",""0"",""0""
""blur"",""3"",""18471""
","""event"",""trial"",""time""
""focus"",""0"",""0""
""focus"",""3"",""23967""
","""event"",""trial"",""time""
""fullscreenenter"",""1"",""5139""
","
",,1037.4,"<p> When you’ve arrived at a new planet, you will dig once. </p> <p>Then, you get to decide if you want to stay on the planet and dig again or travel to a new planet and dig there.</p> <p> To stay and dig, press the letter <strong>‘A’</strong> on your keyboard. Try pressing it now! </p><p><img src='run_exp/static/images/task_images/land.jpg'  height='700' width='auto'></p>",65,"<p> When you’ve arrived at a new planet, you will dig once. </p> <p>Then, you get to decide if you want to stay on the planet and dig again or travel to a new planet and dig there.</p> <p> To stay and dig, press the letter <strong>‘A’</strong> on your keyboard. Try pressing it now! </p><p><img src='run_exp/static/images/task_images/land.jpg'  height='700' width='auto'></p>",,,,,,100,,,,,,,,,,,,,,,,,
dig_prac,11,95343,0.0-7.0-2.0,"""event"",""trial"",""time""
""blur"",""0"",""0""
""focus"",""0"",""0""
""fullscreenenter"",""1"",""5139""
""blur"",""3"",""18471""
""focus"",""3"",""23967""
","""event"",""trial"",""time""
""blur"",""0"",""0""
""blur"",""3"",""18471""
","""event"",""trial"",""time""
""focus"",""0"",""0""
""focus"",""3"",""23967""
","""event"",""trial"",""time""
""fullscreenenter"",""1"",""5139""
","
",,,,,,,,,,,,"[{""stimulus"":""run_exp/static/images/task_images/dig.jpg"",""time"":0.20000000018626451},{""stimulus"":""run_exp/static/images/task_images/land.jpg"",""time"":669.7999999998137},{""stimulus"":""run_exp/static/images/task_images/dig.jpg"",""time"":1349.7999999998137}]",[],,,,,,,,,,,,,,,
instruc_travel,12,131592,0.0-7.0-3.0,"""event"",""trial"",""time""
""blur"",""0"",""0""
""focus"",""0"",""0""
""fullscreenenter"",""1"",""5139""
""blur"",""3"",""18471""
""focus"",""3"",""23967""
","""event"",""trial"",""time""
""blur"",""0"",""0""
""blur"",""3"",""18471""
","""event"",""trial"",""time""
""focus"",""0"",""0""
""focus"",""3"",""23967""
","""event"",""trial"",""time""
""fullscreenenter"",""1"",""5139""
","
",,null,run_exp/static/audio/clip_5_travel.m4a,null,"<p>Every time you dig up gems, there are less gems on the planet, so the more you dig on a planet the fewer gems you’ll get with each dig.</p><p>When gems are running low, you may want to travel to a new planet. </p> <p>  Planets are very far apart in this galaxy, so it will take some time to travel between them. </p> <br><p>There are lots and lots of planets for you to visit, so you won’t be able to return to any planets you’ve seen before. </p><br><p>To leave this planet and travel to a new one, press the letter <strong>‘L’</strong> on your keyboard. Try pressing it now! </p><p><img src='run_exp/static/images/task_images/rocket-01.jpg'  height='600' width='auto'></p>",,,,,,,,,,,,,,,,,,,,,,,
instruc_travel_try,13,132082,0.0-7.0-4.0,"""event"",""trial"",""time""
""blur"",""0"",""0""
""focus"",""0"",""0""
""fullscreenenter"",""1"",""5139""
""blur"",""3"",""18471""
""focus"",""3"",""23967""
","""event"",""trial"",""time""
""blur"",""0"",""0""
""blur"",""3"",""18471""
","""event"",""trial"",""time""
""focus"",""0"",""0""
""focus"",""3"",""23967""
","""event"",""trial"",""time""
""fullscreenenter"",""1"",""5139""
","
",,486.8,"<p>Every time you dig up gems, there are less gems on the planet, so the more you dig on a planet the fewer gems you’ll get with each dig.</p><p>When gems are running low, you may want to travel to a new planet. </p> <p>  Planets are very far apart in this galaxy, so it will take some time to travel between them. </p> <br><p>There are lots and lots of planets for you to visit, so you won’t be able to return to any planets you’ve seen before. </p><br><p>To leave this planet and travel to a new one, press the letter <strong>‘L’</strong> on your keyboard. Try pressing it now! </p><p><img src='run_exp/static/images/task_images/rocket-01.jpg'  height='600' width='auto'></p>",76,"<p>Every time you dig up gems, there are less gems on the planet, so the more you dig on a planet the fewer gems you’ll get with each dig.</p><p>When gems are running low, you may want to travel to a new planet. </p> <p>  Planets are very far apart in this galaxy, so it will take some time to travel between them. </p> <br><p>There are lots and lots of planets for you to visit, so you won’t be able to return to any planets you’ve seen before. </p><br><p>To leave this planet and travel to a new one, press the letter <strong>‘L’</strong> on your keyboard. Try pressing it now! </p><p><img src='run_exp/static/images/task_images/rocket-01.jpg'  height='600' width='auto'></p>",,,,,,,,,,,,,,,,,,,,,,,
travel_prac,14,142090,0.0-7.0-5.0,"""event"",""trial"",""time""
""blur"",""0"",""0""
""focus"",""0"",""0""
""fullscreenenter"",""1"",""5139""
""blur"",""3"",""18471""
""focus"",""3"",""23967""
","""event"",""trial"",""time""
""blur"",""0"",""0""
""blur"",""3"",""18471""
","""event"",""trial"",""time""
""focus"",""0"",""0""
""focus"",""3"",""23967""
","""event"",""trial"",""time""
""fullscreenenter"",""1"",""5139""
","
",,,,,,,,,,,,"[{""stimulus"":""run_exp/static/images/task_images/rocket-01.jpg"",""time"":0.5},{""stimulus"":""run_exp/static/images/task_images/rocket-02.jpg"",""time"":1116},{""stimulus"":""run_exp/static/images/task_images/rocket-03.jpg"",""time"":2234.0999999996275},{""stimulus"":""run_exp/static/images/task_images/rocket-04.jpg"",""time"":3337.2000000001863},{""stimulus"":""run_exp/static/images/task_images/rocket-05.jpg"",""time"":4454.200000000186},{""stimulus"":""run_exp/static/images/task_images/rocket-06.jpg"",""time"":5556.799999999814},{""stimulus"":""run_exp/static/images/task_images/rocket-07.jpg"",""time"":6677.700000000186},{""stimulus"":""run_exp/static/images/task_images/rocket-08.jpg"",""time"":7794.5},{""stimulus"":""run_exp/static/images/task_images/rocket-09.jpg"",""time"":8904.599999999627}]",[],0,,,,,,,,,,,,,,
instruc_alien_greet,15,169282,0.0-7.0-6.0,"""event"",""trial"",""time""
""blur"",""0"",""0""
""focus"",""0"",""0""
""fullscreenenter"",""1"",""5139""
""blur"",""3"",""18471""
""focus"",""3"",""23967""
","""event"",""trial"",""time""
""blur"",""0"",""0""
""blur"",""3"",""18471""
","""event"",""trial"",""time""
""focus"",""0"",""0""
""focus"",""3"",""23967""
","""event"",""trial"",""time""
""fullscreenenter"",""1"",""5139""
","
",,null,run_exp/static/audio/clip_6_alien.m4a,null,"<p>When you arrive at a new planet, the alien who owns the treasure mine on that planet will greet you!</p><p>The better an alien takes care of their mine the easier it is to dig for gems. Some aliens take better care of their mine than others. So, you won’t get exactly the same amount of gems on each planet.</p><p>What the alien looks like does not tell you anything about how many gems there are on the planet.</p><br><p><img src=""run_exp/static/images/task_images/aliens/instructions_aliens/planet/alien_planet-1.jpg""  height=""600"" width=""auto""></p>",,,,,,,,,,,,,,,,,,,,,,,
instruc_alien_greet,16,173473,0.0-7.0-7.0,"""event"",""trial"",""time""
""blur"",""0"",""0""
""focus"",""0"",""0""
""fullscreenenter"",""1"",""5139""
""blur"",""3"",""18471""
""focus"",""3"",""23967""
","""event"",""trial"",""time""
""blur"",""0"",""0""
""blur"",""3"",""18471""
","""event"",""trial"",""time""
""focus"",""0"",""0""
""focus"",""3"",""23967""
","""event"",""trial"",""time""
""fullscreenenter"",""1"",""5139""
","
",,4185.1,"<p>When you arrive at a new planet, the alien who owns the treasure mine on that planet will greet you!</p><p>The better an alien takes care of their mine the easier it is to dig for gems. Some aliens take better care of their mine than others. So, you won’t get exactly the same amount of gems on each planet.</p><p>What the alien looks like does not tell you anything about how many gems there are on the planet.</p><br><p><img src=""run_exp/static/images/task_images/aliens/instructions_aliens/planet/alien_planet-1.jpg""  height=""600"" width=""auto""></p>",,,,,,,1,,,,,,,,,,,,,,,,,,
html-keyboard-response,17,175009,0.0-7.0-8.0,"""event"",""trial"",""time""
""blur"",""0"",""0""
""focus"",""0"",""0""
""fullscreenenter"",""1"",""5139""
""blur"",""3"",""18471""
""focus"",""3"",""23967""
","""event"",""trial"",""time""
""blur"",""0"",""0""
""blur"",""3"",""18471""
","""event"",""trial"",""time""
""focus"",""0"",""0""
""focus"",""3"",""23967""
","""event"",""trial"",""time""
""fullscreenenter"",""1"",""5139""
","
",,1534.9,"<p>When you arrive at a new planet, the alien who owns the treasure mine on that planet will greet you!</p><p>The better an alien takes care of their mine the easier it is to dig for gems. Some aliens take better care of their mine than others. So, you won’t get exactly the same amount of gems on each planet.</p><p>What the alien looks like does not tell you anything about how many gems there are on the planet.</p><br><p><img src=""run_exp/static/images/task_images/aliens/instructions_aliens/planet/alien_planet-1.jpg""  height=""600"" width=""auto""></p><button class=""jspsych-html-btn-unchosen""><img src=""run_exp/static/images/task_images/planet-01.jpg"" height=""50""></button><button class=""jspsych-html-btn-chosen""><img src=""run_exp/static/images/task_images/planet-02.jpg"" height=""50""></button><p><b>[press the space bar to lock in your answer]<b><br></p>",32,,,,,,,,,,,,,,,,,,,,,,,,
time_out,18,186102,0.0-8.0-0.0,"""event"",""trial"",""time""
""blur"",""0"",""0""
""focus"",""0"",""0""
""fullscreenenter"",""1"",""5139""
""blur"",""3"",""18471""
""focus"",""3"",""23967""
","""event"",""trial"",""time""
""blur"",""0"",""0""
""blur"",""3"",""18471""
","""event"",""trial"",""time""
""focus"",""0"",""0""
""focus"",""3"",""23967""
","""event"",""trial"",""time""
""fullscreenenter"",""1"",""5139""
","
",,null,run_exp/static/audio/clip_7_timeout.m4a,null,"<p>If you don't make your choice fast enough, you’ll have to wait a few seconds before you can make another one.</p><p>You can’t dig for more gems or travel to new planets. You just have to sit and wait.</p><br><p><img src='run_exp/static/images/task_images/time_out.jpg'  height='600' width='auto'></p>",,,,,,,,,,,,,,,,,,,,,,,
time_out,19,188381,0.0-8.0-1.0,"""event"",""trial"",""time""
""blur"",""0"",""0""
""focus"",""0"",""0""
""fullscreenenter"",""1"",""5139""
""blur"",""3"",""18471""
""focus"",""3"",""23967""
","""event"",""trial"",""time""
""blur"",""0"",""0""
""blur"",""3"",""18471""
","""event"",""trial"",""time""
""focus"",""0"",""0""
""focus"",""3"",""23967""
","""event"",""trial"",""time""
""fullscreenenter"",""1"",""5139""
","
",,2277.3,"<p>If you don't make your choice fast enough, you’ll have to wait a few seconds before you can make another one.</p><p>You can’t dig for more gems or travel to new planets. You just have to sit and wait.</p><br><p><img src='run_exp/static/images/task_images/time_out.jpg'  height='600' width='auto'></p>",,,,,,,1,,,,,,,,,,,,,,,,,,
html-keyboard-response,20,192113,0.0-8.0-2.0,"""event"",""trial"",""time""
""blur"",""0"",""0""
""focus"",""0"",""0""
""fullscreenenter"",""1"",""5139""
""blur"",""3"",""18471""
""focus"",""3"",""23967""
","""event"",""trial"",""time""
""blur"",""0"",""0""
""blur"",""3"",""18471""
","""event"",""trial"",""time""
""focus"",""0"",""0""
""focus"",""3"",""23967""
","""event"",""trial"",""time""
""fullscreenenter"",""1"",""5139""
","
",,3729.3,"<p>If you don't make your choice fast enough, you’ll have to wait a few seconds before you can make another one.</p><p>You can’t dig for more gems or travel to new planets. You just have to sit and wait.</p><br><p><img src='run_exp/static/images/task_images/time_out.jpg'  height='600' width='auto'></p><button class=""jspsych-html-btn-unchosen""><img src=""run_exp/static/images/task_images/planet-01.jpg"" height=""50""></button><button class=""jspsych-html-btn-chosen""><img src=""run_exp/static/images/task_images/planet-02.jpg"" height=""50""></button><p><b>[press the space bar to lock in your answer]<b><br></p>",32,,,,,,,,,,,,,,,,,,,,,,,,
instruc_break,21,207784,0.0-9.0-0.0,"""event"",""trial"",""time""
""blur"",""0"",""0""
""focus"",""0"",""0""
""fullscreenenter"",""1"",""5139""
""blur"",""3"",""18471""
""focus"",""3"",""23967""
","""event"",""trial"",""time""
""blur"",""0"",""0""
""blur"",""3"",""18471""
","""event"",""trial"",""time""
""focus"",""0"",""0""
""focus"",""3"",""23967""
","""event"",""trial"",""time""
""fullscreenenter"",""1"",""5139""
","
",,null,run_exp/static/audio/clip_8_break.m4a,null,"<p> After digging and traveling for a while, you’ll be able to take a break at home base. </p><p>The game will last 20 minutes no matter what.</p><p>You will visit home base every 5 minutes, so, you will visit home base three times during the game.</p><br><p><img src='run_exp/static/images/task_images/home_base.jpg' height='600' width='auto'></p>",,,,,,,,,,,,,,,,,,,,,,,
instruc_break,22,234939,0.0-9.0-1.0,"""event"",""trial"",""time""
""blur"",""0"",""0""
""focus"",""0"",""0""
""fullscreenenter"",""1"",""5139""
""blur"",""3"",""18471""
""focus"",""3"",""23967""
","""event"",""trial"",""time""
""blur"",""0"",""0""
""blur"",""3"",""18471""
","""event"",""trial"",""time""
""focus"",""0"",""0""
""focus"",""3"",""23967""
","""event"",""trial"",""time""
""fullscreenenter"",""1"",""5139""
","
",,27146.5,"<p> After digging and traveling for a while, you’ll be able to take a break at home base. </p><p>The game will last 20 minutes no matter what.</p><p>You will visit home base every 5 minutes, so, you will visit home base three times during the game.</p><br><p><img src='run_exp/static/images/task_images/home_base.jpg' height='600' width='auto'></p>",,,,,,,1,,,,,,,,,,,,,,,,,,
html-keyboard-response,23,238555,0.0-9.0-2.0,"""event"",""trial"",""time""
""blur"",""0"",""0""
""focus"",""0"",""0""
""fullscreenenter"",""1"",""5139""
""blur"",""3"",""18471""
""focus"",""3"",""23967""
","""event"",""trial"",""time""
""blur"",""0"",""0""
""blur"",""3"",""18471""
","""event"",""trial"",""time""
""focus"",""0"",""0""
""focus"",""3"",""23967""
","""event"",""trial"",""time""
""fullscreenenter"",""1"",""5139""
","
",,3614,"<p> After digging and traveling for a while, you’ll be able to take a break at home base. </p><p>The game will last 20 minutes no matter what.</p><p>You will visit home base every 5 minutes, so, you will visit home base three times during the game.</p><br><p><img src='run_exp/static/images/task_images/home_base.jpg' height='600' width='auto'></p><button class=""jspsych-html-btn-unchosen""><img src=""run_exp/static/images/task_images/planet-01.jpg"" height=""50""></button><button class=""jspsych-html-btn-chosen""><img src=""run_exp/static/images/task_images/planet-02.jpg"" height=""50""></button><p><b>[press the space bar to lock in your answer]<b><br></p>",32,,,,,,,,,,,,,,,,,,,,,,,,
instruc_prac_game,24,248871,0.0-10.0-0.0,"""event"",""trial"",""time""
""blur"",""0"",""0""
""focus"",""0"",""0""
""fullscreenenter"",""1"",""5139""
""blur"",""3"",""18471""
""focus"",""3"",""23967""
","""event"",""trial"",""time""
""blur"",""0"",""0""
""blur"",""3"",""18471""
","""event"",""trial"",""time""
""focus"",""0"",""0""
""focus"",""3"",""23967""
","""event"",""trial"",""time""
""fullscreenenter"",""1"",""5139""
","
",,null,run_exp/static/audio/clip_9_practice.m4a,null,"<p> Are you ready to play a practice game? </p> <p>In this practice game, you'll be digging up barrels of gems. But, in the real game, you'll be digging up the gems themselves. </p>",,,,,,,,,,,,,,,,,,,,,,,
html-button-response,25,261459,0.0-10.0-1.0,"""event"",""trial"",""time""
""blur"",""0"",""0""
""focus"",""0"",""0""
""fullscreenenter"",""1"",""5139""
""blur"",""3"",""18471""
""focus"",""3"",""23967""
","""event"",""trial"",""time""
""blur"",""0"",""0""
""blur"",""3"",""18471""
","""event"",""trial"",""time""
""focus"",""0"",""0""
""focus"",""3"",""23967""
","""event"",""trial"",""time""
""fullscreenenter"",""1"",""5139""
","
",,12586.2,"<p> Are you ready to play a practice game? </p> <p>In this practice game, you'll be digging up barrels of gems. But, in the real game, you'll be digging up the gems themselves. </p>",,,,,,,0,,,,,,,,,,,,,,,,,,
alien_welcome_prac,26,266463,0.0-11.0-0.0,"""event"",""trial"",""time""
""blur"",""0"",""0""
""focus"",""0"",""0""
""fullscreenenter"",""1"",""5139""
""blur"",""3"",""18471""
""focus"",""3"",""23967""
","""event"",""trial"",""time""
""blur"",""0"",""0""
""blur"",""3"",""18471""
","""event"",""trial"",""time""
""focus"",""0"",""0""
""focus"",""3"",""23967""
","""event"",""trial"",""time""
""fullscreenenter"",""1"",""5139""
","
",,null,run_exp/static/images/task_images/aliens/practice_aliens/planet/alien_planet-5.jpg,null,,,,,,,,,,,,,,,,,,,,,,,,
land_prac,27,266976,0.0-11.0-1.0,"""event"",""trial"",""time""
""blur"",""0"",""0""
""focus"",""0"",""0""
""fullscreenenter"",""1"",""5139""
""blur"",""3"",""18471""
""focus"",""3"",""23967""
","""event"",""trial"",""time""
""blur"",""0"",""0""
""blur"",""3"",""18471""
","""event"",""trial"",""time""
""focus"",""0"",""0""
""focus"",""3"",""23967""
","""event"",""trial"",""time""
""fullscreenenter"",""1"",""5139""
","
",,null,run_exp/static/images/task_images/land.jpg,null,,,,,,,96,,,0,,,,,,,,,,,,,,
dig_prac,28,268983,0.0-11.0-2.0,"""event"",""trial"",""time""
""blur"",""0"",""0""
""focus"",""0"",""0""
""fullscreenenter"",""1"",""5139""
""blur"",""3"",""18471""
""focus"",""3"",""23967""
","""event"",""trial"",""time""
""blur"",""0"",""0""
""blur"",""3"",""18471""
","""event"",""trial"",""time""
""focus"",""0"",""0""
""focus"",""3"",""23967""
","""event"",""trial"",""time""
""fullscreenenter"",""1"",""5139""
","
",,,,,,,,,,,,"[{""stimulus"":""run_exp/static/images/task_images/dig.jpg"",""time"":0.20000000018626451},{""stimulus"":""run_exp/static/images/task_images/land.jpg"",""time"":675.7000000001863},{""stimulus"":""run_exp/static/images/task_images/dig.jpg"",""time"":1343.2000000001863}]",[],,,,,,,,,,,,,,,
harvest_prac,29,269984,0.0-11.0-3.0,"""event"",""trial"",""time""
""blur"",""0"",""0""
""focus"",""0"",""0""
""fullscreenenter"",""1"",""5139""
""blur"",""3"",""18471""
""focus"",""3"",""23967""
","""event"",""trial"",""time""
""blur"",""0"",""0""
""blur"",""3"",""18471""
","""event"",""trial"",""time""
""focus"",""0"",""0""
""focus"",""3"",""23967""
","""event"",""trial"",""time""
""fullscreenenter"",""1"",""5139""
","
",,null,run_exp/static/images/task_images/barrel_text.jpg,null,,,,,,,,,,,,,,,,,,,,,,,,
decision_prac,30,272263,0.0-11.0-4.0,"""event"",""trial"",""time""
""blur"",""0"",""0""
""focus"",""0"",""0""
""fullscreenenter"",""1"",""5139""
""blur"",""3"",""18471""
""focus"",""3"",""23967""
","""event"",""trial"",""time""
""blur"",""0"",""0""
""blur"",""3"",""18471""
","""event"",""trial"",""time""
""focus"",""0"",""0""
""focus"",""3"",""23967""
","""event"",""trial"",""time""
""fullscreenenter"",""1"",""5139""
","
",,2277.4,run_exp/static/images/task_images/land.jpg,65,,,,,,,,,,,1,,,,,,,,,,,,,
dig_prac,31,274280,0.0-12.0-0.0,"""event"",""trial"",""time""
""blur"",""0"",""0""
""focus"",""0"",""0""
""fullscreenenter"",""1"",""5139""
""blur"",""3"",""18471""
""focus"",""3"",""23967""
","""event"",""trial"",""time""
""blur"",""0"",""0""
""blur"",""3"",""18471""
","""event"",""trial"",""time""
""focus"",""0"",""0""
""focus"",""3"",""23967""
","""event"",""trial"",""time""
""fullscreenenter"",""1"",""5139""
","
",,,,,,,,,,,,"[{""stimulus"":""run_exp/static/images/task_images/dig.jpg"",""time"":0.20000000018626451},{""stimulus"":""run_exp/static/images/task_images/land.jpg"",""time"":674.9000000003725},{""stimulus"":""run_exp/static/images/task_images/dig.jpg"",""time"":1349.7000000001863}]",[],,,,,,,,,,,,,,,
harvest_prac,32,275300,0.0-12.0-1.0,"""event"",""trial"",""time""
""blur"",""0"",""0""
""focus"",""0"",""0""
""fullscreenenter"",""1"",""5139""
""blur"",""3"",""18471""
""focus"",""3"",""23967""
","""event"",""trial"",""time""
""blur"",""0"",""0""
""blur"",""3"",""18471""
","""event"",""trial"",""time""
""focus"",""0"",""0""
""focus"",""3"",""23967""
","""event"",""trial"",""time""
""fullscreenenter"",""1"",""5139""
","
",,null,run_exp/static/images/task_images/barrel_text.jpg,null,,,,,,,,,,,,,,,,,,,,,,,,
decision_prac,33,275637,0.0-12.0-2.0,"""event"",""trial"",""time""
""blur"",""0"",""0""
""focus"",""0"",""0""
""fullscreenenter"",""1"",""5139""
""blur"",""3"",""18471""
""focus"",""3"",""23967""
","""event"",""trial"",""time""
""blur"",""0"",""0""
""blur"",""3"",""18471""
","""event"",""trial"",""time""
""focus"",""0"",""0""
""focus"",""3"",""23967""
","""event"",""trial"",""time""
""fullscreenenter"",""1"",""5139""
","
",,335.8,run_exp/static/images/task_images/land.jpg,65,,,,,,,,,,,2,,,,,,,,,,,,,
dig_prac,34,277645,0.0-13.0-0.0,"""event"",""trial"",""time""
""blur"",""0"",""0""
""focus"",""0"",""0""
""fullscreenenter"",""1"",""5139""
""blur"",""3"",""18471""
""focus"",""3"",""23967""
","""event"",""trial"",""time""
""blur"",""0"",""0""
""blur"",""3"",""18471""
","""event"",""trial"",""time""
""focus"",""0"",""0""
""focus"",""3"",""23967""
","""event"",""trial"",""time""
""fullscreenenter"",""1"",""5139""
","
",,,,,,,,,,,,"[{""stimulus"":""run_exp/static/images/task_images/dig.jpg"",""time"":0.20000000018626451},{""stimulus"":""run_exp/static/images/task_images/land.jpg"",""time"":681.2999999998137},{""stimulus"":""run_exp/static/images/task_images/dig.jpg"",""time"":1341.2000000001863}]",[],,,,,,,,,,,,,,,
harvest_prac,35,278650,0.0-13.0-1.0,"""event"",""trial"",""time""
""blur"",""0"",""0""
""focus"",""0"",""0""
""fullscreenenter"",""1"",""5139""
""blur"",""3"",""18471""
""focus"",""3"",""23967""
","""event"",""trial"",""time""
""blur"",""0"",""0""
""blur"",""3"",""18471""
","""event"",""trial"",""time""
""focus"",""0"",""0""
""focus"",""3"",""23967""
","""event"",""trial"",""time""
""fullscreenenter"",""1"",""5139""
","
",,null,run_exp/static/images/task_images/barrel_text.jpg,null,,,,,,,,,,,,,,,,,,,,,,,,
decision_prac,36,278676,0.0-13.0-2.0,"""event"",""trial"",""time""
""blur"",""0"",""0""
""focus"",""0"",""0""
""fullscreenenter"",""1"",""5139""
""blur"",""3"",""18471""
""focus"",""3"",""23967""
","""event"",""trial"",""time""
""blur"",""0"",""0""
""blur"",""3"",""18471""
","""event"",""trial"",""time""
""focus"",""0"",""0""
""focus"",""3"",""23967""
","""event"",""trial"",""time""
""fullscreenenter"",""1"",""5139""
","
",,24.8,run_exp/static/images/task_images/land.jpg,65,,,,,,,,,,,3,,,,,,,,,,,,,
dig_prac,37,280685,0.0-14.0-0.0,"""event"",""trial"",""time""
""blur"",""0"",""0""
""focus"",""0"",""0""
""fullscreenenter"",""1"",""5139""
""blur"",""3"",""18471""
""focus"",""3"",""23967""
","""event"",""trial"",""time""
""blur"",""0"",""0""
""blur"",""3"",""18471""
","""event"",""trial"",""time""
""focus"",""0"",""0""
""focus"",""3"",""23967""
","""event"",""trial"",""time""
""fullscreenenter"",""1"",""5139""
","
",,,,,,,,,,,,"[{""stimulus"":""run_exp/static/images/task_images/dig.jpg"",""time"":0.09999999962747097},{""stimulus"":""run_exp/static/images/task_images/land.jpg"",""time"":681.5999999996275},{""stimulus"":""run_exp/static/images/task_images/dig.jpg"",""time"":1341.5999999996275}]",[],,,,,,,,,,,,,,,
harvest_prac,38,281690,0.0-14.0-1.0,"""event"",""trial"",""time""
""blur"",""0"",""0""
""focus"",""0"",""0""
""fullscreenenter"",""1"",""5139""
""blur"",""3"",""18471""
""focus"",""3"",""23967""
","""event"",""trial"",""time""
""blur"",""0"",""0""
""blur"",""3"",""18471""
","""event"",""trial"",""time""
""focus"",""0"",""0""
""focus"",""3"",""23967""
","""event"",""trial"",""time""
""fullscreenenter"",""1"",""5139""
","
",,null,run_exp/static/images/task_images/barrel_text.jpg,null,,,,,,,,,,,,,,,,,,,,,,,,
decision_prac,39,282173,0.0-14.0-2.0,"""event"",""trial"",""time""
""blur"",""0"",""0""
""focus"",""0"",""0""
""fullscreenenter"",""1"",""5139""
""blur"",""3"",""18471""
""focus"",""3"",""23967""
","""event"",""trial"",""time""
""blur"",""0"",""0""
""blur"",""3"",""18471""
","""event"",""trial"",""time""
""focus"",""0"",""0""
""focus"",""3"",""23967""
","""event"",""trial"",""time""
""fullscreenenter"",""1"",""5139""
","
",,481.6,run_exp/static/images/task_images/land.jpg,65,,,,,,,,,,,4,,,,,,,,,,,,,
dig_prac,40,284181,0.0-15.0-0.0,"""event"",""trial"",""time""
""blur"",""0"",""0""
""focus"",""0"",""0""
""fullscreenenter"",""1"",""5139""
""blur"",""3"",""18471""
""focus"",""3"",""23967""
","""event"",""trial"",""time""
""blur"",""0"",""0""
""blur"",""3"",""18471""
","""event"",""trial"",""time""
""focus"",""0"",""0""
""focus"",""3"",""23967""
","""event"",""trial"",""time""
""fullscreenenter"",""1"",""5139""
","
",,,,,,,,,,,,"[{""stimulus"":""run_exp/static/images/task_images/dig.jpg"",""time"":0.20000000018626451},{""stimulus"":""run_exp/static/images/task_images/land.jpg"",""time"":683.2999999998137},{""stimulus"":""run_exp/static/images/task_images/dig.jpg"",""time"":1336.2000000001863}]",[],,,,,,,,,,,,,,,
harvest_prac,41,285190,0.0-15.0-1.0,"""event"",""trial"",""time""
""blur"",""0"",""0""
""focus"",""0"",""0""
""fullscreenenter"",""1"",""5139""
""blur"",""3"",""18471""
""focus"",""3"",""23967""
","""event"",""trial"",""time""
""blur"",""0"",""0""
""blur"",""3"",""18471""
","""event"",""trial"",""time""
""focus"",""0"",""0""
""focus"",""3"",""23967""
","""event"",""trial"",""time""
""fullscreenenter"",""1"",""5139""
","
",,null,run_exp/static/images/task_images/barrel_text.jpg,null,,,,,,,,,,,,,,,,,,,,,,,,
decision_prac,42,285780,0.0-15.0-2.0,"""event"",""trial"",""time""
""blur"",""0"",""0""
""focus"",""0"",""0""
""fullscreenenter"",""1"",""5139""
""blur"",""3"",""18471""
""focus"",""3"",""23967""
","""event"",""trial"",""time""
""blur"",""0"",""0""
""blur"",""3"",""18471""
","""event"",""trial"",""time""
""focus"",""0"",""0""
""focus"",""3"",""23967""
","""event"",""trial"",""time""
""fullscreenenter"",""1"",""5139""
","
",,587.4,run_exp/static/images/task_images/land.jpg,65,,,,,,,,,,,,1,,,,,,,,,,,,
quiz_instruc,43,288875,0.0-16.0-0.0,"""event"",""trial"",""time""
""blur"",""0"",""0""
""focus"",""0"",""0""
""fullscreenenter"",""1"",""5139""
""blur"",""3"",""18471""
""focus"",""3"",""23967""
","""event"",""trial"",""time""
""blur"",""0"",""0""
""blur"",""3"",""18471""
","""event"",""trial"",""time""
""focus"",""0"",""0""
""focus"",""3"",""23967""
","""event"",""trial"",""time""
""fullscreenenter"",""1"",""5139""
","
",,3092.2,run_exp/static/audio/clip_10_quiz.m4a,,,,,,,0,,,,,,,,,,,,,,,,,,
instruc_repeat,44,331630,0.0-16.0-1.0,"""event"",""trial"",""time""
""blur"",""0"",""0""
""focus"",""0"",""0""
""fullscreenenter"",""1"",""5139""
""blur"",""3"",""18471""
""focus"",""3"",""23967""
","""event"",""trial"",""time""
""blur"",""0"",""0""
""blur"",""3"",""18471""
","""event"",""trial"",""time""
""focus"",""0"",""0""
""focus"",""3"",""23967""
","""event"",""trial"",""time""
""fullscreenenter"",""1"",""5139""
","
",,null,"<p> Are you ready to play a practice game? </p> <p>In this practice game, you'll be digging up barrels of gems. But, in the real game, you'll be digging up the gems themselves. </p>",null,"<p>In this game, your goal is to collect as many gems as you can. That’s how you will win bonus money. </p> <p>The entire game will last 20 minutes no matter how many gems you collect or how many planets you visit. </p><p>To stay on a planet and dig again, press the letter A on your keyboard. To leave for a new planet, press the letter L.</p><p>The more you dig on a planet, the fewer gems you’ll get with each dig which is why you might consider leaving for a new planet. </p><p>When you arrive at a new planet, you’ll be greeted by an alien. What the alien looks like does not tell you anything about how much treasure is on the planet. </p>",,,,,,,,,,,,,,,,,,,,,,,
instruc_repeat_continue,45,332420,0.0-16.0-2.0,"""event"",""trial"",""time""
""blur"",""0"",""0""
""focus"",""0"",""0""
""fullscreenenter"",""1"",""5139""
""blur"",""3"",""18471""
""focus"",""3"",""23967""
","""event"",""trial"",""time""
""blur"",""0"",""0""
""blur"",""3"",""18471""
","""event"",""trial"",""time""
""focus"",""0"",""0""
""focus"",""3"",""23967""
","""event"",""trial"",""time""
""fullscreenenter"",""1"",""5139""
","
",,786.5,"<p> Are you ready to play a practice game? </p> <p>In this practice game, you'll be digging up barrels of gems. But, in the real game, you'll be digging up the gems themselves. </p>",,,,,,,0,,,,,,,,,,,,,,,,,,
quiz_q_1_ask,46,335721,0.0-16.0-3.0,"""event"",""trial"",""time""
""blur"",""0"",""0""
""focus"",""0"",""0""
""fullscreenenter"",""1"",""5139""
""blur"",""3"",""18471""
""focus"",""3"",""23967""
","""event"",""trial"",""time""
""blur"",""0"",""0""
""blur"",""3"",""18471""
","""event"",""trial"",""time""
""focus"",""0"",""0""
""focus"",""3"",""23967""
","""event"",""trial"",""time""
""fullscreenenter"",""1"",""5139""
","
",,3298,run_exp/static/audio/clip_11_q1_ask.m4a,,,,,,,2,,,,,,,,,,,,,,,,,,
quiz_q_1_fb_correct,47,339572,0.0-17.0-0.0,"""event"",""trial"",""time""
""blur"",""0"",""0""
""focus"",""0"",""0""
""fullscreenenter"",""1"",""5139""
""blur"",""3"",""18471""
""focus"",""3"",""23967""
","""event"",""trial"",""time""
""blur"",""0"",""0""
""blur"",""3"",""18471""
","""event"",""trial"",""time""
""focus"",""0"",""0""
""focus"",""3"",""23967""
","""event"",""trial"",""time""
""fullscreenenter"",""1"",""5139""
","
",,null,run_exp/static/audio/clip_12_q1_correct.m4a,null,<p>That’s correct. You win extra money by collecting more gems.</p>,,,,,,,,,,,,,,,,,,,,,,,
quiz_q_2_ask,48,341526,0.0-17.0-1.0,"""event"",""trial"",""time""
""blur"",""0"",""0""
""focus"",""0"",""0""
""fullscreenenter"",""1"",""5139""
""blur"",""3"",""18471""
""focus"",""3"",""23967""
","""event"",""trial"",""time""
""blur"",""0"",""0""
""blur"",""3"",""18471""
","""event"",""trial"",""time""
""focus"",""0"",""0""
""focus"",""3"",""23967""
","""event"",""trial"",""time""
""fullscreenenter"",""1"",""5139""
","
",,1949.6,run_exp/static/audio/clip_14_q2_ask.m4a,,,,,,,1,,,,,,,,,,,,,,,,,,
quiz_q_2_fb_correct,49,345530,0.0-18.0-0.0,"""event"",""trial"",""time""
""blur"",""0"",""0""
""focus"",""0"",""0""
""fullscreenenter"",""1"",""5139""
""blur"",""3"",""18471""
""focus"",""3"",""23967""
","""event"",""trial"",""time""
""blur"",""0"",""0""
""blur"",""3"",""18471""
","""event"",""trial"",""time""
""focus"",""0"",""0""
""focus"",""3"",""23967""
","""event"",""trial"",""time""
""fullscreenenter"",""1"",""5139""
","
",,null,run_exp/static/audio/clip_15_q2_correct.m4a,null,<p>That’s correct. The experiment is 20 minutes no matter what.</p>,,,,,,,,,,,,,,,,,,,,,,,
quiz_q_3_ask,50,348010,0.0-18.0-1.0,"""event"",""trial"",""time""
""blur"",""0"",""0""
""focus"",""0"",""0""
""fullscreenenter"",""1"",""5139""
""blur"",""3"",""18471""
""focus"",""3"",""23967""
","""event"",""trial"",""time""
""blur"",""0"",""0""
""blur"",""3"",""18471""
","""event"",""trial"",""time""
""focus"",""0"",""0""
""focus"",""3"",""23967""
","""event"",""trial"",""time""
""fullscreenenter"",""1"",""5139""
","
",,2477.1,run_exp/static/audio/clip_17_q3_ask.m4a,,,,,,,1,,,,,,,,,,,,,,,,,,
quiz_q_3_fb_correct,51,352013,0.0-19.0-0.0,"""event"",""trial"",""time""
""blur"",""0"",""0""
""focus"",""0"",""0""
""fullscreenenter"",""1"",""5139""
""blur"",""3"",""18471""
""focus"",""3"",""23967""
","""event"",""trial"",""time""
""blur"",""0"",""0""
""blur"",""3"",""18471""
","""event"",""trial"",""time""
""focus"",""0"",""0""
""focus"",""3"",""23967""
","""event"",""trial"",""time""
""fullscreenenter"",""1"",""5139""
","
",,null,run_exp/static/audio/clip_18_q3_correct.m4a,null,<p> That’s correct. You press the letter L to travel to a new planet.</p>,,,,,,,,,,,,,,,,,,,,,,,
quiz_q_4_ask,52,354484,0.0-19.0-1.0,"""event"",""trial"",""time""
""blur"",""0"",""0""
""focus"",""0"",""0""
""fullscreenenter"",""1"",""5139""
""blur"",""3"",""18471""
""focus"",""3"",""23967""
","""event"",""trial"",""time""
""blur"",""0"",""0""
""blur"",""3"",""18471""
","""event"",""trial"",""time""
""focus"",""0"",""0""
""focus"",""3"",""23967""
","""event"",""trial"",""time""
""fullscreenenter"",""1"",""5139""
","
",,2467.4,run_exp/static/audio/clip_20_q4_ask.m4a,,,,,,,0,,,,,,,,,,,,,,,,,,
quiz_q_4_fb_correct,53,359810,0.0-20.0-0.0,"""event"",""trial"",""time""
""blur"",""0"",""0""
""focus"",""0"",""0""
""fullscreenenter"",""1"",""5139""
""blur"",""3"",""18471""
""focus"",""3"",""23967""
","""event"",""trial"",""time""
""blur"",""0"",""0""
""blur"",""3"",""18471""
","""event"",""trial"",""time""
""focus"",""0"",""0""
""focus"",""3"",""23967""
","""event"",""trial"",""time""
""fullscreenenter"",""1"",""5139""
","
",,null,run_exp/static/audio/clip_21_q4_correct.m4a,null,<p> That’s correct. The more you dig on a planet the fewer gems you’ll get with each dig. </p>,,,,,,,,,,,,,,,,,,,,,,,
quiz_q_5_ask,54,360960,0.0-20.0-1.0,"""event"",""trial"",""time""
""blur"",""0"",""0""
""focus"",""0"",""0""
""fullscreenenter"",""1"",""5139""
""blur"",""3"",""18471""
""focus"",""3"",""23967""
","""event"",""trial"",""time""
""blur"",""0"",""0""
""blur"",""3"",""18471""
","""event"",""trial"",""time""
""focus"",""0"",""0""
""focus"",""3"",""23967""
","""event"",""trial"",""time""
""fullscreenenter"",""1"",""5139""
","
",,1145.4,run_exp/static/audio/clip_23_q5_ask.m4a,,,,,,,0,,,,,,,,,,,,,,,,,,
quiz_q_5_fb_incorrect,55,366649,0.0-21.0-0.0,"""event"",""trial"",""time""
""blur"",""0"",""0""
""focus"",""0"",""0""
""fullscreenenter"",""1"",""5139""
""blur"",""3"",""18471""
""focus"",""3"",""23967""
","""event"",""trial"",""time""
""blur"",""0"",""0""
""blur"",""3"",""18471""
","""event"",""trial"",""time""
""focus"",""0"",""0""
""focus"",""3"",""23967""
","""event"",""trial"",""time""
""fullscreenenter"",""1"",""5139""
","
",,null,run_exp/static/audio/clip_25_q5_incorrect.m4a,null,<p>That’s incorrect. The alien tells you nothing about how much treasure is on the planet.</p>,,,,,,,,,,,,,,,,,,,,,,,
quiz_incorrect,56,372190,0.0-22.0-0.0,"""event"",""trial"",""time""
""blur"",""0"",""0""
""focus"",""0"",""0""
""fullscreenenter"",""1"",""5139""
""blur"",""3"",""18471""
""focus"",""3"",""23967""
","""event"",""trial"",""time""
""blur"",""0"",""0""
""blur"",""3"",""18471""
","""event"",""trial"",""time""
""focus"",""0"",""0""
""focus"",""3"",""23967""
","""event"",""trial"",""time""
""fullscreenenter"",""1"",""5139""
","
",,null,run_exp/static/audio/clip_27_incorrect_quiz.m4a,null,,,,,,,,,,,,,,,,,,,,,,,,
quiz_incorrect_continue,57,373466,0.0-22.0-1.0,"""event"",""trial"",""time""
""blur"",""0"",""0""
""focus"",""0"",""0""
""fullscreenenter"",""1"",""5139""
""blur"",""3"",""18471""
""focus"",""3"",""23967""
","""event"",""trial"",""time""
""blur"",""0"",""0""
""blur"",""3"",""18471""
","""event"",""trial"",""time""
""focus"",""0"",""0""
""focus"",""3"",""23967""
","""event"",""trial"",""time""
""fullscreenenter"",""1"",""5139""
","
",,1274.5,"<p>Oops, you missed some questions.</p><p>Now that you’ve heard the correct answers. Try the quiz again!</p>",,,,,,,0,,,,,,,,,,,,,,,,,,
quiz_q_1_ask,58,374849,0.0-22.0-2.0,"""event"",""trial"",""time""
""blur"",""0"",""0""
""focus"",""0"",""0""
""fullscreenenter"",""1"",""5139""
""blur"",""3"",""18471""
""focus"",""3"",""23967""
","""event"",""trial"",""time""
""blur"",""0"",""0""
""blur"",""3"",""18471""
","""event"",""trial"",""time""
""focus"",""0"",""0""
""focus"",""3"",""23967""
","""event"",""trial"",""time""
""fullscreenenter"",""1"",""5139""
","
",,1381,run_exp/static/audio/clip_11_q1_ask.m4a,,,,,,,2,,,,,,,,,,,,,,,,,,
quiz_q_1_fb_correct,59,378711,0.0-23.0-0.0,"""event"",""trial"",""time""
""blur"",""0"",""0""
""focus"",""0"",""0""
""fullscreenenter"",""1"",""5139""
""blur"",""3"",""18471""
""focus"",""3"",""23967""
","""event"",""trial"",""time""
""blur"",""0"",""0""
""blur"",""3"",""18471""
","""event"",""trial"",""time""
""focus"",""0"",""0""
""focus"",""3"",""23967""
","""event"",""trial"",""time""
""fullscreenenter"",""1"",""5139""
","
",,null,run_exp/static/audio/clip_12_q1_correct.m4a,null,<p>That’s correct. You win extra money by collecting more gems.</p>,,,,,,,,,,,,,,,,,,,,,,,
quiz_q_2_ask,60,380484,0.0-23.0-1.0,"""event"",""trial"",""time""
""blur"",""0"",""0""
""focus"",""0"",""0""
""fullscreenenter"",""1"",""5139""
""blur"",""3"",""18471""
""focus"",""3"",""23967""
","""event"",""trial"",""time""
""blur"",""0"",""0""
""blur"",""3"",""18471""
","""event"",""trial"",""time""
""focus"",""0"",""0""
""focus"",""3"",""23967""
","""event"",""trial"",""time""
""fullscreenenter"",""1"",""5139""
","
",,1769.1,run_exp/static/audio/clip_14_q2_ask.m4a,,,,,,,1,,,,,,,,,,,,,,,,,,
quiz_q_2_fb_correct,61,384472,0.0-24.0-0.0,"""event"",""trial"",""time""
""blur"",""0"",""0""
""focus"",""0"",""0""
""fullscreenenter"",""1"",""5139""
""blur"",""3"",""18471""
""focus"",""3"",""23967""
","""event"",""trial"",""time""
""blur"",""0"",""0""
""blur"",""3"",""18471""
","""event"",""trial"",""time""
""focus"",""0"",""0""
""focus"",""3"",""23967""
","""event"",""trial"",""time""
""fullscreenenter"",""1"",""5139""
","
",,null,run_exp/static/audio/clip_15_q2_correct.m4a,null,<p>That’s correct. The experiment is 20 minutes no matter what.</p>,,,,,,,,,,,,,,,,,,,,,,,
quiz_q_3_ask,62,385586,0.0-24.0-1.0,"""event"",""trial"",""time""
""blur"",""0"",""0""
""focus"",""0"",""0""
""fullscreenenter"",""1"",""5139""
""blur"",""3"",""18471""
""focus"",""3"",""23967""
","""event"",""trial"",""time""
""blur"",""0"",""0""
""blur"",""3"",""18471""
","""event"",""trial"",""time""
""focus"",""0"",""0""
""focus"",""3"",""23967""
","""event"",""trial"",""time""
""fullscreenenter"",""1"",""5139""
","
",,1110.9,run_exp/static/audio/clip_17_q3_ask.m4a,,,,,,,1,,,,,,,,,,,,,,,,,,
quiz_q_3_fb_correct,63,389591,0.0-25.0-0.0,"""event"",""trial"",""time""
""blur"",""0"",""0""
""focus"",""0"",""0""
""fullscreenenter"",""1"",""5139""
""blur"",""3"",""18471""
""focus"",""3"",""23967""
","""event"",""trial"",""time""
""blur"",""0"",""0""
""blur"",""3"",""18471""
","""event"",""trial"",""time""
""focus"",""0"",""0""
""focus"",""3"",""23967""
","""event"",""trial"",""time""
""fullscreenenter"",""1"",""5139""
","
",,null,run_exp/static/audio/clip_18_q3_correct.m4a,null,<p> That’s correct. You press the letter L to travel to a new planet.</p>,,,,,,,,,,,,,,,,,,,,,,,
quiz_q_4_ask,64,393008,0.0-25.0-1.0,"""event"",""trial"",""time""
""blur"",""0"",""0""
""focus"",""0"",""0""
""fullscreenenter"",""1"",""5139""
""blur"",""3"",""18471""
""focus"",""3"",""23967""
","""event"",""trial"",""time""
""blur"",""0"",""0""
""blur"",""3"",""18471""
","""event"",""trial"",""time""
""focus"",""0"",""0""
""focus"",""3"",""23967""
","""event"",""trial"",""time""
""fullscreenenter"",""1"",""5139""
","
",,3414.7,run_exp/static/audio/clip_20_q4_ask.m4a,,,,,,,0,,,,,,,,,,,,,,,,,,
quiz_q_4_fb_correct,65,398352,0.0-26.0-0.0,"""event"",""trial"",""time""
""blur"",""0"",""0""
""focus"",""0"",""0""
""fullscreenenter"",""1"",""5139""
""blur"",""3"",""18471""
""focus"",""3"",""23967""
","""event"",""trial"",""time""
""blur"",""0"",""0""
""blur"",""3"",""18471""
","""event"",""trial"",""time""
""focus"",""0"",""0""
""focus"",""3"",""23967""
","""event"",""trial"",""time""
""fullscreenenter"",""1"",""5139""
","
",,null,run_exp/static/audio/clip_21_q4_correct.m4a,null,<p> That’s correct. The more you dig on a planet the fewer gems you’ll get with each dig. </p>,,,,,,,,,,,,,,,,,,,,,,,
quiz_q_5_ask,66,400216,0.0-26.0-1.0,"""event"",""trial"",""time""
""blur"",""0"",""0""
""focus"",""0"",""0""
""fullscreenenter"",""1"",""5139""
""blur"",""3"",""18471""
""focus"",""3"",""23967""
","""event"",""trial"",""time""
""blur"",""0"",""0""
""blur"",""3"",""18471""
","""event"",""trial"",""time""
""focus"",""0"",""0""
""focus"",""3"",""23967""
","""event"",""trial"",""time""
""fullscreenenter"",""1"",""5139""
","
",,1859.6,run_exp/static/audio/clip_23_q5_ask.m4a,,,,,,,1,,,,,,,,,,,,,,,,,,
quiz_q_5_fb_correct,67,405230,0.0-27.0-0.0,"""event"",""trial"",""time""
""blur"",""0"",""0""
""focus"",""0"",""0""
""fullscreenenter"",""1"",""5139""
""blur"",""3"",""18471""
""focus"",""3"",""23967""
","""event"",""trial"",""time""
""blur"",""0"",""0""
""blur"",""3"",""18471""
","""event"",""trial"",""time""
""focus"",""0"",""0""
""focus"",""3"",""23967""
","""event"",""trial"",""time""
""fullscreenenter"",""1"",""5139""
","
",,null,run_exp/static/audio/clip_24_q5_correct.m4a,null,<p> That’s correct. The alien tells you nothing about how much treasure is on the planet.</p>,,,,,,,,,,,,,,,,,,,,,,,
quiz_correct,68,408671,0.0-28.0-0.0,"""event"",""trial"",""time""
""blur"",""0"",""0""
""focus"",""0"",""0""
""fullscreenenter"",""1"",""5139""
""blur"",""3"",""18471""
""focus"",""3"",""23967""
","""event"",""trial"",""time""
""blur"",""0"",""0""
""blur"",""3"",""18471""
","""event"",""trial"",""time""
""focus"",""0"",""0""
""focus"",""3"",""23967""
","""event"",""trial"",""time""
""fullscreenenter"",""1"",""5139""
","
",,null,run_exp/static/audio/clip_26_correct_quiz.m4a,null,,,,,,,,,,,,,,,,,,,,,,,,
quiz_correct_continue,69,411594,0.0-28.0-1.0,"""event"",""trial"",""time""
""blur"",""0"",""0""
""focus"",""0"",""0""
""fullscreenenter"",""1"",""5139""
""blur"",""3"",""18471""
""focus"",""3"",""23967""
","""event"",""trial"",""time""
""blur"",""0"",""0""
""blur"",""3"",""18471""
","""event"",""trial"",""time""
""focus"",""0"",""0""
""focus"",""3"",""23967""
","""event"",""trial"",""time""
""fullscreenenter"",""1"",""5139""
","
",,2920.4,<p>Good job! You're now ready to move on to the real game!</p>,,,,,,,0,,,,,,,,,,,,,,,,,,
audio-keyboard-response,70,421733,0.0-28.0-2.0,"""event"",""trial"",""time""
""blur"",""0"",""0""
""focus"",""0"",""0""
""fullscreenenter"",""1"",""5139""
""blur"",""3"",""18471""
""focus"",""3"",""23967""
","""event"",""trial"",""time""
""blur"",""0"",""0""
""blur"",""3"",""18471""
","""event"",""trial"",""time""
""focus"",""0"",""0""
""focus"",""3"",""23967""
","""event"",""trial"",""time""
""fullscreenenter"",""1"",""5139""
","
",,null,run_exp/static/audio/clip_28_real_game.m4a,null,,,,,,,,,,,,,,,,,,,,,,,,
instruc_begin_exp_contine,71,422686,0.0-28.0-3.0,"""event"",""trial"",""time""
""blur"",""0"",""0""
""focus"",""0"",""0""
""fullscreenenter"",""1"",""5139""
""blur"",""3"",""18471""
""focus"",""3"",""23967""
","""event"",""trial"",""time""
""blur"",""0"",""0""
""blur"",""3"",""18471""
","""event"",""trial"",""time""
""focus"",""0"",""0""
""focus"",""3"",""23967""
","""event"",""trial"",""time""
""fullscreenenter"",""1"",""5139""
","
",,951.6,"<p>Now that you know how  to dig for space treasure and travel to new planets,you can start exploring! </p><p>Do you want to go over the instructions again or get started with the real game?</p>",,,,,,,1,,,,,,1,,,,,,,,,,,,
alien_welcome,72,427701,0.0-29.0-0.0,"""event"",""trial"",""time""
""blur"",""0"",""0""
""focus"",""0"",""0""
""fullscreenenter"",""1"",""5139""
""blur"",""3"",""18471""
""focus"",""3"",""23967""
","""event"",""trial"",""time""
""blur"",""0"",""0""
""blur"",""3"",""18471""
","""event"",""trial"",""time""
""focus"",""0"",""0""
""focus"",""3"",""23967""
","""event"",""trial"",""time""
""fullscreenenter"",""1"",""5139""
","
",,null,run_exp/static/images/task_images/aliens/old_aliens/planet/alien_planet-27.jpg,null,,,,,,,,,,,,,27,"27,45,41,22,36,33,57,68,32,35,9,29,75,50,56,51,10,20,79,49,40,26,14,47,12,53,8,59,55,13,7,52,61,15",,,,,,,,,,
land,73,428222,0.0-29.0-1.0,"""event"",""trial"",""time""
""blur"",""0"",""0""
""focus"",""0"",""0""
""fullscreenenter"",""1"",""5139""
""blur"",""3"",""18471""
""focus"",""3"",""23967""
","""event"",""trial"",""time""
""blur"",""0"",""0""
""blur"",""3"",""18471""
","""event"",""trial"",""time""
""focus"",""0"",""0""
""focus"",""3"",""23967""
","""event"",""trial"",""time""
""fullscreenenter"",""1"",""5139""
","
",,null,run_exp/static/images/task_images/land.jpg,null,,,,,,,96,,,1,,,,,,,,,,,,,,
dig,74,430241,0.0-29.0-2.0,"""event"",""trial"",""time""
""blur"",""0"",""0""
""focus"",""0"",""0""
""fullscreenenter"",""1"",""5139""
""blur"",""3"",""18471""
""focus"",""3"",""23967""
","""event"",""trial"",""time""
""blur"",""0"",""0""
""blur"",""3"",""18471""
","""event"",""trial"",""time""
""focus"",""0"",""0""
""focus"",""3"",""23967""
","""event"",""trial"",""time""
""fullscreenenter"",""1"",""5139""
","
",,,,,,,,,,,,"[{""stimulus"":""run_exp/static/images/task_images/dig.jpg"",""time"":0.09999999962747097},{""stimulus"":""run_exp/static/images/task_images/land.jpg"",""time"":668.5999999996275},{""stimulus"":""run_exp/static/images/task_images/dig.jpg"",""time"":1346.3999999994412}]",[],1,,,,,,,,,,,,,,
harvest,75,431260,0.0-29.0-3.0,"""event"",""trial"",""time""
""blur"",""0"",""0""
""focus"",""0"",""0""
""fullscreenenter"",""1"",""5139""
""blur"",""3"",""18471""
""focus"",""3"",""23967""
","""event"",""trial"",""time""
""blur"",""0"",""0""
""blur"",""3"",""18471""
","""event"",""trial"",""time""
""focus"",""0"",""0""
""focus"",""3"",""23967""
","""event"",""trial"",""time""
""fullscreenenter"",""1"",""5139""
","
",,null,run_exp/static/images/task_images/gems/96.jpg,null,,,,,,,14,,,1,,,,,96,0.150611274,0.145833333,,,,,,,
decision,76,431556,0.0-29.0-4.0,"""event"",""trial"",""time""
""blur"",""0"",""0""
""focus"",""0"",""0""
""fullscreenenter"",""1"",""5139""
""blur"",""3"",""18471""
""focus"",""3"",""23967""
","""event"",""trial"",""time""
""blur"",""0"",""0""
""blur"",""3"",""18471""
","""event"",""trial"",""time""
""focus"",""0"",""0""
""focus"",""3"",""23967""
","""event"",""trial"",""time""
""fullscreenenter"",""1"",""5139""
","
",,292.6,run_exp/static/images/task_images/land.jpg,65,,,,,,,14,,,1,,,,,,,,8867,1,0,FALSE,,,
dig,77,434291,0.0-30.0-0.0,"""event"",""trial"",""time""
""blur"",""0"",""0""
""focus"",""0"",""0""
""fullscreenenter"",""1"",""5139""
""blur"",""3"",""18471""
""focus"",""3"",""23967""
","""event"",""trial"",""time""
""blur"",""0"",""0""
""blur"",""3"",""18471""
","""event"",""trial"",""time""
""focus"",""0"",""0""
""focus"",""3"",""23967""
","""event"",""trial"",""time""
""fullscreenenter"",""1"",""5139""
","
",,,,,,,,,,,,"[{""stimulus"":""run_exp/static/images/task_images/dig.jpg"",""time"":0.39999999944120646},{""stimulus"":""run_exp/static/images/task_images/land.jpg"",""time"":919.5999999996275},{""stimulus"":""run_exp/static/images/task_images/dig.jpg"",""time"":1821.3999999994412}]",[],1,,,,,,,,,,,,,,
harvest,78,435300,0.0-30.0-1.0,"""event"",""trial"",""time""
""blur"",""0"",""0""
""focus"",""0"",""0""
""fullscreenenter"",""1"",""5139""
""blur"",""3"",""18471""
""focus"",""3"",""23967""
","""event"",""trial"",""time""
""blur"",""0"",""0""
""blur"",""3"",""18471""
","""event"",""trial"",""time""
""focus"",""0"",""0""
""focus"",""3"",""23967""
","""event"",""trial"",""time""
""fullscreenenter"",""1"",""5139""
","
",,null,run_exp/static/images/task_images/gems/14.jpg,null,,,,,,,3,,,1,,,,,14,0.191141059,0.214285714,,,,,,,
decision,79,436332,0.0-30.0-2.0,"""event"",""trial"",""time""
""blur"",""0"",""0""
""focus"",""0"",""0""
""fullscreenenter"",""1"",""5139""
""blur"",""3"",""18471""
""focus"",""3"",""23967""
","""event"",""trial"",""time""
""blur"",""0"",""0""
""blur"",""3"",""18471""
","""event"",""trial"",""time""
""focus"",""0"",""0""
""focus"",""3"",""23967""
","""event"",""trial"",""time""
""fullscreenenter"",""1"",""5139""
","
",,1025.3,run_exp/static/images/task_images/land.jpg,65,,,,,,,3,,,1,,,,,,,,13642,1,1,FALSE,,,
dig,80,438333,0.0-31.0-0.0,"""event"",""trial"",""time""
""blur"",""0"",""0""
""focus"",""0"",""0""
""fullscreenenter"",""1"",""5139""
""blur"",""3"",""18471""
""focus"",""3"",""23967""
","""event"",""trial"",""time""
""blur"",""0"",""0""
""blur"",""3"",""18471""
","""event"",""trial"",""time""
""focus"",""0"",""0""
""focus"",""3"",""23967""
","""event"",""trial"",""time""
""fullscreenenter"",""1"",""5139""
","
",,,,,,,,,,,,"[{""stimulus"":""run_exp/static/images/task_images/dig.jpg"",""time"":0.5},{""stimulus"":""run_exp/static/images/task_images/land.jpg"",""time"":665.7999999998137},{""stimulus"":""run_exp/static/images/task_images/dig.jpg"",""time"":1325.5}]",[],1,,,,,,,,,,,,,,
harvest,81,439351,0.0-31.0-1.0,"""event"",""trial"",""time""
""blur"",""0"",""0""
""focus"",""0"",""0""
""fullscreenenter"",""1"",""5139""
""blur"",""3"",""18471""
""focus"",""3"",""23967""
","""event"",""trial"",""time""
""blur"",""0"",""0""
""blur"",""3"",""18471""
","""event"",""trial"",""time""
""focus"",""0"",""0""
""focus"",""3"",""23967""
","""event"",""trial"",""time""
""fullscreenenter"",""1"",""5139""
","
",,null,run_exp/static/images/task_images/gems/3.jpg,null,,,,,,,1,,,1,,,,,3,0.235666526,0.333333333,,,,,,,
decision,82,439653,0.0-31.0-2.0,"""event"",""trial"",""time""
""blur"",""0"",""0""
""focus"",""0"",""0""
""fullscreenenter"",""1"",""5139""
""blur"",""3"",""18471""
""focus"",""3"",""23967""
","""event"",""trial"",""time""
""blur"",""0"",""0""
""blur"",""3"",""18471""
","""event"",""trial"",""time""
""focus"",""0"",""0""
""focus"",""3"",""23967""
","""event"",""trial"",""time""
""fullscreenenter"",""1"",""5139""
","
",,297.4,run_exp/static/images/task_images/land.jpg,76,,,,,,,1,,,1,,,,,,,,16963,1,2,TRUE,,,
travel,83,449381,0.0-32.0-0.0,"""event"",""trial"",""time""
""blur"",""0"",""0""
""focus"",""0"",""0""
""fullscreenenter"",""1"",""5139""
""blur"",""3"",""18471""
""focus"",""3"",""23967""
","""event"",""trial"",""time""
""blur"",""0"",""0""
""blur"",""3"",""18471""
","""event"",""trial"",""time""
""focus"",""0"",""0""
""focus"",""3"",""23967""
","""event"",""trial"",""time""
""fullscreenenter"",""1"",""5139""
","
",,,,,,,,,,,,"[{""stimulus"":""run_exp/static/images/task_images/rocket-01.jpg"",""time"":0.39999999944120646},{""stimulus"":""run_exp/static/images/task_images/rocket-02.jpg"",""time"":1080.199999999255},{""stimulus"":""run_exp/static/images/task_images/rocket-03.jpg"",""time"":2159.5},{""stimulus"":""run_exp/static/images/task_images/rocket-04.jpg"",""time"":3238.699999999255},{""stimulus"":""run_exp/static/images/task_images/rocket-05.jpg"",""time"":4319.399999999441},{""stimulus"":""run_exp/static/images/task_images/rocket-06.jpg"",""time"":5392.5999999996275},{""stimulus"":""run_exp/static/images/task_images/rocket-07.jpg"",""time"":6479.399999999441},{""stimulus"":""run_exp/static/images/task_images/rocket-08.jpg"",""time"":7559.0999999996275},{""stimulus"":""run_exp/static/images/task_images/rocket-09.jpg"",""time"":8627.599999999627}]",[],1,,,,,,,,,,,,,,
alien_welcome,84,454400,0.0-32.0-1.0,"""event"",""trial"",""time""
""blur"",""0"",""0""
""focus"",""0"",""0""
""fullscreenenter"",""1"",""5139""
""blur"",""3"",""18471""
""focus"",""3"",""23967""
","""event"",""trial"",""time""
""blur"",""0"",""0""
""blur"",""3"",""18471""
","""event"",""trial"",""time""
""focus"",""0"",""0""
""focus"",""3"",""23967""
","""event"",""trial"",""time""
""fullscreenenter"",""1"",""5139""
","
",,null,run_exp/static/images/task_images/aliens/old_aliens/planet/alien_planet-45.jpg,null,,,,,,,,,,,,,45,"27,45,41,22,36,33,57,68,32,35,9,29,75,50,56,51,10,20,79,49,40,26,14,47,12,53,8,59,55,13,7,52,61,15",,,,,,,,,,
land,85,454911,0.0-32.0-2.0,"""event"",""trial"",""time""
""blur"",""0"",""0""
""focus"",""0"",""0""
""fullscreenenter"",""1"",""5139""
""blur"",""3"",""18471""
""focus"",""3"",""23967""
","""event"",""trial"",""time""
""blur"",""0"",""0""
""blur"",""3"",""18471""
","""event"",""trial"",""time""
""focus"",""0"",""0""
""focus"",""3"",""23967""
","""event"",""trial"",""time""
""fullscreenenter"",""1"",""5139""
","
",,null,run_exp/static/images/task_images/land.jpg,null,,,,,,,95,,,2,,,,,,,,,,,,,,
dig,86,456931,0.0-32.0-3.0,"""event"",""trial"",""time""
""blur"",""0"",""0""
""focus"",""0"",""0""
""fullscreenenter"",""1"",""5139""
""blur"",""3"",""18471""
""focus"",""3"",""23967""
","""event"",""trial"",""time""
""blur"",""0"",""0""
""blur"",""3"",""18471""
","""event"",""trial"",""time""
""focus"",""0"",""0""
""focus"",""3"",""23967""
","""event"",""trial"",""time""
""fullscreenenter"",""1"",""5139""
","
",,,,,,,,,,,,"[{""stimulus"":""run_exp/static/images/task_images/dig.jpg"",""time"":0.30000000074505806},{""stimulus"":""run_exp/static/images/task_images/land.jpg"",""time"":679.4000000003725},{""stimulus"":""run_exp/static/images/task_images/dig.jpg"",""time"":1348.9000000003725}]",[],2,,,,,,,,,,,,,,
harvest,87,457953,0.0-32.0-4.0,"""event"",""trial"",""time""
""blur"",""0"",""0""
""focus"",""0"",""0""
""fullscreenenter"",""1"",""5139""
""blur"",""3"",""18471""
""focus"",""3"",""23967""
","""event"",""trial"",""time""
""blur"",""0"",""0""
""blur"",""3"",""18471""
","""event"",""trial"",""time""
""focus"",""0"",""0""
""focus"",""3"",""23967""
","""event"",""trial"",""time""
""fullscreenenter"",""1"",""5139""
","
",,null,run_exp/static/images/task_images/gems/95.jpg,null,,,,,,,14,,,2,,,,,95,0.150903336,0.147368421,,,,,,,
decision,88,458454,0.0-32.0-5.0,"""event"",""trial"",""time""
""blur"",""0"",""0""
""focus"",""0"",""0""
""fullscreenenter"",""1"",""5139""
""blur"",""3"",""18471""
""focus"",""3"",""23967""
","""event"",""trial"",""time""
""blur"",""0"",""0""
""blur"",""3"",""18471""
","""event"",""trial"",""time""
""focus"",""0"",""0""
""focus"",""3"",""23967""
","""event"",""trial"",""time""
""fullscreenenter"",""1"",""5139""
","
",,496.6,run_exp/static/images/task_images/land.jpg,65,,,,,,,14,,,2,,,,,,,,35764,1,0,FALSE,,,
dig,89,460971,0.0-33.0-0.0,"""event"",""trial"",""time""
""blur"",""0"",""0""
""focus"",""0"",""0""
""fullscreenenter"",""1"",""5139""
""blur"",""3"",""18471""
""focus"",""3"",""23967""
","""event"",""trial"",""time""
""blur"",""0"",""0""
""blur"",""3"",""18471""
","""event"",""trial"",""time""
""focus"",""0"",""0""
""focus"",""3"",""23967""
","""event"",""trial"",""time""
""fullscreenenter"",""1"",""5139""
","
",,,,,,,,,,,,"[{""stimulus"":""run_exp/static/images/task_images/dig.jpg"",""time"":0.20000000018626451},{""stimulus"":""run_exp/static/images/task_images/land.jpg"",""time"":836.9000000003725},{""stimulus"":""run_exp/static/images/task_images/dig.jpg"",""time"":1687.9000000003725}]",[],2,,,,,,,,,,,,,,
harvest,90,461991,0.0-33.0-1.0,"""event"",""trial"",""time""
""blur"",""0"",""0""
""focus"",""0"",""0""
""fullscreenenter"",""1"",""5139""
""blur"",""3"",""18471""
""focus"",""3"",""23967""
","""event"",""trial"",""time""
""blur"",""0"",""0""
""blur"",""3"",""18471""
","""event"",""trial"",""time""
""focus"",""0"",""0""
""focus"",""3"",""23967""
","""event"",""trial"",""time""
""fullscreenenter"",""1"",""5139""
","
",,null,run_exp/static/images/task_images/gems/14.jpg,null,,,,,,,3,,,2,,,,,14,0.204909885,0.214285714,,,,,,,
decision,91,462034,0.0-33.0-2.0,"""event"",""trial"",""time""
""blur"",""0"",""0""
""focus"",""0"",""0""
""fullscreenenter"",""1"",""5139""
""blur"",""3"",""18471""
""focus"",""3"",""23967""
","""event"",""trial"",""time""
""blur"",""0"",""0""
""blur"",""3"",""18471""
","""event"",""trial"",""time""
""focus"",""0"",""0""
""focus"",""3"",""23967""
","""event"",""trial"",""time""
""fullscreenenter"",""1"",""5139""
","
",,38.9,run_exp/static/images/task_images/land.jpg,65,,,,,,,3,,,2,,,,,,,,39344,1,1,FALSE,,,
dig,92,465012,0.0-34.0-0.0,"""event"",""trial"",""time""
""blur"",""0"",""0""
""focus"",""0"",""0""
""fullscreenenter"",""1"",""5139""
""blur"",""3"",""18471""
""focus"",""3"",""23967""
","""event"",""trial"",""time""
""blur"",""0"",""0""
""blur"",""3"",""18471""
","""event"",""trial"",""time""
""focus"",""0"",""0""
""focus"",""3"",""23967""
","""event"",""trial"",""time""
""fullscreenenter"",""1"",""5139""
","
",,,,,,,,,,,,"[{""stimulus"":""run_exp/static/images/task_images/dig.jpg"",""time"":0.20000000018626451},{""stimulus"":""run_exp/static/images/task_images/land.jpg"",""time"":991},{""stimulus"":""run_exp/static/images/task_images/dig.jpg"",""time"":1991.2000000001863}]",[],2,,,,,,,,,,,,,,
harvest,93,466031,0.0-34.0-1.0,"""event"",""trial"",""time""
""blur"",""0"",""0""
""focus"",""0"",""0""
""fullscreenenter"",""1"",""5139""
""blur"",""3"",""18471""
""focus"",""3"",""23967""
","""event"",""trial"",""time""
""blur"",""0"",""0""
""blur"",""3"",""18471""
","""event"",""trial"",""time""
""focus"",""0"",""0""
""focus"",""3"",""23967""
","""event"",""trial"",""time""
""fullscreenenter"",""1"",""5139""
","
",,null,run_exp/static/images/task_images/gems/3.jpg,null,,,,,,,0,,,2,,,,,3,0.117292234,0,,,,,,,
decision,94,466358,0.0-34.0-2.0,"""event"",""trial"",""time""
""blur"",""0"",""0""
""focus"",""0"",""0""
""fullscreenenter"",""1"",""5139""
""blur"",""3"",""18471""
""focus"",""3"",""23967""
","""event"",""trial"",""time""
""blur"",""0"",""0""
""blur"",""3"",""18471""
","""event"",""trial"",""time""
""focus"",""0"",""0""
""focus"",""3"",""23967""
","""event"",""trial"",""time""
""fullscreenenter"",""1"",""5139""
","
",,323.5,run_exp/static/images/task_images/land.jpg,65,,,,,,,0,,,2,,,,,,,,43669,1,2,FALSE,,,
dig,95,469052,0.0-35.0-0.0,"""event"",""trial"",""time""
""blur"",""0"",""0""
""focus"",""0"",""0""
""fullscreenenter"",""1"",""5139""
""blur"",""3"",""18471""
""focus"",""3"",""23967""
","""event"",""trial"",""time""
""blur"",""0"",""0""
""blur"",""3"",""18471""
","""event"",""trial"",""time""
""focus"",""0"",""0""
""focus"",""3"",""23967""
","""event"",""trial"",""time""
""fullscreenenter"",""1"",""5139""
","
",,,,,,,,,,,,"[{""stimulus"":""run_exp/static/images/task_images/dig.jpg"",""time"":0.20000000018626451},{""stimulus"":""run_exp/static/images/task_images/land.jpg"",""time"":898.7000000001863},{""stimulus"":""run_exp/static/images/task_images/dig.jpg"",""time"":1800.2999999998137}]",[],2,,,,,,,,,,,,,,
harvest,96,470061,0.0-35.0-1.0,"""event"",""trial"",""time""
""blur"",""0"",""0""
""focus"",""0"",""0""
""fullscreenenter"",""1"",""5139""
""blur"",""3"",""18471""
""focus"",""3"",""23967""
","""event"",""trial"",""time""
""blur"",""0"",""0""
""blur"",""3"",""18471""
","""event"",""trial"",""time""
""focus"",""0"",""0""
""focus"",""3"",""23967""
","""event"",""trial"",""time""
""fullscreenenter"",""1"",""5139""
","
",,null,run_exp/static/images/task_images/gems/0.jpg,null,,,,,,,0,,,2,,,,,0,0.207176399,NaN,,,,,,,
decision,97,471278,0.0-35.0-2.0,"""event"",""trial"",""time""
""blur"",""0"",""0""
""focus"",""0"",""0""
""fullscreenenter"",""1"",""5139""
""blur"",""3"",""18471""
""focus"",""3"",""23967""
","""event"",""trial"",""time""
""blur"",""0"",""0""
""blur"",""3"",""18471""
","""event"",""trial"",""time""
""focus"",""0"",""0""
""focus"",""3"",""23967""
","""event"",""trial"",""time""
""fullscreenenter"",""1"",""5139""
","
",,1214.1,run_exp/static/images/task_images/land.jpg,65,,,,,,,0,,,2,,,,,,,,48588,1,3,FALSE,,,
dig,98,473082,0.0-36.0-0.0,"""event"",""trial"",""time""
""blur"",""0"",""0""
""focus"",""0"",""0""
""fullscreenenter"",""1"",""5139""
""blur"",""3"",""18471""
""focus"",""3"",""23967""
","""event"",""trial"",""time""
""blur"",""0"",""0""
""blur"",""3"",""18471""
","""event"",""trial"",""time""
""focus"",""0"",""0""
""focus"",""3"",""23967""
","""event"",""trial"",""time""
""fullscreenenter"",""1"",""5139""
","
",,,,,,,,,,,,"[{""stimulus"":""run_exp/static/images/task_images/dig.jpg"",""time"":0.20000000018626451},{""stimulus"":""run_exp/static/images/task_images/land.jpg"",""time"":599.2999999998137},{""stimulus"":""run_exp/static/images/task_images/dig.jpg"",""time"":1199.2999999998137}]",[],2,,,,,,,,,,,,,,
harvest,99,474101,0.0-36.0-1.0,"""event"",""trial"",""time""
""blur"",""0"",""0""
""focus"",""0"",""0""
""fullscreenenter"",""1"",""5139""
""blur"",""3"",""18471""
""focus"",""3"",""23967""
","""event"",""trial"",""time""
""blur"",""0"",""0""
""blur"",""3"",""18471""
","""event"",""trial"",""time""
""focus"",""0"",""0""
""focus"",""3"",""23967""
","""event"",""trial"",""time""
""fullscreenenter"",""1"",""5139""
","
",,null,run_exp/static/images/task_images/gems/0.jpg,null,,,,,,,0,,,2,,,,,0,0.207753709,NaN,,,,,,,
decision,100,474225,0.0-36.0-2.0,"""event"",""trial"",""time""
""blur"",""0"",""0""
""focus"",""0"",""0""
""fullscreenenter"",""1"",""5139""
""blur"",""3"",""18471""
""focus"",""3"",""23967""
","""event"",""trial"",""time""
""blur"",""0"",""0""
""blur"",""3"",""18471""
","""event"",""trial"",""time""
""focus"",""0"",""0""
""focus"",""3"",""23967""
","""event"",""trial"",""time""
""fullscreenenter"",""1"",""5139""
","
",,121.6,run_exp/static/images/task_images/land.jpg,76,,,,,,,0,,,2,,,,,,,,51535,1,4,TRUE,,,
travel,101,484121,0.0-37.0-0.0,"""event"",""trial"",""time""
""blur"",""0"",""0""
""focus"",""0"",""0""
""fullscreenenter"",""1"",""5139""
""blur"",""3"",""18471""
""focus"",""3"",""23967""
","""event"",""trial"",""time""
""blur"",""0"",""0""
""blur"",""3"",""18471""
","""event"",""trial"",""time""
""focus"",""0"",""0""
""focus"",""3"",""23967""
","""event"",""trial"",""time""
""fullscreenenter"",""1"",""5139""
","
",,,,,,,,,,,,"[{""stimulus"":""run_exp/static/images/task_images/rocket-01.jpg"",""time"":0.2999999998137355},{""stimulus"":""run_exp/static/images/task_images/rocket-02.jpg"",""time"":1102},{""stimulus"":""run_exp/static/images/task_images/rocket-03.jpg"",""time"":2202.2999999998137},{""stimulus"":""run_exp/static/images/task_images/rocket-04.jpg"",""time"":3306},{""stimulus"":""run_exp/static/images/task_images/rocket-05.jpg"",""time"":4391.299999999814},{""stimulus"":""run_exp/static/images/task_images/rocket-06.jpg"",""time"":5491.5},{""stimulus"":""run_exp/static/images/task_images/rocket-07.jpg"",""time"":6592.9000000003725},{""stimulus"":""run_exp/static/images/task_images/rocket-08.jpg"",""time"":7680.9000000003725},{""stimulus"":""run_exp/static/images/task_images/rocket-09.jpg"",""time"":8790.5}]",[],2,,,,,,,,,,,,,,
alien_welcome,102,489130,0.0-37.0-1.0,"""event"",""trial"",""time""
""blur"",""0"",""0""
""focus"",""0"",""0""
""fullscreenenter"",""1"",""5139""
""blur"",""3"",""18471""
""focus"",""3"",""23967""
","""event"",""trial"",""time""
""blur"",""0"",""0""
""blur"",""3"",""18471""
","""event"",""trial"",""time""
""focus"",""0"",""0""
""focus"",""3"",""23967""
","""event"",""trial"",""time""
""fullscreenenter"",""1"",""5139""
","
",,null,run_exp/static/images/task_images/aliens/old_aliens/planet/alien_planet-41.jpg,null,,,,,,,,,,,,,41,"27,45,41,22,36,33,57,68,32,35,9,29,75,50,56,51,10,20,79,49,40,26,14,47,12,53,8,59,55,13,7,52,61,15",,,,,,,,,,
land,103,489652,0.0-37.0-2.0,"""event"",""trial"",""time""
""blur"",""0"",""0""
""focus"",""0"",""0""
""fullscreenenter"",""1"",""5139""
""blur"",""3"",""18471""
""focus"",""3"",""23967""
","""event"",""trial"",""time""
""blur"",""0"",""0""
""blur"",""3"",""18471""
","""event"",""trial"",""time""
""focus"",""0"",""0""
""focus"",""3"",""23967""
","""event"",""trial"",""time""
""fullscreenenter"",""1"",""5139""
","
",,null,run_exp/static/images/task_images/land.jpg,null,,,,,,,101,,,3,,,,,,,,,,,,,,
dig,104,491667,0.0-37.0-3.0,"""event"",""trial"",""time""
""blur"",""0"",""0""
""focus"",""0"",""0""
""fullscreenenter"",""1"",""5139""
""blur"",""3"",""18471""
""focus"",""3"",""23967""
","""event"",""trial"",""time""
""blur"",""0"",""0""
""blur"",""3"",""18471""
","""event"",""trial"",""time""
""focus"",""0"",""0""
""focus"",""3"",""23967""
","""event"",""trial"",""time""
""fullscreenenter"",""1"",""5139""
","
",,,,,,,,,,,,"[{""stimulus"":""run_exp/static/images/task_images/dig.jpg"",""time"":0.19999999925494194},{""stimulus"":""run_exp/static/images/task_images/land.jpg"",""time"":676.7999999998137},{""stimulus"":""run_exp/static/images/task_images/dig.jpg"",""time"":1335.2999999998137}]",[],3,,,,,,,,,,,,,,
harvest,105,492684,0.0-37.0-4.0,"""event"",""trial"",""time""
""blur"",""0"",""0""
""focus"",""0"",""0""
""fullscreenenter"",""1"",""5139""
""blur"",""3"",""18471""
""focus"",""3"",""23967""
","""event"",""trial"",""time""
""blur"",""0"",""0""
""blur"",""3"",""18471""
","""event"",""trial"",""time""
""focus"",""0"",""0""
""focus"",""3"",""23967""
","""event"",""trial"",""time""
""fullscreenenter"",""1"",""5139""
","
",,null,run_exp/static/images/task_images/gems/101.jpg,null,,,,,,,59,,,3,,,,,101,0.586137463,0.584158416,,,,,,,
decision,106,493190,0.0-37.0-5.0,"""event"",""trial"",""time""
""blur"",""0"",""0""
""focus"",""0"",""0""
""fullscreenenter"",""1"",""5139""
""blur"",""3"",""18471""
""focus"",""3"",""23967""
","""event"",""trial"",""time""
""blur"",""0"",""0""
""blur"",""3"",""18471""
","""event"",""trial"",""time""
""focus"",""0"",""0""
""focus"",""3"",""23967""
","""event"",""trial"",""time""
""fullscreenenter"",""1"",""5139""
","
",,489.2,run_exp/static/images/task_images/land.jpg,65,,,,,,,59,,,3,,,,,,,,70500,1,0,FALSE,,,
dig,107,495708,0.0-38.0-0.0,"""event"",""trial"",""time""
""blur"",""0"",""0""
""focus"",""0"",""0""
""fullscreenenter"",""1"",""5139""
""blur"",""3"",""18471""
""focus"",""3"",""23967""
","""event"",""trial"",""time""
""blur"",""0"",""0""
""blur"",""3"",""18471""
","""event"",""trial"",""time""
""focus"",""0"",""0""
""focus"",""3"",""23967""
","""event"",""trial"",""time""
""fullscreenenter"",""1"",""5139""
","
",,,,,,,,,,,,"[{""stimulus"":""run_exp/static/images/task_images/dig.jpg"",""time"":0.09999999962747097},{""stimulus"":""run_exp/static/images/task_images/land.jpg"",""time"":847.6999999992549},{""stimulus"":""run_exp/static/images/task_images/dig.jpg"",""time"":1677.199999999255}]",[],3,,,,,,,,,,,,,,
harvest,108,496731,0.0-38.0-1.0,"""event"",""trial"",""time""
""blur"",""0"",""0""
""focus"",""0"",""0""
""fullscreenenter"",""1"",""5139""
""blur"",""3"",""18471""
""focus"",""3"",""23967""
","""event"",""trial"",""time""
""blur"",""0"",""0""
""blur"",""3"",""18471""
","""event"",""trial"",""time""
""focus"",""0"",""0""
""focus"",""3"",""23967""
","""event"",""trial"",""time""
""fullscreenenter"",""1"",""5139""
","
",,null,run_exp/static/images/task_images/gems/59.jpg,null,,,,,,,23,,,3,,,,,59,0.391672286,0.389830508,,,,,,,
decision,109,497637,0.0-38.0-2.0,"""event"",""trial"",""time""
""blur"",""0"",""0""
""focus"",""0"",""0""
""fullscreenenter"",""1"",""5139""
""blur"",""3"",""18471""
""focus"",""3"",""23967""
","""event"",""trial"",""time""
""blur"",""0"",""0""
""blur"",""3"",""18471""
","""event"",""trial"",""time""
""focus"",""0"",""0""
""focus"",""3"",""23967""
","""event"",""trial"",""time""
""fullscreenenter"",""1"",""5139""
","
",,903.2,run_exp/static/images/task_images/land.jpg,65,,,,,,,23,,,3,,,,,,,,74947,1,1,FALSE,,,
dig,110,499741,0.0-39.0-0.0,"""event"",""trial"",""time""
""blur"",""0"",""0""
""focus"",""0"",""0""
""fullscreenenter"",""1"",""5139""
""blur"",""3"",""18471""
""focus"",""3"",""23967""
","""event"",""trial"",""time""
""blur"",""0"",""0""
""blur"",""3"",""18471""
","""event"",""trial"",""time""
""focus"",""0"",""0""
""focus"",""3"",""23967""
","""event"",""trial"",""time""
""fullscreenenter"",""1"",""5139""
","
",,,,,,,,,,,,"[{""stimulus"":""run_exp/static/images/task_images/dig.jpg"",""time"":0.2999999998137355},{""stimulus"":""run_exp/static/images/task_images/land.jpg"",""time"":715.1999999992549},{""stimulus"":""run_exp/static/images/task_images/dig.jpg"",""time"":1405.5}]",[],3,,,,,,,,,,,,,,
harvest,111,500751,0.0-39.0-1.0,"""event"",""trial"",""time""
""blur"",""0"",""0""
""focus"",""0"",""0""
""fullscreenenter"",""1"",""5139""
""blur"",""3"",""18471""
""focus"",""3"",""23967""
","""event"",""trial"",""time""
""blur"",""0"",""0""
""blur"",""3"",""18471""
","""event"",""trial"",""time""
""focus"",""0"",""0""
""focus"",""3"",""23967""
","""event"",""trial"",""time""
""fullscreenenter"",""1"",""5139""
","
",,null,run_exp/static/images/task_images/gems/23.jpg,null,,,,,,,13,,,3,,,,,23,0.54579414,0.565217391,,,,,,,
decision,112,501394,0.0-39.0-2.0,"""event"",""trial"",""time""
""blur"",""0"",""0""
""focus"",""0"",""0""
""fullscreenenter"",""1"",""5139""
""blur"",""3"",""18471""
""focus"",""3"",""23967""
","""event"",""trial"",""time""
""blur"",""0"",""0""
""blur"",""3"",""18471""
","""event"",""trial"",""time""
""focus"",""0"",""0""
""focus"",""3"",""23967""
","""event"",""trial"",""time""
""fullscreenenter"",""1"",""5139""
","
",,641.3,run_exp/static/images/task_images/land.jpg,65,,,,,,,13,,,3,,,,,,,,78704,1,2,FALSE,,,
dig,113,503782,0.0-40.0-0.0,"""event"",""trial"",""time""
""blur"",""0"",""0""
""focus"",""0"",""0""
""fullscreenenter"",""1"",""5139""
""blur"",""3"",""18471""
""focus"",""3"",""23967""
","""event"",""trial"",""time""
""blur"",""0"",""0""
""blur"",""3"",""18471""
","""event"",""trial"",""time""
""focus"",""0"",""0""
""focus"",""3"",""23967""
","""event"",""trial"",""time""
""fullscreenenter"",""1"",""5139""
","
",,,,,,,,,,,,"[{""stimulus"":""run_exp/static/images/task_images/dig.jpg"",""time"":0.19999999925494194},{""stimulus"":""run_exp/static/images/task_images/land.jpg"",""time"":792.5999999996275},{""stimulus"":""run_exp/static/images/task_images/dig.jpg"",""time"":1592.8999999994412}]",[],3,,,,,,,,,,,,,,
harvest,114,504791,0.0-40.0-1.0,"""event"",""trial"",""time""
""blur"",""0"",""0""
""focus"",""0"",""0""
""fullscreenenter"",""1"",""5139""
""blur"",""3"",""18471""
""focus"",""3"",""23967""
","""event"",""trial"",""time""
""blur"",""0"",""0""
""blur"",""3"",""18471""
","""event"",""trial"",""time""
""focus"",""0"",""0""
""focus"",""3"",""23967""
","""event"",""trial"",""time""
""fullscreenenter"",""1"",""5139""
","
",,null,run_exp/static/images/task_images/gems/13.jpg,null,,,,,,,7,,,3,,,,,13,0.52302802,0.538461538,,,,,,,
decision,115,506891,0.0-40.0-2.0,"""event"",""trial"",""time""
""blur"",""0"",""0""
""focus"",""0"",""0""
""fullscreenenter"",""1"",""5139""
""blur"",""3"",""18471""
""focus"",""3"",""23967""
","""event"",""trial"",""time""
""blur"",""0"",""0""
""blur"",""3"",""18471""
","""event"",""trial"",""time""
""focus"",""0"",""0""
""focus"",""3"",""23967""
","""event"",""trial"",""time""
""fullscreenenter"",""1"",""5139""
","
",,2095,run_exp/static/images/task_images/land.jpg,65,,,,,,,7,,,3,,,,,,,,84201,1,3,FALSE,,,
dig,116,507811,0.0-41.0-0.0,"""event"",""trial"",""time""
""blur"",""0"",""0""
""focus"",""0"",""0""
""fullscreenenter"",""1"",""5139""
""blur"",""3"",""18471""
""focus"",""3"",""23967""
","""event"",""trial"",""time""
""blur"",""0"",""0""
""blur"",""3"",""18471""
","""event"",""trial"",""time""
""focus"",""0"",""0""
""focus"",""3"",""23967""
","""event"",""trial"",""time""
""fullscreenenter"",""1"",""5139""
","
",,,,,,,,,,,,"[{""stimulus"":""run_exp/static/images/task_images/dig.jpg"",""time"":0.10000000055879354},{""stimulus"":""run_exp/static/images/task_images/land.jpg"",""time"":302},{""stimulus"":""run_exp/static/images/task_images/dig.jpg"",""time"":606.1000000005588}]",[],3,,,,,,,,,,,,,,
harvest,117,508820,0.0-41.0-1.0,"""event"",""trial"",""time""
""blur"",""0"",""0""
""focus"",""0"",""0""
""fullscreenenter"",""1"",""5139""
""blur"",""3"",""18471""
""focus"",""3"",""23967""
","""event"",""trial"",""time""
""blur"",""0"",""0""
""blur"",""3"",""18471""
","""event"",""trial"",""time""
""focus"",""0"",""0""
""focus"",""3"",""23967""
","""event"",""trial"",""time""
""fullscreenenter"",""1"",""5139""
","
",,null,run_exp/static/images/task_images/gems/7.jpg,null,,,,,,,3,,,3,,,,,7,0.424519809,0.428571429,,,,,,,
decision,118,509812,0.0-41.0-2.0,"""event"",""trial"",""time""
""blur"",""0"",""0""
""focus"",""0"",""0""
""fullscreenenter"",""1"",""5139""
""blur"",""3"",""18471""
""focus"",""3"",""23967""
","""event"",""trial"",""time""
""blur"",""0"",""0""
""blur"",""3"",""18471""
","""event"",""trial"",""time""
""focus"",""0"",""0""
""focus"",""3"",""23967""
","""event"",""trial"",""time""
""fullscreenenter"",""1"",""5139""
","
",,988.3,run_exp/static/images/task_images/land.jpg,76,,,,,,,3,,,3,,,,,,,,87122,1,4,TRUE,,,
travel,119,518851,0.0-42.0-0.0,"""event"",""trial"",""time""
""blur"",""0"",""0""
""focus"",""0"",""0""
""fullscreenenter"",""1"",""5139""
""blur"",""3"",""18471""
""focus"",""3"",""23967""
","""event"",""trial"",""time""
""blur"",""0"",""0""
""blur"",""3"",""18471""
","""event"",""trial"",""time""
""focus"",""0"",""0""
""focus"",""3"",""23967""
","""event"",""trial"",""time""
""fullscreenenter"",""1"",""5139""
","
",,,,,,,,,,,,"[{""stimulus"":""run_exp/static/images/task_images/rocket-01.jpg"",""time"":0.20000000018626451},{""stimulus"":""run_exp/static/images/task_images/rocket-02.jpg"",""time"":1006.2999999998137},{""stimulus"":""run_exp/static/images/task_images/rocket-03.jpg"",""time"":2007.3999999994412},{""stimulus"":""run_exp/static/images/task_images/rocket-04.jpg"",""time"":3007.0999999996275},{""stimulus"":""run_exp/static/images/task_images/rocket-05.jpg"",""time"":4012.399999999441},{""stimulus"":""run_exp/static/images/task_images/rocket-06.jpg"",""time"":5019.399999999441},{""stimulus"":""run_exp/static/images/task_images/rocket-07.jpg"",""time"":6021.5999999996275},{""stimulus"":""run_exp/static/images/task_images/rocket-08.jpg"",""time"":7018.799999999814},{""stimulus"":""run_exp/static/images/task_images/rocket-09.jpg"",""time"":8011.5}]",[],3,,,,,,,,,,,,,,
alien_welcome,120,523872,0.0-42.0-1.0,"""event"",""trial"",""time""
""blur"",""0"",""0""
""focus"",""0"",""0""
""fullscreenenter"",""1"",""5139""
""blur"",""3"",""18471""
""focus"",""3"",""23967""
","""event"",""trial"",""time""
""blur"",""0"",""0""
""blur"",""3"",""18471""
","""event"",""trial"",""time""
""focus"",""0"",""0""
""focus"",""3"",""23967""
","""event"",""trial"",""time""
""fullscreenenter"",""1"",""5139""
","
",,null,run_exp/static/images/task_images/aliens/old_aliens/planet/alien_planet-22.jpg,null,,,,,,,,,,,,,22,"27,45,41,22,36,33,57,68,32,35,9,29,75,50,56,51,10,20,79,49,40,26,14,47,12,53,8,59,55,13,7,52,61,15",,,,,,,,,,
land,121,524382,0.0-42.0-2.0,"""event"",""trial"",""time""
""blur"",""0"",""0""
""focus"",""0"",""0""
""fullscreenenter"",""1"",""5139""
""blur"",""3"",""18471""
""focus"",""3"",""23967""
","""event"",""trial"",""time""
""blur"",""0"",""0""
""blur"",""3"",""18471""
","""event"",""trial"",""time""
""focus"",""0"",""0""
""focus"",""3"",""23967""
","""event"",""trial"",""time""
""fullscreenenter"",""1"",""5139""
","
",,null,run_exp/static/images/task_images/land.jpg,null,,,,,,,98,,,4,,,,,,,,,,,,,,
dig,122,526391,0.0-42.0-3.0,"""event"",""trial"",""time""
""blur"",""0"",""0""
""focus"",""0"",""0""
""fullscreenenter"",""1"",""5139""
""blur"",""3"",""18471""
""focus"",""3"",""23967""
","""event"",""trial"",""time""
""blur"",""0"",""0""
""blur"",""3"",""18471""
","""event"",""trial"",""time""
""focus"",""0"",""0""
""focus"",""3"",""23967""
","""event"",""trial"",""time""
""fullscreenenter"",""1"",""5139""
","
",,,,,,,,,,,,"[{""stimulus"":""run_exp/static/images/task_images/dig.jpg"",""time"":0.5},{""stimulus"":""run_exp/static/images/task_images/land.jpg"",""time"":686},{""stimulus"":""run_exp/static/images/task_images/dig.jpg"",""time"":1345.6000000005588}]",[],4,,,,,,,,,,,,,,
harvest,123,527411,0.0-42.0-4.0,"""event"",""trial"",""time""
""blur"",""0"",""0""
""focus"",""0"",""0""
""fullscreenenter"",""1"",""5139""
""blur"",""3"",""18471""
""focus"",""3"",""23967""
","""event"",""trial"",""time""
""blur"",""0"",""0""
""blur"",""3"",""18471""
","""event"",""trial"",""time""
""focus"",""0"",""0""
""focus"",""3"",""23967""
","""event"",""trial"",""time""
""fullscreenenter"",""1"",""5139""
","
",,null,run_exp/static/images/task_images/gems/98.jpg,null,,,,,,,48,,,4,,,,,98,0.486470024,0.489795918,,,,,,,
decision,124,527861,0.0-42.0-5.0,"""event"",""trial"",""time""
""blur"",""0"",""0""
""focus"",""0"",""0""
""fullscreenenter"",""1"",""5139""
""blur"",""3"",""18471""
""focus"",""3"",""23967""
","""event"",""trial"",""time""
""blur"",""0"",""0""
""blur"",""3"",""18471""
","""event"",""trial"",""time""
""focus"",""0"",""0""
""focus"",""3"",""23967""
","""event"",""trial"",""time""
""fullscreenenter"",""1"",""5139""
","
",,431,run_exp/static/images/task_images/land.jpg,65,,,,,,,48,,,4,,,,,,,,105171,1,0,FALSE,,,
dig,125,530443,0.0-43.0-0.0,"""event"",""trial"",""time""
""blur"",""0"",""0""
""focus"",""0"",""0""
""fullscreenenter"",""1"",""5139""
""blur"",""3"",""18471""
""focus"",""3"",""23967""
","""event"",""trial"",""time""
""blur"",""0"",""0""
""blur"",""3"",""18471""
","""event"",""trial"",""time""
""focus"",""0"",""0""
""focus"",""3"",""23967""
","""event"",""trial"",""time""
""fullscreenenter"",""1"",""5139""
","
",,,,,,,,,,,,"[{""stimulus"":""run_exp/static/images/task_images/dig.jpg"",""time"":0.10000000055879354},{""stimulus"":""run_exp/static/images/task_images/land.jpg"",""time"":862.8000000007451},{""stimulus"":""run_exp/static/images/task_images/dig.jpg"",""time"":1732.9000000003725}]",[],4,,,,,,,,,,,,,,
harvest,126,531451,0.0-43.0-1.0,"""event"",""trial"",""time""
""blur"",""0"",""0""
""focus"",""0"",""0""
""fullscreenenter"",""1"",""5139""
""blur"",""3"",""18471""
""focus"",""3"",""23967""
","""event"",""trial"",""time""
""blur"",""0"",""0""
""blur"",""3"",""18471""
","""event"",""trial"",""time""
""focus"",""0"",""0""
""focus"",""3"",""23967""
","""event"",""trial"",""time""
""fullscreenenter"",""1"",""5139""
","
",,null,run_exp/static/images/task_images/gems/48.jpg,null,,,,,,,27,,,4,,,,,48,0.566340194,0.5625,,,,,,,
decision,127,532107,0.0-43.0-2.0,"""event"",""trial"",""time""
""blur"",""0"",""0""
""focus"",""0"",""0""
""fullscreenenter"",""1"",""5139""
""blur"",""3"",""18471""
""focus"",""3"",""23967""
","""event"",""trial"",""time""
""blur"",""0"",""0""
""blur"",""3"",""18471""
","""event"",""trial"",""time""
""focus"",""0"",""0""
""focus"",""3"",""23967""
","""event"",""trial"",""time""
""fullscreenenter"",""1"",""5139""
","
",,651.3,run_exp/static/images/task_images/land.jpg,65,,,,,,,27,,,4,,,,,,,,109417,1,1,FALSE,,,
dig,128,534481,0.0-44.0-0.0,"""event"",""trial"",""time""
""blur"",""0"",""0""
""focus"",""0"",""0""
""fullscreenenter"",""1"",""5139""
""blur"",""3"",""18471""
""focus"",""3"",""23967""
","""event"",""trial"",""time""
""blur"",""0"",""0""
""blur"",""3"",""18471""
","""event"",""trial"",""time""
""focus"",""0"",""0""
""focus"",""3"",""23967""
","""event"",""trial"",""time""
""fullscreenenter"",""1"",""5139""
","
",,,,,,,,,,,,"[{""stimulus"":""run_exp/static/images/task_images/dig.jpg"",""time"":0.19999999925494194},{""stimulus"":""run_exp/static/images/task_images/land.jpg"",""time"":785.6999999992549},{""stimulus"":""run_exp/static/images/task_images/dig.jpg"",""time"":1584.5}]",[],4,,,,,,,,,,,,,,
harvest,129,535494,0.0-44.0-1.0,"""event"",""trial"",""time""
""blur"",""0"",""0""
""focus"",""0"",""0""
""fullscreenenter"",""1"",""5139""
""blur"",""3"",""18471""
""focus"",""3"",""23967""
","""event"",""trial"",""time""
""blur"",""0"",""0""
""blur"",""3"",""18471""
","""event"",""trial"",""time""
""focus"",""0"",""0""
""focus"",""3"",""23967""
","""event"",""trial"",""time""
""fullscreenenter"",""1"",""5139""
","
",,null,run_exp/static/images/task_images/gems/27.jpg,null,,,,,,,13,,,4,,,,,27,0.498970803,0.481481481,,,,,,,
decision,130,536079,0.0-44.0-2.0,"""event"",""trial"",""time""
""blur"",""0"",""0""
""focus"",""0"",""0""
""fullscreenenter"",""1"",""5139""
""blur"",""3"",""18471""
""focus"",""3"",""23967""
","""event"",""trial"",""time""
""blur"",""0"",""0""
""blur"",""3"",""18471""
","""event"",""trial"",""time""
""focus"",""0"",""0""
""focus"",""3"",""23967""
","""event"",""trial"",""time""
""fullscreenenter"",""1"",""5139""
","
",,581.1,run_exp/static/images/task_images/land.jpg,65,,,,,,,13,,,4,,,,,,,,113389,1,2,FALSE,,,
dig,131,538512,0.0-45.0-0.0,"""event"",""trial"",""time""
""blur"",""0"",""0""
""focus"",""0"",""0""
""fullscreenenter"",""1"",""5139""
""blur"",""3"",""18471""
""focus"",""3"",""23967""
","""event"",""trial"",""time""
""blur"",""0"",""0""
""blur"",""3"",""18471""
","""event"",""trial"",""time""
""focus"",""0"",""0""
""focus"",""3"",""23967""
","""event"",""trial"",""time""
""fullscreenenter"",""1"",""5139""
","
",,,,,,,,,,,,"[{""stimulus"":""run_exp/static/images/task_images/dig.jpg"",""time"":0.19999999925494194},{""stimulus"":""run_exp/static/images/task_images/land.jpg"",""time"":825.0999999996275},{""stimulus"":""run_exp/static/images/task_images/dig.jpg"",""time"":1625.2999999998137}]",[],4,,,,,,,,,,,,,,
harvest,132,539521,0.0-45.0-1.0,"""event"",""trial"",""time""
""blur"",""0"",""0""
""focus"",""0"",""0""
""fullscreenenter"",""1"",""5139""
""blur"",""3"",""18471""
""focus"",""3"",""23967""
","""event"",""trial"",""time""
""blur"",""0"",""0""
""blur"",""3"",""18471""
","""event"",""trial"",""time""
""focus"",""0"",""0""
""focus"",""3"",""23967""
","""event"",""trial"",""time""
""fullscreenenter"",""1"",""5139""
","
",,null,run_exp/static/images/task_images/gems/13.jpg,null,,,,,,,6,,,4,,,,,13,0.497308234,0.461538462,,,,,,,
decision,133,540679,0.0-45.0-2.0,"""event"",""trial"",""time""
""blur"",""0"",""0""
""focus"",""0"",""0""
""fullscreenenter"",""1"",""5139""
""blur"",""3"",""18471""
""focus"",""3"",""23967""
","""event"",""trial"",""time""
""blur"",""0"",""0""
""blur"",""3"",""18471""
","""event"",""trial"",""time""
""focus"",""0"",""0""
""focus"",""3"",""23967""
","""event"",""trial"",""time""
""fullscreenenter"",""1"",""5139""
","
",,1155.8,run_exp/static/images/task_images/land.jpg,65,,,,,,,6,,,4,,,,,,,,117989,1,3,FALSE,,,
dig,134,542552,0.0-46.0-0.0,"""event"",""trial"",""time""
""blur"",""0"",""0""
""focus"",""0"",""0""
""fullscreenenter"",""1"",""5139""
""blur"",""3"",""18471""
""focus"",""3"",""23967""
","""event"",""trial"",""time""
""blur"",""0"",""0""
""blur"",""3"",""18471""
","""event"",""trial"",""time""
""focus"",""0"",""0""
""focus"",""3"",""23967""
","""event"",""trial"",""time""
""fullscreenenter"",""1"",""5139""
","
",,,,,,,,,,,,"[{""stimulus"":""run_exp/static/images/task_images/dig.jpg"",""time"":0.30000000074505806},{""stimulus"":""run_exp/static/images/task_images/land.jpg"",""time"":630.6000000005588},{""stimulus"":""run_exp/static/images/task_images/dig.jpg"",""time"":1239.9000000003725}]",[],4,,,,,,,,,,,,,,
harvest,135,543556,0.0-46.0-1.0,"""event"",""trial"",""time""
""blur"",""0"",""0""
""focus"",""0"",""0""
""fullscreenenter"",""1"",""5139""
""blur"",""3"",""18471""
""focus"",""3"",""23967""
","""event"",""trial"",""time""
""blur"",""0"",""0""
""blur"",""3"",""18471""
","""event"",""trial"",""time""
""focus"",""0"",""0""
""focus"",""3"",""23967""
","""event"",""trial"",""time""
""fullscreenenter"",""1"",""5139""
","
",,null,run_exp/static/images/task_images/gems/6.jpg,null,,,,,,,3,,,4,,,,,6,0.470270807,0.5,,,,,,,
decision,136,545824,0.0-46.0-2.0,"""event"",""trial"",""time""
""blur"",""0"",""0""
""focus"",""0"",""0""
""fullscreenenter"",""1"",""5139""
""blur"",""3"",""18471""
""focus"",""3"",""23967""
","""event"",""trial"",""time""
""blur"",""0"",""0""
""blur"",""3"",""18471""
","""event"",""trial"",""time""
""focus"",""0"",""0""
""focus"",""3"",""23967""
","""event"",""trial"",""time""
""fullscreenenter"",""1"",""5139""
","
",,2264.6,run_exp/static/images/task_images/land.jpg,76,,,,,,,3,,,4,,,,,,,,123134,1,4,TRUE,,,
travel,137,553581,0.0-47.0-0.0,"""event"",""trial"",""time""
""blur"",""0"",""0""
""focus"",""0"",""0""
""fullscreenenter"",""1"",""5139""
""blur"",""3"",""18471""
""focus"",""3"",""23967""
","""event"",""trial"",""time""
""blur"",""0"",""0""
""blur"",""3"",""18471""
","""event"",""trial"",""time""
""focus"",""0"",""0""
""focus"",""3"",""23967""
","""event"",""trial"",""time""
""fullscreenenter"",""1"",""5139""
","
",,,,,,,,,,,,"[{""stimulus"":""run_exp/static/images/task_images/rocket-01.jpg"",""time"":0.40000000037252903},{""stimulus"":""run_exp/static/images/task_images/rocket-02.jpg"",""time"":862.0999999996275},{""stimulus"":""run_exp/static/images/task_images/rocket-03.jpg"",""time"":1722.5},{""stimulus"":""run_exp/static/images/task_images/rocket-04.jpg"",""time"":2583.5999999996275},{""stimulus"":""run_exp/static/images/task_images/rocket-05.jpg"",""time"":3443.5999999996275},{""stimulus"":""run_exp/static/images/task_images/rocket-06.jpg"",""time"":4297.0999999996275},{""stimulus"":""run_exp/static/images/task_images/rocket-07.jpg"",""time"":5165.299999999814},{""stimulus"":""run_exp/static/images/task_images/rocket-08.jpg"",""time"":6021.799999999814},{""stimulus"":""run_exp/static/images/task_images/rocket-09.jpg"",""time"":6881.700000000186}]",[],4,,,,,,,,,,,,,,
alien_welcome,138,558591,0.0-47.0-1.0,"""event"",""trial"",""time""
""blur"",""0"",""0""
""focus"",""0"",""0""
""fullscreenenter"",""1"",""5139""
""blur"",""3"",""18471""
""focus"",""3"",""23967""
","""event"",""trial"",""time""
""blur"",""0"",""0""
""blur"",""3"",""18471""
","""event"",""trial"",""time""
""focus"",""0"",""0""
""focus"",""3"",""23967""
","""event"",""trial"",""time""
""fullscreenenter"",""1"",""5139""
","
",,null,run_exp/static/images/task_images/aliens/old_aliens/planet/alien_planet-36.jpg,null,,,,,,,,,,,,,36,"27,45,41,22,36,33,57,68,32,35,9,29,75,50,56,51,10,20,79,49,40,26,14,47,12,53,8,59,55,13,7,52,61,15",,,,,,,,,,
land,139,559111,0.0-47.0-2.0,"""event"",""trial"",""time""
""blur"",""0"",""0""
""focus"",""0"",""0""
""fullscreenenter"",""1"",""5139""
""blur"",""3"",""18471""
""focus"",""3"",""23967""
","""event"",""trial"",""time""
""blur"",""0"",""0""
""blur"",""3"",""18471""
","""event"",""trial"",""time""
""focus"",""0"",""0""
""focus"",""3"",""23967""
","""event"",""trial"",""time""
""fullscreenenter"",""1"",""5139""
","
",,null,run_exp/static/images/task_images/land.jpg,null,,,,,,,103,,,5,,,,,,,,,,,,,,
dig,140,561122,0.0-47.0-3.0,"""event"",""trial"",""time""
""blur"",""0"",""0""
""focus"",""0"",""0""
""fullscreenenter"",""1"",""5139""
""blur"",""3"",""18471""
""focus"",""3"",""23967""
","""event"",""trial"",""time""
""blur"",""0"",""0""
""blur"",""3"",""18471""
","""event"",""trial"",""time""
""focus"",""0"",""0""
""focus"",""3"",""23967""
","""event"",""trial"",""time""
""fullscreenenter"",""1"",""5139""
","
",,,,,,,,,,,,"[{""stimulus"":""run_exp/static/images/task_images/dig.jpg"",""time"":0.40000000037252903},{""stimulus"":""run_exp/static/images/task_images/land.jpg"",""time"":675.5},{""stimulus"":""run_exp/static/images/task_images/dig.jpg"",""time"":1340.6000000005588}]",[],5,,,,,,,,,,,,,,
harvest,141,562142,0.0-47.0-4.0,"""event"",""trial"",""time""
""blur"",""0"",""0""
""focus"",""0"",""0""
""fullscreenenter"",""1"",""5139""
""blur"",""3"",""18471""
""focus"",""3"",""23967""
","""event"",""trial"",""time""
""blur"",""0"",""0""
""blur"",""3"",""18471""
","""event"",""trial"",""time""
""focus"",""0"",""0""
""focus"",""3"",""23967""
","""event"",""trial"",""time""
""fullscreenenter"",""1"",""5139""
","
",,null,run_exp/static/images/task_images/gems/103.jpg,null,,,,,,,53,,,5,,,,,103,0.515085266,0.514563107,,,,,,,
decision,142,562716,0.0-47.0-5.0,"""event"",""trial"",""time""
""blur"",""0"",""0""
""focus"",""0"",""0""
""fullscreenenter"",""1"",""5139""
""blur"",""3"",""18471""
""focus"",""3"",""23967""
","""event"",""trial"",""time""
""blur"",""0"",""0""
""blur"",""3"",""18471""
","""event"",""trial"",""time""
""focus"",""0"",""0""
""focus"",""3"",""23967""
","""event"",""trial"",""time""
""fullscreenenter"",""1"",""5139""
","
",,569.8,run_exp/static/images/task_images/land.jpg,65,,,,,,,53,,,5,,,,,,,,140026,1,0,FALSE,,,
dig,143,565170,0.0-48.0-0.0,"""event"",""trial"",""time""
""blur"",""0"",""0""
""focus"",""0"",""0""
""fullscreenenter"",""1"",""5139""
""blur"",""3"",""18471""
""focus"",""3"",""23967""
","""event"",""trial"",""time""
""blur"",""0"",""0""
""blur"",""3"",""18471""
","""event"",""trial"",""time""
""focus"",""0"",""0""
""focus"",""3"",""23967""
","""event"",""trial"",""time""
""fullscreenenter"",""1"",""5139""
","
",,,,,,,,,,,,"[{""stimulus"":""run_exp/static/images/task_images/dig.jpg"",""time"":0.09999999962747097},{""stimulus"":""run_exp/static/images/task_images/land.jpg"",""time"":820.2000000001863},{""stimulus"":""run_exp/static/images/task_images/dig.jpg"",""time"":1630.0999999996275}]",[],5,,,,,,,,,,,,,,
harvest,144,566206,0.0-48.0-1.0,"""event"",""trial"",""time""
""blur"",""0"",""0""
""focus"",""0"",""0""
""fullscreenenter"",""1"",""5139""
""blur"",""3"",""18471""
""focus"",""3"",""23967""
","""event"",""trial"",""time""
""blur"",""0"",""0""
""blur"",""3"",""18471""
","""event"",""trial"",""time""
""focus"",""0"",""0""
""focus"",""3"",""23967""
","""event"",""trial"",""time""
""fullscreenenter"",""1"",""5139""
","
",,null,run_exp/static/images/task_images/gems/53.jpg,null,,,,,,,23,,,5,,,,,53,0.426696778,0.433962264,,,,,,,
decision,145,567023,0.0-48.0-2.0,"""event"",""trial"",""time""
""blur"",""0"",""0""
""focus"",""0"",""0""
""fullscreenenter"",""1"",""5139""
""blur"",""3"",""18471""
""focus"",""3"",""23967""
","""event"",""trial"",""time""
""blur"",""0"",""0""
""blur"",""3"",""18471""
","""event"",""trial"",""time""
""focus"",""0"",""0""
""focus"",""3"",""23967""
","""event"",""trial"",""time""
""fullscreenenter"",""1"",""5139""
","
",,815.8,run_exp/static/images/task_images/land.jpg,65,,,,,,,23,,,5,,,,,,,,144333,1,1,FALSE,,,
dig,146,569230,0.0-49.0-0.0,"""event"",""trial"",""time""
""blur"",""0"",""0""
""focus"",""0"",""0""
""fullscreenenter"",""1"",""5139""
""blur"",""3"",""18471""
""focus"",""3"",""23967""
","""event"",""trial"",""time""
""blur"",""0"",""0""
""blur"",""3"",""18471""
","""event"",""trial"",""time""
""focus"",""0"",""0""
""focus"",""3"",""23967""
","""event"",""trial"",""time""
""fullscreenenter"",""1"",""5139""
","
",,,,,,,,,,,,"[{""stimulus"":""run_exp/static/images/task_images/dig.jpg"",""time"":0.2999999998137355},{""stimulus"":""run_exp/static/images/task_images/land.jpg"",""time"":729.7999999998137},{""stimulus"":""run_exp/static/images/task_images/dig.jpg"",""time"":1466.2999999998137}]",[],5,,,,,,,,,,,,,,
harvest,147,570241,0.0-49.0-1.0,"""event"",""trial"",""time""
""blur"",""0"",""0""
""focus"",""0"",""0""
""fullscreenenter"",""1"",""5139""
""blur"",""3"",""18471""
""focus"",""3"",""23967""
","""event"",""trial"",""time""
""blur"",""0"",""0""
""blur"",""3"",""18471""
","""event"",""trial"",""time""
""focus"",""0"",""0""
""focus"",""3"",""23967""
","""event"",""trial"",""time""
""fullscreenenter"",""1"",""5139""
","
",,null,run_exp/static/images/task_images/gems/23.jpg,null,,,,,,,10,,,5,,,,,23,0.438465489,0.434782609,,,,,,,
decision,148,570867,0.0-49.0-2.0,"""event"",""trial"",""time""
""blur"",""0"",""0""
""focus"",""0"",""0""
""fullscreenenter"",""1"",""5139""
""blur"",""3"",""18471""
""focus"",""3"",""23967""
","""event"",""trial"",""time""
""blur"",""0"",""0""
""blur"",""3"",""18471""
","""event"",""trial"",""time""
""focus"",""0"",""0""
""focus"",""3"",""23967""
","""event"",""trial"",""time""
""fullscreenenter"",""1"",""5139""
","
",,623.7,run_exp/static/images/task_images/land.jpg,65,,,,,,,10,,,5,,,,,,,,148177,1,2,FALSE,,,
dig,149,573270,0.0-50.0-0.0,"""event"",""trial"",""time""
""blur"",""0"",""0""
""focus"",""0"",""0""
""fullscreenenter"",""1"",""5139""
""blur"",""3"",""18471""
""focus"",""3"",""23967""
","""event"",""trial"",""time""
""blur"",""0"",""0""
""blur"",""3"",""18471""
","""event"",""trial"",""time""
""focus"",""0"",""0""
""focus"",""3"",""23967""
","""event"",""trial"",""time""
""fullscreenenter"",""1"",""5139""
","
",,,,,,,,,,,,"[{""stimulus"":""run_exp/static/images/task_images/dig.jpg"",""time"":0.2999999998137355},{""stimulus"":""run_exp/static/images/task_images/land.jpg"",""time"":801.9000000003725},{""stimulus"":""run_exp/static/images/task_images/dig.jpg"",""time"":1591.5}]",[],5,,,,,,,,,,,,,,
harvest,150,574285,0.0-50.0-1.0,"""event"",""trial"",""time""
""blur"",""0"",""0""
""focus"",""0"",""0""
""fullscreenenter"",""1"",""5139""
""blur"",""3"",""18471""
""focus"",""3"",""23967""
","""event"",""trial"",""time""
""blur"",""0"",""0""
""blur"",""3"",""18471""
","""event"",""trial"",""time""
""focus"",""0"",""0""
""focus"",""3"",""23967""
","""event"",""trial"",""time""
""fullscreenenter"",""1"",""5139""
","
",,null,run_exp/static/images/task_images/gems/10.jpg,null,,,,,,,5,,,5,,,,,10,0.478313093,0.5,,,,,,,
decision,151,574692,0.0-50.0-2.0,"""event"",""trial"",""time""
""blur"",""0"",""0""
""focus"",""0"",""0""
""fullscreenenter"",""1"",""5139""
""blur"",""3"",""18471""
""focus"",""3"",""23967""
","""event"",""trial"",""time""
""blur"",""0"",""0""
""blur"",""3"",""18471""
","""event"",""trial"",""time""
""focus"",""0"",""0""
""focus"",""3"",""23967""
","""event"",""trial"",""time""
""fullscreenenter"",""1"",""5139""
","
",,405.2,run_exp/static/images/task_images/land.jpg,65,,,,,,,5,,,5,,,,,,,,152002,1,3,FALSE,,,
dig,152,577310,0.0-51.0-0.0,"""event"",""trial"",""time""
""blur"",""0"",""0""
""focus"",""0"",""0""
""fullscreenenter"",""1"",""5139""
""blur"",""3"",""18471""
""focus"",""3"",""23967""
","""event"",""trial"",""time""
""blur"",""0"",""0""
""blur"",""3"",""18471""
","""event"",""trial"",""time""
""focus"",""0"",""0""
""focus"",""3"",""23967""
","""event"",""trial"",""time""
