trial_type,trial_index,time_elapsed,internal_node_id,interactions,blur_events,focus_events,fullscreenenter_events,fullscreenexit_events,success,rt,stimulus,key_press,prompt,subject_id,participant_id,age,gender,button_pressed,next_reward,animation_sequence,responses,planet,curr_prac_trial,n_prac_rounds,alien,aliens,reward_received,decay_rate_actual,decay_rate_exp,time_in_block,block_num,prt,last_trial_on_planet,button_html,bonus,num_failures
pavlovia,0,17,0.0-0.0,"""event"",""trial"",""time""
""fullscreenenter"",""1"",""6815""
","
","
","""event"",""trial"",""time""
""fullscreenenter"",""1"",""6815""
","
",,,,,,,,,,,,,,,,,,,,,,,,,,,,
fullscreen,1,7765,0.0-1.0,"""event"",""trial"",""time""
""fullscreenenter"",""1"",""6815""
","
","
","""event"",""trial"",""time""
""fullscreenenter"",""1"",""6815""
","
",TRUE,,,,,,,,,,,,,,,,,,,,,,,,,,,
instruc_welcome,2,17714,0.0-2.0,"""event"",""trial"",""time""
""fullscreenenter"",""1"",""6815""
","
","
","""event"",""trial"",""time""
""fullscreenenter"",""1"",""6815""
","
",,null,run_exp/static/audio/clip_1_welcome.m4a,null,"<p>Howdy! In this experiment, you’ll be an explorer traveling through space to collect space treasure.</p><p>Your mission is to collect as much treasure as possible.</p><br><br><p><img src='run_exp/static/images/task_images/opening_img-01.jpg' height='300' width='auto'></p>",9269,4194,18.58,Female,,,,,,,,,,,,,,,,,,,
audio-keyboard-response,3,34354,0.0-3.0,"""event"",""trial"",""time""
""fullscreenenter"",""1"",""6815""
","
","
","""event"",""trial"",""time""
""fullscreenenter"",""1"",""6815""
","
",,null,run_exp/static/audio/clip_2_move.m4a,null,,,,,,,,,,,,,,,,,,,,,,,,
welcome_dec,4,36020,0.0-4.0,"""event"",""trial"",""time""
""fullscreenenter"",""1"",""6815""
","
","
","""event"",""trial"",""time""
""fullscreenenter"",""1"",""6815""
","
",,1663,"<p>Howdy! In this experiment, you’ll be an explorer traveling through space to collect space treasure.</p><p>Your mission is to collect as much treasure as possible.</p><br><br><p><img src='run_exp/static/images/task_images/opening_img-01.jpg' height='300' width='auto'></p>",,,,,,,1,,,,,,,,,,,,,,,,,,
html-keyboard-response,5,38230,0.0-5.0,"""event"",""trial"",""time""
""fullscreenenter"",""1"",""6815""
","
","
","""event"",""trial"",""time""
""fullscreenenter"",""1"",""6815""
","
",,2205.9,"<p>Howdy! In this experiment, you’ll be an explorer traveling through space to collect space treasure.</p><p>Your mission is to collect as much treasure as possible.</p><br><br><p><img src='run_exp/static/images/task_images/opening_img-01.jpg' height='300' width='auto'></p><button class=""jspsych-html-btn-unchosen""><img src=""run_exp/static/images/task_images/planet-01.jpg"" height=""50""></button><button class=""jspsych-html-btn-chosen""><img src=""run_exp/static/images/task_images/planet-02.jpg"" height=""50""></button><p><b>[press the space bar to lock in your answer]<b><br></p>",32,,,,,,,,,,,,,,,,,,,,,,,,
instruc_goal,6,48349,0.0-6.0-0.0,"""event"",""trial"",""time""
""fullscreenenter"",""1"",""6815""
","
","
","""event"",""trial"",""time""
""fullscreenenter"",""1"",""6815""
","
",,null,run_exp/static/audio/clip_3_goal.m4a,null,"<p> As a space explorer, you’ll visit different planets to dig for space treasure, these pink gems.</p> <p> The more treasure you dig up, the more bonus money you’ll win! </p><br><br><p><img src='run_exp/static/images/task_images/pink_gem.jpg' height='300' width='auto'></p>",,,,,,,,,,,,,,,,,,,,,,,
instruc_goal,7,49963,0.0-6.0-1.0,"""event"",""trial"",""time""
""fullscreenenter"",""1"",""6815""
","
","
","""event"",""trial"",""time""
""fullscreenenter"",""1"",""6815""
","
",,1610.2,"<p> As a space explorer, you’ll visit different planets to dig for space treasure, these pink gems.</p> <p> The more treasure you dig up, the more bonus money you’ll win! </p><br><br><p><img src='run_exp/static/images/task_images/pink_gem.jpg' height='300' width='auto'></p>",,,,,,,1,,,,,,,,,,,,,,,,,,
html-keyboard-response,8,50535,0.0-6.0-2.0,"""event"",""trial"",""time""
""fullscreenenter"",""1"",""6815""
","
","
","""event"",""trial"",""time""
""fullscreenenter"",""1"",""6815""
","
",,570.2,"<p> As a space explorer, you’ll visit different planets to dig for space treasure, these pink gems.</p> <p> The more treasure you dig up, the more bonus money you’ll win! </p><br><br><p><img src='run_exp/static/images/task_images/pink_gem.jpg' height='300' width='auto'></p><button class=""jspsych-html-btn-unchosen""><img src=""run_exp/static/images/task_images/planet-01.jpg"" height=""50""></button><button class=""jspsych-html-btn-chosen""><img src=""run_exp/static/images/task_images/planet-02.jpg"" height=""50""></button><p><b>[press the space bar to lock in your answer]<b><br></p>",32,,,,,,,,,,,,,,,,,,,,,,,,
instruc_dig,9,66620,0.0-7.0-0.0,"""event"",""trial"",""time""
""fullscreenenter"",""1"",""6815""
","
","
","""event"",""trial"",""time""
""fullscreenenter"",""1"",""6815""
","
",,null,run_exp/static/audio/clip_4_dig.m4a,null,,,,,,,100,,,,,,,,,,,,,,,,,
instruc_dig_try,10,67651,0.0-7.0-1.0,"""event"",""trial"",""time""
""fullscreenenter"",""1"",""6815""
","
","
","""event"",""trial"",""time""
""fullscreenenter"",""1"",""6815""
","
",,1028.9,"<p> When you’ve arrived at a new planet, you will dig once. </p> <p>Then, you get to decide if you want to stay on the planet and dig again or travel to a new planet and dig there.</p> <p> To stay and dig, press the letter <strong>‘A’</strong> on your keyboard. Try pressing it now! </p><p><img src='run_exp/static/images/task_images/land.jpg'  height='700' width='auto'></p>",65,"<p> When you’ve arrived at a new planet, you will dig once. </p> <p>Then, you get to decide if you want to stay on the planet and dig again or travel to a new planet and dig there.</p> <p> To stay and dig, press the letter <strong>‘A’</strong> on your keyboard. Try pressing it now! </p><p><img src='run_exp/static/images/task_images/land.jpg'  height='700' width='auto'></p>",,,,,,100,,,,,,,,,,,,,,,,,
dig_prac,11,69677,0.0-7.0-2.0,"""event"",""trial"",""time""
""fullscreenenter"",""1"",""6815""
","
","
","""event"",""trial"",""time""
""fullscreenenter"",""1"",""6815""
","
",,,,,,,,,,,,"[{""stimulus"":""run_exp/static/images/task_images/dig.jpg"",""time"":0.5999999940395355},{""stimulus"":""run_exp/static/images/task_images/land.jpg"",""time"":669.2000000178814},{""stimulus"":""run_exp/static/images/task_images/dig.jpg"",""time"":1335.800000011921}]",[],,,,,,,,,,,,,,,
instruc_travel,12,105961,0.0-7.0-3.0,"""event"",""trial"",""time""
""fullscreenenter"",""1"",""6815""
","
","
","""event"",""trial"",""time""
""fullscreenenter"",""1"",""6815""
","
",,null,run_exp/static/audio/clip_5_travel.m4a,null,"<p>Every time you dig up gems, there are less gems on the planet, so the more you dig on a planet the fewer gems you’ll get with each dig.</p><p>When gems are running low, you may want to travel to a new planet. </p> <p>  Planets are very far apart in this galaxy, so it will take some time to travel between them. </p> <br><p>There are lots and lots of planets for you to visit, so you won’t be able to return to any planets you’ve seen before. </p><br><p>To leave this planet and travel to a new one, press the letter <strong>‘L’</strong> on your keyboard. Try pressing it now! </p><p><img src='run_exp/static/images/task_images/rocket-01.jpg'  height='600' width='auto'></p>",,,,,,,,,,,,,,,,,,,,,,,
instruc_travel_try,13,110276,0.0-7.0-4.0,"""event"",""trial"",""time""
""fullscreenenter"",""1"",""6815""
","
","
","""event"",""trial"",""time""
""fullscreenenter"",""1"",""6815""
","
",,4311.8,"<p>Every time you dig up gems, there are less gems on the planet, so the more you dig on a planet the fewer gems you’ll get with each dig.</p><p>When gems are running low, you may want to travel to a new planet. </p> <p>  Planets are very far apart in this galaxy, so it will take some time to travel between them. </p> <br><p>There are lots and lots of planets for you to visit, so you won’t be able to return to any planets you’ve seen before. </p><br><p>To leave this planet and travel to a new one, press the letter <strong>‘L’</strong> on your keyboard. Try pressing it now! </p><p><img src='run_exp/static/images/task_images/rocket-01.jpg'  height='600' width='auto'></p>",76,"<p>Every time you dig up gems, there are less gems on the planet, so the more you dig on a planet the fewer gems you’ll get with each dig.</p><p>When gems are running low, you may want to travel to a new planet. </p> <p>  Planets are very far apart in this galaxy, so it will take some time to travel between them. </p> <br><p>There are lots and lots of planets for you to visit, so you won’t be able to return to any planets you’ve seen before. </p><br><p>To leave this planet and travel to a new one, press the letter <strong>‘L’</strong> on your keyboard. Try pressing it now! </p><p><img src='run_exp/static/images/task_images/rocket-01.jpg'  height='600' width='auto'></p>",,,,,,,,,,,,,,,,,,,,,,,
travel_prac,14,120285,0.0-7.0-5.0,"""event"",""trial"",""time""
""fullscreenenter"",""1"",""6815""
","
","
","""event"",""trial"",""time""
""fullscreenenter"",""1"",""6815""
","
",,,,,,,,,,,,"[{""stimulus"":""run_exp/static/images/task_images/rocket-01.jpg"",""time"":0.3999999761581421},{""stimulus"":""run_exp/static/images/task_images/rocket-02.jpg"",""time"":1113.5999999940395},{""stimulus"":""run_exp/static/images/task_images/rocket-03.jpg"",""time"":2230.7999999821186},{""stimulus"":""run_exp/static/images/task_images/rocket-04.jpg"",""time"":3336.399999976158},{""stimulus"":""run_exp/static/images/task_images/rocket-05.jpg"",""time"":4448.0999999940395},{""stimulus"":""run_exp/static/images/task_images/rocket-06.jpg"",""time"":5565},{""stimulus"":""run_exp/static/images/task_images/rocket-07.jpg"",""time"":6669.299999982119},{""stimulus"":""run_exp/static/images/task_images/rocket-08.jpg"",""time"":7782.399999976158},{""stimulus"":""run_exp/static/images/task_images/rocket-09.jpg"",""time"":8898.899999976158}]",[],0,,,,,,,,,,,,,,
instruc_alien_greet,15,147488,0.0-7.0-6.0,"""event"",""trial"",""time""
""fullscreenenter"",""1"",""6815""
","
","
","""event"",""trial"",""time""
""fullscreenenter"",""1"",""6815""
","
",,null,run_exp/static/audio/clip_6_alien.m4a,null,"<p>When you arrive at a new planet, the alien who owns the treasure mine on that planet will greet you!</p><p>The better an alien takes care of their mine the easier it is to dig for gems. Some aliens take better care of their mine than others. So, you won’t get exactly the same amount of gems on each planet.</p><p>What the alien looks like does not tell you anything about how many gems there are on the planet.</p><br><p><img src=""run_exp/static/images/task_images/aliens/instructions_aliens/planet/alien_planet-1.jpg""  height=""600"" width=""auto""></p>",,,,,,,,,,,,,,,,,,,,,,,
instruc_alien_greet,16,149563,0.0-7.0-7.0,"""event"",""trial"",""time""
""fullscreenenter"",""1"",""6815""
","
","
","""event"",""trial"",""time""
""fullscreenenter"",""1"",""6815""
","
",,2072,"<p>When you arrive at a new planet, the alien who owns the treasure mine on that planet will greet you!</p><p>The better an alien takes care of their mine the easier it is to dig for gems. Some aliens take better care of their mine than others. So, you won’t get exactly the same amount of gems on each planet.</p><p>What the alien looks like does not tell you anything about how many gems there are on the planet.</p><br><p><img src=""run_exp/static/images/task_images/aliens/instructions_aliens/planet/alien_planet-1.jpg""  height=""600"" width=""auto""></p>",,,,,,,1,,,,,,,,,,,,,,,,,,
html-keyboard-response,17,150156,0.0-7.0-8.0,"""event"",""trial"",""time""
""fullscreenenter"",""1"",""6815""
","
","
","""event"",""trial"",""time""
""fullscreenenter"",""1"",""6815""
","
",,590.8,"<p>When you arrive at a new planet, the alien who owns the treasure mine on that planet will greet you!</p><p>The better an alien takes care of their mine the easier it is to dig for gems. Some aliens take better care of their mine than others. So, you won’t get exactly the same amount of gems on each planet.</p><p>What the alien looks like does not tell you anything about how many gems there are on the planet.</p><br><p><img src=""run_exp/static/images/task_images/aliens/instructions_aliens/planet/alien_planet-1.jpg""  height=""600"" width=""auto""></p><button class=""jspsych-html-btn-unchosen""><img src=""run_exp/static/images/task_images/planet-01.jpg"" height=""50""></button><button class=""jspsych-html-btn-chosen""><img src=""run_exp/static/images/task_images/planet-02.jpg"" height=""50""></button><p><b>[press the space bar to lock in your answer]<b><br></p>",32,,,,,,,,,,,,,,,,,,,,,,,,
time_out,18,161250,0.0-8.0-0.0,"""event"",""trial"",""time""
""fullscreenenter"",""1"",""6815""
","
","
","""event"",""trial"",""time""
""fullscreenenter"",""1"",""6815""
","
",,null,run_exp/static/audio/clip_7_timeout.m4a,null,"<p>If you don't make your choice fast enough, you’ll have to wait a few seconds before you can make another one.</p><p>You can’t dig for more gems or travel to new planets. You just have to sit and wait.</p><br><p><img src='run_exp/static/images/task_images/time_out.jpg'  height='600' width='auto'></p>",,,,,,,,,,,,,,,,,,,,,,,
time_out,19,162533,0.0-8.0-1.0,"""event"",""trial"",""time""
""fullscreenenter"",""1"",""6815""
","
","
","""event"",""trial"",""time""
""fullscreenenter"",""1"",""6815""
","
",,1280.6,"<p>If you don't make your choice fast enough, you’ll have to wait a few seconds before you can make another one.</p><p>You can’t dig for more gems or travel to new planets. You just have to sit and wait.</p><br><p><img src='run_exp/static/images/task_images/time_out.jpg'  height='600' width='auto'></p>",,,,,,,1,,,,,,,,,,,,,,,,,,
html-keyboard-response,20,163378,0.0-8.0-2.0,"""event"",""trial"",""time""
""fullscreenenter"",""1"",""6815""
","
","
","""event"",""trial"",""time""
""fullscreenenter"",""1"",""6815""
","
",,842.7,"<p>If you don't make your choice fast enough, you’ll have to wait a few seconds before you can make another one.</p><p>You can’t dig for more gems or travel to new planets. You just have to sit and wait.</p><br><p><img src='run_exp/static/images/task_images/time_out.jpg'  height='600' width='auto'></p><button class=""jspsych-html-btn-unchosen""><img src=""run_exp/static/images/task_images/planet-01.jpg"" height=""50""></button><button class=""jspsych-html-btn-chosen""><img src=""run_exp/static/images/task_images/planet-02.jpg"" height=""50""></button><p><b>[press the space bar to lock in your answer]<b><br></p>",32,,,,,,,,,,,,,,,,,,,,,,,,
instruc_break,21,179064,0.0-9.0-0.0,"""event"",""trial"",""time""
""fullscreenenter"",""1"",""6815""
","
","
","""event"",""trial"",""time""
""fullscreenenter"",""1"",""6815""
","
",,null,run_exp/static/audio/clip_8_break.m4a,null,"<p> After digging and traveling for a while, you’ll be able to take a break at home base. </p><p>The game will last 20 minutes no matter what.</p><p>You will visit home base every 5 minutes, so, you will visit home base three times during the game.</p><br><p><img src='run_exp/static/images/task_images/home_base.jpg' height='600' width='auto'></p>",,,,,,,,,,,,,,,,,,,,,,,
instruc_break,22,180887,0.0-9.0-1.0,"""event"",""trial"",""time""
""fullscreenenter"",""1"",""6815""
","
","
","""event"",""trial"",""time""
""fullscreenenter"",""1"",""6815""
","
",,1820.4,"<p> After digging and traveling for a while, you’ll be able to take a break at home base. </p><p>The game will last 20 minutes no matter what.</p><p>You will visit home base every 5 minutes, so, you will visit home base three times during the game.</p><br><p><img src='run_exp/static/images/task_images/home_base.jpg' height='600' width='auto'></p>",,,,,,,1,,,,,,,,,,,,,,,,,,
html-keyboard-response,23,181902,0.0-9.0-2.0,"""event"",""trial"",""time""
""fullscreenenter"",""1"",""6815""
","
","
","""event"",""trial"",""time""
""fullscreenenter"",""1"",""6815""
","
",,1013.1,"<p> After digging and traveling for a while, you’ll be able to take a break at home base. </p><p>The game will last 20 minutes no matter what.</p><p>You will visit home base every 5 minutes, so, you will visit home base three times during the game.</p><br><p><img src='run_exp/static/images/task_images/home_base.jpg' height='600' width='auto'></p><button class=""jspsych-html-btn-unchosen""><img src=""run_exp/static/images/task_images/planet-01.jpg"" height=""50""></button><button class=""jspsych-html-btn-chosen""><img src=""run_exp/static/images/task_images/planet-02.jpg"" height=""50""></button><p><b>[press the space bar to lock in your answer]<b><br></p>",32,,,,,,,,,,,,,,,,,,,,,,,,
instruc_prac_game,24,192035,0.0-10.0-0.0,"""event"",""trial"",""time""
""fullscreenenter"",""1"",""6815""
","
","
","""event"",""trial"",""time""
""fullscreenenter"",""1"",""6815""
","
",,null,run_exp/static/audio/clip_9_practice.m4a,null,"<p> Are you ready to play a practice game? </p> <p>In this practice game, you'll be digging up barrels of gems. But, in the real game, you'll be digging up the gems themselves. </p>",,,,,,,,,,,,,,,,,,,,,,,
html-button-response,25,195355,0.0-10.0-1.0,"""event"",""trial"",""time""
""fullscreenenter"",""1"",""6815""
","
","
","""event"",""trial"",""time""
""fullscreenenter"",""1"",""6815""
","
",,3318.9,"<p> Are you ready to play a practice game? </p> <p>In this practice game, you'll be digging up barrels of gems. But, in the real game, you'll be digging up the gems themselves. </p>",,,,,,,0,,,,,,,,,,,,,,,,,,
alien_welcome_prac,26,200365,0.0-11.0-0.0,"""event"",""trial"",""time""
""fullscreenenter"",""1"",""6815""
","
","
","""event"",""trial"",""time""
""fullscreenenter"",""1"",""6815""
","
",,null,run_exp/static/images/task_images/aliens/practice_aliens/planet/alien_planet-5.jpg,null,,,,,,,,,,,,,,,,,,,,,,,,
land_prac,27,200870,0.0-11.0-1.0,"""event"",""trial"",""time""
""fullscreenenter"",""1"",""6815""
","
","
","""event"",""trial"",""time""
""fullscreenenter"",""1"",""6815""
","
",,null,run_exp/static/images/task_images/land.jpg,null,,,,,,,94,,,0,,,,,,,,,,,,,,
dig_prac,28,202882,0.0-11.0-2.0,"""event"",""trial"",""time""
""fullscreenenter"",""1"",""6815""
","
","
","""event"",""trial"",""time""
""fullscreenenter"",""1"",""6815""
","
",,,,,,,,,,,,"[{""stimulus"":""run_exp/static/images/task_images/dig.jpg"",""time"":0.4000000059604645},{""stimulus"":""run_exp/static/images/task_images/land.jpg"",""time"":679.5},{""stimulus"":""run_exp/static/images/task_images/dig.jpg"",""time"":1336.5}]",[],,,,,,,,,,,,,,,
harvest_prac,29,203887,0.0-11.0-3.0,"""event"",""trial"",""time""
""fullscreenenter"",""1"",""6815""
","
","
","""event"",""trial"",""time""
""fullscreenenter"",""1"",""6815""
","
",,null,run_exp/static/images/task_images/barrel_text.jpg,null,,,,,,,,,,,,,,,,,,,,,,,,
decision_prac,30,204132,0.0-11.0-4.0,"""event"",""trial"",""time""
""fullscreenenter"",""1"",""6815""
","
","
","""event"",""trial"",""time""
""fullscreenenter"",""1"",""6815""
","
",,243.5,run_exp/static/images/task_images/land.jpg,65,,,,,,,,,,,1,,,,,,,,,,,,,
dig_prac,31,206138,0.0-12.0-0.0,"""event"",""trial"",""time""
""fullscreenenter"",""1"",""6815""
","
","
","""event"",""trial"",""time""
""fullscreenenter"",""1"",""6815""
","
",,,,,,,,,,,,"[{""stimulus"":""run_exp/static/images/task_images/dig.jpg"",""time"":0.30000001192092896},{""stimulus"":""run_exp/static/images/task_images/land.jpg"",""time"":669},{""stimulus"":""run_exp/static/images/task_images/dig.jpg"",""time"":1336.199999988079}]",[],,,,,,,,,,,,,,,
harvest_prac,32,207154,0.0-12.0-1.0,"""event"",""trial"",""time""
""fullscreenenter"",""1"",""6815""
","
","
","""event"",""trial"",""time""
""fullscreenenter"",""1"",""6815""
","
",,null,run_exp/static/images/task_images/barrel_text.jpg,null,,,,,,,,,,,,,,,,,,,,,,,,
decision_prac,33,208596,0.0-12.0-2.0,"""event"",""trial"",""time""
""fullscreenenter"",""1"",""6815""
","
","
","""event"",""trial"",""time""
""fullscreenenter"",""1"",""6815""
","
",,1440.9,run_exp/static/images/task_images/land.jpg,65,,,,,,,,,,,2,,,,,,,,,,,,,
dig_prac,34,210606,0.0-13.0-0.0,"""event"",""trial"",""time""
""fullscreenenter"",""1"",""6815""
","
","
","""event"",""trial"",""time""
""fullscreenenter"",""1"",""6815""
","
",,,,,,,,,,,,"[{""stimulus"":""run_exp/static/images/task_images/dig.jpg"",""time"":0.4000000059604645},{""stimulus"":""run_exp/static/images/task_images/land.jpg"",""time"":672.5999999940395},{""stimulus"":""run_exp/static/images/task_images/dig.jpg"",""time"":1339.699999988079}]",[],,,,,,,,,,,,,,,
harvest_prac,35,211619,0.0-13.0-1.0,"""event"",""trial"",""time""
""fullscreenenter"",""1"",""6815""
","
","
","""event"",""trial"",""time""
""fullscreenenter"",""1"",""6815""
","
",,null,run_exp/static/images/task_images/barrel_text.jpg,null,,,,,,,,,,,,,,,,,,,,,,,,
decision_prac,36,211637,0.0-13.0-2.0,"""event"",""trial"",""time""
""fullscreenenter"",""1"",""6815""
","
","
","""event"",""trial"",""time""
""fullscreenenter"",""1"",""6815""
","
",,16.19999999,run_exp/static/images/task_images/land.jpg,65,,,,,,,,,,,3,,,,,,,,,,,,,
dig_prac,37,213646,0.0-14.0-0.0,"""event"",""trial"",""time""
""fullscreenenter"",""1"",""6815""
","
","
","""event"",""trial"",""time""
""fullscreenenter"",""1"",""6815""
","
",,,,,,,,,,,,"[{""stimulus"":""run_exp/static/images/task_images/dig.jpg"",""time"":0.30000001192092896},{""stimulus"":""run_exp/static/images/task_images/land.jpg"",""time"":671.5},{""stimulus"":""run_exp/static/images/task_images/dig.jpg"",""time"":1343.5}]",[],,,,,,,,,,,,,,,
harvest_prac,38,214648,0.0-14.0-1.0,"""event"",""trial"",""time""
""fullscreenenter"",""1"",""6815""
","
","
","""event"",""trial"",""time""
""fullscreenenter"",""1"",""6815""
","
",,null,run_exp/static/images/task_images/barrel_text.jpg,null,,,,,,,,,,,,,,,,,,,,,,,,
decision_prac,39,215231,0.0-14.0-2.0,"""event"",""trial"",""time""
""fullscreenenter"",""1"",""6815""
","
","
","""event"",""trial"",""time""
""fullscreenenter"",""1"",""6815""
","
",,580.8,run_exp/static/images/task_images/land.jpg,65,,,,,,,,,,,4,,,,,,,,,,,,,
dig_prac,40,217242,0.0-15.0-0.0,"""event"",""trial"",""time""
""fullscreenenter"",""1"",""6815""
","
","
","""event"",""trial"",""time""
""fullscreenenter"",""1"",""6815""
","
",,,,,,,,,,,,"[{""stimulus"":""run_exp/static/images/task_images/dig.jpg"",""time"":0.19999998807907104},{""stimulus"":""run_exp/static/images/task_images/land.jpg"",""time"":674.6999999880791},{""stimulus"":""run_exp/static/images/task_images/dig.jpg"",""time"":1340.199999988079}]",[],,,,,,,,,,,,,,,
harvest_prac,41,218254,0.0-15.0-1.0,"""event"",""trial"",""time""
""fullscreenenter"",""1"",""6815""
","
","
","""event"",""trial"",""time""
""fullscreenenter"",""1"",""6815""
","
",,null,run_exp/static/images/task_images/barrel_text.jpg,null,,,,,,,,,,,,,,,,,,,,,,,,
decision_prac,42,219655,0.0-15.0-2.0,"""event"",""trial"",""time""
""fullscreenenter"",""1"",""6815""
","
","
","""event"",""trial"",""time""
""fullscreenenter"",""1"",""6815""
","
",,1399.6,run_exp/static/images/task_images/land.jpg,65,,,,,,,,,,,,1,,,,,,,,,,,,
quiz_instruc,43,229853,0.0-16.0-0.0,"""event"",""trial"",""time""
""fullscreenenter"",""1"",""6815""
","
","
","""event"",""trial"",""time""
""fullscreenenter"",""1"",""6815""
","
",,10194.2,run_exp/static/audio/clip_10_quiz.m4a,,,,,,,0,,,,,,,,,,,,,,,,,,
instruc_repeat,44,272640,0.0-16.0-1.0,"""event"",""trial"",""time""
""fullscreenenter"",""1"",""6815""
","
","
","""event"",""trial"",""time""
""fullscreenenter"",""1"",""6815""
","
",,null,"<p> Are you ready to play a practice game? </p> <p>In this practice game, you'll be digging up barrels of gems. But, in the real game, you'll be digging up the gems themselves. </p>",null,"<p>In this game, your goal is to collect as many gems as you can. That’s how you will win bonus money. </p> <p>The entire game will last 20 minutes no matter how many gems you collect or how many planets you visit. </p><p>To stay on a planet and dig again, press the letter A on your keyboard. To leave for a new planet, press the letter L.</p><p>The more you dig on a planet, the fewer gems you’ll get with each dig which is why you might consider leaving for a new planet. </p><p>When you arrive at a new planet, you’ll be greeted by an alien. What the alien looks like does not tell you anything about how much treasure is on the planet. </p>",,,,,,,,,,,,,,,,,,,,,,,
instruc_repeat_continue,45,273745,0.0-16.0-2.0,"""event"",""trial"",""time""
""fullscreenenter"",""1"",""6815""
","
","
","""event"",""trial"",""time""
""fullscreenenter"",""1"",""6815""
","
",,1103.1,"<p> Are you ready to play a practice game? </p> <p>In this practice game, you'll be digging up barrels of gems. But, in the real game, you'll be digging up the gems themselves. </p>",,,,,,,0,,,,,,,,,,,,,,,,,,
quiz_q_1_ask,46,284076,0.0-16.0-3.0,"""event"",""trial"",""time""
""fullscreenenter"",""1"",""6815""
","
","
","""event"",""trial"",""time""
""fullscreenenter"",""1"",""6815""
","
",,10327.4,run_exp/static/audio/clip_11_q1_ask.m4a,,,,,,,2,,,,,,,,,,,,,,,,,,
quiz_q_1_fb_correct,47,287937,0.0-17.0-0.0,"""event"",""trial"",""time""
""fullscreenenter"",""1"",""6815""
","
","
","""event"",""trial"",""time""
""fullscreenenter"",""1"",""6815""
","
",,null,run_exp/static/audio/clip_12_q1_correct.m4a,null,<p>That’s correct. You win extra money by collecting more gems.</p>,,,,,,,,,,,,,,,,,,,,,,,
quiz_q_2_ask,48,296443,0.0-17.0-1.0,"""event"",""trial"",""time""
""fullscreenenter"",""1"",""6815""
","
","
","""event"",""trial"",""time""
""fullscreenenter"",""1"",""6815""
","
",,8504,run_exp/static/audio/clip_14_q2_ask.m4a,,,,,,,1,,,,,,,,,,,,,,,,,,
quiz_q_2_fb_correct,49,300457,0.0-18.0-0.0,"""event"",""trial"",""time""
""fullscreenenter"",""1"",""6815""
","
","
","""event"",""trial"",""time""
""fullscreenenter"",""1"",""6815""
","
",,null,run_exp/static/audio/clip_15_q2_correct.m4a,null,<p>That’s correct. The experiment is 20 minutes no matter what.</p>,,,,,,,,,,,,,,,,,,,,,,,
quiz_q_3_ask,50,304404,0.0-18.0-1.0,"""event"",""trial"",""time""
""fullscreenenter"",""1"",""6815""
","
","
","""event"",""trial"",""time""
""fullscreenenter"",""1"",""6815""
","
",,3944.3,run_exp/static/audio/clip_17_q3_ask.m4a,,,,,,,1,,,,,,,,,,,,,,,,,,
quiz_q_3_fb_correct,51,308415,0.0-19.0-0.0,"""event"",""trial"",""time""
""fullscreenenter"",""1"",""6815""
","
","
","""event"",""trial"",""time""
""fullscreenenter"",""1"",""6815""
","
",,null,run_exp/static/audio/clip_18_q3_correct.m4a,null,<p> That’s correct. You press the letter L to travel to a new planet.</p>,,,,,,,,,,,,,,,,,,,,,,,
quiz_q_4_ask,52,312908,0.0-19.0-1.0,"""event"",""trial"",""time""
""fullscreenenter"",""1"",""6815""
","
","
","""event"",""trial"",""time""
""fullscreenenter"",""1"",""6815""
","
",,4490.8,run_exp/static/audio/clip_20_q4_ask.m4a,,,,,,,0,,,,,,,,,,,,,,,,,,
quiz_q_4_fb_correct,53,318250,0.0-20.0-0.0,"""event"",""trial"",""time""
""fullscreenenter"",""1"",""6815""
","
","
","""event"",""trial"",""time""
""fullscreenenter"",""1"",""6815""
","
",,null,run_exp/static/audio/clip_21_q4_correct.m4a,null,<p> That’s correct. The more you dig on a planet the fewer gems you’ll get with each dig. </p>,,,,,,,,,,,,,,,,,,,,,,,
quiz_q_5_ask,54,321047,0.0-20.0-1.0,"""event"",""trial"",""time""
""fullscreenenter"",""1"",""6815""
","
","
","""event"",""trial"",""time""
""fullscreenenter"",""1"",""6815""
","
",,2793.8,run_exp/static/audio/clip_23_q5_ask.m4a,,,,,,,1,,,,,,,,,,,,,,,,,,
quiz_q_5_fb_correct,55,326059,0.0-21.0-0.0,"""event"",""trial"",""time""
""fullscreenenter"",""1"",""6815""
","
","
","""event"",""trial"",""time""
""fullscreenenter"",""1"",""6815""
","
",,null,run_exp/static/audio/clip_24_q5_correct.m4a,null,<p> That’s correct. The alien tells you nothing about how much treasure is on the planet.</p>,,,,,,,,,,,,,,,,,,,,,,,
quiz_correct,56,329537,0.0-22.0-0.0,"""event"",""trial"",""time""
""fullscreenenter"",""1"",""6815""
","
","
","""event"",""trial"",""time""
""fullscreenenter"",""1"",""6815""
","
",,null,run_exp/static/audio/clip_26_correct_quiz.m4a,null,,,,,,,,,,,,,,,,,,,,,,,,
quiz_correct_continue,57,332519,0.0-22.0-1.0,"""event"",""trial"",""time""
""fullscreenenter"",""1"",""6815""
","
","
","""event"",""trial"",""time""
""fullscreenenter"",""1"",""6815""
","
",,2980.9,<p>Good job! You're now ready to move on to the real game!</p>,,,,,,,0,,,,,,,,,,,,,,,,,,
audio-keyboard-response,58,342657,0.0-22.0-2.0,"""event"",""trial"",""time""
""fullscreenenter"",""1"",""6815""
","
","
","""event"",""trial"",""time""
""fullscreenenter"",""1"",""6815""
","
",,null,run_exp/static/audio/clip_28_real_game.m4a,null,,,,,,,,,,,,,,,,,,,,,,,,
instruc_begin_exp_contine,59,347127,0.0-22.0-3.0,"""event"",""trial"",""time""
""fullscreenenter"",""1"",""6815""
","
","
","""event"",""trial"",""time""
""fullscreenenter"",""1"",""6815""
","
",,4467.9,"<p>Now that you know how  to dig for space treasure and travel to new planets,you can start exploring! </p><p>Do you want to go over the instructions again or get started with the real game?</p>",,,,,,,1,,,,,,1,,,,,,,,,,,,
alien_welcome,60,352137,0.0-23.0-0.0,"""event"",""trial"",""time""
""fullscreenenter"",""1"",""6815""
","
","
","""event"",""trial"",""time""
""fullscreenenter"",""1"",""6815""
","
",,null,run_exp/static/images/task_images/aliens/old_aliens/planet/alien_planet-27.jpg,null,,,,,,,,,,,,,27,"27,19,4,35,29,49,22,24,34,53,70,39,44,65,12,56,37,38,64,74,18,26,36",,,,,,,,,,
land,61,352646,0.0-23.0-1.0,"""event"",""trial"",""time""
""fullscreenenter"",""1"",""6815""
","
","
","""event"",""trial"",""time""
""fullscreenenter"",""1"",""6815""
","
",,null,run_exp/static/images/task_images/land.jpg,null,,,,,,,102,,,1,,,,,,,,,,,,,,
dig,62,354653,0.0-23.0-2.0,"""event"",""trial"",""time""
""fullscreenenter"",""1"",""6815""
","
","
","""event"",""trial"",""time""
""fullscreenenter"",""1"",""6815""
","
",,,,,,,,,,,,"[{""stimulus"":""run_exp/static/images/task_images/dig.jpg"",""time"":0.4000000059604645},{""stimulus"":""run_exp/static/images/task_images/land.jpg"",""time"":669.9000000059605},{""stimulus"":""run_exp/static/images/task_images/dig.jpg"",""time"":1339.300000011921}]",[],1,,,,,,,,,,,,,,
harvest,63,355659,0.0-23.0-3.0,"""event"",""trial"",""time""
""fullscreenenter"",""1"",""6815""
","
","
","""event"",""trial"",""time""
""fullscreenenter"",""1"",""6815""
","
",,null,run_exp/static/images/task_images/gems/102.jpg,null,,,,,,,12,,,1,,,,,102,0.118167282,0.117647059,,,,,,,
decision,64,356829,0.0-23.0-4.0,"""event"",""trial"",""time""
""fullscreenenter"",""1"",""6815""
","
","
","""event"",""trial"",""time""
""fullscreenenter"",""1"",""6815""
","
",,1168.4,run_exp/static/images/task_images/land.jpg,65,,,,,,,12,,,1,,,,,,,,9701,1,0,FALSE,,,
dig,65,358667,0.0-24.0-0.0,"""event"",""trial"",""time""
""fullscreenenter"",""1"",""6815""
","
","
","""event"",""trial"",""time""
""fullscreenenter"",""1"",""6815""
","
",,,,,,,,,,,,"[{""stimulus"":""run_exp/static/images/task_images/dig.jpg"",""time"":0.3999999761581421},{""stimulus"":""run_exp/static/images/task_images/land.jpg"",""time"":618.7999999821186},{""stimulus"":""run_exp/static/images/task_images/dig.jpg"",""time"":1222.699999988079}]",[],1,,,,,,,,,,,,,,
harvest,66,359672,0.0-24.0-1.0,"""event"",""trial"",""time""
""fullscreenenter"",""1"",""6815""
","
","
","""event"",""trial"",""time""
""fullscreenenter"",""1"",""6815""
","
",,null,run_exp/static/images/task_images/gems/12.jpg,null,,,,,,,2,,,1,,,,,12,0.145896027,0.166666667,,,,,,,
decision,67,360112,0.0-24.0-2.0,"""event"",""trial"",""time""
""fullscreenenter"",""1"",""6815""
","
","
","""event"",""trial"",""time""
""fullscreenenter"",""1"",""6815""
","
",,437.8,run_exp/static/images/task_images/land.jpg,65,,,,,,,2,,,1,,,,,,,,12983,1,1,FALSE,,,
dig,68,362689,0.0-25.0-0.0,"""event"",""trial"",""time""
""fullscreenenter"",""1"",""6815""
","
","
","""event"",""trial"",""time""
""fullscreenenter"",""1"",""6815""
","
",,,,,,,,,,,,"[{""stimulus"":""run_exp/static/images/task_images/dig.jpg"",""time"":0.20000001788139343},{""stimulus"":""run_exp/static/images/task_images/land.jpg"",""time"":858.6000000238419},{""stimulus"":""run_exp/static/images/task_images/dig.jpg"",""time"":1719.5}]",[],1,,,,,,,,,,,,,,
harvest,69,363691,0.0-25.0-1.0,"""event"",""trial"",""time""
""fullscreenenter"",""1"",""6815""
","
","
","""event"",""trial"",""time""
""fullscreenenter"",""1"",""6815""
","
",,null,run_exp/static/images/task_images/gems/2.jpg,null,,,,,,,1,,,1,,,,,2,0.285103622,0.5,,,,,,,
decision,70,366695,0.0-25.0-2.0,"""event"",""trial"",""time""
""fullscreenenter"",""1"",""6815""
","
","
","""event"",""trial"",""time""
""fullscreenenter"",""1"",""6815""
","
",,null,run_exp/static/images/task_images/land.jpg,null,,,,,,,1,,,1,,,,,,,,19566,1,2,FALSE,,,
time_out,71,368706,0.0-26.0-0.0,"""event"",""trial"",""time""
""fullscreenenter"",""1"",""6815""
","
","
","""event"",""trial"",""time""
""fullscreenenter"",""1"",""6815""
","
",,null,run_exp/static/images/task_images/time_out.jpg,null,,,,,,,1,,,,,,,,,,,,,,,,,
decision,72,369762,0.0-26.0-1.0,"""event"",""trial"",""time""
""fullscreenenter"",""1"",""6815""
","
","
","""event"",""trial"",""time""
""fullscreenenter"",""1"",""6815""
","
",,1053.8,run_exp/static/images/task_images/land.jpg,76,,,,,,,1,,,1,,,,,,,,22633,1,2,TRUE,,,
travel,73,378713,0.0-27.0-0.0,"""event"",""trial"",""time""
""fullscreenenter"",""1"",""6815""
","
","
","""event"",""trial"",""time""
""fullscreenenter"",""1"",""6815""
","
",,,,,,,,,,,,"[{""stimulus"":""run_exp/static/images/task_images/rocket-01.jpg"",""time"":0.20000001788139343},{""stimulus"":""run_exp/static/images/task_images/rocket-02.jpg"",""time"":995.2000000178814},{""stimulus"":""run_exp/static/images/task_images/rocket-03.jpg"",""time"":1995.0999999940395},{""stimulus"":""run_exp/static/images/task_images/rocket-04.jpg"",""time"":2988.800000011921},{""stimulus"":""run_exp/static/images/task_images/rocket-05.jpg"",""time"":3979.4000000059605},{""stimulus"":""run_exp/static/images/task_images/rocket-06.jpg"",""time"":4980},{""stimulus"":""run_exp/static/images/task_images/rocket-07.jpg"",""time"":5980.200000017881},{""stimulus"":""run_exp/static/images/task_images/rocket-08.jpg"",""time"":6963.5999999940395},{""stimulus"":""run_exp/static/images/task_images/rocket-09.jpg"",""time"":7964.5}]",[],1,,,,,,,,,,,,,,
alien_welcome,74,383730,0.0-27.0-1.0,"""event"",""trial"",""time""
""fullscreenenter"",""1"",""6815""
","
","
","""event"",""trial"",""time""
""fullscreenenter"",""1"",""6815""
","
",,null,run_exp/static/images/task_images/aliens/old_aliens/planet/alien_planet-19.jpg,null,,,,,,,,,,,,,19,"27,19,4,35,29,49,22,24,34,53,70,39,44,65,12,56,37,38,64,74,18,26,36",,,,,,,,,,
land,75,384240,0.0-27.0-2.0,"""event"",""trial"",""time""
""fullscreenenter"",""1"",""6815""
","
","
","""event"",""trial"",""time""
""fullscreenenter"",""1"",""6815""
","
",,null,run_exp/static/images/task_images/land.jpg,null,,,,,,,107,,,2,,,,,,,,,,,,,,
dig,76,386248,0.0-27.0-3.0,"""event"",""trial"",""time""
""fullscreenenter"",""1"",""6815""
","
","
","""event"",""trial"",""time""
""fullscreenenter"",""1"",""6815""
","
",,,,,,,,,,,,"[{""stimulus"":""run_exp/static/images/task_images/dig.jpg"",""time"":0.4000000059604645},{""stimulus"":""run_exp/static/images/task_images/land.jpg"",""time"":672.7000000178814},{""stimulus"":""run_exp/static/images/task_images/dig.jpg"",""time"":1339.1000000238419}]",[],2,,,,,,,,,,,,,,
harvest,77,387258,0.0-27.0-4.0,"""event"",""trial"",""time""
""fullscreenenter"",""1"",""6815""
","
","
","""event"",""trial"",""time""
""fullscreenenter"",""1"",""6815""
","
",,null,run_exp/static/images/task_images/gems/107.jpg,null,,,,,,,23,,,2,,,,,107,0.218652185,0.214953271,,,,,,,
decision,78,387412,0.0-27.0-5.0,"""event"",""trial"",""time""
""fullscreenenter"",""1"",""6815""
","
","
","""event"",""trial"",""time""
""fullscreenenter"",""1"",""6815""
","
",,152.7,run_exp/static/images/task_images/land.jpg,65,,,,,,,23,,,2,,,,,,,,40283,1,0,FALSE,,,
dig,79,390266,0.0-28.0-0.0,"""event"",""trial"",""time""
""fullscreenenter"",""1"",""6815""
","
","
","""event"",""trial"",""time""
""fullscreenenter"",""1"",""6815""
","
",,,,,,,,,,,,"[{""stimulus"":""run_exp/static/images/task_images/dig.jpg"",""time"":0.4000000059604645},{""stimulus"":""run_exp/static/images/task_images/land.jpg"",""time"":958.5999999940395},{""stimulus"":""run_exp/static/images/task_images/dig.jpg"",""time"":1900.4000000059605}]",[],2,,,,,,,,,,,,,,
harvest,80,391277,0.0-28.0-1.0,"""event"",""trial"",""time""
""fullscreenenter"",""1"",""6815""
","
","
","""event"",""trial"",""time""
""fullscreenenter"",""1"",""6815""
","
",,null,run_exp/static/images/task_images/gems/23.jpg,null,,,,,,,5,,,2,,,,,23,0.230194516,0.217391304,,,,,,,
decision,81,393024,0.0-28.0-2.0,"""event"",""trial"",""time""
""fullscreenenter"",""1"",""6815""
","
","
","""event"",""trial"",""time""
""fullscreenenter"",""1"",""6815""
","
",,1744.7,run_exp/static/images/task_images/land.jpg,65,,,,,,,5,,,2,,,,,,,,45895,1,1,FALSE,,,
dig,82,394284,0.0-29.0-0.0,"""event"",""trial"",""time""
""fullscreenenter"",""1"",""6815""
","
","
","""event"",""trial"",""time""
""fullscreenenter"",""1"",""6815""
","
",,,,,,,,,,,,"[{""stimulus"":""run_exp/static/images/task_images/dig.jpg"",""time"":0.29999998211860657},{""stimulus"":""run_exp/static/images/task_images/land.jpg"",""time"":421.89999997615814},{""stimulus"":""run_exp/static/images/task_images/dig.jpg"",""time"":839.8999999761581}]",[],2,,,,,,,,,,,,,,
harvest,83,395300,0.0-29.0-1.0,"""event"",""trial"",""time""
""fullscreenenter"",""1"",""6815""
","
","
","""event"",""trial"",""time""
""fullscreenenter"",""1"",""6815""
","
",,null,run_exp/static/images/task_images/gems/5.jpg,null,,,,,,,1,,,2,,,,,5,0.247587256,0.2,,,,,,,
decision,84,395653,0.0-29.0-2.0,"""event"",""trial"",""time""
""fullscreenenter"",""1"",""6815""
","
","
","""event"",""trial"",""time""
""fullscreenenter"",""1"",""6815""
","
",,351.8,run_exp/static/images/task_images/land.jpg,65,,,,,,,1,,,2,,,,,,,,48524,1,2,FALSE,,,
dig,85,398318,0.0-30.0-0.0,"""event"",""trial"",""time""
""fullscreenenter"",""1"",""6815""
","
","
","""event"",""trial"",""time""
""fullscreenenter"",""1"",""6815""
","
",,,,,,,,,,,,"[{""stimulus"":""run_exp/static/images/task_images/dig.jpg"",""time"":0.19999998807907104},{""stimulus"":""run_exp/static/images/task_images/land.jpg"",""time"":885.4000000059605},{""stimulus"":""run_exp/static/images/task_images/dig.jpg"",""time"":1779}]",[],2,,,,,,,,,,,,,,
harvest,86,399331,0.0-30.0-1.0,"""event"",""trial"",""time""
""fullscreenenter"",""1"",""6815""
","
","
","""event"",""trial"",""time""
""fullscreenenter"",""1"",""6815""
","
",,null,run_exp/static/images/task_images/gems/1.jpg,null,,,,,,,0,,,2,,,,,1,0.229083669,0,,,,,,,
decision,87,401221,0.0-30.0-2.0,"""event"",""trial"",""time""
""fullscreenenter"",""1"",""6815""
","
","
","""event"",""trial"",""time""
""fullscreenenter"",""1"",""6815""
","
",,1887.7,run_exp/static/images/task_images/land.jpg,65,,,,,,,0,,,2,,,,,,,,54092,1,3,FALSE,,,
dig,88,402337,0.0-31.0-0.0,"""event"",""trial"",""time""
""fullscreenenter"",""1"",""6815""
","
","
","""event"",""trial"",""time""
""fullscreenenter"",""1"",""6815""
","
",,,,,,,,,,,,"[{""stimulus"":""run_exp/static/images/task_images/dig.jpg"",""time"":0.20000001788139343},{""stimulus"":""run_exp/static/images/task_images/land.jpg"",""time"":375.80000001192093},{""stimulus"":""run_exp/static/images/task_images/dig.jpg"",""time"":742}]",[],2,,,,,,,,,,,,,,
harvest,89,403352,0.0-31.0-1.0,"""event"",""trial"",""time""
""fullscreenenter"",""1"",""6815""
","
","
","""event"",""trial"",""time""
""fullscreenenter"",""1"",""6815""
","
",,null,run_exp/static/images/task_images/gems/0.jpg,null,,,,,,,0,,,2,,,,,0,0.292518873,NaN,,,,,,,
decision,90,404351,0.0-31.0-2.0,"""event"",""trial"",""time""
""fullscreenenter"",""1"",""6815""
","
","
","""event"",""trial"",""time""
""fullscreenenter"",""1"",""6815""
","
",,996.7,run_exp/static/images/task_images/land.jpg,76,,,,,,,0,,,2,,,,,,,,57222,1,4,TRUE,,,
travel,91,413358,0.0-32.0-0.0,"""event"",""trial"",""time""
""fullscreenenter"",""1"",""6815""
","
","
","""event"",""trial"",""time""
""fullscreenenter"",""1"",""6815""
","
",,,,,,,,,,,,"[{""stimulus"":""run_exp/static/images/task_images/rocket-01.jpg"",""time"":0.30000001192092896},{""stimulus"":""run_exp/static/images/task_images/rocket-02.jpg"",""time"":1009.5999999940395},{""stimulus"":""run_exp/static/images/task_images/rocket-03.jpg"",""time"":2012.2000000178814},{""stimulus"":""run_exp/static/images/task_images/rocket-04.jpg"",""time"":3014.800000011921},{""stimulus"":""run_exp/static/images/task_images/rocket-05.jpg"",""time"":4001.4000000059605},{""stimulus"":""run_exp/static/images/task_images/rocket-06.jpg"",""time"":5001.5999999940395},{""stimulus"":""run_exp/static/images/task_images/rocket-07.jpg"",""time"":6002.200000017881},{""stimulus"":""run_exp/static/images/task_images/rocket-08.jpg"",""time"":7002.5999999940395},{""stimulus"":""run_exp/static/images/task_images/rocket-09.jpg"",""time"":8002.9000000059605}]",[],2,,,,,,,,,,,,,,
alien_welcome,92,418367,0.0-32.0-1.0,"""event"",""trial"",""time""
""fullscreenenter"",""1"",""6815""
","
","
","""event"",""trial"",""time""
""fullscreenenter"",""1"",""6815""
","
",,null,run_exp/static/images/task_images/aliens/old_aliens/planet/alien_planet-4.jpg,null,,,,,,,,,,,,,4,"27,19,4,35,29,49,22,24,34,53,70,39,44,65,12,56,37,38,64,74,18,26,36",,,,,,,,,,
land,93,418875,0.0-32.0-2.0,"""event"",""trial"",""time""
""fullscreenenter"",""1"",""6815""
","
","
","""event"",""trial"",""time""
""fullscreenenter"",""1"",""6815""
","
",,null,run_exp/static/images/task_images/land.jpg,null,,,,,,,105,,,3,,,,,,,,,,,,,,
dig,94,420885,0.0-32.0-3.0,"""event"",""trial"",""time""
""fullscreenenter"",""1"",""6815""
","
","
","""event"",""trial"",""time""
""fullscreenenter"",""1"",""6815""
","
",,,,,,,,,,,,"[{""stimulus"":""run_exp/static/images/task_images/dig.jpg"",""time"":0.4000000059604645},{""stimulus"":""run_exp/static/images/task_images/land.jpg"",""time"":674.2000000178814},{""stimulus"":""run_exp/static/images/task_images/dig.jpg"",""time"":1346.2000000178814}]",[],3,,,,,,,,,,,,,,
harvest,95,421893,0.0-32.0-4.0,"""event"",""trial"",""time""
""fullscreenenter"",""1"",""6815""
","
","
","""event"",""trial"",""time""
""fullscreenenter"",""1"",""6815""
","
",,null,run_exp/static/images/task_images/gems/105.jpg,null,,,,,,,45,,,3,,,,,105,0.432518704,0.428571429,,,,,,,
decision,96,421961,0.0-32.0-5.0,"""event"",""trial"",""time""
""fullscreenenter"",""1"",""6815""
","
","
","""event"",""trial"",""time""
""fullscreenenter"",""1"",""6815""
","
",,66,run_exp/static/images/task_images/land.jpg,65,,,,,,,45,,,3,,,,,,,,74832,1,0,FALSE,,,
dig,97,424907,0.0-33.0-0.0,"""event"",""trial"",""time""
""fullscreenenter"",""1"",""6815""
","
","
","""event"",""trial"",""time""
""fullscreenenter"",""1"",""6815""
","
",,,,,,,,,,,,"[{""stimulus"":""run_exp/static/images/task_images/dig.jpg"",""time"":0.19999998807907104},{""stimulus"":""run_exp/static/images/task_images/land.jpg"",""time"":980.2999999821186},{""stimulus"":""run_exp/static/images/task_images/dig.jpg"",""time"":1963.7999999821186}]",[],3,,,,,,,,,,,,,,
harvest,98,425913,0.0-33.0-1.0,"""event"",""trial"",""time""
""fullscreenenter"",""1"",""6815""
","
","
","""event"",""trial"",""time""
""fullscreenenter"",""1"",""6815""
","
",,null,run_exp/static/images/task_images/gems/45.jpg,null,,,,,,,22,,,3,,,,,45,0.498229839,0.488888889,,,,,,,
decision,99,427293,0.0-33.0-2.0,"""event"",""trial"",""time""
""fullscreenenter"",""1"",""6815""
","
","
","""event"",""trial"",""time""
""fullscreenenter"",""1"",""6815""
","
",,1378.5,run_exp/static/images/task_images/land.jpg,65,,,,,,,22,,,3,,,,,,,,80164,1,1,FALSE,,,
dig,100,428930,0.0-34.0-0.0,"""event"",""trial"",""time""
""fullscreenenter"",""1"",""6815""
","
","
","""event"",""trial"",""time""
""fullscreenenter"",""1"",""6815""
","
",,,,,,,,,,,,"[{""stimulus"":""run_exp/static/images/task_images/dig.jpg"",""time"":0.19999998807907104},{""stimulus"":""run_exp/static/images/task_images/land.jpg"",""time"":549.5},{""stimulus"":""run_exp/static/images/task_images/dig.jpg"",""time"":1082.0999999940395}]",[],3,,,,,,,,,,,,,,
harvest,101,429941,0.0-34.0-1.0,"""event"",""trial"",""time""
""fullscreenenter"",""1"",""6815""
","
","
","""event"",""trial"",""time""
""fullscreenenter"",""1"",""6815""
","
",,null,run_exp/static/images/task_images/gems/22.jpg,null,,,,,,,11,,,3,,,,,22,0.520085179,0.5,,,,,,,
decision,102,432744,0.0-34.0-2.0,"""event"",""trial"",""time""
""fullscreenenter"",""1"",""6815""
","
","
","""event"",""trial"",""time""
""fullscreenenter"",""1"",""6815""
","
",,2801.1,run_exp/static/images/task_images/land.jpg,65,,,,,,,11,,,3,,,,,,,,85615,1,2,FALSE,,,
dig,103,432948,0.0-35.0-0.0,"""event"",""trial"",""time""
""fullscreenenter"",""1"",""6815""
","
","
","""event"",""trial"",""time""
""fullscreenenter"",""1"",""6815""
","
",,,,,,,,,,,,"[{""stimulus"":""run_exp/static/images/task_images/dig.jpg"",""time"":0.20000001788139343},{""stimulus"":""run_exp/static/images/task_images/land.jpg"",""time"":67.7000000178814},{""stimulus"":""run_exp/static/images/task_images/dig.jpg"",""time"":133.2000000178814}]",[],3,,,,,,,,,,,,,,
harvest,104,433963,0.0-35.0-1.0,"""event"",""trial"",""time""
""fullscreenenter"",""1"",""6815""
","
","
","""event"",""trial"",""time""
""fullscreenenter"",""1"",""6815""
","
",,null,run_exp/static/images/task_images/gems/11.jpg,null,,,,,,,6,,,3,,,,,11,0.50810372,0.545454545,,,,,,,
decision,105,434817,0.0-35.0-2.0,"""event"",""trial"",""time""
""fullscreenenter"",""1"",""6815""
","
","
","""event"",""trial"",""time""
""fullscreenenter"",""1"",""6815""
","
",,851.4,run_exp/static/images/task_images/land.jpg,65,,,,,,,6,,,3,,,,,,,,87688,1,3,FALSE,,,
dig,106,436982,0.0-36.0-0.0,"""event"",""trial"",""time""
""fullscreenenter"",""1"",""6815""
","
","
","""event"",""trial"",""time""
""fullscreenenter"",""1"",""6815""
","
",,,,,,,,,,,,"[{""stimulus"":""run_exp/static/images/task_images/dig.jpg"",""time"":0.19999998807907104},{""stimulus"":""run_exp/static/images/task_images/land.jpg"",""time"":727.8999999761581},{""stimulus"":""run_exp/static/images/task_images/dig.jpg"",""time"":1446}]",[],3,,,,,,,,,,,,,,
harvest,107,437984,0.0-36.0-1.0,"""event"",""trial"",""time""
""fullscreenenter"",""1"",""6815""
","
","
","""event"",""trial"",""time""
""fullscreenenter"",""1"",""6815""
","
",,null,run_exp/static/images/task_images/gems/6.jpg,null,,,,,,,3,,,3,,,,,6,0.503177622,0.5,,,,,,,
decision,108,439513,0.0-36.0-2.0,"""event"",""trial"",""time""
""fullscreenenter"",""1"",""6815""
","
","
","""event"",""trial"",""time""
""fullscreenenter"",""1"",""6815""
","
",,1526.9,run_exp/static/images/task_images/land.jpg,65,,,,,,,3,,,3,,,,,,,,92384,1,4,FALSE,,,
dig,109,440992,0.0-37.0-0.0,"""event"",""trial"",""time""
""fullscreenenter"",""1"",""6815""
","
","
","""event"",""trial"",""time""
""fullscreenenter"",""1"",""6815""
","
",,,,,,,,,,,,"[{""stimulus"":""run_exp/static/images/task_images/dig.jpg"",""time"":0.30000001192092896},{""stimulus"":""run_exp/static/images/task_images/land.jpg"",""time"":494.90000000596046},{""stimulus"":""run_exp/static/images/task_images/dig.jpg"",""time"":983.9000000059605}]",[],3,,,,,,,,,,,,,,
harvest,110,442000,0.0-37.0-1.0,"""event"",""trial"",""time""
""fullscreenenter"",""1"",""6815""
","
","
","""event"",""trial"",""time""
""fullscreenenter"",""1"",""6815""
","
",,null,run_exp/static/images/task_images/gems/3.jpg,null,,,,,,,1,,,3,,,,,3,0.454877502,0.333333333,,,,,,,
decision,111,442060,0.0-37.0-2.0,"""event"",""trial"",""time""
""fullscreenenter"",""1"",""6815""
","
","
","""event"",""trial"",""time""
""fullscreenenter"",""1"",""6815""
","
",,57.89999998,run_exp/static/images/task_images/land.jpg,65,,,,,,,1,,,3,,,,,,,,94931,1,5,FALSE,,,
dig,112,445014,0.0-38.0-0.0,"""event"",""trial"",""time""
""fullscreenenter"",""1"",""6815""
","
","
","""event"",""trial"",""time""
""fullscreenenter"",""1"",""6815""
","
",,,,,,,,,,,,"[{""stimulus"":""run_exp/static/images/task_images/dig.jpg"",""time"":0.19999998807907104},{""stimulus"":""run_exp/static/images/task_images/land.jpg"",""time"":988.3999999761581},{""stimulus"":""run_exp/static/images/task_images/dig.jpg"",""time"":1972}]",[],3,,,,,,,,,,,,,,
harvest,113,446019,0.0-38.0-1.0,"""event"",""trial"",""time""
""fullscreenenter"",""1"",""6815""
","
","
","""event"",""trial"",""time""
""fullscreenenter"",""1"",""6815""
","
",,null,run_exp/static/images/task_images/gems/1.jpg,null,,,,,,,1,,,3,,,,,1,0.56202733,1,,,,,,,
decision,114,448233,0.0-38.0-2.0,"""event"",""trial"",""time""
""fullscreenenter"",""1"",""6815""
","
","
","""event"",""trial"",""time""
""fullscreenenter"",""1"",""6815""
","
",,2212.2,run_exp/static/images/task_images/land.jpg,65,,,,,,,1,,,3,,,,,,,,101104,1,6,FALSE,,,
dig,115,449031,0.0-39.0-0.0,"""event"",""trial"",""time""
""fullscreenenter"",""1"",""6815""
","
","
","""event"",""trial"",""time""
""fullscreenenter"",""1"",""6815""
","
",,,,,,,,,,,,"[{""stimulus"":""run_exp/static/images/task_images/dig.jpg"",""time"":0.20000001788139343},{""stimulus"":""run_exp/static/images/task_images/land.jpg"",""time"":265.90000000596046},{""stimulus"":""run_exp/static/images/task_images/dig.jpg"",""time"":533}]",[],3,,,,,,,,,,,,,,
harvest,116,450037,0.0-39.0-1.0,"""event"",""trial"",""time""
""fullscreenenter"",""1"",""6815""
","
","
","""event"",""trial"",""time""
""fullscreenenter"",""1"",""6815""
","
",,null,run_exp/static/images/task_images/gems/1.jpg,null,,,,,,,1,,,3,,,,,1,0.520120126,1,,,,,,,
decision,117,450339,0.0-39.0-2.0,"""event"",""trial"",""time""
""fullscreenenter"",""1"",""6815""
","
","
","""event"",""trial"",""time""
""fullscreenenter"",""1"",""6815""
","
",,300.3,run_exp/static/images/task_images/land.jpg,65,,,,,,,0,,,3,,,,,,,,103210,1,7,FALSE,,,
dig,118,453053,0.0-40.0-0.0,"""event"",""trial"",""time""
""fullscreenenter"",""1"",""6815""
","
","
","""event"",""trial"",""time""
""fullscreenenter"",""1"",""6815""
","
",,,,,,,,,,,,"[{""stimulus"":""run_exp/static/images/task_images/dig.jpg"",""time"":0.09999999403953552},{""stimulus"":""run_exp/static/images/task_images/land.jpg"",""time"":908.0999999940395},{""stimulus"":""run_exp/static/images/task_images/dig.jpg"",""time"":1807.199999988079}]",[],3,,,,,,,,,,,,,,
harvest,119,454055,0.0-40.0-1.0,"""event"",""trial"",""time""
""fullscreenenter"",""1"",""6815""
","
","
","""event"",""trial"",""time""
""fullscreenenter"",""1"",""6815""
","
",,null,run_exp/static/images/task_images/gems/0.jpg,null,,,,,,,0,,,3,,,,,0,0.520090772,NaN,,,,,,,
decision,120,454503,0.0-40.0-2.0,"""event"",""trial"",""time""
""fullscreenenter"",""1"",""6815""
","
","
","""event"",""trial"",""time""
""fullscreenenter"",""1"",""6815""
","
",,446.6,run_exp/static/images/task_images/land.jpg,76,,,,,,,0,,,3,,,,,,,,107374,1,8,TRUE,,,
travel,121,464058,0.0-41.0-0.0,"""event"",""trial"",""time""
""fullscreenenter"",""1"",""6815""
","
","
","""event"",""trial"",""time""
""fullscreenenter"",""1"",""6815""
","
",,,,,,,,,,,,"[{""stimulus"":""run_exp/static/images/task_images/rocket-01.jpg"",""time"":0.4000000059604645},{""stimulus"":""run_exp/static/images/task_images/rocket-02.jpg"",""time"":1064.699999988079},{""stimulus"":""run_exp/static/images/task_images/rocket-03.jpg"",""time"":2131.699999988079},{""stimulus"":""run_exp/static/images/task_images/rocket-04.jpg"",""time"":3191.199999988079},{""stimulus"":""run_exp/static/images/task_images/rocket-05.jpg"",""time"":4249.5},{""stimulus"":""run_exp/static/images/task_images/rocket-06.jpg"",""time"":5312.300000011921},{""stimulus"":""run_exp/static/images/task_images/rocket-07.jpg"",""time"":6375.199999988079},{""stimulus"":""run_exp/static/images/task_images/rocket-08.jpg"",""time"":7433},{""stimulus"":""run_exp/static/images/task_images/rocket-09.jpg"",""time"":8498}]",[],3,,,,,,,,,,,,,,
alien_welcome,122,469064,0.0-41.0-1.0,"""event"",""trial"",""time""
""fullscreenenter"",""1"",""6815""
","
","
","""event"",""trial"",""time""
""fullscreenenter"",""1"",""6815""
","
",,null,run_exp/static/images/task_images/aliens/old_aliens/planet/alien_planet-35.jpg,null,,,,,,,,,,,,,35,"27,19,4,35,29,49,22,24,34,53,70,39,44,65,12,56,37,38,64,74,18,26,36",,,,,,,,,,
land,123,469576,0.0-41.0-2.0,"""event"",""trial"",""time""
""fullscreenenter"",""1"",""6815""
","
","
","""event"",""trial"",""time""
""fullscreenenter"",""1"",""6815""
","
",,null,run_exp/static/images/task_images/land.jpg,null,,,,,,,98,,,4,,,,,,,,,,,,,,
dig,124,471587,0.0-41.0-3.0,"""event"",""trial"",""time""
""fullscreenenter"",""1"",""6815""
","
","
","""event"",""trial"",""time""
""fullscreenenter"",""1"",""6815""
","
",,,,,,,,,,,,"[{""stimulus"":""run_exp/static/images/task_images/dig.jpg"",""time"":0.30000001192092896},{""stimulus"":""run_exp/static/images/task_images/land.jpg"",""time"":669.3000000119209},{""stimulus"":""run_exp/static/images/task_images/dig.jpg"",""time"":1341.699999988079}]",[],4,,,,,,,,,,,,,,
harvest,125,472595,0.0-41.0-4.0,"""event"",""trial"",""time""
""fullscreenenter"",""1"",""6815""
","
","
","""event"",""trial"",""time""
""fullscreenenter"",""1"",""6815""
","
",,null,run_exp/static/images/task_images/gems/98.jpg,null,,,,,,,49,,,4,,,,,98,0.50237917,0.5,,,,,,,
decision,126,473796,0.0-41.0-5.0,"""event"",""trial"",""time""
""fullscreenenter"",""1"",""6815""
","
","
","""event"",""trial"",""time""
""fullscreenenter"",""1"",""6815""
","
",,1199.1,run_exp/static/images/task_images/land.jpg,65,,,,,,,49,,,4,,,,,,,,126667,1,0,FALSE,,,
dig,127,475603,0.0-42.0-0.0,"""event"",""trial"",""time""
""fullscreenenter"",""1"",""6815""
","
","
","""event"",""trial"",""time""
""fullscreenenter"",""1"",""6815""
","
",,,,,,,,,,,,"[{""stimulus"":""run_exp/static/images/task_images/dig.jpg"",""time"":0.4000000059604645},{""stimulus"":""run_exp/static/images/task_images/land.jpg"",""time"":604.4000000059605},{""stimulus"":""run_exp/static/images/task_images/dig.jpg"",""time"":1205.9000000059605}]",[],4,,,,,,,,,,,,,,
harvest,128,476612,0.0-42.0-1.0,"""event"",""trial"",""time""
""fullscreenenter"",""1"",""6815""
","
","
","""event"",""trial"",""time""
""fullscreenenter"",""1"",""6815""
","
",,null,run_exp/static/images/task_images/gems/49.jpg,null,,,,,,,22,,,4,,,,,49,0.450888757,0.448979592,,,,,,,
decision,129,476634,0.0-42.0-2.0,"""event"",""trial"",""time""
""fullscreenenter"",""1"",""6815""
","
","
","""event"",""trial"",""time""
""fullscreenenter"",""1"",""6815""
","
",,20.5,run_exp/static/images/task_images/land.jpg,65,,,,,,,22,,,4,,,,,,,,129505,1,1,FALSE,,,
dig,130,479631,0.0-43.0-0.0,"""event"",""trial"",""time""
""fullscreenenter"",""1"",""6815""
","
","
","""event"",""trial"",""time""
""fullscreenenter"",""1"",""6815""
","
",,,,,,,,,,,,"[{""stimulus"":""run_exp/static/images/task_images/dig.jpg"",""time"":0.4000000059604645},{""stimulus"":""run_exp/static/images/task_images/land.jpg"",""time"":997.5999999940395},{""stimulus"":""run_exp/static/images/task_images/dig.jpg"",""time"":1991.300000011921}]",[],4,,,,,,,,,,,,,,
harvest,131,480640,0.0-43.0-1.0,"""event"",""trial"",""time""
""fullscreenenter"",""1"",""6815""
","
","
","""event"",""trial"",""time""
""fullscreenenter"",""1"",""6815""
","
",,null,run_exp/static/images/task_images/gems/22.jpg,null,,,,,,,12,,,4,,,,,22,0.523660737,0.545454545,,,,,,,
decision,132,481714,0.0-43.0-2.0,"""event"",""trial"",""time""
""fullscreenenter"",""1"",""6815""
","
","
","""event"",""trial"",""time""
""fullscreenenter"",""1"",""6815""
","
",,1072.1,run_exp/static/images/task_images/land.jpg,65,,,,,,,12,,,4,,,,,,,,134585,1,2,FALSE,,,
dig,133,483647,0.0-44.0-0.0,"""event"",""trial"",""time""
""fullscreenenter"",""1"",""6815""
","
","
","""event"",""trial"",""time""
""fullscreenenter"",""1"",""6815""
","
",,,,,,,,,,,,"[{""stimulus"":""run_exp/static/images/task_images/dig.jpg"",""time"":0.30000001192092896},{""stimulus"":""run_exp/static/images/task_images/land.jpg"",""time"":648.6999999880791},{""stimulus"":""run_exp/static/images/task_images/dig.jpg"",""time"":1290.699999988079}]",[],4,,,,,,,,,,,,,,
harvest,134,484650,0.0-44.0-1.0,"""event"",""trial"",""time""
""fullscreenenter"",""1"",""6815""
","
","
","""event"",""trial"",""time""
""fullscreenenter"",""1"",""6815""
","
",,null,run_exp/static/images/task_images/gems/12.jpg,null,,,,,,,7,,,4,,,,,12,0.5473332,0.583333333,,,,,,,
decision,135,486471,0.0-44.0-2.0,"""event"",""trial"",""time""
""fullscreenenter"",""1"",""6815""
","
","
","""event"",""trial"",""time""
""fullscreenenter"",""1"",""6815""
","
",,1819.6,run_exp/static/images/task_images/land.jpg,65,,,,,,,7,,,4,,,,,,,,139342,1,3,FALSE,,,
dig,136,487668,0.0-45.0-0.0,"""event"",""trial"",""time""
""fullscreenenter"",""1"",""6815""
","
","
","""event"",""trial"",""time""
""fullscreenenter"",""1"",""6815""
","
",,,,,,,,,,,,"[{""stimulus"":""run_exp/static/images/task_images/dig.jpg"",""time"":0.29999998211860657},{""stimulus"":""run_exp/static/images/task_images/land.jpg"",""time"":409.39999997615814},{""stimulus"":""run_exp/static/images/task_images/dig.jpg"",""time"":792.8999999761581}]",[],4,,,,,,,,,,,,,,
harvest,137,488672,0.0-45.0-1.0,"""event"",""trial"",""time""
""fullscreenenter"",""1"",""6815""
","
","
","""event"",""trial"",""time""
""fullscreenenter"",""1"",""6815""
","
",,null,run_exp/static/images/task_images/gems/7.jpg,null,,,,,,,3,,,4,,,,,7,0.473263458,0.428571429,,,,,,,
decision,138,489378,0.0-45.0-2.0,"""event"",""trial"",""time""
""fullscreenenter"",""1"",""6815""
","
","
","""event"",""trial"",""time""
""fullscreenenter"",""1"",""6815""
","
",,704.2,run_exp/static/images/task_images/land.jpg,65,,,,,,,3,,,4,,,,,,,,142249,1,4,FALSE,,,
dig,139,491685,0.0-46.0-0.0,"""event"",""trial"",""time""
""fullscreenenter"",""1"",""6815""
","
","
","""event"",""trial"",""time""
""fullscreenenter"",""1"",""6815""
","
",,,,,,,,,,,,"[{""stimulus"":""run_exp/static/images/task_images/dig.jpg"",""time"":0.19999998807907104},{""stimulus"":""run_exp/static/images/task_images/land.jpg"",""time"":768.8999999761581},{""stimulus"":""run_exp/static/images/task_images/dig.jpg"",""time"":1537.199999988079}]",[],4,,,,,,,,,,,,,,
harvest,140,492699,0.0-46.0-1.0,"""event"",""trial"",""time""
""fullscreenenter"",""1"",""6815""
","
","
","""event"",""trial"",""time""
""fullscreenenter"",""1"",""6815""
","
",,null,run_exp/static/images/task_images/gems/3.jpg,null,,,,,,,1,,,4,,,,,3,0.482288397,0.333333333,,,,,,,
decision,141,493971,0.0-46.0-2.0,"""event"",""trial"",""time""
""fullscreenenter"",""1"",""6815""
","
","
","""event"",""trial"",""time""
""fullscreenenter"",""1"",""6815""
","
",,1269.6,run_exp/static/images/task_images/land.jpg,65,,,,,,,1,,,4,,,,,,,,146842,1,5,FALSE,,,
dig,142,495703,0.0-47.0-0.0,"""event"",""trial"",""time""
""fullscreenenter"",""1"",""6815""
","
","
","""event"",""trial"",""time""
""fullscreenenter"",""1"",""6815""
","
",,,,,,,,,,,,"[{""stimulus"":""run_exp/static/images/task_images/dig.jpg"",""time"":0.4000000059604645},{""stimulus"":""run_exp/static/images/task_images/land.jpg"",""time"":579.5},{""stimulus"":""run_exp/static/images/task_images/dig.jpg"",""time"":1163.5}]",[],4,,,,,,,,,,,,,,
harvest,143,496715,0.0-47.0-1.0,"""event"",""trial"",""time""
""fullscreenenter"",""1"",""6815""
","
","
","""event"",""trial"",""time""
""fullscreenenter"",""1"",""6815""
","
",,null,run_exp/static/images/task_images/gems/1.jpg,null,,,,,,,1,,,4,,,,,1,0.645471257,1,,,,,,,
decision,144,496952,0.0-47.0-2.0,"""event"",""trial"",""time""
""fullscreenenter"",""1"",""6815""
","
","
","""event"",""trial"",""time""
""fullscreenenter"",""1"",""6815""
","
",,234.7,run_exp/static/images/task_images/land.jpg,65,,,,,,,1,,,4,,,,,,,,149823,1,6,FALSE,,,
dig,145,499722,0.0-48.0-0.0,"""event"",""trial"",""time""
""fullscreenenter"",""1"",""6815""
","
","
","""event"",""trial"",""time""
""fullscreenenter"",""1"",""6815""
","
",,,,,,,,,,,,"[{""stimulus"":""run_exp/static/images/task_images/dig.jpg"",""time"":0.20000001788139343},{""stimulus"":""run_exp/static/images/task_images/land.jpg"",""time"":932.5},{""stimulus"":""run_exp/static/images/task_images/dig.jpg"",""time"":1849.300000011921}]",[],4,,,,,,,,,,,,,,
harvest,146,500737,0.0-48.0-1.0,"""event"",""trial"",""time""
""fullscreenenter"",""1"",""6815""
","
","
","""event"",""trial"",""time""
""fullscreenenter"",""1"",""6815""
","
",,null,run_exp/static/images/task_images/gems/1.jpg,null,,,,,,,0,,,4,,,,,1,0.406941141,0,,,,,,,
decision,147,501171,0.0-48.0-2.0,"""event"",""trial"",""time""
""fullscreenenter"",""1"",""6815""
","
","
","""event"",""trial"",""time""
""fullscreenenter"",""1"",""6815""
","
",,432,run_exp/static/images/task_images/land.jpg,65,,,,,,,0,,,4,,,,,,,,154042,1,7,FALSE,,,
dig,148,503755,0.0-49.0-0.0,"""event"",""trial"",""time""
""fullscreenenter"",""1"",""6815""
","
","
","""event"",""trial"",""time""
""fullscreenenter"",""1"",""6815""
","
",,,,,,,,,,,,"[{""stimulus"":""run_exp/static/images/task_images/dig.jpg"",""time"":0.4000000059604645},{""stimulus"":""run_exp/static/images/task_images/land.jpg"",""time"":858.5999999940395},{""stimulus"":""run_exp/static/images/task_images/dig.jpg"",""time"":1714.699999988079}]",[],4,,,,,,,,,,,,,,
harvest,149,504764,0.0-49.0-1.0,"""event"",""trial"",""time""
""fullscreenenter"",""1"",""6815""
","
","
","""event"",""trial"",""time""
""fullscreenenter"",""1"",""6815""
","
",,null,run_exp/static/images/task_images/gems/0.jpg,null,,,,,,,0,,,4,,,,,0,0.477452563,NaN,,,,,,,
decision,150,505325,0.0-49.0-2.0,"""event"",""trial"",""time""
""fullscreenenter"",""1"",""6815""
","
","
","""event"",""trial"",""time""
""fullscreenenter"",""1"",""6815""
","
",,559.5,run_exp/static/images/task_images/land.jpg,76,,,,,,,0,,,4,,,,,,,,158196,1,8,TRUE,,,
travel,151,514764,0.0-50.0-0.0,"""event"",""trial"",""time""
""fullscreenenter"",""1"",""6815""
","
","
","""event"",""trial"",""time""
""fullscreenenter"",""1"",""6815""
","
",,,,,,,,,,,,"[{""stimulus"":""run_exp/static/images/task_images/rocket-01.jpg"",""time"":0.20000001788139343},{""stimulus"":""run_exp/static/images/task_images/rocket-02.jpg"",""time"":1053.9000000059605},{""stimulus"":""run_exp/static/images/task_images/rocket-03.jpg"",""time"":2112.5},{""stimulus"":""run_exp/static/images/task_images/rocket-04.jpg"",""time"":3146.5},{""stimulus"":""run_exp/static/images/task_images/rocket-05.jpg"",""time"":4196.700000017881},{""stimulus"":""run_exp/static/images/task_images/rocket-06.jpg"",""time"":5243.9000000059605},{""stimulus"":""run_exp/static/images/task_images/rocket-07.jpg"",""time"":6294},{""stimulus"":""run_exp/static/images/task_images/rocket-08.jpg"",""time"":7339.5},{""stimulus"":""run_exp/static/images/task_images/rocket-09.jpg"",""time"":8390.90000000596}]",[],4,,,,,,,,,,,,,,
alien_welcome,152,519772,0.0-50.0-1.0,"""event"",""trial"",""time""
""fullscreenenter"",""1"",""6815""
","
","
","""event"",""trial"",""time""
""fullscreenenter"",""1"",""6815""
","
",,null,run_exp/static/images/task_images/aliens/old_aliens/planet/alien_planet-29.jpg,null,,,,,,,,,,,,,29,"27,19,4,35,29,49,22,24,34,53,70,39,44,65,12,56,37,38,64,74,18,26,36",,,,,,,,,,
land,153,520279,0.0-50.0-2.0,"""event"",""trial"",""time""
""fullscreenenter"",""1"",""6815""
","
","
","""event"",""trial"",""time""
""fullscreenenter"",""1"",""6815""
","
",,null,run_exp/static/images/task_images/land.jpg,null,,,,,,,100,,,5,,,,,,,,,,,,,,
dig,154,522291,0.0-50.0-3.0,"""event"",""trial"",""time""
""fullscreenenter"",""1"",""6815""
","
","
","""event"",""trial"",""time""
""fullscreenenter"",""1"",""6815""
","
",,,,,,,,,,,,"[{""stimulus"":""run_exp/static/images/task_images/dig.jpg"",""time"":0.4000000059604645},{""stimulus"":""run_exp/static/images/task_images/land.jpg"",""time"":680.5999999940395},{""stimulus"":""run_exp/static/images/task_images/dig.jpg"",""time"":1338}]",[],5,,,,,,,,,,,,,,
harvest,155,523296,0.0-50.0-4.0,"""event"",""trial"",""time""
""fullscreenenter"",""1"",""6815""
","
","
","""event"",""trial"",""time""
""fullscreenenter"",""1"",""6815""
","
",,null,run_exp/static/images/task_images/gems/100.jpg,null,,,,,,,50,,,5,,,,,100,0.497134415,0.5,,,,,,,
decision,156,524068,0.0-50.0-5.0,"""event"",""trial"",""time""
""fullscreenenter"",""1"",""6815""
","
","
","""event"",""trial"",""time""
""fullscreenenter"",""1"",""6815""
","
",,770,run_exp/static/images/task_images/land.jpg,65,,,,,,,50,,,5,,,,,,,,176939,1,0,FALSE,,,
dig,157,526311,0.0-51.0-0.0,"""event"",""trial"",""time""
""fullscreenenter"",""1"",""6815""
","
","
","""event"",""trial"",""time""
""fullscreenenter"",""1"",""6815""
","
",,,,,,,,,,,,"[{""stimulus"":""run_exp/static/images/task_images/dig.jpg"",""time"":0.19999998807907104},{""stimulus"":""run_exp/static/images/task_images/land.jpg"",""time"":747.2999999821186},{""stimulus"":""run_exp/static/images/task_images/dig.jpg"",""time"":1492.2999999821186}]",[],5,,,,,,,,,,,,,,
harvest,158,527314,0.0-51.0-1.0,"""event"",""trial"",""time""
""fullscreenenter"",""1"",""6815""
","
","
","""event"",""trial"",""time""
""fullscreenenter"",""1"",""6815""
","
",,null,run_exp/static/images/task_images/gems/50.jpg,null,,,,,,,29,,,5,,,,,50,0.587752371,0.58,,,,,,,
decision,159,528356,0.0-51.0-2.0,"""event"",""trial"",""time""
""fullscreenenter"",""1"",""6815""
","
","
","""event"",""trial"",""time""
""fullscreenenter"",""1"",""6815""
","
",,1040.6,run_exp/static/images/task_images/land.jpg,65,,,,,,,29,,,5,,,,,,,,181227,1,1,FALSE,,,
dig,160,530323,0.0-52.0-0.0,"""event"",""trial"",""time""
""fullscreenenter"",""1"",""6815""
","
","
","""event"",""trial"",""time""
""fullscreenenter"",""1"",""6815""
","
",,,,,,,,,,,,"[{""stimulus"":""run_exp/static/images/task_images/dig.jpg"",""time"":0.19999998807907104},{""stimulus"":""run_exp/static/images/task_images/land.jpg"",""time"":654.2999999821186},{""stimulus"":""run_exp/static/images/task_images/dig.jpg"",""time"":1320.699999988079}]",[],5,,,,,,,,,,,,,,
harvest,161,531325,0.0-52.0-1.0,"""event"",""trial"",""time""
""fullscreenenter"",""1"",""6815""
","
","
","""event"",""trial"",""time""
""fullscreenenter"",""1"",""6815""
","
",,null,run_exp/static/images/task_images/gems/29.jpg,null,,,,,,,15,,,5,,,,,29,0.520154049,0.517241379,,,,,,,
decision,162,531764,0.0-52.0-2.0,"""event"",""trial"",""time""
""fullscreenenter"",""1"",""6815""
","
","
","""event"",""trial"",""time""
""fullscreenenter"",""1"",""6815""
","
",,436.3,run_exp/static/images/task_images/land.jpg,65,,,,,,,15,,,5,,,,,,,,184635,1,2,FALSE,,,
dig,163,534333,0.0-53.0-0.0,"""event"",""trial"",""time""
""fullscreenenter"",""1"",""6815""
","
","
","""event"",""trial"",""time""
""fullscreenenter"",""1"",""6815""
","
",,,,,,,,,,,,"[{""stimulus"":""run_exp/static/images/task_images/dig.jpg"",""time"":0.20000001788139343},{""stimulus"":""run_exp/static/images/task_images/land.jpg"",""time"":860},{""stimulus"":""run_exp/static/images/task_images/dig.jpg"",""time"":1715.2000000178814}]",[],5,,,,,,,,,,,,,,
harvest,164,535347,0.0-53.0-1.0,"""event"",""trial"",""time""
""fullscreenenter"",""1"",""6815""
","
","
","""event"",""trial"",""time""
""fullscreenenter"",""1"",""6815""
","
",,null,run_exp/static/images/task_images/gems/15.jpg,null,,,,,,,7,,,5,,,,,15,0.471495725,0.466666667,,,,,,,
decision,165,535734,0.0-53.0-2.0,"""event"",""trial"",""time""
""fullscreenenter"",""1"",""6815""
","
","
","""event"",""trial"",""time""
""fullscreenenter"",""1"",""6815""
","
",,385,run_exp/static/images/task_images/land.jpg,65,,,,,,,7,,,5,,,,,,,,188605,1,3,FALSE,,,
dig,166,538360,0.0-54.0-0.0,"""event"",""trial"",""time""
""fullscreenenter"",""1"",""6815""
","
","
","""event"",""trial"",""time""
""fullscreenenter"",""1"",""6815""
","
",,,,,,,,,,,,"[{""stimulus"":""run_exp/static/images/task_images/dig.jpg"",""time"":0.30000001192092896},{""stimulus"":""run_exp/static/images/task_images/land.jpg"",""time"":873.9000000059605},{""stimulus"":""run_exp/static/images/task_images/dig.jpg"",""time"":1746.5999999940395}]",[],5,,,,,,,,,,,,,,
harvest,167,539367,0.0-54.0-1.0,"""event"",""trial"",""time""
""fullscreenenter"",""1"",""6815""
","
","
","""event"",""trial"",""time""
""fullscreenenter"",""1"",""6815""
","
",,null,run_exp/static/images/task_images/gems/7.jpg,null,,,,,,,3,,,5,,,,,7,0.449208072,0.428571429,,,,,,,
decision,168,539657,0.0-54.0-2.0,"""event"",""trial"",""time""
""fullscreenenter"",""1"",""6815""
","
","
","""event"",""trial"",""time""
""fullscreenenter"",""1"",""6815""
","
",,288.2,run_exp/static/images/task_images/land.jpg,65,,,,,,,3,,,5,,,,,,,,192528,1,4,FALSE,,,
dig,169,542376,0.0-55.0-0.0,"""event"",""trial"",""time""
""fullscreenenter"",""1"",""6815""
","
","
","""event"",""trial"",""time""
""fullscreenenter"",""1"",""6815""
","
",,,,,,,,,,,,"[{""stimulus"":""run_exp/static/images/task_images/dig.jpg"",""time"":0.29999998211860657},{""stimulus"":""run_exp/static/images/task_images/land.jpg"",""time"":905.6999999880791},{""stimulus"":""run_exp/static/images/task_images/dig.jpg"",""time"":1813.5}]",[],5,,,,,,,,,,,,,,
harvest,170,543378,0.0-55.0-1.0,"""event"",""trial"",""time""
""fullscreenenter"",""1"",""6815""
","
","
","""event"",""trial"",""time""
""fullscreenenter"",""1"",""6815""
","
",,null,run_exp/static/images/task_images/gems/3.jpg,null,,,,,,,1,,,5,,,,,3,0.377069504,0.333333333,,,,,,,
decision,171,543994,0.0-55.0-2.0,"""event"",""trial"",""time""
""fullscreenenter"",""1"",""6815""
","
","
","""event"",""trial"",""time""
""fullscreenenter"",""1"",""6815""
","
",,613.5,run_exp/static/images/task_images/land.jpg,65,,,,,,,1,,,5,,,,,,,,196865,1,5,FALSE,,,
dig,172,546386,0.0-56.0-0.0,"""event"",""trial"",""time""
""fullscreenenter"",""1"",""6815""
","
","
","""event"",""trial"",""time""
""fullscreenenter"",""1"",""6815""
","
",,,,,,,,,,,,"[{""stimulus"":""run_exp/static/images/task_images/dig.jpg"",""time"":0.19999998807907104},{""stimulus"":""run_exp/static/images/task_images/land.jpg"",""time"":805.3999999761581},{""stimulus"":""run_exp/static/images/task_images/dig.jpg"",""time"":1595.0999999940395}]",[],5,,,,,,,,,,,,,,
harvest,173,547393,0.0-56.0-1.0,"""event"",""trial"",""time""
""fullscreenenter"",""1"",""6815""
","
","
","""event"",""trial"",""time""
""fullscreenenter"",""1"",""6815""
","
",,null,run_exp/static/images/task_images/gems/1.jpg,null,,,,,,,0,,,5,,,,,1,0.475671663,0,,,,,,,
decision,174,549786,0.0-56.0-2.0,"""event"",""trial"",""time""
""fullscreenenter"",""1"",""6815""
","
","
","""event"",""trial"",""time""
""fullscreenenter"",""1"",""6815""
","
",,2390.5,run_exp/static/images/task_images/land.jpg,65,,,,,,,0,,,5,,,,,,,,202657,1,6,FALSE,,,
dig,175,550404,0.0-57.0-0.0,"""event"",""trial"",""time""
""fullscreenenter"",""1"",""6815""
","
","
","""event"",""trial"",""time""
""fullscreenenter"",""1"",""6815""
","
",,,,,,,,,,,,"[{""stimulus"":""run_exp/static/images/task_images/dig.jpg"",""time"":0.20000001788139343},{""stimulus"":""run_exp/static/images/task_images/land.jpg"",""time"":214.5},{""stimulus"":""run_exp/static/images/task_images/dig.jpg"",""time"":410.7000000178814}]",[],5,,,,,,,,,,,,,,
harvest,176,551414,0.0-57.0-1.0,"""event"",""trial"",""time""
""fullscreenenter"",""1"",""6815""
","
","
","""event"",""trial"",""time""
""fullscreenenter"",""1"",""6815""
","
",,null,run_exp/static/images/task_images/gems/0.jpg,null,,,,,,,0,,,5,,,,,0,0.437786807,NaN,,,,,,,
decision,177,551695,0.0-57.0-2.0,"""event"",""trial"",""time""
""fullscreenenter"",""1"",""6815""
","
","
","""event"",""trial"",""time""
""fullscreenenter"",""1"",""6815""
","
",,279.2,run_exp/static/images/task_images/land.jpg,76,,,,,,,0,,,5,,,,,,,,204566,1,7,TRUE,,,
travel,178,561424,0.0-58.0-0.0,"""event"",""trial"",""time""
""fullscreenenter"",""1"",""6815""
","
","
","""event"",""trial"",""time""
""fullscreenenter"",""1"",""6815""
","
",,,,,,,,,,,,"[{""stimulus"":""run_exp/static/images/task_images/rocket-01.jpg"",""time"":0.30000001192092896},{""stimulus"":""run_exp/static/images/task_images/rocket-02.jpg"",""time"":1088.2000000178814},{""stimulus"":""run_exp/static/images/task_images/rocket-03.jpg"",""time"":2172.5999999940395},{""stimulus"":""run_exp/static/images/task_images/rocket-04.jpg"",""time"":3246},{""stimulus"":""run_exp/static/images/task_images/rocket-05.jpg"",""time"":4323.300000011921},{""stimulus"":""run_exp/static/images/task_images/rocket-06.jpg"",""time"":5407.300000011921},{""stimulus"":""run_exp/static/images/task_images/rocket-07.jpg"",""time"":6490.5},{""stimulus"":""run_exp/static/images/task_images/rocket-08.jpg"",""time"":7573.700000017881},{""stimulus"":""run_exp/static/images/task_images/rocket-09.jpg"",""time"":8642.09999999404}]",[],5,,,,,,,,,,,,,,
alien_welcome,179,566426,0.0-58.0-1.0,"""event"",""trial"",""time""
""fullscreenenter"",""1"",""6815""
","
","
","""event"",""trial"",""time""
""fullscreenenter"",""1"",""6815""
","
",,null,run_exp/static/images/task_images/aliens/old_aliens/planet/alien_planet-49.jpg,null,,,,,,,,,,,,,49,"27,19,4,35,29,49,22,24,34,53,70,39,44,65,12,56,37,38,64,74,18,26,36",,,,,,,,,,
land,180,566932,0.0-58.0-2.0,"""event"",""trial"",""time""
""fullscreenenter"",""1"",""6815""
","
","
","""event"",""trial"",""time""
""fullscreenenter"",""1"",""6815""
","
",,null,run_exp/static/images/task_images/land.jpg,null,,,,,,,98,,,6,,,,,,,,,,,,,,
dig,181,568943,0.0-58.0-3.0,"""event"",""trial"",""time""
""fullscreenenter"",""1"",""6815""
","
","
","""event"",""trial"",""time""
""fullscreenenter"",""1"",""6815""
","
",,,,,,,,,,,,"[{""stimulus"":""run_exp/static/images/task_images/dig.jpg"",""time"":0.4000000059604645},{""stimulus"":""run_exp/static/images/task_images/land.jpg"",""time"":669.7000000178814},{""stimulus"":""run_exp/static/images/task_images/dig.jpg"",""time"":1340.5999999940395}]",[],6,,,,,,,,,,,,,,
harvest,182,569956,0.0-58.0-4.0,"""event"",""trial"",""time""
""fullscreenenter"",""1"",""6815""
","
","
","""event"",""trial"",""time""
""fullscreenenter"",""1"",""6815""
","
",,null,run_exp/static/images/task_images/gems/98.jpg,null,,,,,,,83,,,6,,,,,98,0.843916686,0.846938776,,,,,,,
decision,183,571003,0.0-58.0-5.0,"""event"",""trial"",""time""
""fullscreenenter"",""1"",""6815""
","
","
","""event"",""trial"",""time""
""fullscreenenter"",""1"",""6815""
","
",,1044.9,run_exp/static/images/task_images/land.jpg,65,,,,,,,83,,,6,,,,,,,,223874,1,0,FALSE,,,
dig,184,572961,0.0-59.0-0.0,"""event"",""trial"",""time""
""fullscreenenter"",""1"",""6815""
","
","
","""event"",""trial"",""time""
""fullscreenenter"",""1"",""6815""
","
",,,,,,,,,,,,"[{""stimulus"":""run_exp/static/images/task_images/dig.jpg"",""time"":0.20000001788139343},{""stimulus"":""run_exp/static/images/task_images/land.jpg"",""time"":654},{""stimulus"":""run_exp/static/images/task_images/dig.jpg"",""time"":1304.7000000178814}]",[],6,,,,,,,,,,,,,,
harvest,185,573972,0.0-59.0-1.0,"""event"",""trial"",""time""
""fullscreenenter"",""1"",""6815""
","
","
","""event"",""trial"",""time""
""fullscreenenter"",""1"",""6815""
","
",,null,run_exp/static/images/task_images/gems/83.jpg,null,,,,,,,71,,,6,,,,,83,0.851661692,0.855421687,,,,,,,
decision,186,575094,0.0-59.0-2.0,"""event"",""trial"",""time""
""fullscreenenter"",""1"",""6815""
","
","
","""event"",""trial"",""time""
""fullscreenenter"",""1"",""6815""
","
",,1119.8,run_exp/static/images/task_images/land.jpg,65,,,,,,,71,,,6,,,,,,,,227965,1,1,FALSE,,,
dig,187,576979,0.0-60.0-0.0,"""event"",""trial"",""time""
""fullscreenenter"",""1"",""6815""
","
","
","""event"",""trial"",""time""
""fullscreenenter"",""1"",""6815""
","
",,,,,,,,,,,,"[{""stimulus"":""run_exp/static/images/task_images/dig.jpg"",""time"":0.30000001192092896},{""stimulus"":""run_exp/static/images/task_images/land.jpg"",""time"":630.7000000178814},{""stimulus"":""run_exp/static/images/task_images/dig.jpg"",""time"":1258.300000011921}]",[],6,,,,,,,,,,,,,,
harvest,188,577983,0.0-60.0-1.0,"""event"",""trial"",""time""
""fullscreenenter"",""1"",""6815""
","
","
","""event"",""trial"",""time""
""fullscreenenter"",""1"",""6815""
","
",,null,run_exp/static/images/task_images/gems/71.jpg,null,,,,,,,59,,,6,,,,,71,0.833002419,0.830985915,,,,,,,
decision,189,578364,0.0-60.0-2.0,"""event"",""trial"",""time""
""fullscreenenter"",""1"",""6815""
","
","
","""event"",""trial"",""time""
""fullscreenenter"",""1"",""6815""
","
",,379,run_exp/static/images/task_images/land.jpg,65,,,,,,,59,,,6,,,,,,,,231235,1,2,FALSE,,,
dig,190,580997,0.0-61.0-0.0,"""event"",""trial"",""time""
""fullscreenenter"",""1"",""6815""
","
","
","""event"",""trial"",""time""
""fullscreenenter"",""1"",""6815""
","
",,,,,,,,,,,,"[{""stimulus"":""run_exp/static/images/task_images/dig.jpg"",""time"":0.20000001788139343},{""stimulus"":""run_exp/static/images/task_images/land.jpg"",""time"":878},{""stimulus"":""run_exp/static/images/task_images/dig.jpg"",""time"":1755.2000000178814}]",[],6,,,,,,,,,,,,,,
harvest,191,582014,0.0-61.0-1.0,"""event"",""trial"",""time""
""fullscreenenter"",""1"",""6815""
","
","
","""event"",""trial"",""time""
""fullscreenenter"",""1"",""6815""
","
",,null,run_exp/static/images/task_images/gems/59.jpg,null,,,,,,,52,,,6,,,,,59,0.88188004,0.881355932,,,,,,,
decision,192,582118,0.0-61.0-2.0,"""event"",""trial"",""time""
""fullscreenenter"",""1"",""6815""
","
","
","""event"",""trial"",""time""
""fullscreenenter"",""1"",""6815""
","
",,102.3,run_exp/static/images/task_images/land.jpg,65,,,,,,,52,,,6,,,,,,,,234989,1,3,FALSE,,,
dig,193,585029,0.0-62.0-0.0,"""event"",""trial"",""time""
""fullscreenenter"",""1"",""6815""
","
","
","""event"",""trial"",""time""
""fullscreenenter"",""1"",""6815""
","
",,,,,,,,,,,,"[{""stimulus"":""run_exp/static/images/task_images/dig.jpg"",""time"":0.30000001192092896},{""stimulus"":""run_exp/static/images/task_images/land.jpg"",""time"":975.6999999880791},{""stimulus"":""run_exp/static/images/task_images/dig.jpg"",""time"":1941.699999988079}]",[],6,,,,,,,,,,,,,,
harvest,194,586033,0.0-62.0-1.0,"""event"",""trial"",""time""
""fullscreenenter"",""1"",""6815""
","
","
","""event"",""trial"",""time""
""fullscreenenter"",""1"",""6815""
","
",,null,run_exp/static/images/task_images/gems/52.jpg,null,,,,,,,39,,,6,,,,,52,0.749569559,0.75,,,,,,,
decision,195,586343,0.0-62.0-2.0,"""event"",""trial"",""time""
""fullscreenenter"",""1"",""6815""
","
","
","""event"",""trial"",""time""
""fullscreenenter"",""1"",""6815""
","
",,308.6,run_exp/static/images/task_images/land.jpg,65,,,,,,,39,,,6,,,,,,,,239214,1,4,FALSE,,,
dig,196,589049,0.0-63.0-0.0,"""event"",""trial"",""time""
""fullscreenenter"",""1"",""6815""
","
","
","""event"",""trial"",""time""
""fullscreenenter"",""1"",""6815""
","
",,,,,,,,,,,,"[{""stimulus"":""run_exp/static/images/task_images/dig.jpg"",""time"":0.19999998807907104},{""stimulus"":""run_exp/static/images/task_images/land.jpg"",""time"":903},{""stimulus"":""run_exp/static/images/task_images/dig.jpg"",""time"":1803.5}]",[],6,,,,,,,,,,,,,,
harvest,197,590058,0.0-63.0-1.0,"""event"",""trial"",""time""
""fullscreenenter"",""1"",""6815""
","
","
","""event"",""trial"",""time""
""fullscreenenter"",""1"",""6815""
","
",,null,run_exp/static/images/task_images/gems/39.jpg,null,,,,,,,32,,,6,,,,,39,0.825091223,0.820512821,,,,,,,
decision,198,590108,0.0-63.0-2.0,"""event"",""trial"",""time""
""fullscreenenter"",""1"",""6815""
","
","
","""event"",""trial"",""time""
""fullscreenenter"",""1"",""6815""
","
",,48.59999999,run_exp/static/images/task_images/land.jpg,65,,,,,,,32,,,6,,,,,,,,242979,1,5,FALSE,,,
dig,199,593068,0.0-64.0-0.0,"""event"",""trial"",""time""
""fullscreenenter"",""1"",""6815""
","
","
","""event"",""trial"",""time""
""fullscreenenter"",""1"",""6815""
","
",,,,,,,,,,,,"[{""stimulus"":""run_exp/static/images/task_images/dig.jpg"",""time"":0.29999998211860657},{""stimulus"":""run_exp/static/images/task_images/land.jpg"",""time"":986.2999999821186},{""stimulus"":""run_exp/static/images/task_images/dig.jpg"",""time"":1972.3999999761581}]",[],6,,,,,,,,,,,,,,
harvest,200,594075,0.0-64.0-1.0,"""event"",""trial"",""time""
""fullscreenenter"",""1"",""6815""
","
","
","""event"",""trial"",""time""
""fullscreenenter"",""1"",""6815""
","
",,null,run_exp/static/images/task_images/gems/32.jpg,null,,,,,,,26,,,6,,,,,32,0.813100717,0.8125,,,,,,,
decision,201,594540,0.0-64.0-2.0,"""event"",""trial"",""time""
""fullscreenenter"",""1"",""6815""
","
","
","""event"",""trial"",""time""
""fullscreenenter"",""1"",""6815""
","
",,463.1,run_exp/static/images/task_images/land.jpg,65,,,,,,,26,,,6,,,,,,,,247411,1,6,FALSE,,,
dig,202,597086,0.0-65.0-0.0,"""event"",""trial"",""time""
""fullscreenenter"",""1"",""6815""
","
","
","""event"",""trial"",""time""
""fullscreenenter"",""1"",""6815""
","
",,,,,,,,,,,,"[{""stimulus"":""run_exp/static/images/task_images/dig.jpg"",""time"":0.29999998211860657},{""stimulus"":""run_exp/static/images/task_images/land.jpg"",""time"":858.4000000059605},{""stimulus"":""run_exp/static/images/task_images/dig.jpg"",""time"":1692.0999999940395}]",[],6,,,,,,,,,,,,,,
harvest,203,598096,0.0-65.0-1.0,"""event"",""trial"",""time""
""fullscreenenter"",""1"",""6815""
","
","
","""event"",""trial"",""time""
""fullscreenenter"",""1"",""6815""
","
",,null,run_exp/static/images/task_images/gems/26.jpg,null,,,,,,,22,,,6,,,,,26,0.864482552,0.846153846,,,,,,,
decision,204,598375,0.0-65.0-2.0,"""event"",""trial"",""time""
""fullscreenenter"",""1"",""6815""
","
","
","""event"",""trial"",""time""
""fullscreenenter"",""1"",""6815""
","
",,277,run_exp/static/images/task_images/land.jpg,65,,,,,,,22,,,6,,,,,,,,251246,1,7,FALSE,,,
dig,205,601104,0.0-66.0-0.0,"""event"",""trial"",""time""
""fullscreenenter"",""1"",""6815""
","
","
","""event"",""trial"",""time""
""fullscreenenter"",""1"",""6815""
","
",,,,,,,,,,,,"[{""stimulus"":""run_exp/static/images/task_images/dig.jpg"",""time"":0.20000001788139343},{""stimulus"":""run_exp/static/images/task_images/land.jpg"",""time"":909},{""stimulus"":""run_exp/static/images/task_images/dig.jpg"",""time"":1817.800000011921}]",[],6,,,,,,,,,,,,,,
harvest,206,602119,0.0-66.0-1.0,"""event"",""trial"",""time""
""fullscreenenter"",""1"",""6815""
","
","
","""event"",""trial"",""time""
""fullscreenenter"",""1"",""6815""
","
",,null,run_exp/static/images/task_images/gems/22.jpg,null,,,,,,,17,,,6,,,,,22,0.773011147,0.772727273,,,,,,,
decision,207,604345,0.0-66.0-2.0,"""event"",""trial"",""time""
""fullscreenenter"",""1"",""6815""
","
","
","""event"",""trial"",""time""
""fullscreenenter"",""1"",""6815""
","
",,2223.6,run_exp/static/images/task_images/land.jpg,65,,,,,,,17,,,6,,,,,,,,257216,1,8,FALSE,,,
dig,208,605127,0.0-67.0-0.0,"""event"",""trial"",""time""
""fullscreenenter"",""1"",""6815""
","
","
","""event"",""trial"",""time""
""fullscreenenter"",""1"",""6815""
","
",,,,,,,,,,,,"[{""stimulus"":""run_exp/static/images/task_images/dig.jpg"",""time"":0.3999999761581421},{""stimulus"":""run_exp/static/images/task_images/land.jpg"",""time"":265.7999999821186},{""stimulus"":""run_exp/static/images/task_images/dig.jpg"",""time"":522.7999999821186}]",[],6,,,,,,,,,,,,,,
harvest,209,606139,0.0-67.0-1.0,"""event"",""trial"",""time""
""fullscreenenter"",""1"",""6815""
","
","
","""event"",""trial"",""time""
""fullscreenenter"",""1"",""6815""
","
",,null,run_exp/static/images/task_images/gems/17.jpg,null,,,,,,,14,,,6,,,,,17,0.817363643,0.823529412,,,,,,,
decision,210,606398,0.0-67.0-2.0,"""event"",""trial"",""time""
""fullscreenenter"",""1"",""6815""
","
","
","""event"",""trial"",""time""
""fullscreenenter"",""1"",""6815""
","
",,256.6,run_exp/static/images/task_images/land.jpg,65,,,,,,,14,,,6,,,,,,,,259269,1,9,FALSE,,,
dig,211,609153,0.0-68.0-0.0,"""event"",""trial"",""time""
""fullscreenenter"",""1"",""6815""
","
","
","""event"",""trial"",""time""
""fullscreenenter"",""1"",""6815""
","
",,,,,,,,,,,,"[{""stimulus"":""run_exp/static/images/task_images/dig.jpg"",""time"":0.10000002384185791},{""stimulus"":""run_exp/static/images/task_images/land.jpg"",""time"":917.1000000238419},{""stimulus"":""run_exp/static/images/task_images/dig.jpg"",""time"":1839.300000011921}]",[],6,,,,,,,,,,,,,,
harvest,212,610158,0.0-68.0-1.0,"""event"",""trial"",""time""
""fullscreenenter"",""1"",""6815""
","
","
","""event"",""trial"",""time""
""fullscreenenter"",""1"",""6815""
","
",,null,run_exp/static/images/task_images/gems/14.jpg,null,,,,,,,12,,,6,,,,,14,0.828067714,0.857142857,,,,,,,
decision,213,610601,0.0-68.0-2.0,"""event"",""trial"",""time""
""fullscreenenter"",""1"",""6815""
","
","
","""event"",""trial"",""time""
""fullscreenenter"",""1"",""6815""
","
",,441.6,run_exp/static/images/task_images/land.jpg,65,,,,,,,12,,,6,,,,,,,,263472,1,10,FALSE,,,
dig,214,613170,0.0-69.0-0.0,"""event"",""trial"",""time""
""fullscreenenter"",""1"",""6815""
","
","
","""event"",""trial"",""time""
""fullscreenenter"",""1"",""6815""
","
",,,,,,,,,,,,"[{""stimulus"":""run_exp/static/images/task_images/dig.jpg"",""time"":0.3999999761581421},{""stimulus"":""run_exp/static/images/task_images/land.jpg"",""time"":855.1999999880791},{""stimulus"":""run_exp/static/images/task_images/dig.jpg"",""time"":1708.2999999821186}]",[],6,,,,,,,,,,,,,,
harvest,215,614176,0.0-69.0-1.0,"""event"",""trial"",""time""
""fullscreenenter"",""1"",""6815""
","
","
","""event"",""trial"",""time""
""fullscreenenter"",""1"",""6815""
","
",,null,run_exp/static/images/task_images/gems/12.jpg,null,,,,,,,11,,,6,,,,,12,0.902453795,0.916666667,,,,,,,
decision,216,616435,0.0-69.0-2.0,"""event"",""trial"",""time""
""fullscreenenter"",""1"",""6815""
","
","
","""event"",""trial"",""time""
""fullscreenenter"",""1"",""6815""
","
",,2258.2,run_exp/static/images/task_images/land.jpg,65,,,,,,,11,,,6,,,,,,,,269307,1,11,FALSE,,,
dig,217,617189,0.0-70.0-0.0,"""event"",""trial"",""time""
""fullscreenenter"",""1"",""6815""
","
","
","""event"",""trial"",""time""
""fullscreenenter"",""1"",""6815""
","
",,,,,,,,,,,,"[{""stimulus"":""run_exp/static/images/task_images/dig.jpg"",""time"":0.20000001788139343},{""stimulus"":""run_exp/static/images/task_images/land.jpg"",""time"":249.80000001192093},{""stimulus"":""run_exp/static/images/task_images/dig.jpg"",""time"":504.5}]",[],6,,,,,,,,,,,,,,
harvest,218,618193,0.0-70.0-1.0,"""event"",""trial"",""time""
""fullscreenenter"",""1"",""6815""
","
","
","""event"",""trial"",""time""
""fullscreenenter"",""1"",""6815""
","
",,null,run_exp/static/images/task_images/gems/11.jpg,null,,,,,,,10,,,6,,,,,11,0.899459825,0.909090909,,,,,,,
decision,219,619092,0.0-70.0-2.0,"""event"",""trial"",""time""
""fullscreenenter"",""1"",""6815""
","
","
","""event"",""trial"",""time""
""fullscreenenter"",""1"",""6815""
","
",,896.7,run_exp/static/images/task_images/land.jpg,65,,,,,,,10,,,6,,,,,,,,271963,1,12,FALSE,,,
dig,220,621202,0.0-71.0-0.0,"""event"",""trial"",""time""
""fullscreenenter"",""1"",""6815""
","
","
","""event"",""trial"",""time""
""fullscreenenter"",""1"",""6815""
","
",,,,,,,,,,,,"[{""stimulus"":""run_exp/static/images/task_images/dig.jpg"",""time"":0.19999998807907104},{""stimulus"":""run_exp/static/images/task_images/land.jpg"",""time"":703.3999999761581},{""stimulus"":""run_exp/static/images/task_images/dig.jpg"",""time"":1406.699999988079}]",[],6,,,,,,,,,,,,,,
harvest,221,622210,0.0-71.0-1.0,"""event"",""trial"",""time""
""fullscreenenter"",""1"",""6815""
","
","
","""event"",""trial"",""time""
""fullscreenenter"",""1"",""6815""
","
",,null,run_exp/static/images/task_images/gems/10.jpg,null,,,,,,,9,,,6,,,,,10,0.875649533,0.9,,,,,,,
decision,222,623455,0.0-71.0-2.0,"""event"",""trial"",""time""
""fullscreenenter"",""1"",""6815""
","
","
","""event"",""trial"",""time""
""fullscreenenter"",""1"",""6815""
","
",,1242.9,run_exp/static/images/task_images/land.jpg,65,,,,,,,9,,,6,,,,,,,,276326,1,13,FALSE,,,
dig,223,625228,0.0-72.0-0.0,"""event"",""trial"",""time""
""fullscreenenter"",""1"",""6815""
","
","
","""event"",""trial"",""time""
""fullscreenenter"",""1"",""6815""
","
",,,,,,,,,,,,"[{""stimulus"":""run_exp/static/images/task_images/dig.jpg"",""time"":0.19999998807907104},{""stimulus"":""run_exp/static/images/task_images/land.jpg"",""time"":586.6999999880791},{""stimulus"":""run_exp/static/images/task_images/dig.jpg"",""time"":1177.800000011921}]",[],6,,,,,,,,,,,,,,
harvest,224,626231,0.0-72.0-1.0,"""event"",""trial"",""time""
""fullscreenenter"",""1"",""6815""
","
","
","""event"",""trial"",""time""
""fullscreenenter"",""1"",""6815""
","
",,null,run_exp/static/images/task_images/gems/9.jpg,null,,,,,,,8,,,6,,,,,9,0.851028651,0.888888889,,,,,,,
decision,225,627108,0.0-72.0-2.0,"""event"",""trial"",""time""
""fullscreenenter"",""1"",""6815""
","
","
","""event"",""trial"",""time""
""fullscreenenter"",""1"",""6815""
","
",,875.2,run_exp/static/images/task_images/land.jpg,65,,,,,,,8,,,6,,,,,,,,279979,1,14,FALSE,,,
dig,226,629243,0.0-73.0-0.0,"""event"",""trial"",""time""
""fullscreenenter"",""1"",""6815""
","
","
","""event"",""trial"",""time""
""fullscreenenter"",""1"",""6815""
","
",,,,,,,,,,,,"[{""stimulus"":""run_exp/static/images/task_images/dig.jpg"",""time"":0.3999999761581421},{""stimulus"":""run_exp/static/images/task_images/land.jpg"",""time"":714.7999999821186},{""stimulus"":""run_exp/static/images/task_images/dig.jpg"",""time"":1418.5999999940395}]",[],6,,,,,,,,,,,,,,
harvest,227,630247,0.0-73.0-1.0,"""event"",""trial"",""time""
""fullscreenenter"",""1"",""6815""
","
","
","""event"",""trial"",""time""
""fullscreenenter"",""1"",""6815""
","
",,null,run_exp/static/images/task_images/gems/8.jpg,null,,,,,,,7,,,6,,,,,8,0.845888792,0.875,,,,,,,
decision,228,630780,0.0-73.0-2.0,"""event"",""trial"",""time""
""fullscreenenter"",""1"",""6815""
","
","
","""event"",""trial"",""time""
""fullscreenenter"",""1"",""6815""
","
",,531,run_exp/static/images/task_images/land.jpg,65,,,,,,,7,,,6,,,,,,,,283651,1,15,FALSE,,,
dig,229,633257,0.0-74.0-0.0,"""event"",""trial"",""time""
""fullscreenenter"",""1"",""6815""
","
","
","""event"",""trial"",""time""
""fullscreenenter"",""1"",""6815""
","
",,,,,,,,,,,,"[{""stimulus"":""run_exp/static/images/task_images/dig.jpg"",""time"":0.29999998211860657},{""stimulus"":""run_exp/static/images/task_images/land.jpg"",""time"":830.5999999940395},{""stimulus"":""run_exp/static/images/task_images/dig.jpg"",""time"":1647.4000000059605}]",[],6,,,,,,,,,,,,,,
harvest,230,634264,0.0-74.0-1.0,"""event"",""trial"",""time""
""fullscreenenter"",""1"",""6815""
","
","
","""event"",""trial"",""time""
""fullscreenenter"",""1"",""6815""
","
",,null,run_exp/static/images/task_images/gems/7.jpg,null,,,,,,,5,,,6,,,,,7,0.747095935,0.714285714,,,,,,,
decision,231,634394,0.0-74.0-2.0,"""event"",""trial"",""time""
""fullscreenenter"",""1"",""6815""
","
","
","""event"",""trial"",""time""
""fullscreenenter"",""1"",""6815""
","
",,128,run_exp/static/images/task_images/land.jpg,65,,,,,,,5,,,6,,,,,,,,287265,1,16,FALSE,,,
dig,232,637272,0.0-75.0-0.0,"""event"",""trial"",""time""
""fullscreenenter"",""1"",""6815""
","
","
","""event"",""trial"",""time""
""fullscreenenter"",""1"",""6815""
","
",,,,,,,,,,,,"[{""stimulus"":""run_exp/static/images/task_images/dig.jpg"",""time"":0.5},{""stimulus"":""run_exp/static/images/task_images/land.jpg"",""time"":968.5},{""stimulus"":""run_exp/static/images/task_images/dig.jpg"",""time"":1919}]",[],6,,,,,,,,,,,,,,
harvest,233,638280,0.0-75.0-1.0,"""event"",""trial"",""time""
""fullscreenenter"",""1"",""6815""
","
","
","""event"",""trial"",""time""
""fullscreenenter"",""1"",""6815""
","
",,null,run_exp/static/images/task_images/gems/5.jpg,null,,,,,,,4,,,6,,,,,5,0.842277258,0.8,,,,,,,
decision,234,638761,0.0-75.0-2.0,"""event"",""trial"",""time""
""fullscreenenter"",""1"",""6815""
","
","
","""event"",""trial"",""time""
""fullscreenenter"",""1"",""6815""
","
",,479.4,run_exp/static/images/task_images/land.jpg,65,,,,,,,4,,,6,,,,,,,,291633,1,17,FALSE,,,
dig,235,641298,0.0-76.0-0.0,"""event"",""trial"",""time""
""fullscreenenter"",""1"",""6815""
","
","
","""event"",""trial"",""time""
""fullscreenenter"",""1"",""6815""
","
",,,,,,,,,,,,"[{""stimulus"":""run_exp/static/images/task_images/dig.jpg"",""time"":0.20000001788139343},{""stimulus"":""run_exp/static/images/task_images/land.jpg"",""time"":842.8000000119209},{""stimulus"":""run_exp/static/images/task_images/dig.jpg"",""time"":1682.7000000178814}]",[],6,,,,,,,,,,,,,,
harvest,236,642302,0.0-76.0-1.0,"""event"",""trial"",""time""
""fullscreenenter"",""1"",""6815""
","
","
","""event"",""trial"",""time""
""fullscreenenter"",""1"",""6815""
","
",,null,run_exp/static/images/task_images/gems/4.jpg,null,,,,,,,3,,,6,,,,,4,0.774438946,0.75,,,,,,,
decision,237,642413,0.0-76.0-2.0,"""event"",""trial"",""time""
""fullscreenenter"",""1"",""6815""
","
","
","""event"",""trial"",""time""
""fullscreenenter"",""1"",""6815""
","
",,109.4,run_exp/static/images/task_images/land.jpg,65,,,,,,,3,,,6,,,,,,,,295285,1,18,FALSE,,,
dig,238,645316,0.0-77.0-0.0,"""event"",""trial"",""time""
""fullscreenenter"",""1"",""6815""
","
","
","""event"",""trial"",""time""
""fullscreenenter"",""1"",""6815""
","
",,,,,,,,,,,,"[{""stimulus"":""run_exp/static/images/task_images/dig.jpg"",""time"":0.5999999940395355},{""stimulus"":""run_exp/static/images/task_images/land.jpg"",""time"":967},{""stimulus"":""run_exp/static/images/task_images/dig.jpg"",""time"":1933.0999999940395}]",[],6,,,,,,,,,,,,,,
harvest,239,646320,0.0-77.0-1.0,"""event"",""trial"",""time""
""fullscreenenter"",""1"",""6815""
","
","
","""event"",""trial"",""time""
""fullscreenenter"",""1"",""6815""
","
",,null,run_exp/static/images/task_images/gems/3.jpg,null,,,,,,,2,,,6,,,,,3,0.814896886,0.666666667,,,,,,,
decision,240,647354,0.0-77.0-2.0,"""event"",""trial"",""time""
""fullscreenenter"",""1"",""6815""
","
","
","""event"",""trial"",""time""
""fullscreenenter"",""1"",""6815""
","
",,1033,run_exp/static/images/task_images/land.jpg,65,,,,,,,2,,,6,,,,,,,,300225,1,19,TRUE,,,
end_of_block_continue,241,656235,0.0-78.0-0.0,"""event"",""trial"",""time""
""fullscreenenter"",""1"",""6815""
","
","
","""event"",""trial"",""time""
""fullscreenenter"",""1"",""6815""
","
",,null,run_exp/static/audio/clip_32_block_end.m4a,,,,,,,null,,,,,,,,,,,,,,,,,,
alien_welcome,242,661257,0.0-79.0-0.0,"""event"",""trial"",""time""
""fullscreenenter"",""1"",""6815""
","
","
","""event"",""trial"",""time""
""fullscreenenter"",""1"",""6815""
","
",,null,run_exp/static/images/task_images/aliens/old_aliens/planet/alien_planet-22.jpg,null,,,,,,,,,,,,,22,"27,19,4,35,29,49,22,24,34,53,70,39,44,65,12,56,37,38,64,74,18,26,36",,,,,,,,,,
land,243,661769,0.0-79.0-1.0,"""event"",""trial"",""time""
""fullscreenenter"",""1"",""6815""
","
","
","""event"",""trial"",""time""
""fullscreenenter"",""1"",""6815""
","
",,null,run_exp/static/images/task_images/land.jpg,null,,,,,,,95,,,7,,,,,,,,,,,,,,
dig,244,663775,0.0-79.0-2.0,"""event"",""trial"",""time""
""fullscreenenter"",""1"",""6815""
","
","
","""event"",""trial"",""time""
""fullscreenenter"",""1"",""6815""
","
",,,,,,,,,,,,"[{""stimulus"":""run_exp/static/images/task_images/dig.jpg"",""time"":0.30000001192092896},{""stimulus"":""run_exp/static/images/task_images/land.jpg"",""time"":670.1999999880791},{""stimulus"":""run_exp/static/images/task_images/dig.jpg"",""time"":1336.699999988079}]",[],7,,,,,,,,,,,,,,
harvest,245,664788,0.0-79.0-3.0,"""event"",""trial"",""time""
""fullscreenenter"",""1"",""6815""
","
","
","""event"",""trial"",""time""
""fullscreenenter"",""1"",""6815""
","
",,null,run_exp/static/images/task_images/gems/95.jpg,null,,,,,,,24,,,7,,,,,95,0.254477268,0.252631579,,,,,,,
decision,246,665947,0.0-79.0-4.0,"""event"",""trial"",""time""
""fullscreenenter"",""1"",""6815""
","
","
","""event"",""trial"",""time""
""fullscreenenter"",""1"",""6815""
","
",,1157.4,run_exp/static/images/task_images/land.jpg,65,,,,,,,24,,,7,,,,,,,,9706,2,0,FALSE,,,
dig,247,667799,0.0-80.0-0.0,"""event"",""trial"",""time""
""fullscreenenter"",""1"",""6815""
","
","
","""event"",""trial"",""time""
""fullscreenenter"",""1"",""6815""
","
",,,,,,,,,,,,"[{""stimulus"":""run_exp/static/images/task_images/dig.jpg"",""time"":0.3999999761581421},{""stimulus"":""run_exp/static/images/task_images/land.jpg"",""time"":618.5999999940395},{""stimulus"":""run_exp/static/images/task_images/dig.jpg"",""time"":1231.8999999761581}]",[],7,,,,,,,,,,,,,,
harvest,248,668804,0.0-80.0-1.0,"""event"",""trial"",""time""
""fullscreenenter"",""1"",""6815""
","
","
","""event"",""trial"",""time""
""fullscreenenter"",""1"",""6815""
","
",,null,run_exp/static/images/task_images/gems/24.jpg,null,,,,,,,5,,,7,,,,,24,0.20130764,0.208333333,,,,,,,
decision,249,670742,0.0-80.0-2.0,"""event"",""trial"",""time""
""fullscreenenter"",""1"",""6815""
","
","
","""event"",""trial"",""time""
""fullscreenenter"",""1"",""6815""
","
",,1935.6,run_exp/static/images/task_images/land.jpg,65,,,,,,,5,,,7,,,,,,,,14501,2,1,FALSE,,,
dig,250,671811,0.0-81.0-0.0,"""event"",""trial"",""time""
""fullscreenenter"",""1"",""6815""
","
","
","""event"",""trial"",""time""
""fullscreenenter"",""1"",""6815""
","
",,,,,,,,,,,,"[{""stimulus"":""run_exp/static/images/task_images/dig.jpg"",""time"":0.20000001788139343},{""stimulus"":""run_exp/static/images/task_images/land.jpg"",""time"":362.60000002384186},{""stimulus"":""run_exp/static/images/task_images/dig.jpg"",""time"":712.9000000059605}]",[],7,,,,,,,,,,,,,,
harvest,251,672815,0.0-81.0-1.0,"""event"",""trial"",""time""
""fullscreenenter"",""1"",""6815""
","
","
","""event"",""trial"",""time""
""fullscreenenter"",""1"",""6815""
","
",,null,run_exp/static/images/task_images/gems/5.jpg,null,,,,,,,1,,,7,,,,,5,0.131005726,0.2,,,,,,,
decision,252,673134,0.0-81.0-2.0,"""event"",""trial"",""time""
""fullscreenenter"",""1"",""6815""
","
","
","""event"",""trial"",""time""
""fullscreenenter"",""1"",""6815""
","
",,317.1,run_exp/static/images/task_images/land.jpg,65,,,,,,,1,,,7,,,,,,,,16893,2,2,FALSE,,,
dig,253,675829,0.0-82.0-0.0,"""event"",""trial"",""time""
""fullscreenenter"",""1"",""6815""
","
","
","""event"",""trial"",""time""
""fullscreenenter"",""1"",""6815""
","
",,,,,,,,,,,,"[{""stimulus"":""run_exp/static/images/task_images/dig.jpg"",""time"":0.20000001788139343},{""stimulus"":""run_exp/static/images/task_images/land.jpg"",""time"":898.3000000119209},{""stimulus"":""run_exp/static/images/task_images/dig.jpg"",""time"":1790.4000000059605}]",[],7,,,,,,,,,,,,,,
harvest,254,676842,0.0-82.0-1.0,"""event"",""trial"",""time""
""fullscreenenter"",""1"",""6815""
","
","
","""event"",""trial"",""time""
""fullscreenenter"",""1"",""6815""
","
",,null,run_exp/static/images/task_images/gems/1.jpg,null,,,,,,,0,,,7,,,,,1,0.188387749,0,,,,,,,
decision,255,678774,0.0-82.0-2.0,"""event"",""trial"",""time""
""fullscreenenter"",""1"",""6815""
","
","
","""event"",""trial"",""time""
""fullscreenenter"",""1"",""6815""
","
",,1929.8,run_exp/static/images/task_images/land.jpg,65,,,,,,,0,,,7,,,,,,,,22533,2,3,FALSE,,,
dig,256,679861,0.0-83.0-0.0,"""event"",""trial"",""time""
""fullscreenenter"",""1"",""6815""
","
","
","""event"",""trial"",""time""
""fullscreenenter"",""1"",""6815""
","
",,,,,,,,,,,,"[{""stimulus"":""run_exp/static/images/task_images/dig.jpg"",""time"":0.4000000059604645},{""stimulus"":""run_exp/static/images/task_images/land.jpg"",""time"":363.40000000596046},{""stimulus"":""run_exp/static/images/task_images/dig.jpg"",""time"":715.0999999940395}]",[],7,,,,,,,,,,,,,,
harvest,257,680864,0.0-83.0-1.0,"""event"",""trial"",""time""
""fullscreenenter"",""1"",""6815""
","
","
","""event"",""trial"",""time""
""fullscreenenter"",""1"",""6815""
","
",,null,run_exp/static/images/task_images/gems/0.jpg,null,,,,,,,0,,,7,,,,,0,0.157320181,NaN,,,,,,,
decision,258,682384,0.0-83.0-2.0,"""event"",""trial"",""time""
""fullscreenenter"",""1"",""6815""
","
","
","""event"",""trial"",""time""
""fullscreenenter"",""1"",""6815""
","
",,1518.4,run_exp/static/images/task_images/land.jpg,76,,,,,,,0,,,7,,,,,,,,26143,2,4,TRUE,,,
travel,259,690867,0.0-84.0-0.0,"""event"",""trial"",""time""
""fullscreenenter"",""1"",""6815""
","
","
","""event"",""trial"",""time""
""fullscreenenter"",""1"",""6815""
","
