trial_type,trial_index,time_elapsed,internal_node_id,interactions,blur_events,focus_events,fullscreenenter_events,fullscreenexit_events,success,rt,stimulus,key_press,prompt,subject_id,participant_id,age,gender,button_pressed,next_reward,animation_sequence,responses,planet,curr_prac_trial,n_prac_rounds,alien,aliens,reward_received,decay_rate_actual,decay_rate_exp,time_in_block,block_num,prt,last_trial_on_planet,button_html,bonus,num_failures
pavlovia,0,2,0.0-0.0,"""event"",""trial"",""time""
""fullscreenenter"",""1"",""7501""
","
","
","""event"",""trial"",""time""
""fullscreenenter"",""1"",""7501""
","
",,,,,,,,,,,,,,,,,,,,,,,,,,,,
fullscreen,1,8492,0.0-1.0,"""event"",""trial"",""time""
""fullscreenenter"",""1"",""7501""
","
","
","""event"",""trial"",""time""
""fullscreenenter"",""1"",""7501""
","
",TRUE,,,,,,,,,,,,,,,,,,,,,,,,,,,
instruc_welcome,2,18306,0.0-2.0,"""event"",""trial"",""time""
""fullscreenenter"",""1"",""7501""
","
","
","""event"",""trial"",""time""
""fullscreenenter"",""1"",""7501""
","
",,null,run_exp/static/audio/clip_1_welcome.m4a,null,"<p>Howdy! In this experiment, you’ll be an explorer traveling through space to collect space treasure.</p><p>Your mission is to collect as much treasure as possible.</p><br><br><p><img src='run_exp/static/images/task_images/opening_img-01.jpg' height='300' width='auto'></p>",9198,534,24.82,Female,,,,,,,,,,,,,,,,,,,
audio-keyboard-response,3,34925,0.0-3.0,"""event"",""trial"",""time""
""fullscreenenter"",""1"",""7501""
","
","
","""event"",""trial"",""time""
""fullscreenenter"",""1"",""7501""
","
",,null,run_exp/static/audio/clip_2_move.m4a,null,,,,,,,,,,,,,,,,,,,,,,,,
welcome_dec,4,36509,0.0-4.0,"""event"",""trial"",""time""
""fullscreenenter"",""1"",""7501""
","
","
","""event"",""trial"",""time""
""fullscreenenter"",""1"",""7501""
","
",,1578.3,"<p>Howdy! In this experiment, you’ll be an explorer traveling through space to collect space treasure.</p><p>Your mission is to collect as much treasure as possible.</p><br><br><p><img src='run_exp/static/images/task_images/opening_img-01.jpg' height='300' width='auto'></p>",,,,,,,1,,,,,,,,,,,,,,,,,,
html-keyboard-response,5,37570,0.0-5.0,"""event"",""trial"",""time""
""fullscreenenter"",""1"",""7501""
","
","
","""event"",""trial"",""time""
""fullscreenenter"",""1"",""7501""
","
",,1059.3,"<p>Howdy! In this experiment, you’ll be an explorer traveling through space to collect space treasure.</p><p>Your mission is to collect as much treasure as possible.</p><br><br><p><img src='run_exp/static/images/task_images/opening_img-01.jpg' height='300' width='auto'></p><button class=""jspsych-html-btn-unchosen""><img src=""run_exp/static/images/task_images/planet-01.jpg"" height=""50""></button><button class=""jspsych-html-btn-chosen""><img src=""run_exp/static/images/task_images/planet-02.jpg"" height=""50""></button><p><b>[press the space bar to lock in your answer]<b><br></p>",32,,,,,,,,,,,,,,,,,,,,,,,,
instruc_goal,6,47661,0.0-6.0-0.0,"""event"",""trial"",""time""
""fullscreenenter"",""1"",""7501""
","
","
","""event"",""trial"",""time""
""fullscreenenter"",""1"",""7501""
","
",,null,run_exp/static/audio/clip_3_goal.m4a,null,"<p> As a space explorer, you’ll visit different planets to dig for space treasure, these pink gems.</p> <p> The more treasure you dig up, the more bonus money you’ll win! </p><br><br><p><img src='run_exp/static/images/task_images/pink_gem.jpg' height='300' width='auto'></p>",,,,,,,,,,,,,,,,,,,,,,,
instruc_goal,7,89310,0.0-6.0-1.0,"""event"",""trial"",""time""
""fullscreenenter"",""1"",""7501""
","
","
","""event"",""trial"",""time""
""fullscreenenter"",""1"",""7501""
","
",,41647.5,"<p> As a space explorer, you’ll visit different planets to dig for space treasure, these pink gems.</p> <p> The more treasure you dig up, the more bonus money you’ll win! </p><br><br><p><img src='run_exp/static/images/task_images/pink_gem.jpg' height='300' width='auto'></p>",,,,,,,1,,,,,,,,,,,,,,,,,,
html-keyboard-response,8,89673,0.0-6.0-2.0,"""event"",""trial"",""time""
""fullscreenenter"",""1"",""7501""
","
","
","""event"",""trial"",""time""
""fullscreenenter"",""1"",""7501""
","
",,361.2,"<p> As a space explorer, you’ll visit different planets to dig for space treasure, these pink gems.</p> <p> The more treasure you dig up, the more bonus money you’ll win! </p><br><br><p><img src='run_exp/static/images/task_images/pink_gem.jpg' height='300' width='auto'></p><button class=""jspsych-html-btn-unchosen""><img src=""run_exp/static/images/task_images/planet-01.jpg"" height=""50""></button><button class=""jspsych-html-btn-chosen""><img src=""run_exp/static/images/task_images/planet-02.jpg"" height=""50""></button><p><b>[press the space bar to lock in your answer]<b><br></p>",32,,,,,,,,,,,,,,,,,,,,,,,,
instruc_dig,9,105738,0.0-7.0-0.0,"""event"",""trial"",""time""
""fullscreenenter"",""1"",""7501""
","
","
","""event"",""trial"",""time""
""fullscreenenter"",""1"",""7501""
","
",,null,run_exp/static/audio/clip_4_dig.m4a,null,,,,,,,100,,,,,,,,,,,,,,,,,
instruc_dig_try,10,105951,0.0-7.0-1.0,"""event"",""trial"",""time""
""fullscreenenter"",""1"",""7501""
","
","
","""event"",""trial"",""time""
""fullscreenenter"",""1"",""7501""
","
",,210.8,"<p> When you’ve arrived at a new planet, you will dig once. </p> <p>Then, you get to decide if you want to stay on the planet and dig again or travel to a new planet and dig there.</p> <p> To stay and dig, press the letter <strong>‘A’</strong> on your keyboard. Try pressing it now! </p><p><img src='run_exp/static/images/task_images/land.jpg'  height='700' width='auto'></p>",65,"<p> When you’ve arrived at a new planet, you will dig once. </p> <p>Then, you get to decide if you want to stay on the planet and dig again or travel to a new planet and dig there.</p> <p> To stay and dig, press the letter <strong>‘A’</strong> on your keyboard. Try pressing it now! </p><p><img src='run_exp/static/images/task_images/land.jpg'  height='700' width='auto'></p>",,,,,,100,,,,,,,,,,,,,,,,,
dig_prac,11,107970,0.0-7.0-2.0,"""event"",""trial"",""time""
""fullscreenenter"",""1"",""7501""
","
","
","""event"",""trial"",""time""
""fullscreenenter"",""1"",""7501""
","
",,,,,,,,,,,,"[{""stimulus"":""run_exp/static/images/task_images/dig.jpg"",""time"":0.30000001192092896},{""stimulus"":""run_exp/static/images/task_images/land.jpg"",""time"":679.9000000357628},{""stimulus"":""run_exp/static/images/task_images/dig.jpg"",""time"":1335.300000011921}]",[],,,,,,,,,,,,,,,
instruc_travel,12,144245,0.0-7.0-3.0,"""event"",""trial"",""time""
""fullscreenenter"",""1"",""7501""
","
","
","""event"",""trial"",""time""
""fullscreenenter"",""1"",""7501""
","
",,null,run_exp/static/audio/clip_5_travel.m4a,null,"<p>Every time you dig up gems, there are less gems on the planet, so the more you dig on a planet the fewer gems you’ll get with each dig.</p><p>When gems are running low, you may want to travel to a new planet. </p> <p>  Planets are very far apart in this galaxy, so it will take some time to travel between them. </p> <br><p>There are lots and lots of planets for you to visit, so you won’t be able to return to any planets you’ve seen before. </p><br><p>To leave this planet and travel to a new one, press the letter <strong>‘L’</strong> on your keyboard. Try pressing it now! </p><p><img src='run_exp/static/images/task_images/rocket-01.jpg'  height='600' width='auto'></p>",,,,,,,,,,,,,,,,,,,,,,,
instruc_travel_try,13,145562,0.0-7.0-4.0,"""event"",""trial"",""time""
""fullscreenenter"",""1"",""7501""
""blur"",""14"",""148956""
","""event"",""trial"",""time""
""blur"",""14"",""148956""
","
","""event"",""trial"",""time""
""fullscreenenter"",""1"",""7501""
","
",,1314.3,"<p>Every time you dig up gems, there are less gems on the planet, so the more you dig on a planet the fewer gems you’ll get with each dig.</p><p>When gems are running low, you may want to travel to a new planet. </p> <p>  Planets are very far apart in this galaxy, so it will take some time to travel between them. </p> <br><p>There are lots and lots of planets for you to visit, so you won’t be able to return to any planets you’ve seen before. </p><br><p>To leave this planet and travel to a new one, press the letter <strong>‘L’</strong> on your keyboard. Try pressing it now! </p><p><img src='run_exp/static/images/task_images/rocket-01.jpg'  height='600' width='auto'></p>",76,"<p>Every time you dig up gems, there are less gems on the planet, so the more you dig on a planet the fewer gems you’ll get with each dig.</p><p>When gems are running low, you may want to travel to a new planet. </p> <p>  Planets are very far apart in this galaxy, so it will take some time to travel between them. </p> <br><p>There are lots and lots of planets for you to visit, so you won’t be able to return to any planets you’ve seen before. </p><br><p>To leave this planet and travel to a new one, press the letter <strong>‘L’</strong> on your keyboard. Try pressing it now! </p><p><img src='run_exp/static/images/task_images/rocket-01.jpg'  height='600' width='auto'></p>",,,,,,,,,,,,,,,,,,,,,,,
travel_prac,14,155611,0.0-7.0-5.0,"""event"",""trial"",""time""
""fullscreenenter"",""1"",""7501""
""blur"",""14"",""148956""
""focus"",""15"",""157943""
","""event"",""trial"",""time""
""blur"",""14"",""148956""
","""event"",""trial"",""time""
""focus"",""15"",""157943""
","""event"",""trial"",""time""
""fullscreenenter"",""1"",""7501""
","
",,,,,,,,,,,,"[{""stimulus"":""run_exp/static/images/task_images/rocket-01.jpg"",""time"":0.6000000238418579},{""stimulus"":""run_exp/static/images/task_images/rocket-02.jpg"",""time"":1123.8999999761581},{""stimulus"":""run_exp/static/images/task_images/rocket-03.jpg"",""time"":2227.800000011921},{""stimulus"":""run_exp/static/images/task_images/rocket-04.jpg"",""time"":3336.5},{""stimulus"":""run_exp/static/images/task_images/rocket-05.jpg"",""time"":4454.5},{""stimulus"":""run_exp/static/images/task_images/rocket-06.jpg"",""time"":5563.100000023842},{""stimulus"":""run_exp/static/images/task_images/rocket-07.jpg"",""time"":6677.800000011921},{""stimulus"":""run_exp/static/images/task_images/rocket-08.jpg"",""time"":7793.699999988079},{""stimulus"":""run_exp/static/images/task_images/rocket-09.jpg"",""time"":8898.899999976158}]",[],0,,,,,,,,,,,,,,
instruc_alien_greet,15,182866,0.0-7.0-6.0,"""event"",""trial"",""time""
""fullscreenenter"",""1"",""7501""
""blur"",""14"",""148956""
""focus"",""15"",""157943""
","""event"",""trial"",""time""
""blur"",""14"",""148956""
","""event"",""trial"",""time""
""focus"",""15"",""157943""
","""event"",""trial"",""time""
""fullscreenenter"",""1"",""7501""
","
",,null,run_exp/static/audio/clip_6_alien.m4a,null,"<p>When you arrive at a new planet, the alien who owns the treasure mine on that planet will greet you!</p><p>The better an alien takes care of their mine the easier it is to dig for gems. Some aliens take better care of their mine than others. So, you won’t get exactly the same amount of gems on each planet.</p><p>What the alien looks like does not tell you anything about how many gems there are on the planet.</p><br><p><img src=""run_exp/static/images/task_images/aliens/instructions_aliens/planet/alien_planet-1.jpg""  height=""600"" width=""auto""></p>",,,,,,,,,,,,,,,,,,,,,,,
instruc_alien_greet,16,193680,0.0-7.0-7.0,"""event"",""trial"",""time""
""fullscreenenter"",""1"",""7501""
""blur"",""14"",""148956""
""focus"",""15"",""157943""
","""event"",""trial"",""time""
""blur"",""14"",""148956""
","""event"",""trial"",""time""
""focus"",""15"",""157943""
","""event"",""trial"",""time""
""fullscreenenter"",""1"",""7501""
","
",,10807.5,"<p>When you arrive at a new planet, the alien who owns the treasure mine on that planet will greet you!</p><p>The better an alien takes care of their mine the easier it is to dig for gems. Some aliens take better care of their mine than others. So, you won’t get exactly the same amount of gems on each planet.</p><p>What the alien looks like does not tell you anything about how many gems there are on the planet.</p><br><p><img src=""run_exp/static/images/task_images/aliens/instructions_aliens/planet/alien_planet-1.jpg""  height=""600"" width=""auto""></p>",,,,,,,1,,,,,,,,,,,,,,,,,,
html-keyboard-response,17,196502,0.0-7.0-8.0,"""event"",""trial"",""time""
""fullscreenenter"",""1"",""7501""
""blur"",""14"",""148956""
""focus"",""15"",""157943""
","""event"",""trial"",""time""
""blur"",""14"",""148956""
","""event"",""trial"",""time""
""focus"",""15"",""157943""
","""event"",""trial"",""time""
""fullscreenenter"",""1"",""7501""
","
",,2819.1,"<p>When you arrive at a new planet, the alien who owns the treasure mine on that planet will greet you!</p><p>The better an alien takes care of their mine the easier it is to dig for gems. Some aliens take better care of their mine than others. So, you won’t get exactly the same amount of gems on each planet.</p><p>What the alien looks like does not tell you anything about how many gems there are on the planet.</p><br><p><img src=""run_exp/static/images/task_images/aliens/instructions_aliens/planet/alien_planet-1.jpg""  height=""600"" width=""auto""></p><button class=""jspsych-html-btn-unchosen""><img src=""run_exp/static/images/task_images/planet-01.jpg"" height=""50""></button><button class=""jspsych-html-btn-chosen""><img src=""run_exp/static/images/task_images/planet-02.jpg"" height=""50""></button><p><b>[press the space bar to lock in your answer]<b><br></p>",32,,,,,,,,,,,,,,,,,,,,,,,,
time_out,18,207633,0.0-8.0-0.0,"""event"",""trial"",""time""
""fullscreenenter"",""1"",""7501""
""blur"",""14"",""148956""
""focus"",""15"",""157943""
","""event"",""trial"",""time""
""blur"",""14"",""148956""
","""event"",""trial"",""time""
""focus"",""15"",""157943""
","""event"",""trial"",""time""
""fullscreenenter"",""1"",""7501""
","
",,null,run_exp/static/audio/clip_7_timeout.m4a,null,"<p>If you don't make your choice fast enough, you’ll have to wait a few seconds before you can make another one.</p><p>You can’t dig for more gems or travel to new planets. You just have to sit and wait.</p><br><p><img src='run_exp/static/images/task_images/time_out.jpg'  height='600' width='auto'></p>",,,,,,,,,,,,,,,,,,,,,,,
time_out,19,210497,0.0-8.0-1.0,"""event"",""trial"",""time""
""fullscreenenter"",""1"",""7501""
""blur"",""14"",""148956""
""focus"",""15"",""157943""
","""event"",""trial"",""time""
""blur"",""14"",""148956""
","""event"",""trial"",""time""
""focus"",""15"",""157943""
","""event"",""trial"",""time""
""fullscreenenter"",""1"",""7501""
","
",,2861.3,"<p>If you don't make your choice fast enough, you’ll have to wait a few seconds before you can make another one.</p><p>You can’t dig for more gems or travel to new planets. You just have to sit and wait.</p><br><p><img src='run_exp/static/images/task_images/time_out.jpg'  height='600' width='auto'></p>",,,,,,,1,,,,,,,,,,,,,,,,,,
html-keyboard-response,20,211716,0.0-8.0-2.0,"""event"",""trial"",""time""
""fullscreenenter"",""1"",""7501""
""blur"",""14"",""148956""
""focus"",""15"",""157943""
","""event"",""trial"",""time""
""blur"",""14"",""148956""
","""event"",""trial"",""time""
""focus"",""15"",""157943""
","""event"",""trial"",""time""
""fullscreenenter"",""1"",""7501""
","
",,1217.3,"<p>If you don't make your choice fast enough, you’ll have to wait a few seconds before you can make another one.</p><p>You can’t dig for more gems or travel to new planets. You just have to sit and wait.</p><br><p><img src='run_exp/static/images/task_images/time_out.jpg'  height='600' width='auto'></p><button class=""jspsych-html-btn-unchosen""><img src=""run_exp/static/images/task_images/planet-01.jpg"" height=""50""></button><button class=""jspsych-html-btn-chosen""><img src=""run_exp/static/images/task_images/planet-02.jpg"" height=""50""></button><p><b>[press the space bar to lock in your answer]<b><br></p>",32,,,,,,,,,,,,,,,,,,,,,,,,
instruc_break,21,227388,0.0-9.0-0.0,"""event"",""trial"",""time""
""fullscreenenter"",""1"",""7501""
""blur"",""14"",""148956""
""focus"",""15"",""157943""
","""event"",""trial"",""time""
""blur"",""14"",""148956""
","""event"",""trial"",""time""
""focus"",""15"",""157943""
","""event"",""trial"",""time""
""fullscreenenter"",""1"",""7501""
","
",,null,run_exp/static/audio/clip_8_break.m4a,null,"<p> After digging and traveling for a while, you’ll be able to take a break at home base. </p><p>The game will last 20 minutes no matter what.</p><p>You will visit home base every 5 minutes, so, you will visit home base three times during the game.</p><br><p><img src='run_exp/static/images/task_images/home_base.jpg' height='600' width='auto'></p>",,,,,,,,,,,,,,,,,,,,,,,
instruc_break,22,231678,0.0-9.0-1.0,"""event"",""trial"",""time""
""fullscreenenter"",""1"",""7501""
""blur"",""14"",""148956""
""focus"",""15"",""157943""
","""event"",""trial"",""time""
""blur"",""14"",""148956""
","""event"",""trial"",""time""
""focus"",""15"",""157943""
","""event"",""trial"",""time""
""fullscreenenter"",""1"",""7501""
","
",,4287.4,"<p> After digging and traveling for a while, you’ll be able to take a break at home base. </p><p>The game will last 20 minutes no matter what.</p><p>You will visit home base every 5 minutes, so, you will visit home base three times during the game.</p><br><p><img src='run_exp/static/images/task_images/home_base.jpg' height='600' width='auto'></p>",,,,,,,1,,,,,,,,,,,,,,,,,,
html-keyboard-response,23,231987,0.0-9.0-2.0,"""event"",""trial"",""time""
""fullscreenenter"",""1"",""7501""
""blur"",""14"",""148956""
""focus"",""15"",""157943""
","""event"",""trial"",""time""
""blur"",""14"",""148956""
","""event"",""trial"",""time""
""focus"",""15"",""157943""
","""event"",""trial"",""time""
""fullscreenenter"",""1"",""7501""
","
",,306.7,"<p> After digging and traveling for a while, you’ll be able to take a break at home base. </p><p>The game will last 20 minutes no matter what.</p><p>You will visit home base every 5 minutes, so, you will visit home base three times during the game.</p><br><p><img src='run_exp/static/images/task_images/home_base.jpg' height='600' width='auto'></p><button class=""jspsych-html-btn-unchosen""><img src=""run_exp/static/images/task_images/planet-01.jpg"" height=""50""></button><button class=""jspsych-html-btn-chosen""><img src=""run_exp/static/images/task_images/planet-02.jpg"" height=""50""></button><p><b>[press the space bar to lock in your answer]<b><br></p>",32,,,,,,,,,,,,,,,,,,,,,,,,
instruc_prac_game,24,242150,0.0-10.0-0.0,"""event"",""trial"",""time""
""fullscreenenter"",""1"",""7501""
""blur"",""14"",""148956""
""focus"",""15"",""157943""
","""event"",""trial"",""time""
""blur"",""14"",""148956""
","""event"",""trial"",""time""
""focus"",""15"",""157943""
","""event"",""trial"",""time""
""fullscreenenter"",""1"",""7501""
","
",,null,run_exp/static/audio/clip_9_practice.m4a,null,"<p> Are you ready to play a practice game? </p> <p>In this practice game, you'll be digging up barrels of gems. But, in the real game, you'll be digging up the gems themselves. </p>",,,,,,,,,,,,,,,,,,,,,,,
html-button-response,25,244083,0.0-10.0-1.0,"""event"",""trial"",""time""
""fullscreenenter"",""1"",""7501""
""blur"",""14"",""148956""
""focus"",""15"",""157943""
","""event"",""trial"",""time""
""blur"",""14"",""148956""
","""event"",""trial"",""time""
""focus"",""15"",""157943""
","""event"",""trial"",""time""
""fullscreenenter"",""1"",""7501""
","
",,1929.5,"<p> Are you ready to play a practice game? </p> <p>In this practice game, you'll be digging up barrels of gems. But, in the real game, you'll be digging up the gems themselves. </p>",,,,,,,0,,,,,,,,,,,,,,,,,,
alien_welcome_prac,26,249102,0.0-11.0-0.0,"""event"",""trial"",""time""
""fullscreenenter"",""1"",""7501""
""blur"",""14"",""148956""
""focus"",""15"",""157943""
","""event"",""trial"",""time""
""blur"",""14"",""148956""
","""event"",""trial"",""time""
""focus"",""15"",""157943""
","""event"",""trial"",""time""
""fullscreenenter"",""1"",""7501""
","
",,null,run_exp/static/images/task_images/aliens/practice_aliens/planet/alien_planet-5.jpg,null,,,,,,,,,,,,,,,,,,,,,,,,
land_prac,27,249611,0.0-11.0-1.0,"""event"",""trial"",""time""
""fullscreenenter"",""1"",""7501""
""blur"",""14"",""148956""
""focus"",""15"",""157943""
","""event"",""trial"",""time""
""blur"",""14"",""148956""
","""event"",""trial"",""time""
""focus"",""15"",""157943""
","""event"",""trial"",""time""
""fullscreenenter"",""1"",""7501""
","
",,null,run_exp/static/images/task_images/land.jpg,null,,,,,,,98,,,0,,,,,,,,,,,,,,
dig_prac,28,251633,0.0-11.0-2.0,"""event"",""trial"",""time""
""fullscreenenter"",""1"",""7501""
""blur"",""14"",""148956""
""focus"",""15"",""157943""
","""event"",""trial"",""time""
""blur"",""14"",""148956""
","""event"",""trial"",""time""
""focus"",""15"",""157943""
","""event"",""trial"",""time""
""fullscreenenter"",""1"",""7501""
","
",,,,,,,,,,,,"[{""stimulus"":""run_exp/static/images/task_images/dig.jpg"",""time"":0.3999999761581421},{""stimulus"":""run_exp/static/images/task_images/land.jpg"",""time"":677.3999999761581},{""stimulus"":""run_exp/static/images/task_images/dig.jpg"",""time"":1339.0999999642372}]",[],,,,,,,,,,,,,,,
harvest_prac,29,252640,0.0-11.0-3.0,"""event"",""trial"",""time""
""fullscreenenter"",""1"",""7501""
""blur"",""14"",""148956""
""focus"",""15"",""157943""
","""event"",""trial"",""time""
""blur"",""14"",""148956""
","""event"",""trial"",""time""
""focus"",""15"",""157943""
","""event"",""trial"",""time""
""fullscreenenter"",""1"",""7501""
","
",,null,run_exp/static/images/task_images/barrel_text.jpg,null,,,,,,,,,,,,,,,,,,,,,,,,
decision_prac,30,254243,0.0-11.0-4.0,"""event"",""trial"",""time""
""fullscreenenter"",""1"",""7501""
""blur"",""14"",""148956""
""focus"",""15"",""157943""
","""event"",""trial"",""time""
""blur"",""14"",""148956""
","""event"",""trial"",""time""
""focus"",""15"",""157943""
","""event"",""trial"",""time""
""fullscreenenter"",""1"",""7501""
","
",,1600,run_exp/static/images/task_images/land.jpg,65,,,,,,,,,,,1,,,,,,,,,,,,,
dig_prac,31,256256,0.0-12.0-0.0,"""event"",""trial"",""time""
""fullscreenenter"",""1"",""7501""
""blur"",""14"",""148956""
""focus"",""15"",""157943""
","""event"",""trial"",""time""
""blur"",""14"",""148956""
","""event"",""trial"",""time""
""focus"",""15"",""157943""
","""event"",""trial"",""time""
""fullscreenenter"",""1"",""7501""
","
",,,,,,,,,,,,"[{""stimulus"":""run_exp/static/images/task_images/dig.jpg"",""time"":0.40000003576278687},{""stimulus"":""run_exp/static/images/task_images/land.jpg"",""time"":677.5},{""stimulus"":""run_exp/static/images/task_images/dig.jpg"",""time"":1337.6000000238419}]",[],,,,,,,,,,,,,,,
harvest_prac,32,257264,0.0-12.0-1.0,"""event"",""trial"",""time""
""fullscreenenter"",""1"",""7501""
""blur"",""14"",""148956""
""focus"",""15"",""157943""
","""event"",""trial"",""time""
""blur"",""14"",""148956""
","""event"",""trial"",""time""
""focus"",""15"",""157943""
","""event"",""trial"",""time""
""fullscreenenter"",""1"",""7501""
","
",,null,run_exp/static/images/task_images/barrel_text.jpg,null,,,,,,,,,,,,,,,,,,,,,,,,
decision_prac,33,258245,0.0-12.0-2.0,"""event"",""trial"",""time""
""fullscreenenter"",""1"",""7501""
""blur"",""14"",""148956""
""focus"",""15"",""157943""
","""event"",""trial"",""time""
""blur"",""14"",""148956""
","""event"",""trial"",""time""
""focus"",""15"",""157943""
","""event"",""trial"",""time""
""fullscreenenter"",""1"",""7501""
","
",,976.8,run_exp/static/images/task_images/land.jpg,65,,,,,,,,,,,2,,,,,,,,,,,,,
dig_prac,34,260256,0.0-13.0-0.0,"""event"",""trial"",""time""
""fullscreenenter"",""1"",""7501""
""blur"",""14"",""148956""
""focus"",""15"",""157943""
","""event"",""trial"",""time""
""blur"",""14"",""148956""
","""event"",""trial"",""time""
""focus"",""15"",""157943""
","""event"",""trial"",""time""
""fullscreenenter"",""1"",""7501""
","
",,,,,,,,,,,,"[{""stimulus"":""run_exp/static/images/task_images/dig.jpg"",""time"":0.19999998807907104},{""stimulus"":""run_exp/static/images/task_images/land.jpg"",""time"":676.0999999642372},{""stimulus"":""run_exp/static/images/task_images/dig.jpg"",""time"":1336.699999988079}]",[],,,,,,,,,,,,,,,
harvest_prac,35,261264,0.0-13.0-1.0,"""event"",""trial"",""time""
""fullscreenenter"",""1"",""7501""
""blur"",""14"",""148956""
""focus"",""15"",""157943""
","""event"",""trial"",""time""
""blur"",""14"",""148956""
","""event"",""trial"",""time""
""focus"",""15"",""157943""
","""event"",""trial"",""time""
""fullscreenenter"",""1"",""7501""
","
",,null,run_exp/static/images/task_images/barrel_text.jpg,null,,,,,,,,,,,,,,,,,,,,,,,,
decision_prac,36,262081,0.0-13.0-2.0,"""event"",""trial"",""time""
""fullscreenenter"",""1"",""7501""
""blur"",""14"",""148956""
""focus"",""15"",""157943""
","""event"",""trial"",""time""
""blur"",""14"",""148956""
","""event"",""trial"",""time""
""focus"",""15"",""157943""
","""event"",""trial"",""time""
""fullscreenenter"",""1"",""7501""
","
",,815.3,run_exp/static/images/task_images/land.jpg,65,,,,,,,,,,,3,,,,,,,,,,,,,
dig_prac,37,264090,0.0-14.0-0.0,"""event"",""trial"",""time""
""fullscreenenter"",""1"",""7501""
""blur"",""14"",""148956""
""focus"",""15"",""157943""
","""event"",""trial"",""time""
""blur"",""14"",""148956""
","""event"",""trial"",""time""
""focus"",""15"",""157943""
","""event"",""trial"",""time""
""fullscreenenter"",""1"",""7501""
","
",,,,,,,,,,,,"[{""stimulus"":""run_exp/static/images/task_images/dig.jpg"",""time"":0.19999998807907104},{""stimulus"":""run_exp/static/images/task_images/land.jpg"",""time"":678.1999999880791},{""stimulus"":""run_exp/static/images/task_images/dig.jpg"",""time"":1340}]",[],,,,,,,,,,,,,,,
harvest_prac,38,265098,0.0-14.0-1.0,"""event"",""trial"",""time""
""fullscreenenter"",""1"",""7501""
""blur"",""14"",""148956""
""focus"",""15"",""157943""
","""event"",""trial"",""time""
""blur"",""14"",""148956""
","""event"",""trial"",""time""
""focus"",""15"",""157943""
","""event"",""trial"",""time""
""fullscreenenter"",""1"",""7501""
","
",,null,run_exp/static/images/task_images/barrel_text.jpg,null,,,,,,,,,,,,,,,,,,,,,,,,
decision_prac,39,265772,0.0-14.0-2.0,"""event"",""trial"",""time""
""fullscreenenter"",""1"",""7501""
""blur"",""14"",""148956""
""focus"",""15"",""157943""
","""event"",""trial"",""time""
""blur"",""14"",""148956""
","""event"",""trial"",""time""
""focus"",""15"",""157943""
","""event"",""trial"",""time""
""fullscreenenter"",""1"",""7501""
","
",,670.2,run_exp/static/images/task_images/land.jpg,65,,,,,,,,,,,4,,,,,,,,,,,,,
dig_prac,40,267786,0.0-15.0-0.0,"""event"",""trial"",""time""
""fullscreenenter"",""1"",""7501""
""blur"",""14"",""148956""
""focus"",""15"",""157943""
","""event"",""trial"",""time""
""blur"",""14"",""148956""
","""event"",""trial"",""time""
""focus"",""15"",""157943""
","""event"",""trial"",""time""
""fullscreenenter"",""1"",""7501""
","
",,,,,,,,,,,,"[{""stimulus"":""run_exp/static/images/task_images/dig.jpg"",""time"":0.19999998807907104},{""stimulus"":""run_exp/static/images/task_images/land.jpg"",""time"":679.3999999761581},{""stimulus"":""run_exp/static/images/task_images/dig.jpg"",""time"":1340.3999999761581}]",[],,,,,,,,,,,,,,,
harvest_prac,41,268794,0.0-15.0-1.0,"""event"",""trial"",""time""
""fullscreenenter"",""1"",""7501""
""blur"",""14"",""148956""
""focus"",""15"",""157943""
","""event"",""trial"",""time""
""blur"",""14"",""148956""
","""event"",""trial"",""time""
""focus"",""15"",""157943""
","""event"",""trial"",""time""
""fullscreenenter"",""1"",""7501""
","
",,null,run_exp/static/images/task_images/barrel_text.jpg,null,,,,,,,,,,,,,,,,,,,,,,,,
decision_prac,42,269359,0.0-15.0-2.0,"""event"",""trial"",""time""
""fullscreenenter"",""1"",""7501""
""blur"",""14"",""148956""
""focus"",""15"",""157943""
","""event"",""trial"",""time""
""blur"",""14"",""148956""
","""event"",""trial"",""time""
""focus"",""15"",""157943""
","""event"",""trial"",""time""
""fullscreenenter"",""1"",""7501""
","
",,564.3,run_exp/static/images/task_images/land.jpg,65,,,,,,,,,,,,1,,,,,,,,,,,,
quiz_instruc,43,275349,0.0-16.0-0.0,"""event"",""trial"",""time""
""fullscreenenter"",""1"",""7501""
""blur"",""14"",""148956""
""focus"",""15"",""157943""
","""event"",""trial"",""time""
""blur"",""14"",""148956""
","""event"",""trial"",""time""
""focus"",""15"",""157943""
","""event"",""trial"",""time""
""fullscreenenter"",""1"",""7501""
","
",,5983.4,run_exp/static/audio/clip_10_quiz.m4a,,,,,,,0,,,,,,,,,,,,,,,,,,
instruc_repeat,44,318140,0.0-16.0-1.0,"""event"",""trial"",""time""
""fullscreenenter"",""1"",""7501""
""blur"",""14"",""148956""
""focus"",""15"",""157943""
","""event"",""trial"",""time""
""blur"",""14"",""148956""
","""event"",""trial"",""time""
""focus"",""15"",""157943""
","""event"",""trial"",""time""
""fullscreenenter"",""1"",""7501""
","
",,null,"<p> Are you ready to play a practice game? </p> <p>In this practice game, you'll be digging up barrels of gems. But, in the real game, you'll be digging up the gems themselves. </p>",null,"<p>In this game, your goal is to collect as many gems as you can. That’s how you will win bonus money. </p> <p>The entire game will last 20 minutes no matter how many gems you collect or how many planets you visit. </p><p>To stay on a planet and dig again, press the letter A on your keyboard. To leave for a new planet, press the letter L.</p><p>The more you dig on a planet, the fewer gems you’ll get with each dig which is why you might consider leaving for a new planet. </p><p>When you arrive at a new planet, you’ll be greeted by an alien. What the alien looks like does not tell you anything about how much treasure is on the planet. </p>",,,,,,,,,,,,,,,,,,,,,,,
instruc_repeat_continue,45,320771,0.0-16.0-2.0,"""event"",""trial"",""time""
""fullscreenenter"",""1"",""7501""
""blur"",""14"",""148956""
""focus"",""15"",""157943""
","""event"",""trial"",""time""
""blur"",""14"",""148956""
","""event"",""trial"",""time""
""focus"",""15"",""157943""
","""event"",""trial"",""time""
""fullscreenenter"",""1"",""7501""
","
",,2627.8,"<p> Are you ready to play a practice game? </p> <p>In this practice game, you'll be digging up barrels of gems. But, in the real game, you'll be digging up the gems themselves. </p>",,,,,,,0,,,,,,,,,,,,,,,,,,
quiz_q_1_ask,46,324296,0.0-16.0-3.0,"""event"",""trial"",""time""
""fullscreenenter"",""1"",""7501""
""blur"",""14"",""148956""
""focus"",""15"",""157943""
","""event"",""trial"",""time""
""blur"",""14"",""148956""
","""event"",""trial"",""time""
""focus"",""15"",""157943""
","""event"",""trial"",""time""
""fullscreenenter"",""1"",""7501""
","
",,3523.3,run_exp/static/audio/clip_11_q1_ask.m4a,,,,,,,2,,,,,,,,,,,,,,,,,,
quiz_q_1_fb_correct,47,328145,0.0-17.0-0.0,"""event"",""trial"",""time""
""fullscreenenter"",""1"",""7501""
""blur"",""14"",""148956""
""focus"",""15"",""157943""
","""event"",""trial"",""time""
""blur"",""14"",""148956""
","""event"",""trial"",""time""
""focus"",""15"",""157943""
","""event"",""trial"",""time""
""fullscreenenter"",""1"",""7501""
","
",,null,run_exp/static/audio/clip_12_q1_correct.m4a,null,<p>That’s correct. You win extra money by collecting more gems.</p>,,,,,,,,,,,,,,,,,,,,,,,
quiz_q_2_ask,48,332887,0.0-17.0-1.0,"""event"",""trial"",""time""
""fullscreenenter"",""1"",""7501""
""blur"",""14"",""148956""
""focus"",""15"",""157943""
","""event"",""trial"",""time""
""blur"",""14"",""148956""
","""event"",""trial"",""time""
""focus"",""15"",""157943""
","""event"",""trial"",""time""
""fullscreenenter"",""1"",""7501""
","
",,4737.6,run_exp/static/audio/clip_14_q2_ask.m4a,,,,,,,1,,,,,,,,,,,,,,,,,,
quiz_q_2_fb_correct,49,336892,0.0-18.0-0.0,"""event"",""trial"",""time""
""fullscreenenter"",""1"",""7501""
""blur"",""14"",""148956""
""focus"",""15"",""157943""
","""event"",""trial"",""time""
""blur"",""14"",""148956""
","""event"",""trial"",""time""
""focus"",""15"",""157943""
","""event"",""trial"",""time""
""fullscreenenter"",""1"",""7501""
","
",,null,run_exp/static/audio/clip_15_q2_correct.m4a,null,<p>That’s correct. The experiment is 20 minutes no matter what.</p>,,,,,,,,,,,,,,,,,,,,,,,
quiz_q_3_ask,50,339595,0.0-18.0-1.0,"""event"",""trial"",""time""
""fullscreenenter"",""1"",""7501""
""blur"",""14"",""148956""
""focus"",""15"",""157943""
","""event"",""trial"",""time""
""blur"",""14"",""148956""
","""event"",""trial"",""time""
""focus"",""15"",""157943""
","""event"",""trial"",""time""
""fullscreenenter"",""1"",""7501""
","
",,2700.4,run_exp/static/audio/clip_17_q3_ask.m4a,,,,,,,1,,,,,,,,,,,,,,,,,,
quiz_q_3_fb_correct,51,343570,0.0-19.0-0.0,"""event"",""trial"",""time""
""fullscreenenter"",""1"",""7501""
""blur"",""14"",""148956""
""focus"",""15"",""157943""
","""event"",""trial"",""time""
""blur"",""14"",""148956""
","""event"",""trial"",""time""
""focus"",""15"",""157943""
","""event"",""trial"",""time""
""fullscreenenter"",""1"",""7501""
","
",,null,run_exp/static/audio/clip_18_q3_correct.m4a,null,<p> That’s correct. You press the letter L to travel to a new planet.</p>,,,,,,,,,,,,,,,,,,,,,,,
quiz_q_4_ask,52,351485,0.0-19.0-1.0,"""event"",""trial"",""time""
""fullscreenenter"",""1"",""7501""
""blur"",""14"",""148956""
""focus"",""15"",""157943""
","""event"",""trial"",""time""
""blur"",""14"",""148956""
","""event"",""trial"",""time""
""focus"",""15"",""157943""
","""event"",""trial"",""time""
""fullscreenenter"",""1"",""7501""
","
",,7913.7,run_exp/static/audio/clip_20_q4_ask.m4a,,,,,,,1,,,,,,,,,,,,,,,,,,
quiz_q_4_fb_incorrect,53,357308,0.0-20.0-0.0,"""event"",""trial"",""time""
""fullscreenenter"",""1"",""7501""
""blur"",""14"",""148956""
""focus"",""15"",""157943""
","""event"",""trial"",""time""
""blur"",""14"",""148956""
","""event"",""trial"",""time""
""focus"",""15"",""157943""
","""event"",""trial"",""time""
""fullscreenenter"",""1"",""7501""
","
",,null,run_exp/static/audio/clip_22_q4_incorrect.m4a,null,<p>That’s incorrect.  The more you dig on a planet the fewer gems you’ll get with each dig.</p>,,,,,,,,,,,,,,,,,,,,,,,
quiz_q_5_ask,54,359783,0.0-20.0-1.0,"""event"",""trial"",""time""
""fullscreenenter"",""1"",""7501""
""blur"",""14"",""148956""
""focus"",""15"",""157943""
","""event"",""trial"",""time""
""blur"",""14"",""148956""
","""event"",""trial"",""time""
""focus"",""15"",""157943""
","""event"",""trial"",""time""
""fullscreenenter"",""1"",""7501""
","
",,2472.3,run_exp/static/audio/clip_23_q5_ask.m4a,,,,,,,1,,,,,,,,,,,,,,,,,,
quiz_q_5_fb_correct,55,364775,0.0-21.0-0.0,"""event"",""trial"",""time""
""fullscreenenter"",""1"",""7501""
""blur"",""14"",""148956""
""focus"",""15"",""157943""
","""event"",""trial"",""time""
""blur"",""14"",""148956""
","""event"",""trial"",""time""
""focus"",""15"",""157943""
","""event"",""trial"",""time""
""fullscreenenter"",""1"",""7501""
","
",,null,run_exp/static/audio/clip_24_q5_correct.m4a,null,<p> That’s correct. The alien tells you nothing about how much treasure is on the planet.</p>,,,,,,,,,,,,,,,,,,,,,,,
quiz_incorrect,56,370343,0.0-22.0-0.0,"""event"",""trial"",""time""
""fullscreenenter"",""1"",""7501""
""blur"",""14"",""148956""
""focus"",""15"",""157943""
","""event"",""trial"",""time""
""blur"",""14"",""148956""
","""event"",""trial"",""time""
""focus"",""15"",""157943""
","""event"",""trial"",""time""
""fullscreenenter"",""1"",""7501""
","
",,null,run_exp/static/audio/clip_27_incorrect_quiz.m4a,null,,,,,,,,,,,,,,,,,,,,,,,,
quiz_incorrect_continue,57,371059,0.0-22.0-1.0,"""event"",""trial"",""time""
""fullscreenenter"",""1"",""7501""
""blur"",""14"",""148956""
""focus"",""15"",""157943""
","""event"",""trial"",""time""
""blur"",""14"",""148956""
","""event"",""trial"",""time""
""focus"",""15"",""157943""
","""event"",""trial"",""time""
""fullscreenenter"",""1"",""7501""
","
",,714.8,"<p>Oops, you missed some questions.</p><p>Now that you’ve heard the correct answers. Try the quiz again!</p>",,,,,,,0,,,,,,,,,,,,,,,,,,
quiz_q_1_ask,58,373037,0.0-22.0-2.0,"""event"",""trial"",""time""
""fullscreenenter"",""1"",""7501""
""blur"",""14"",""148956""
""focus"",""15"",""157943""
","""event"",""trial"",""time""
""blur"",""14"",""148956""
","""event"",""trial"",""time""
""focus"",""15"",""157943""
","""event"",""trial"",""time""
""fullscreenenter"",""1"",""7501""
","
",,1976.6,run_exp/static/audio/clip_11_q1_ask.m4a,,,,,,,2,,,,,,,,,,,,,,,,,,
quiz_q_1_fb_correct,59,376871,0.0-23.0-0.0,"""event"",""trial"",""time""
""fullscreenenter"",""1"",""7501""
""blur"",""14"",""148956""
""focus"",""15"",""157943""
","""event"",""trial"",""time""
""blur"",""14"",""148956""
","""event"",""trial"",""time""
""focus"",""15"",""157943""
","""event"",""trial"",""time""
""fullscreenenter"",""1"",""7501""
","
",,null,run_exp/static/audio/clip_12_q1_correct.m4a,null,<p>That’s correct. You win extra money by collecting more gems.</p>,,,,,,,,,,,,,,,,,,,,,,,
quiz_q_2_ask,60,378054,0.0-23.0-1.0,"""event"",""trial"",""time""
""fullscreenenter"",""1"",""7501""
""blur"",""14"",""148956""
""focus"",""15"",""157943""
","""event"",""trial"",""time""
""blur"",""14"",""148956""
","""event"",""trial"",""time""
""focus"",""15"",""157943""
","""event"",""trial"",""time""
""fullscreenenter"",""1"",""7501""
","
",,1180.2,run_exp/static/audio/clip_14_q2_ask.m4a,,,,,,,1,,,,,,,,,,,,,,,,,,
quiz_q_2_fb_correct,61,382055,0.0-24.0-0.0,"""event"",""trial"",""time""
""fullscreenenter"",""1"",""7501""
""blur"",""14"",""148956""
""focus"",""15"",""157943""
","""event"",""trial"",""time""
""blur"",""14"",""148956""
","""event"",""trial"",""time""
""focus"",""15"",""157943""
","""event"",""trial"",""time""
""fullscreenenter"",""1"",""7501""
","
",,null,run_exp/static/audio/clip_15_q2_correct.m4a,null,<p>That’s correct. The experiment is 20 minutes no matter what.</p>,,,,,,,,,,,,,,,,,,,,,,,
quiz_q_3_ask,62,383828,0.0-24.0-1.0,"""event"",""trial"",""time""
""fullscreenenter"",""1"",""7501""
""blur"",""14"",""148956""
""focus"",""15"",""157943""
","""event"",""trial"",""time""
""blur"",""14"",""148956""
","""event"",""trial"",""time""
""focus"",""15"",""157943""
","""event"",""trial"",""time""
""fullscreenenter"",""1"",""7501""
","
",,1770.9,run_exp/static/audio/clip_17_q3_ask.m4a,,,,,,,1,,,,,,,,,,,,,,,,,,
quiz_q_3_fb_correct,63,387793,0.0-25.0-0.0,"""event"",""trial"",""time""
""fullscreenenter"",""1"",""7501""
""blur"",""14"",""148956""
""focus"",""15"",""157943""
","""event"",""trial"",""time""
""blur"",""14"",""148956""
","""event"",""trial"",""time""
""focus"",""15"",""157943""
","""event"",""trial"",""time""
""fullscreenenter"",""1"",""7501""
","
",,null,run_exp/static/audio/clip_18_q3_correct.m4a,null,<p> That’s correct. You press the letter L to travel to a new planet.</p>,,,,,,,,,,,,,,,,,,,,,,,
quiz_q_4_ask,64,390790,0.0-25.0-1.0,"""event"",""trial"",""time""
""fullscreenenter"",""1"",""7501""
""blur"",""14"",""148956""
""focus"",""15"",""157943""
","""event"",""trial"",""time""
""blur"",""14"",""148956""
","""event"",""trial"",""time""
""focus"",""15"",""157943""
","""event"",""trial"",""time""
""fullscreenenter"",""1"",""7501""
","
",,2994.7,run_exp/static/audio/clip_20_q4_ask.m4a,,,,,,,0,,,,,,,,,,,,,,,,,,
quiz_q_4_fb_correct,65,396092,0.0-26.0-0.0,"""event"",""trial"",""time""
""fullscreenenter"",""1"",""7501""
""blur"",""14"",""148956""
""focus"",""15"",""157943""
","""event"",""trial"",""time""
""blur"",""14"",""148956""
","""event"",""trial"",""time""
""focus"",""15"",""157943""
","""event"",""trial"",""time""
""fullscreenenter"",""1"",""7501""
","
",,null,run_exp/static/audio/clip_21_q4_correct.m4a,null,<p> That’s correct. The more you dig on a planet the fewer gems you’ll get with each dig. </p>,,,,,,,,,,,,,,,,,,,,,,,
quiz_q_5_ask,66,398109,0.0-26.0-1.0,"""event"",""trial"",""time""
""fullscreenenter"",""1"",""7501""
""blur"",""14"",""148956""
""focus"",""15"",""157943""
","""event"",""trial"",""time""
""blur"",""14"",""148956""
","""event"",""trial"",""time""
""focus"",""15"",""157943""
","""event"",""trial"",""time""
""fullscreenenter"",""1"",""7501""
","
",,2014.9,run_exp/static/audio/clip_23_q5_ask.m4a,,,,,,,1,,,,,,,,,,,,,,,,,,
quiz_q_5_fb_correct,67,403111,0.0-27.0-0.0,"""event"",""trial"",""time""
""fullscreenenter"",""1"",""7501""
""blur"",""14"",""148956""
""focus"",""15"",""157943""
","""event"",""trial"",""time""
""blur"",""14"",""148956""
","""event"",""trial"",""time""
""focus"",""15"",""157943""
","""event"",""trial"",""time""
""fullscreenenter"",""1"",""7501""
","
",,null,run_exp/static/audio/clip_24_q5_correct.m4a,null,<p> That’s correct. The alien tells you nothing about how much treasure is on the planet.</p>,,,,,,,,,,,,,,,,,,,,,,,
quiz_correct,68,406567,0.0-28.0-0.0,"""event"",""trial"",""time""
""fullscreenenter"",""1"",""7501""
""blur"",""14"",""148956""
""focus"",""15"",""157943""
","""event"",""trial"",""time""
""blur"",""14"",""148956""
","""event"",""trial"",""time""
""focus"",""15"",""157943""
","""event"",""trial"",""time""
""fullscreenenter"",""1"",""7501""
","
",,null,run_exp/static/audio/clip_26_correct_quiz.m4a,null,,,,,,,,,,,,,,,,,,,,,,,,
quiz_correct_continue,69,409843,0.0-28.0-1.0,"""event"",""trial"",""time""
""fullscreenenter"",""1"",""7501""
""blur"",""14"",""148956""
""focus"",""15"",""157943""
","""event"",""trial"",""time""
""blur"",""14"",""148956""
","""event"",""trial"",""time""
""focus"",""15"",""157943""
","""event"",""trial"",""time""
""fullscreenenter"",""1"",""7501""
","
",,3274.2,<p>Good job! You're now ready to move on to the real game!</p>,,,,,,,0,,,,,,,,,,,,,,,,,,
audio-keyboard-response,70,419965,0.0-28.0-2.0,"""event"",""trial"",""time""
""fullscreenenter"",""1"",""7501""
""blur"",""14"",""148956""
""focus"",""15"",""157943""
","""event"",""trial"",""time""
""blur"",""14"",""148956""
","""event"",""trial"",""time""
""focus"",""15"",""157943""
","""event"",""trial"",""time""
""fullscreenenter"",""1"",""7501""
","
",,null,run_exp/static/audio/clip_28_real_game.m4a,null,,,,,,,,,,,,,,,,,,,,,,,,
instruc_begin_exp_contine,71,420883,0.0-28.0-3.0,"""event"",""trial"",""time""
""fullscreenenter"",""1"",""7501""
""blur"",""14"",""148956""
""focus"",""15"",""157943""
","""event"",""trial"",""time""
""blur"",""14"",""148956""
","""event"",""trial"",""time""
""focus"",""15"",""157943""
","""event"",""trial"",""time""
""fullscreenenter"",""1"",""7501""
","
",,914.6,"<p>Now that you know how  to dig for space treasure and travel to new planets,you can start exploring! </p><p>Do you want to go over the instructions again or get started with the real game?</p>",,,,,,,1,,,,,,1,,,,,,,,,,,,
alien_welcome,72,425896,0.0-29.0-0.0,"""event"",""trial"",""time""
""fullscreenenter"",""1"",""7501""
""blur"",""14"",""148956""
""focus"",""15"",""157943""
","""event"",""trial"",""time""
""blur"",""14"",""148956""
","""event"",""trial"",""time""
""focus"",""15"",""157943""
","""event"",""trial"",""time""
""fullscreenenter"",""1"",""7501""
","
",,null,run_exp/static/images/task_images/aliens/old_aliens/planet/alien_planet-40.jpg,null,,,,,,,,,,,,,40,"40,68,44,73,23,12,45,30,13,50,9,29,59,56,27,8,79,46,66,38,72,20,67,14,76,17,11,21,35,26,75,55,48,77,47,6,24,52,33,25,10,51",,,,,,,,,,
land,73,426402,0.0-29.0-1.0,"""event"",""trial"",""time""
""fullscreenenter"",""1"",""7501""
""blur"",""14"",""148956""
""focus"",""15"",""157943""
","""event"",""trial"",""time""
""blur"",""14"",""148956""
","""event"",""trial"",""time""
""focus"",""15"",""157943""
","""event"",""trial"",""time""
""fullscreenenter"",""1"",""7501""
","
",,null,run_exp/static/images/task_images/land.jpg,null,,,,,,,102,,,1,,,,,,,,,,,,,,
dig,74,428419,0.0-29.0-2.0,"""event"",""trial"",""time""
""fullscreenenter"",""1"",""7501""
""blur"",""14"",""148956""
""focus"",""15"",""157943""
","""event"",""trial"",""time""
""blur"",""14"",""148956""
","""event"",""trial"",""time""
""focus"",""15"",""157943""
","""event"",""trial"",""time""
""fullscreenenter"",""1"",""7501""
","
",,,,,,,,,,,,"[{""stimulus"":""run_exp/static/images/task_images/dig.jpg"",""time"":0.5},{""stimulus"":""run_exp/static/images/task_images/land.jpg"",""time"":674.6999999880791},{""stimulus"":""run_exp/static/images/task_images/dig.jpg"",""time"":1341.300000011921}]",[],1,,,,,,,,,,,,,,
harvest,75,429426,0.0-29.0-3.0,"""event"",""trial"",""time""
""fullscreenenter"",""1"",""7501""
""blur"",""14"",""148956""
""focus"",""15"",""157943""
","""event"",""trial"",""time""
""blur"",""14"",""148956""
","""event"",""trial"",""time""
""focus"",""15"",""157943""
","""event"",""trial"",""time""
""fullscreenenter"",""1"",""7501""
","
",,null,run_exp/static/images/task_images/gems/102.jpg,null,,,,,,,23,,,1,,,,,102,0.225159438,0.225490196,,,,,,,
decision,76,430177,0.0-29.0-4.0,"""event"",""trial"",""time""
""fullscreenenter"",""1"",""7501""
""blur"",""14"",""148956""
""focus"",""15"",""157943""
","""event"",""trial"",""time""
""blur"",""14"",""148956""
","""event"",""trial"",""time""
""focus"",""15"",""157943""
","""event"",""trial"",""time""
""fullscreenenter"",""1"",""7501""
","
",,747.9,run_exp/static/images/task_images/land.jpg,65,,,,,,,23,,,1,,,,,,,,9292,1,0,FALSE,,,
dig,77,432439,0.0-30.0-0.0,"""event"",""trial"",""time""
""fullscreenenter"",""1"",""7501""
""blur"",""14"",""148956""
""focus"",""15"",""157943""
","""event"",""trial"",""time""
""blur"",""14"",""148956""
","""event"",""trial"",""time""
""focus"",""15"",""157943""
","""event"",""trial"",""time""
""fullscreenenter"",""1"",""7501""
","
",,,,,,,,,,,,"[{""stimulus"":""run_exp/static/images/task_images/dig.jpg"",""time"":0.30000001192092896},{""stimulus"":""run_exp/static/images/task_images/land.jpg"",""time"":756.1999999880791},{""stimulus"":""run_exp/static/images/task_images/dig.jpg"",""time"":1505.6000000238419}]",[],1,,,,,,,,,,,,,,
harvest,78,433447,0.0-30.0-1.0,"""event"",""trial"",""time""
""fullscreenenter"",""1"",""7501""
""blur"",""14"",""148956""
""focus"",""15"",""157943""
","""event"",""trial"",""time""
""blur"",""14"",""148956""
","""event"",""trial"",""time""
""focus"",""15"",""157943""
","""event"",""trial"",""time""
""fullscreenenter"",""1"",""7501""
","
",,null,run_exp/static/images/task_images/gems/23.jpg,null,,,,,,,5,,,1,,,,,23,0.234757217,0.217391304,,,,,,,
decision,79,434840,0.0-30.0-2.0,"""event"",""trial"",""time""
""fullscreenenter"",""1"",""7501""
""blur"",""14"",""148956""
""focus"",""15"",""157943""
","""event"",""trial"",""time""
""blur"",""14"",""148956""
","""event"",""trial"",""time""
""focus"",""15"",""157943""
","""event"",""trial"",""time""
""fullscreenenter"",""1"",""7501""
","
",,1390,run_exp/static/images/task_images/land.jpg,65,,,,,,,5,,,1,,,,,,,,13954,1,1,FALSE,,,
dig,80,436456,0.0-31.0-0.0,"""event"",""trial"",""time""
""fullscreenenter"",""1"",""7501""
""blur"",""14"",""148956""
""focus"",""15"",""157943""
","""event"",""trial"",""time""
""blur"",""14"",""148956""
","""event"",""trial"",""time""
""focus"",""15"",""157943""
","""event"",""trial"",""time""
""fullscreenenter"",""1"",""7501""
","
",,,,,,,,,,,,"[{""stimulus"":""run_exp/static/images/task_images/dig.jpg"",""time"":0.20000004768371582},{""stimulus"":""run_exp/static/images/task_images/land.jpg"",""time"":540.4000000357628},{""stimulus"":""run_exp/static/images/task_images/dig.jpg"",""time"":1079}]",[],1,,,,,,,,,,,,,,
harvest,81,437463,0.0-31.0-1.0,"""event"",""trial"",""time""
""fullscreenenter"",""1"",""7501""
""blur"",""14"",""148956""
""focus"",""15"",""157943""
","""event"",""trial"",""time""
""blur"",""14"",""148956""
","""event"",""trial"",""time""
""focus"",""15"",""157943""
","""event"",""trial"",""time""
""fullscreenenter"",""1"",""7501""
","
",,null,run_exp/static/images/task_images/gems/5.jpg,null,,,,,,,1,,,1,,,,,5,0.279654821,0.2,,,,,,,
decision,82,437943,0.0-31.0-2.0,"""event"",""trial"",""time""
""fullscreenenter"",""1"",""7501""
""blur"",""14"",""148956""
""focus"",""15"",""157943""
","""event"",""trial"",""time""
""blur"",""14"",""148956""
","""event"",""trial"",""time""
""focus"",""15"",""157943""
","""event"",""trial"",""time""
""fullscreenenter"",""1"",""7501""
","
",,478,run_exp/static/images/task_images/land.jpg,76,,,,,,,1,,,1,,,,,,,,17057,1,2,TRUE,,,
travel,83,447473,0.0-32.0-0.0,"""event"",""trial"",""time""
""fullscreenenter"",""1"",""7501""
""blur"",""14"",""148956""
""focus"",""15"",""157943""
","""event"",""trial"",""time""
""blur"",""14"",""148956""
","""event"",""trial"",""time""
""focus"",""15"",""157943""
","""event"",""trial"",""time""
""fullscreenenter"",""1"",""7501""
","
",,,,,,,,,,,,"[{""stimulus"":""run_exp/static/images/task_images/rocket-01.jpg"",""time"":0.19999998807907104},{""stimulus"":""run_exp/static/images/task_images/rocket-02.jpg"",""time"":1061.5999999642372},{""stimulus"":""run_exp/static/images/task_images/rocket-03.jpg"",""time"":2125.5},{""stimulus"":""run_exp/static/images/task_images/rocket-04.jpg"",""time"":3181.199999988079},{""stimulus"":""run_exp/static/images/task_images/rocket-05.jpg"",""time"":4239},{""stimulus"":""run_exp/static/images/task_images/rocket-06.jpg"",""time"":5293.300000011921},{""stimulus"":""run_exp/static/images/task_images/rocket-07.jpg"",""time"":6361},{""stimulus"":""run_exp/static/images/task_images/rocket-08.jpg"",""time"":7417},{""stimulus"":""run_exp/static/images/task_images/rocket-09.jpg"",""time"":8470.800000011921}]",[],1,,,,,,,,,,,,,,
alien_welcome,84,452481,0.0-32.0-1.0,"""event"",""trial"",""time""
""fullscreenenter"",""1"",""7501""
""blur"",""14"",""148956""
""focus"",""15"",""157943""
","""event"",""trial"",""time""
""blur"",""14"",""148956""
","""event"",""trial"",""time""
""focus"",""15"",""157943""
","""event"",""trial"",""time""
""fullscreenenter"",""1"",""7501""
","
",,null,run_exp/static/images/task_images/aliens/old_aliens/planet/alien_planet-68.jpg,null,,,,,,,,,,,,,68,"40,68,44,73,23,12,45,30,13,50,9,29,59,56,27,8,79,46,66,38,72,20,67,14,76,17,11,21,35,26,75,55,48,77,47,6,24,52,33,25,10,51",,,,,,,,,,
land,85,452993,0.0-32.0-2.0,"""event"",""trial"",""time""
""fullscreenenter"",""1"",""7501""
""blur"",""14"",""148956""
""focus"",""15"",""157943""
","""event"",""trial"",""time""
""blur"",""14"",""148956""
","""event"",""trial"",""time""
""focus"",""15"",""157943""
","""event"",""trial"",""time""
""fullscreenenter"",""1"",""7501""
","
",,null,run_exp/static/images/task_images/land.jpg,null,,,,,,,96,,,2,,,,,,,,,,,,,,
dig,86,455009,0.0-32.0-3.0,"""event"",""trial"",""time""
""fullscreenenter"",""1"",""7501""
""blur"",""14"",""148956""
""focus"",""15"",""157943""
","""event"",""trial"",""time""
""blur"",""14"",""148956""
","""event"",""trial"",""time""
""focus"",""15"",""157943""
","""event"",""trial"",""time""
""fullscreenenter"",""1"",""7501""
","
",,,,,,,,,,,,"[{""stimulus"":""run_exp/static/images/task_images/dig.jpg"",""time"":0.5},{""stimulus"":""run_exp/static/images/task_images/land.jpg"",""time"":675.2000000476837},{""stimulus"":""run_exp/static/images/task_images/dig.jpg"",""time"":1339.300000011921}]",[],2,,,,,,,,,,,,,,
harvest,87,456018,0.0-32.0-4.0,"""event"",""trial"",""time""
""fullscreenenter"",""1"",""7501""
""blur"",""14"",""148956""
""focus"",""15"",""157943""
","""event"",""trial"",""time""
""blur"",""14"",""148956""
","""event"",""trial"",""time""
""focus"",""15"",""157943""
","""event"",""trial"",""time""
""fullscreenenter"",""1"",""7501""
","
",,null,run_exp/static/images/task_images/gems/96.jpg,null,,,,,,,30,,,2,,,,,96,0.315556424,0.3125,,,,,,,
decision,88,457058,0.0-32.0-5.0,"""event"",""trial"",""time""
""fullscreenenter"",""1"",""7501""
""blur"",""14"",""148956""
""focus"",""15"",""157943""
","""event"",""trial"",""time""
""blur"",""14"",""148956""
","""event"",""trial"",""time""
""focus"",""15"",""157943""
","""event"",""trial"",""time""
""fullscreenenter"",""1"",""7501""
","
",,1037.2,run_exp/static/images/task_images/land.jpg,65,,,,,,,30,,,2,,,,,,,,36172,1,0,FALSE,,,
dig,89,459030,0.0-33.0-0.0,"""event"",""trial"",""time""
""fullscreenenter"",""1"",""7501""
""blur"",""14"",""148956""
""focus"",""15"",""157943""
","""event"",""trial"",""time""
""blur"",""14"",""148956""
","""event"",""trial"",""time""
""focus"",""15"",""157943""
","""event"",""trial"",""time""
""fullscreenenter"",""1"",""7501""
","
",,,,,,,,,,,,"[{""stimulus"":""run_exp/static/images/task_images/dig.jpg"",""time"":0.3999999761581421},{""stimulus"":""run_exp/static/images/task_images/land.jpg"",""time"":666.6000000238419},{""stimulus"":""run_exp/static/images/task_images/dig.jpg"",""time"":1311.8999999761581}]",[],2,,,,,,,,,,,,,,
harvest,90,460038,0.0-33.0-1.0,"""event"",""trial"",""time""
""fullscreenenter"",""1"",""7501""
""blur"",""14"",""148956""
""focus"",""15"",""157943""
","""event"",""trial"",""time""
""blur"",""14"",""148956""
","""event"",""trial"",""time""
""focus"",""15"",""157943""
","""event"",""trial"",""time""
""fullscreenenter"",""1"",""7501""
","
",,null,run_exp/static/images/task_images/gems/30.jpg,null,,,,,,,4,,,2,,,,,30,0.147816043,0.133333333,,,,,,,
decision,91,460370,0.0-33.0-2.0,"""event"",""trial"",""time""
""fullscreenenter"",""1"",""7501""
""blur"",""14"",""148956""
""focus"",""15"",""157943""
","""event"",""trial"",""time""
""blur"",""14"",""148956""
","""event"",""trial"",""time""
""focus"",""15"",""157943""
","""event"",""trial"",""time""
""fullscreenenter"",""1"",""7501""
","
",,329.7,run_exp/static/images/task_images/land.jpg,65,,,,,,,4,,,2,,,,,,,,39484,1,1,FALSE,,,
dig,92,463046,0.0-34.0-0.0,"""event"",""trial"",""time""
""fullscreenenter"",""1"",""7501""
""blur"",""14"",""148956""
""focus"",""15"",""157943""
","""event"",""trial"",""time""
""blur"",""14"",""148956""
","""event"",""trial"",""time""
""focus"",""15"",""157943""
","""event"",""trial"",""time""
""fullscreenenter"",""1"",""7501""
","
",,,,,,,,,,,,"[{""stimulus"":""run_exp/static/images/task_images/dig.jpg"",""time"":0.10000002384185791},{""stimulus"":""run_exp/static/images/task_images/land.jpg"",""time"":896.7000000476837},{""stimulus"":""run_exp/static/images/task_images/dig.jpg"",""time"":1789.300000011921}]",[],2,,,,,,,,,,,,,,
harvest,93,464055,0.0-34.0-1.0,"""event"",""trial"",""time""
""fullscreenenter"",""1"",""7501""
""blur"",""14"",""148956""
""focus"",""15"",""157943""
","""event"",""trial"",""time""
""blur"",""14"",""148956""
","""event"",""trial"",""time""
""focus"",""15"",""157943""
","""event"",""trial"",""time""
""fullscreenenter"",""1"",""7501""
","
",,null,run_exp/static/images/task_images/gems/4.jpg,null,,,,,,,1,,,2,,,,,4,0.190759612,0.25,,,,,,,
decision,94,464885,0.0-34.0-2.0,"""event"",""trial"",""time""
""fullscreenenter"",""1"",""7501""
""blur"",""14"",""148956""
""focus"",""15"",""157943""
","""event"",""trial"",""time""
""blur"",""14"",""148956""
","""event"",""trial"",""time""
""focus"",""15"",""157943""
","""event"",""trial"",""time""
""fullscreenenter"",""1"",""7501""
","
",,828.4,run_exp/static/images/task_images/land.jpg,76,,,,,,,1,,,2,,,,,,,,43999,1,2,TRUE,,,
travel,95,474061,0.0-35.0-0.0,"""event"",""trial"",""time""
""fullscreenenter"",""1"",""7501""
""blur"",""14"",""148956""
""focus"",""15"",""157943""
","""event"",""trial"",""time""
""blur"",""14"",""148956""
","""event"",""trial"",""time""
""focus"",""15"",""157943""
","""event"",""trial"",""time""
""fullscreenenter"",""1"",""7501""
","
",,,,,,,,,,,,"[{""stimulus"":""run_exp/static/images/task_images/rocket-01.jpg"",""time"":0.10000002384185791},{""stimulus"":""run_exp/static/images/task_images/rocket-02.jpg"",""time"":1025.9000000357628},{""stimulus"":""run_exp/static/images/task_images/rocket-03.jpg"",""time"":2040.300000011921},{""stimulus"":""run_exp/static/images/task_images/rocket-04.jpg"",""time"":3063.600000023842},{""stimulus"":""run_exp/static/images/task_images/rocket-05.jpg"",""time"":4079.699999988079},{""stimulus"":""run_exp/static/images/task_images/rocket-06.jpg"",""time"":5103.699999988079},{""stimulus"":""run_exp/static/images/task_images/rocket-07.jpg"",""time"":6120.199999988079},{""stimulus"":""run_exp/static/images/task_images/rocket-08.jpg"",""time"":7136.100000023842},{""stimulus"":""run_exp/static/images/task_images/rocket-09.jpg"",""time"":8160.5}]",[],2,,,,,,,,,,,,,,
alien_welcome,96,479072,0.0-35.0-1.0,"""event"",""trial"",""time""
""fullscreenenter"",""1"",""7501""
""blur"",""14"",""148956""
""focus"",""15"",""157943""
","""event"",""trial"",""time""
""blur"",""14"",""148956""
","""event"",""trial"",""time""
""focus"",""15"",""157943""
","""event"",""trial"",""time""
""fullscreenenter"",""1"",""7501""
","
",,null,run_exp/static/images/task_images/aliens/old_aliens/planet/alien_planet-44.jpg,null,,,,,,,,,,,,,44,"40,68,44,73,23,12,45,30,13,50,9,29,59,56,27,8,79,46,66,38,72,20,67,14,76,17,11,21,35,26,75,55,48,77,47,6,24,52,33,25,10,51",,,,,,,,,,
land,97,479584,0.0-35.0-2.0,"""event"",""trial"",""time""
""fullscreenenter"",""1"",""7501""
""blur"",""14"",""148956""
""focus"",""15"",""157943""
","""event"",""trial"",""time""
""blur"",""14"",""148956""
","""event"",""trial"",""time""
""focus"",""15"",""157943""
","""event"",""trial"",""time""
""fullscreenenter"",""1"",""7501""
","
",,null,run_exp/static/images/task_images/land.jpg,null,,,,,,,110,,,3,,,,,,,,,,,,,,
dig,98,481589,0.0-35.0-3.0,"""event"",""trial"",""time""
""fullscreenenter"",""1"",""7501""
""blur"",""14"",""148956""
""focus"",""15"",""157943""
","""event"",""trial"",""time""
""blur"",""14"",""148956""
","""event"",""trial"",""time""
""focus"",""15"",""157943""
","""event"",""trial"",""time""
""fullscreenenter"",""1"",""7501""
","
",,,,,,,,,,,,"[{""stimulus"":""run_exp/static/images/task_images/dig.jpg"",""time"":0.5},{""stimulus"":""run_exp/static/images/task_images/land.jpg"",""time"":674.9000000357628},{""stimulus"":""run_exp/static/images/task_images/dig.jpg"",""time"":1339.699999988079}]",[],3,,,,,,,,,,,,,,
harvest,99,482597,0.0-35.0-4.0,"""event"",""trial"",""time""
""fullscreenenter"",""1"",""7501""
""blur"",""14"",""148956""
""focus"",""15"",""157943""
","""event"",""trial"",""time""
""blur"",""14"",""148956""
","""event"",""trial"",""time""
""focus"",""15"",""157943""
","""event"",""trial"",""time""
""fullscreenenter"",""1"",""7501""
","
",,null,run_exp/static/images/task_images/gems/110.jpg,null,,,,,,,58,,,3,,,,,110,0.526663242,0.527272727,,,,,,,
decision,100,483158,0.0-35.0-5.0,"""event"",""trial"",""time""
""fullscreenenter"",""1"",""7501""
""blur"",""14"",""148956""
""focus"",""15"",""157943""
","""event"",""trial"",""time""
""blur"",""14"",""148956""
","""event"",""trial"",""time""
""focus"",""15"",""157943""
","""event"",""trial"",""time""
""fullscreenenter"",""1"",""7501""
","
",,556.7,run_exp/static/images/task_images/land.jpg,65,,,,,,,58,,,3,,,,,,,,62272,1,0,FALSE,,,
dig,101,485616,0.0-36.0-0.0,"""event"",""trial"",""time""
""fullscreenenter"",""1"",""7501""
""blur"",""14"",""148956""
""focus"",""15"",""157943""
","""event"",""trial"",""time""
""blur"",""14"",""148956""
","""event"",""trial"",""time""
""focus"",""15"",""157943""
","""event"",""trial"",""time""
""fullscreenenter"",""1"",""7501""
","
",,,,,,,,,,,,"[{""stimulus"":""run_exp/static/images/task_images/dig.jpg"",""time"":0.30000001192092896},{""stimulus"":""run_exp/static/images/task_images/land.jpg"",""time"":821.5},{""stimulus"":""run_exp/static/images/task_images/dig.jpg"",""time"":1637.699999988079}]",[],3,,,,,,,,,,,,,,
harvest,102,486623,0.0-36.0-1.0,"""event"",""trial"",""time""
""fullscreenenter"",""1"",""7501""
""blur"",""14"",""148956""
""focus"",""15"",""157943""
","""event"",""trial"",""time""
""blur"",""14"",""148956""
","""event"",""trial"",""time""
""focus"",""15"",""157943""
","""event"",""trial"",""time""
""fullscreenenter"",""1"",""7501""
","
",,null,run_exp/static/images/task_images/gems/58.jpg,null,,,,,,,26,,,3,,,,,58,0.454461084,0.448275862,,,,,,,
decision,103,487000,0.0-36.0-2.0,"""event"",""trial"",""time""
""fullscreenenter"",""1"",""7501""
""blur"",""14"",""148956""
""focus"",""15"",""157943""
","""event"",""trial"",""time""
""blur"",""14"",""148956""
","""event"",""trial"",""time""
""focus"",""15"",""157943""
","""event"",""trial"",""time""
""fullscreenenter"",""1"",""7501""
","
",,373.9,run_exp/static/images/task_images/land.jpg,65,,,,,,,26,,,3,,,,,,,,66114,1,1,FALSE,,,
dig,104,489636,0.0-37.0-0.0,"""event"",""trial"",""time""
""fullscreenenter"",""1"",""7501""
""blur"",""14"",""148956""
""focus"",""15"",""157943""
","""event"",""trial"",""time""
""blur"",""14"",""148956""
","""event"",""trial"",""time""
""focus"",""15"",""157943""
","""event"",""trial"",""time""
""fullscreenenter"",""1"",""7501""
","
",,,,,,,,,,,,"[{""stimulus"":""run_exp/static/images/task_images/dig.jpg"",""time"":0.19999998807907104},{""stimulus"":""run_exp/static/images/task_images/land.jpg"",""time"":882.5},{""stimulus"":""run_exp/static/images/task_images/dig.jpg"",""time"":1762.5}]",[],3,,,,,,,,,,,,,,
harvest,105,490645,0.0-37.0-1.0,"""event"",""trial"",""time""
""fullscreenenter"",""1"",""7501""
""blur"",""14"",""148956""
""focus"",""15"",""157943""
","""event"",""trial"",""time""
""blur"",""14"",""148956""
","""event"",""trial"",""time""
""focus"",""15"",""157943""
","""event"",""trial"",""time""
""fullscreenenter"",""1"",""7501""
","
",,null,run_exp/static/images/task_images/gems/26.jpg,null,,,,,,,12,,,3,,,,,26,0.444160909,0.461538462,,,,,,,
decision,106,491402,0.0-37.0-2.0,"""event"",""trial"",""time""
""fullscreenenter"",""1"",""7501""
""blur"",""14"",""148956""
""focus"",""15"",""157943""
","""event"",""trial"",""time""
""blur"",""14"",""148956""
","""event"",""trial"",""time""
""focus"",""15"",""157943""
","""event"",""trial"",""time""
""fullscreenenter"",""1"",""7501""
","
",,752.1,run_exp/static/images/task_images/land.jpg,76,,,,,,,12,,,3,,,,,,,,70516,1,2,TRUE,,,
travel,107,500660,0.0-38.0-0.0,"""event"",""trial"",""time""
""fullscreenenter"",""1"",""7501""
""blur"",""14"",""148956""
""focus"",""15"",""157943""
","""event"",""trial"",""time""
""blur"",""14"",""148956""
","""event"",""trial"",""time""
""focus"",""15"",""157943""
","""event"",""trial"",""time""
""fullscreenenter"",""1"",""7501""
","
",,,,,,,,,,,,"[{""stimulus"":""run_exp/static/images/task_images/rocket-01.jpg"",""time"":0.2999999523162842},{""stimulus"":""run_exp/static/images/task_images/rocket-02.jpg"",""time"":1039.5999999642372},{""stimulus"":""run_exp/static/images/task_images/rocket-03.jpg"",""time"":2063.5},{""stimulus"":""run_exp/static/images/task_images/rocket-04.jpg"",""time"":3087.5},{""stimulus"":""run_exp/static/images/task_images/rocket-05.jpg"",""time"":4116.899999976158},{""stimulus"":""run_exp/static/images/task_images/rocket-06.jpg"",""time"":5141},{""stimulus"":""run_exp/static/images/task_images/rocket-07.jpg"",""time"":6165.099999964237},{""stimulus"":""run_exp/static/images/task_images/rocket-08.jpg"",""time"":7199.399999976158},{""stimulus"":""run_exp/static/images/task_images/rocket-09.jpg"",""time"":8223.199999988079}]",[],3,,,,,,,,,,,,,,
alien_welcome,108,505671,0.0-38.0-1.0,"""event"",""trial"",""time""
""fullscreenenter"",""1"",""7501""
""blur"",""14"",""148956""
""focus"",""15"",""157943""
","""event"",""trial"",""time""
""blur"",""14"",""148956""
","""event"",""trial"",""time""
""focus"",""15"",""157943""
","""event"",""trial"",""time""
""fullscreenenter"",""1"",""7501""
","
",,null,run_exp/static/images/task_images/aliens/old_aliens/planet/alien_planet-73.jpg,null,,,,,,,,,,,,,73,"40,68,44,73,23,12,45,30,13,50,9,29,59,56,27,8,79,46,66,38,72,20,67,14,76,17,11,21,35,26,75,55,48,77,47,6,24,52,33,25,10,51",,,,,,,,,,
land,109,506180,0.0-38.0-2.0,"""event"",""trial"",""time""
""fullscreenenter"",""1"",""7501""
""blur"",""14"",""148956""
""focus"",""15"",""157943""
","""event"",""trial"",""time""
""blur"",""14"",""148956""
","""event"",""trial"",""time""
""focus"",""15"",""157943""
","""event"",""trial"",""time""
""fullscreenenter"",""1"",""7501""
","
",,null,run_exp/static/images/task_images/land.jpg,null,,,,,,,108,,,4,,,,,,,,,,,,,,
dig,110,508190,0.0-38.0-3.0,"""event"",""trial"",""time""
""fullscreenenter"",""1"",""7501""
""blur"",""14"",""148956""
""focus"",""15"",""157943""
","""event"",""trial"",""time""
""blur"",""14"",""148956""
","""event"",""trial"",""time""
""focus"",""15"",""157943""
","""event"",""trial"",""time""
""fullscreenenter"",""1"",""7501""
","
",,,,,,,,,,,,"[{""stimulus"":""run_exp/static/images/task_images/dig.jpg"",""time"":0.5},{""stimulus"":""run_exp/static/images/task_images/land.jpg"",""time"":669.5},{""stimulus"":""run_exp/static/images/task_images/dig.jpg"",""time"":1341.699999988079}]",[],4,,,,,,,,,,,,,,
harvest,111,509198,0.0-38.0-4.0,"""event"",""trial"",""time""
""fullscreenenter"",""1"",""7501""
""blur"",""14"",""148956""
""focus"",""15"",""157943""
","""event"",""trial"",""time""
""blur"",""14"",""148956""
","""event"",""trial"",""time""
""focus"",""15"",""157943""
","""event"",""trial"",""time""
""fullscreenenter"",""1"",""7501""
","
",,null,run_exp/static/images/task_images/gems/108.jpg,null,,,,,,,55,,,4,,,,,108,0.5080631,0.509259259,,,,,,,
decision,112,509567,0.0-38.0-5.0,"""event"",""trial"",""time""
""fullscreenenter"",""1"",""7501""
""blur"",""14"",""148956""
""focus"",""15"",""157943""
","""event"",""trial"",""time""
""blur"",""14"",""148956""
","""event"",""trial"",""time""
""focus"",""15"",""157943""
","""event"",""trial"",""time""
""fullscreenenter"",""1"",""7501""
","
",,365.7,run_exp/static/images/task_images/land.jpg,65,,,,,,,55,,,4,,,,,,,,88681,1,0,FALSE,,,
dig,113,512213,0.0-39.0-0.0,"""event"",""trial"",""time""
""fullscreenenter"",""1"",""7501""
""blur"",""14"",""148956""
""focus"",""15"",""157943""
","""event"",""trial"",""time""
""blur"",""14"",""148956""
","""event"",""trial"",""time""
""focus"",""15"",""157943""
","""event"",""trial"",""time""
""fullscreenenter"",""1"",""7501""
","
",,,,,,,,,,,,"[{""stimulus"":""run_exp/static/images/task_images/dig.jpg"",""time"":0.30000001192092896},{""stimulus"":""run_exp/static/images/task_images/land.jpg"",""time"":881.4000000357628},{""stimulus"":""run_exp/static/images/task_images/dig.jpg"",""time"":1764.1000000238419}]",[],4,,,,,,,,,,,,,,
harvest,114,513220,0.0-39.0-1.0,"""event"",""trial"",""time""
""fullscreenenter"",""1"",""7501""
""blur"",""14"",""148956""
""focus"",""15"",""157943""
","""event"",""trial"",""time""
""blur"",""14"",""148956""
","""event"",""trial"",""time""
""focus"",""15"",""157943""
","""event"",""trial"",""time""
""fullscreenenter"",""1"",""7501""
","
",,null,run_exp/static/images/task_images/gems/55.jpg,null,,,,,,,27,,,4,,,,,55,0.496787651,0.490909091,,,,,,,
decision,115,513648,0.0-39.0-2.0,"""event"",""trial"",""time""
""fullscreenenter"",""1"",""7501""
""blur"",""14"",""148956""
""focus"",""15"",""157943""
","""event"",""trial"",""time""
""blur"",""14"",""148956""
","""event"",""trial"",""time""
""focus"",""15"",""157943""
","""event"",""trial"",""time""
""fullscreenenter"",""1"",""7501""
","
",,425.2,run_exp/static/images/task_images/land.jpg,65,,,,,,,27,,,4,,,,,,,,92762,1,1,FALSE,,,
dig,116,516238,0.0-40.0-0.0,"""event"",""trial"",""time""
""fullscreenenter"",""1"",""7501""
""blur"",""14"",""148956""
""focus"",""15"",""157943""
","""event"",""trial"",""time""
""blur"",""14"",""148956""
","""event"",""trial"",""time""
""focus"",""15"",""157943""
","""event"",""trial"",""time""
""fullscreenenter"",""1"",""7501""
","
",,,,,,,,,,,,"[{""stimulus"":""run_exp/static/images/task_images/dig.jpg"",""time"":0.19999998807907104},{""stimulus"":""run_exp/static/images/task_images/land.jpg"",""time"":866.8000000119209},{""stimulus"":""run_exp/static/images/task_images/dig.jpg"",""time"":1722.199999988079}]",[],4,,,,,,,,,,,,,,
harvest,117,517247,0.0-40.0-1.0,"""event"",""trial"",""time""
""fullscreenenter"",""1"",""7501""
""blur"",""14"",""148956""
""focus"",""15"",""157943""
","""event"",""trial"",""time""
""blur"",""14"",""148956""
","""event"",""trial"",""time""
""focus"",""15"",""157943""
","""event"",""trial"",""time""
""fullscreenenter"",""1"",""7501""
","
",,null,run_exp/static/images/task_images/gems/27.jpg,null,,,,,,,12,,,4,,,,,27,0.428595875,0.444444444,,,,,,,
decision,118,517814,0.0-40.0-2.0,"""event"",""trial"",""time""
""fullscreenenter"",""1"",""7501""
""blur"",""14"",""148956""
""focus"",""15"",""157943""
","""event"",""trial"",""time""
""blur"",""14"",""148956""
","""event"",""trial"",""time""
""focus"",""15"",""157943""
","""event"",""trial"",""time""
""fullscreenenter"",""1"",""7501""
","
",,565,run_exp/static/images/task_images/land.jpg,76,,,,,,,12,,,4,,,,,,,,96929,1,2,TRUE,,,
travel,119,527261,0.0-41.0-0.0,"""event"",""trial"",""time""
""fullscreenenter"",""1"",""7501""
""blur"",""14"",""148956""
""focus"",""15"",""157943""
","""event"",""trial"",""time""
""blur"",""14"",""148956""
","""event"",""trial"",""time""
""focus"",""15"",""157943""
","""event"",""trial"",""time""
""fullscreenenter"",""1"",""7501""
","
",,,,,,,,,,,,"[{""stimulus"":""run_exp/static/images/task_images/rocket-01.jpg"",""time"":0.2999999523162842},{""stimulus"":""run_exp/static/images/task_images/rocket-02.jpg"",""time"":1060.0999999642372},{""stimulus"":""run_exp/static/images/task_images/rocket-03.jpg"",""time"":2105.2999999523163},{""stimulus"":""run_exp/static/images/task_images/rocket-04.jpg"",""time"":3155.5},{""stimulus"":""run_exp/static/images/task_images/rocket-05.jpg"",""time"":4202.099999964237},{""stimulus"":""run_exp/static/images/task_images/rocket-06.jpg"",""time"":5252.099999964237},{""stimulus"":""run_exp/static/images/task_images/rocket-07.jpg"",""time"":6300.599999964237},{""stimulus"":""run_exp/static/images/task_images/rocket-08.jpg"",""time"":7348.099999964237},{""stimulus"":""run_exp/static/images/task_images/rocket-09.jpg"",""time"":8395.099999964237}]",[],4,,,,,,,,,,,,,,
alien_welcome,120,532269,0.0-41.0-1.0,"""event"",""trial"",""time""
""fullscreenenter"",""1"",""7501""
""blur"",""14"",""148956""
""focus"",""15"",""157943""
","""event"",""trial"",""time""
""blur"",""14"",""148956""
","""event"",""trial"",""time""
""focus"",""15"",""157943""
","""event"",""trial"",""time""
""fullscreenenter"",""1"",""7501""
","
",,null,run_exp/static/images/task_images/aliens/old_aliens/planet/alien_planet-23.jpg,null,,,,,,,,,,,,,23,"40,68,44,73,23,12,45,30,13,50,9,29,59,56,27,8,79,46,66,38,72,20,67,14,76,17,11,21,35,26,75,55,48,77,47,6,24,52,33,25,10,51",,,,,,,,,,
land,121,532781,0.0-41.0-2.0,"""event"",""trial"",""time""
""fullscreenenter"",""1"",""7501""
""blur"",""14"",""148956""
""focus"",""15"",""157943""
","""event"",""trial"",""time""
""blur"",""14"",""148956""
","""event"",""trial"",""time""
""focus"",""15"",""157943""
","""event"",""trial"",""time""
""fullscreenenter"",""1"",""7501""
","
",,null,run_exp/static/images/task_images/land.jpg,null,,,,,,,95,,,5,,,,,,,,,,,,,,
dig,122,534786,0.0-41.0-3.0,"""event"",""trial"",""time""
""fullscreenenter"",""1"",""7501""
""blur"",""14"",""148956""
""focus"",""15"",""157943""
","""event"",""trial"",""time""
""blur"",""14"",""148956""
","""event"",""trial"",""time""
""focus"",""15"",""157943""
","""event"",""trial"",""time""
""fullscreenenter"",""1"",""7501""
","
",,,,,,,,,,,,"[{""stimulus"":""run_exp/static/images/task_images/dig.jpg"",""time"":0.5},{""stimulus"":""run_exp/static/images/task_images/land.jpg"",""time"":674.8999999761581},{""stimulus"":""run_exp/static/images/task_images/dig.jpg"",""time"":1339.2999999523163}]",[],5,,,,,,,,,,,,,,
harvest,123,535794,0.0-41.0-4.0,"""event"",""trial"",""time""
""fullscreenenter"",""1"",""7501""
""blur"",""14"",""148956""
""focus"",""15"",""157943""
","""event"",""trial"",""time""
""blur"",""14"",""148956""
","""event"",""trial"",""time""
""focus"",""15"",""157943""
","""event"",""trial"",""time""
""fullscreenenter"",""1"",""7501""
","
",,null,run_exp/static/images/task_images/gems/95.jpg,null,,,,,,,41,,,5,,,,,95,0.429380867,0.431578947,,,,,,,
decision,124,536322,0.0-41.0-5.0,"""event"",""trial"",""time""
""fullscreenenter"",""1"",""7501""
""blur"",""14"",""148956""
""focus"",""15"",""157943""
","""event"",""trial"",""time""
""blur"",""14"",""148956""
","""event"",""trial"",""time""
""focus"",""15"",""157943""
","""event"",""trial"",""time""
""fullscreenenter"",""1"",""7501""
","
",,525.4,run_exp/static/images/task_images/land.jpg,65,,,,,,,41,,,5,,,,,,,,115436,1,0,FALSE,,,
dig,125,538802,0.0-42.0-0.0,"""event"",""trial"",""time""
""fullscreenenter"",""1"",""7501""
""blur"",""14"",""148956""
""focus"",""15"",""157943""
","""event"",""trial"",""time""
""blur"",""14"",""148956""
","""event"",""trial"",""time""
""focus"",""15"",""157943""
","""event"",""trial"",""time""
""fullscreenenter"",""1"",""7501""
","
",,,,,,,,,,,,"[{""stimulus"":""run_exp/static/images/task_images/dig.jpg"",""time"":0.10000002384185791},{""stimulus"":""run_exp/static/images/task_images/land.jpg"",""time"":831.5},{""stimulus"":""run_exp/static/images/task_images/dig.jpg"",""time"":1654.300000011921}]",[],5,,,,,,,,,,,,,,
harvest,126,539812,0.0-42.0-1.0,"""event"",""trial"",""time""
""fullscreenenter"",""1"",""7501""
""blur"",""14"",""148956""
""focus"",""15"",""157943""
","""event"",""trial"",""time""
""blur"",""14"",""148956""
","""event"",""trial"",""time""
""focus"",""15"",""157943""
","""event"",""trial"",""time""
""fullscreenenter"",""1"",""7501""
","
",,null,run_exp/static/images/task_images/gems/41.jpg,null,,,,,,,23,,,5,,,,,41,0.55882975,0.56097561,,,,,,,
decision,127,540484,0.0-42.0-2.0,"""event"",""trial"",""time""
""fullscreenenter"",""1"",""7501""
""blur"",""14"",""148956""
""focus"",""15"",""157943""
","""event"",""trial"",""time""
""blur"",""14"",""148956""
","""event"",""trial"",""time""
""focus"",""15"",""157943""
","""event"",""trial"",""time""
""fullscreenenter"",""1"",""7501""
","
",,669.7,run_exp/static/images/task_images/land.jpg,65,,,,,,,23,,,5,,,,,,,,119598,1,1,FALSE,,,
dig,128,542828,0.0-43.0-0.0,"""event"",""trial"",""time""
""fullscreenenter"",""1"",""7501""
""blur"",""14"",""148956""
""focus"",""15"",""157943""
","""event"",""trial"",""time""
""blur"",""14"",""148956""
","""event"",""trial"",""time""
""focus"",""15"",""157943""
","""event"",""trial"",""time""
""fullscreenenter"",""1"",""7501""
","
",,,,,,,,,,,,"[{""stimulus"":""run_exp/static/images/task_images/dig.jpg"",""time"":0.30000001192092896},{""stimulus"":""run_exp/static/images/task_images/land.jpg"",""time"":788.3999999761581},{""stimulus"":""run_exp/static/images/task_images/dig.jpg"",""time"":1561.800000011921}]",[],5,,,,,,,,,,,,,,
harvest,129,543838,0.0-43.0-1.0,"""event"",""trial"",""time""
""fullscreenenter"",""1"",""7501""
""blur"",""14"",""148956""
""focus"",""15"",""157943""
","""event"",""trial"",""time""
""blur"",""14"",""148956""
","""event"",""trial"",""time""
""focus"",""15"",""157943""
","""event"",""trial"",""time""
""fullscreenenter"",""1"",""7501""
","
",,null,run_exp/static/images/task_images/gems/23.jpg,null,,,,,,,13,,,5,,,,,23,0.567308414,0.565217391,,,,,,,
decision,130,544390,0.0-43.0-2.0,"""event"",""trial"",""time""
""fullscreenenter"",""1"",""7501""
""blur"",""14"",""148956""
""focus"",""15"",""157943""
","""event"",""trial"",""time""
""blur"",""14"",""148956""
","""event"",""trial"",""time""
""focus"",""15"",""157943""
","""event"",""trial"",""time""
""fullscreenenter"",""1"",""7501""
","
",,549.9,run_exp/static/images/task_images/land.jpg,76,,,,,,,13,,,5,,,,,,,,123504,1,2,TRUE,,,
travel,131,553852,0.0-44.0-0.0,"""event"",""trial"",""time""
""fullscreenenter"",""1"",""7501""
""blur"",""14"",""148956""
""focus"",""15"",""157943""
","""event"",""trial"",""time""
""blur"",""14"",""148956""
","""event"",""trial"",""time""
""focus"",""15"",""157943""
","""event"",""trial"",""time""
""fullscreenenter"",""1"",""7501""
","
",,,,,,,,,,,,"[{""stimulus"":""run_exp/static/images/task_images/rocket-01.jpg"",""time"":0.3999999761581421},{""stimulus"":""run_exp/static/images/task_images/rocket-02.jpg"",""time"":1060},{""stimulus"":""run_exp/static/images/task_images/rocket-03.jpg"",""time"":2104.399999976158},{""stimulus"":""run_exp/static/images/task_images/rocket-04.jpg"",""time"":3155.099999964237},{""stimulus"":""run_exp/static/images/task_images/rocket-05.jpg"",""time"":4209.699999988079},{""stimulus"":""run_exp/static/images/task_images/rocket-06.jpg"",""time"":5257.5},{""stimulus"":""run_exp/static/images/task_images/rocket-07.jpg"",""time"":6307.799999952316},{""stimulus"":""run_exp/static/images/task_images/rocket-08.jpg"",""time"":7352.699999988079},{""stimulus"":""run_exp/static/images/task_images/rocket-09.jpg"",""time"":8408.399999976158}]",[],5,,,,,,,,,,,,,,
alien_welcome,132,558860,0.0-44.0-1.0,"""event"",""trial"",""time""
""fullscreenenter"",""1"",""7501""
""blur"",""14"",""148956""
""focus"",""15"",""157943""
","""event"",""trial"",""time""
""blur"",""14"",""148956""
","""event"",""trial"",""time""
""focus"",""15"",""157943""
","""event"",""trial"",""time""
""fullscreenenter"",""1"",""7501""
","
",,null,run_exp/static/images/task_images/aliens/old_aliens/planet/alien_planet-12.jpg,null,,,,,,,,,,,,,12,"40,68,44,73,23,12,45,30,13,50,9,29,59,56,27,8,79,46,66,38,72,20,67,14,76,17,11,21,35,26,75,55,48,77,47,6,24,52,33,25,10,51",,,,,,,,,,
land,133,559372,0.0-44.0-2.0,"""event"",""trial"",""time""
""fullscreenenter"",""1"",""7501""
""blur"",""14"",""148956""
""focus"",""15"",""157943""
","""event"",""trial"",""time""
""blur"",""14"",""148956""
","""event"",""trial"",""time""
""focus"",""15"",""157943""
","""event"",""trial"",""time""
""fullscreenenter"",""1"",""7501""
","
",,null,run_exp/static/images/task_images/land.jpg,null,,,,,,,105,,,6,,,,,,,,,,,,,,
dig,134,561388,0.0-44.0-3.0,"""event"",""trial"",""time""
""fullscreenenter"",""1"",""7501""
""blur"",""14"",""148956""
""focus"",""15"",""157943""
","""event"",""trial"",""time""
""blur"",""14"",""148956""
","""event"",""trial"",""time""
""focus"",""15"",""157943""
","""event"",""trial"",""time""
""fullscreenenter"",""1"",""7501""
","
",,,,,,,,,,,,"[{""stimulus"":""run_exp/static/images/task_images/dig.jpg"",""time"":0.6000000238418579},{""stimulus"":""run_exp/static/images/task_images/land.jpg"",""time"":674.8000000119209},{""stimulus"":""run_exp/static/images/task_images/dig.jpg"",""time"":1340.9000000357628}]",[],6,,,,,,,,,,,,,,
harvest,135,562396,0.0-44.0-4.0,"""event"",""trial"",""time""
""fullscreenenter"",""1"",""7501""
""blur"",""14"",""148956""
""focus"",""15"",""157943""
","""event"",""trial"",""time""
""blur"",""14"",""148956""
","""event"",""trial"",""time""
""focus"",""15"",""157943""
","""event"",""trial"",""time""
""fullscreenenter"",""1"",""7501""
","
",,null,run_exp/static/images/task_images/gems/105.jpg,null,,,,,,,86,,,6,,,,,105,0.823009376,0.819047619,,,,,,,
decision,136,562994,0.0-44.0-5.0,"""event"",""trial"",""time""
""fullscreenenter"",""1"",""7501""
""blur"",""14"",""148956""
""focus"",""15"",""157943""
","""event"",""trial"",""time""
""blur"",""14"",""148956""
","""event"",""trial"",""time""
""focus"",""15"",""157943""
","""event"",""trial"",""time""
""fullscreenenter"",""1"",""7501""
","
",,596.1,run_exp/static/images/task_images/land.jpg,65,,,,,,,86,,,6,,,,,,,,142109,1,0,FALSE,,,
dig,137,565411,0.0-45.0-0.0,"""event"",""trial"",""time""
""fullscreenenter"",""1"",""7501""
""blur"",""14"",""148956""
""focus"",""15"",""157943""
","""event"",""trial"",""time""
""blur"",""14"",""148956""
","""event"",""trial"",""time""
""focus"",""15"",""157943""
","""event"",""trial"",""time""
""fullscreenenter"",""1"",""7501""
","
",,,,,,,,,,,,"[{""stimulus"":""run_exp/static/images/task_images/dig.jpg"",""time"":0.19999998807907104},{""stimulus"":""run_exp/static/images/task_images/land.jpg"",""time"":806.0999999642372},{""stimulus"":""run_exp/static/images/task_images/dig.jpg"",""time"":1613}]",[],6,,,,,,,,,,,,,,
harvest,138,566418,0.0-45.0-1.0,"""event"",""trial"",""time""
""fullscreenenter"",""1"",""7501""
""blur"",""14"",""148956""
""focus"",""15"",""157943""
","""event"",""trial"",""time""
""blur"",""14"",""148956""
","""event"",""trial"",""time""
""focus"",""15"",""157943""
","""event"",""trial"",""time""
""fullscreenenter"",""1"",""7501""
","
",,null,run_exp/static/images/task_images/gems/86.jpg,null,,,,,,,76,,,6,,,,,86,0.881789243,0.88372093,,,,,,,
decision,139,566894,0.0-45.0-2.0,"""event"",""trial"",""time""
""fullscreenenter"",""1"",""7501""
""blur"",""14"",""148956""
""focus"",""15"",""157943""
","""event"",""trial"",""time""
""blur"",""14"",""148956""
","""event"",""trial"",""time""
""focus"",""15"",""157943""
","""event"",""trial"",""time""
""fullscreenenter"",""1"",""7501""
","
",,474.1,run_exp/static/images/task_images/land.jpg,65,,,,,,,76,,,6,,,,,,,,146009,1,1,FALSE,,,
dig,140,569426,0.0-46.0-0.0,"""event"",""trial"",""time""
""fullscreenenter"",""1"",""7501""
""blur"",""14"",""148956""
""focus"",""15"",""157943""
","""event"",""trial"",""time""
""blur"",""14"",""148956""
","""event"",""trial"",""time""
""focus"",""15"",""157943""
","""event"",""trial"",""time""
""fullscreenenter"",""1"",""7501""
","
",,,,,,,,,,,,"[{""stimulus"":""run_exp/static/images/task_images/dig.jpg"",""time"":0.3999999761581421},{""stimulus"":""run_exp/static/images/task_images/land.jpg"",""time"":846.3999999761581},{""stimulus"":""run_exp/static/images/task_images/dig.jpg"",""time"":1689.2999999523163}]",[],6,,,,,,,,,,,,,,
harvest,141,570434,0.0-46.0-1.0,"""event"",""trial"",""time""
""fullscreenenter"",""1"",""7501""
""blur"",""14"",""148956""
""focus"",""15"",""157943""
","""event"",""trial"",""time""
""blur"",""14"",""148956""
","""event"",""trial"",""time""
""focus"",""15"",""157943""
","""event"",""trial"",""time""
""fullscreenenter"",""1"",""7501""
","
",,null,run_exp/static/images/task_images/gems/76.jpg,null,,,,,,,62,,,6,,,,,76,0.809862331,0.815789474,,,,,,,
decision,142,570743,0.0-46.0-2.0,"""event"",""trial"",""time""
""fullscreenenter"",""1"",""7501""
""blur"",""14"",""148956""
""focus"",""15"",""157943""
","""event"",""trial"",""time""
""blur"",""14"",""148956""
","""event"",""trial"",""time""
""focus"",""15"",""157943""
","""event"",""trial"",""time""
""fullscreenenter"",""1"",""7501""
","
",,306.5,run_exp/static/images/task_images/land.jpg,65,,,,,,,62,,,6,,,,,,,,149857,1,2,FALSE,,,
dig,143,573440,0.0-47.0-0.0,"""event"",""trial"",""time""
""fullscreenenter"",""1"",""7501""
""blur"",""14"",""148956""
""focus"",""15"",""157943""
","""event"",""trial"",""time""
""blur"",""14"",""148956""
","""event"",""trial"",""time""
""focus"",""15"",""157943""
","""event"",""trial"",""time""
""fullscreenenter"",""1"",""7501""
","
",,,,,,,,,,,,"[{""stimulus"":""run_exp/static/images/task_images/dig.jpg"",""time"":0.20000004768371582},{""stimulus"":""run_exp/static/images/task_images/land.jpg"",""time"":901},{""stimulus"":""run_exp/static/images/task_images/dig.jpg"",""time"":1797.2000000476837}]",[],6,,,,,,,,,,,,,,
harvest,144,574449,0.0-47.0-1.0,"""event"",""trial"",""time""
""fullscreenenter"",""1"",""7501""
""blur"",""14"",""148956""
""focus"",""15"",""157943""
","""event"",""trial"",""time""
""blur"",""14"",""148956""
","""event"",""trial"",""time""
""focus"",""15"",""157943""
","""event"",""trial"",""time""
""fullscreenenter"",""1"",""7501""
","
",,null,run_exp/static/images/task_images/gems/62.jpg,null,,,,,,,49,,,6,,,,,62,0.788581534,0.790322581,,,,,,,
decision,145,574763,0.0-47.0-2.0,"""event"",""trial"",""time""
""fullscreenenter"",""1"",""7501""
""blur"",""14"",""148956""
""focus"",""15"",""157943""
","""event"",""trial"",""time""
""blur"",""14"",""148956""
","""event"",""trial"",""time""
""focus"",""15"",""157943""
","""event"",""trial"",""time""
""fullscreenenter"",""1"",""7501""
","
",,312.2,run_exp/static/images/task_images/land.jpg,65,,,,,,,49,,,6,,,,,,,,153877,1,3,FALSE,,,
dig,146,577456,0.0-48.0-0.0,"""event"",""trial"",""time""
""fullscreenenter"",""1"",""7501""
""blur"",""14"",""148956""
""focus"",""15"",""157943""
","""event"",""trial"",""time""
""blur"",""14"",""148956""
","""event"",""trial"",""time""
""focus"",""15"",""157943""
","""event"",""trial"",""time""
""fullscreenenter"",""1"",""7501""
","
",,,,,,,,,,,,"[{""stimulus"":""run_exp/static/images/task_images/dig.jpg"",""time"":0.19999998807907104},{""stimulus"":""run_exp/static/images/task_images/land.jpg"",""time"":898.3000000119209},{""stimulus"":""run_exp/static/images/task_images/dig.jpg"",""time"":1793.5}]",[],6,,,,,,,,,,,,,,
harvest,147,578464,0.0-48.0-1.0,"""event"",""trial"",""time""
""fullscreenenter"",""1"",""7501""
""blur"",""14"",""148956""
""focus"",""15"",""157943""
","""event"",""trial"",""time""
""blur"",""14"",""148956""
","""event"",""trial"",""time""
""focus"",""15"",""157943""
","""event"",""trial"",""time""
""fullscreenenter"",""1"",""7501""
","
",,null,run_exp/static/images/task_images/gems/49.jpg,null,,,,,,,39,,,6,,,,,49,0.805423943,0.795918367,,,,,,,
decision,148,578774,0.0-48.0-2.0,"""event"",""trial"",""time""
""fullscreenenter"",""1"",""7501""
""blur"",""14"",""148956""
""focus"",""15"",""157943""
","""event"",""trial"",""time""
""blur"",""14"",""148956""
","""event"",""trial"",""time""
""focus"",""15"",""157943""
","""event"",""trial"",""time""
""fullscreenenter"",""1"",""7501""
","
",,307,run_exp/static/images/task_images/land.jpg,65,,,,,,,39,,,6,,,,,,,,157888,1,4,FALSE,,,
dig,149,581472,0.0-49.0-0.0,"""event"",""trial"",""time""
""fullscreenenter"",""1"",""7501""
""blur"",""14"",""148956""
""focus"",""15"",""157943""
","""event"",""trial"",""time""
""blur"",""14"",""148956""
","""event"",""trial"",""time""
""focus"",""15"",""157943""
","""event"",""trial"",""time""
""fullscreenenter"",""1"",""7501""
","
",,,,,,,,,,,,"[{""stimulus"":""run_exp/static/images/task_images/dig.jpg"",""time"":0.09999996423721313},{""stimulus"":""run_exp/static/images/task_images/land.jpg"",""time"":902.7999999523163},{""stimulus"":""run_exp/static/images/task_images/dig.jpg"",""time"":1799.2999999523163}]",[],6,,,,,,,,,,,,,,
harvest,150,582480,0.0-49.0-1.0,"""event"",""trial"",""time""
""fullscreenenter"",""1"",""7501""
""blur"",""14"",""148956""
""focus"",""15"",""157943""
","""event"",""trial"",""time""
""blur"",""14"",""148956""
","""event"",""trial"",""time""
""focus"",""15"",""157943""
","""event"",""trial"",""time""
""fullscreenenter"",""1"",""7501""
","
",,null,run_exp/static/images/task_images/gems/39.jpg,null,,,,,,,29,,,6,,,,,39,0.75603636,0.743589744,,,,,,,
decision,151,583022,0.0-49.0-2.0,"""event"",""trial"",""time""
""fullscreenenter"",""1"",""7501""
""blur"",""14"",""148956""
""focus"",""15"",""157943""
","""event"",""trial"",""time""
""blur"",""14"",""148956""
","""event"",""trial"",""time""
""focus"",""15"",""157943""
","""event"",""trial"",""time""
""fullscreenenter"",""1"",""7501""
","
",,539.6,run_exp/static/images/task_images/land.jpg,65,,,,,,,29,,,6,,,,,,,,162136,1,5,FALSE,,,
dig,152,585499,0.0-50.0-0.0,"""event"",""trial"",""time""
""fullscreenenter"",""1"",""7501""
""blur"",""14"",""148956""
""focus"",""15"",""157943""
","""event"",""trial"",""time""
""blur"",""14"",""148956""
","""event"",""trial"",""time""
""focus"",""15"",""157943""
","""event"",""trial"",""time""
""fullscreenenter"",""1"",""7501""
","
",,,,,,,,,,,,"[{""stimulus"":""run_exp/static/images/task_images/dig.jpg"",""time"":0.20000004768371582},{""stimulus"":""run_exp/static/images/task_images/land.jpg"",""time"":829.1000000238419},{""stimulus"":""run_exp/static/images/task_images/dig.jpg"",""time"":1645.2000000476837}]",[],6,,,,,,,,,,,,,,
harvest,153,586508,0.0-50.0-1.0,"""event"",""trial"",""time""
""fullscreenenter"",""1"",""7501""
""blur"",""14"",""148956""
""focus"",""15"",""157943""
","""event"",""trial"",""time""
""blur"",""14"",""148956""
","""event"",""trial"",""time""
""focus"",""15"",""157943""
","""event"",""trial"",""time""
""fullscreenenter"",""1"",""7501""
","
",,null,run_exp/static/images/task_images/gems/29.jpg,null,,,,,,,25,,,6,,,,,29,0.878091159,0.862068966,,,,,,,
decision,154,586866,0.0-50.0-2.0,"""event"",""trial"",""time""
""fullscreenenter"",""1"",""7501""
""blur"",""14"",""148956""
""focus"",""15"",""157943""
","""event"",""trial"",""time""
""blur"",""14"",""148956""
","""event"",""trial"",""time""
""focus"",""15"",""157943""
","""event"",""trial"",""time""
""fullscreenenter"",""1"",""7501""
","
",,355.6,run_exp/static/images/task_images/land.jpg,76,,,,,,,25,,,6,,,,,,,,165980,1,6,TRUE,,,
travel,155,596515,0.0-51.0-0.0,"""event"",""trial"",""time""
""fullscreenenter"",""1"",""7501""
""blur"",""14"",""148956""
""focus"",""15"",""157943""
","""event"",""trial"",""time""
""blur"",""14"",""148956""
","""event"",""trial"",""time""
""focus"",""15"",""157943""
","""event"",""trial"",""time""
""fullscreenenter"",""1"",""7501""
","
",,,,,,,,,,,,"[{""stimulus"":""run_exp/static/images/task_images/rocket-01.jpg"",""time"":0.19999998807907104},{""stimulus"":""run_exp/static/images/task_images/rocket-02.jpg"",""time"":1076.4000000357628},{""stimulus"":""run_exp/static/images/task_images/rocket-03.jpg"",""time"":2146.5},{""stimulus"":""run_exp/static/images/task_images/rocket-04.jpg"",""time"":3220.300000011921},{""stimulus"":""run_exp/static/images/task_images/rocket-05.jpg"",""time"":4292.699999988079},{""stimulus"":""run_exp/static/images/task_images/rocket-06.jpg"",""time"":5364.400000035763},{""stimulus"":""run_exp/static/images/task_images/rocket-07.jpg"",""time"":6437.600000023842},{""stimulus"":""run_exp/static/images/task_images/rocket-08.jpg"",""time"":7508.5},{""stimulus"":""run_exp/static/images/task_images/rocket-09.jpg"",""time"":8579.900000035763}]",[],6,,,,,,,,,,,,,,
alien_welcome,156,601519,0.0-51.0-1.0,"""event"",""trial"",""time""
""fullscreenenter"",""1"",""7501""
""blur"",""14"",""148956""
""focus"",""15"",""157943""
","""event"",""trial"",""time""
""blur"",""14"",""148956""
","""event"",""trial"",""time""
""focus"",""15"",""157943""
","""event"",""trial"",""time""
""fullscreenenter"",""1"",""7501""
","
",,null,run_exp/static/images/task_images/aliens/old_aliens/planet/alien_planet-45.jpg,null,,,,,,,,,,,,,45,"40,68,44,73,23,12,45,30,13,50,9,29,59,56,27,8,79,46,66,38,72,20,67,14,76,17,11,21,35,26,75,55,48,77,47,6,24,52,33,25,10,51",,,,,,,,,,
land,157,602026,0.0-51.0-2.0,"""event"",""trial"",""time""
""fullscreenenter"",""1"",""7501""
""blur"",""14"",""148956""
""focus"",""15"",""157943""
","""event"",""trial"",""time""
""blur"",""14"",""148956""
","""event"",""trial"",""time""
""focus"",""15"",""157943""
","""event"",""trial"",""time""
""fullscreenenter"",""1"",""7501""
","
",,null,run_exp/static/images/task_images/land.jpg,null,,,,,,,111,,,7,,,,,,,,,,,,,,
dig,158,604042,0.0-51.0-3.0,"""event"",""trial"",""time""
""fullscreenenter"",""1"",""7501""
""blur"",""14"",""148956""
""focus"",""15"",""157943""
","""event"",""trial"",""time""
""blur"",""14"",""148956""
","""event"",""trial"",""time""
""focus"",""15"",""157943""
","""event"",""trial"",""time""
""fullscreenenter"",""1"",""7501""
","
",,,,,,,,,,,,"[{""stimulus"":""run_exp/static/images/task_images/dig.jpg"",""time"":0.5},{""stimulus"":""run_exp/static/images/task_images/land.jpg"",""time"":677.1000000238419},{""stimulus"":""run_exp/static/images/task_images/dig.jpg"",""time"":1341.8999999761581}]",[],7,,,,,,,,,,,,,,
harvest,159,605050,0.0-51.0-4.0,"""event"",""trial"",""time""
""fullscreenenter"",""1"",""7501""
""blur"",""14"",""148956""
""focus"",""15"",""157943""
","""event"",""trial"",""time""
""blur"",""14"",""148956""
","""event"",""trial"",""time""
""focus"",""15"",""157943""
","""event"",""trial"",""time""
""fullscreenenter"",""1"",""7501""
","
",,null,run_exp/static/images/task_images/gems/111.jpg,null,,,,,,,84,,,7,,,,,111,0.760651346,0.756756757,,,,,,,
decision,160,605603,0.0-51.0-5.0,"""event"",""trial"",""time""
""fullscreenenter"",""1"",""7501""
""blur"",""14"",""148956""
""focus"",""15"",""157943""
","""event"",""trial"",""time""
""blur"",""14"",""148956""
","""event"",""trial"",""time""
""focus"",""15"",""157943""
","""event"",""trial"",""time""
""fullscreenenter"",""1"",""7501""
","
",,551.2,run_exp/static/images/task_images/land.jpg,65,,,,,,,84,,,7,,,,,,,,184718,1,0,FALSE,,,
dig,161,608063,0.0-52.0-0.0,"""event"",""trial"",""time""
""fullscreenenter"",""1"",""7501""
""blur"",""14"",""148956""
""focus"",""15"",""157943""
","""event"",""trial"",""time""
""blur"",""14"",""148956""
","""event"",""trial"",""time""
""focus"",""15"",""157943""
","""event"",""trial"",""time""
""fullscreenenter"",""1"",""7501""
","
",,,,,,,,,,,,"[{""stimulus"":""run_exp/static/images/task_images/dig.jpg"",""time"":0.10000002384185791},{""stimulus"":""run_exp/static/images/task_images/land.jpg"",""time"":821.9000000357628},{""stimulus"":""run_exp/static/images/task_images/dig.jpg"",""time"":1636.800000011921}]",[],7,,,,,,,,,,,,,,
harvest,162,609071,0.0-52.0-1.0,"""event"",""trial"",""time""
""fullscreenenter"",""1"",""7501""
""blur"",""14"",""148956""
""focus"",""15"",""157943""
","""event"",""trial"",""time""
""blur"",""14"",""148956""
","""event"",""trial"",""time""
""focus"",""15"",""157943""
","""event"",""trial"",""time""
""fullscreenenter"",""1"",""7501""
","
",,null,run_exp/static/images/task_images/gems/84.jpg,null,,,,,,,72,,,7,,,,,84,0.856977642,0.857142857,,,,,,,
decision,163,609200,0.0-52.0-2.0,"""event"",""trial"",""time""
""fullscreenenter"",""1"",""7501""
""blur"",""14"",""148956""
""focus"",""15"",""157943""
","""event"",""trial"",""time""
""blur"",""14"",""148956""
","""event"",""trial"",""time""
""focus"",""15"",""157943""
","""event"",""trial"",""time""
""fullscreenenter"",""1"",""7501""
","
",,126.9,run_exp/static/images/task_images/land.jpg,65,,,,,,,72,,,7,,,,,,,,188314,1,1,FALSE,,,
dig,164,612079,0.0-53.0-0.0,"""event"",""trial"",""time""
""fullscreenenter"",""1"",""7501""
""blur"",""14"",""148956""
""focus"",""15"",""157943""
","""event"",""trial"",""time""
""blur"",""14"",""148956""
","""event"",""trial"",""time""
""focus"",""15"",""157943""
","""event"",""trial"",""time""
""fullscreenenter"",""1"",""7501""
","
",,,,,,,,,,,,"[{""stimulus"":""run_exp/static/images/task_images/dig.jpg"",""time"":0.5},{""stimulus"":""run_exp/static/images/task_images/land.jpg"",""time"":965.5},{""stimulus"":""run_exp/static/images/task_images/dig.jpg"",""time"":1925.6000000238419}]",[],7,,,,,,,,,,,,,,
harvest,165,613087,0.0-53.0-1.0,"""event"",""trial"",""time""
""fullscreenenter"",""1"",""7501""
""blur"",""14"",""148956""
""focus"",""15"",""157943""
","""event"",""trial"",""time""
""blur"",""14"",""148956""
","""event"",""trial"",""time""
""focus"",""15"",""157943""
","""event"",""trial"",""time""
""fullscreenenter"",""1"",""7501""
","
",,null,run_exp/static/images/task_images/gems/72.jpg,null,,,,,,,59,,,7,,,,,72,0.812896095,0.819444444,,,,,,,
decision,166,613606,0.0-53.0-2.0,"""event"",""trial"",""time""
""fullscreenenter"",""1"",""7501""
""blur"",""14"",""148956""
""focus"",""15"",""157943""
","""event"",""trial"",""time""
""blur"",""14"",""148956""
","""event"",""trial"",""time""
""focus"",""15"",""157943""
","""event"",""trial"",""time""
""fullscreenenter"",""1"",""7501""
","
",,517.8,run_exp/static/images/task_images/land.jpg,65,,,,,,,59,,,7,,,,,,,,192720,1,2,FALSE,,,
dig,167,616094,0.0-54.0-0.0,"""event"",""trial"",""time""
""fullscreenenter"",""1"",""7501""
""blur"",""14"",""148956""
""focus"",""15"",""157943""
","""event"",""trial"",""time""
""blur"",""14"",""148956""
","""event"",""trial"",""time""
""focus"",""15"",""157943""
","""event"",""trial"",""time""
""fullscreenenter"",""1"",""7501""
","
",,,,,,,,,,,,"[{""stimulus"":""run_exp/static/images/task_images/dig.jpg"",""time"":0.20000004768371582},{""stimulus"":""run_exp/static/images/task_images/land.jpg"",""time"":835.1000000238419},{""stimulus"":""run_exp/static/images/task_images/dig.jpg"",""time"":1661.800000011921}]",[],7,,,,,,,,,,,,,,
harvest,168,617105,0.0-54.0-1.0,"""event"",""trial"",""time""
""fullscreenenter"",""1"",""7501""
""blur"",""14"",""148956""
""focus"",""15"",""157943""
","""event"",""trial"",""time""
""blur"",""14"",""148956""
","""event"",""trial"",""time""
""focus"",""15"",""157943""
","""event"",""trial"",""time""
""fullscreenenter"",""1"",""7501""
","
",,null,run_exp/static/images/task_images/gems/59.jpg,null,,,,,,,49,,,7,,,,,59,0.834033786,0.830508475,,,,,,,
decision,169,617544,0.0-54.0-2.0,"""event"",""trial"",""time""
""fullscreenenter"",""1"",""7501""
""blur"",""14"",""148956""
""focus"",""15"",""157943""
","""event"",""trial"",""time""
""blur"",""14"",""148956""
","""event"",""trial"",""time""
""focus"",""15"",""157943""
","""event"",""trial"",""time""
""fullscreenenter"",""1"",""7501""
","
",,436.3,run_exp/static/images/task_images/land.jpg,65,,,,,,,49,,,7,,,,,,,,196658,1,3,FALSE,,,
dig,170,620121,0.0-55.0-0.0,"""event"",""trial"",""time""
""fullscreenenter"",""1"",""7501""
""blur"",""14"",""148956""
""focus"",""15"",""157943""
","""event"",""trial"",""time""
""blur"",""14"",""148956""
","""event"",""trial"",""time""
""focus"",""15"",""157943""
","""event"",""trial"",""time""
""fullscreenenter"",""1"",""7501""
","
",,,,,,,,,,,,"[{""stimulus"":""run_exp/static/images/task_images/dig.jpg"",""time"":0.19999998807907104},{""stimulus"":""run_exp/static/images/task_images/land.jpg"",""time"":862.3000000119209},{""stimulus"":""run_exp/static/images/task_images/dig.jpg"",""time"":1715}]",[],7,,,,,,,,,,,,,,
harvest,171,621129,0.0-55.0-1.0,"""event"",""trial"",""time""
""fullscreenenter"",""1"",""7501""
""blur"",""14"",""148956""
""focus"",""15"",""157943""
","""event"",""trial"",""time""
""blur"",""14"",""148956""
","""event"",""trial"",""time""
""focus"",""15"",""157943""
","""event"",""trial"",""time""
""fullscreenenter"",""1"",""7501""
","
",,null,run_exp/static/images/task_images/gems/49.jpg,null,,,,,,,41,,,7,,,,,49,0.826966865,0.836734694,,,,,,,
decision,172,623336,0.0-55.0-2.0,"""event"",""trial"",""time""
""fullscreenenter"",""1"",""7501""
""blur"",""14"",""148956""
""focus"",""15"",""157943""
","""event"",""trial"",""time""
""blur"",""14"",""148956""
","""event"",""trial"",""time""
""focus"",""15"",""157943""
","""event"",""trial"",""time""
""fullscreenenter"",""1"",""7501""
","
",,2204.8,run_exp/static/images/task_images/land.jpg,65,,,,,,,41,,,7,,,,,,,,202450,1,4,FALSE,,,
dig,173,624142,0.0-56.0-0.0,"""event"",""trial"",""time""
""fullscreenenter"",""1"",""7501""
""blur"",""14"",""148956""
""focus"",""15"",""157943""
","""event"",""trial"",""time""
""blur"",""14"",""148956""
","""event"",""trial"",""time""
""focus"",""15"",""157943""
","""event"",""trial"",""time""
""fullscreenenter"",""1"",""7501""
","
",,,,,,,,,,,,"[{""stimulus"":""run_exp/static/images/task_images/dig.jpg"",""time"":0.19999998807907104},{""stimulus"":""run_exp/static/images/task_images/land.jpg"",""time"":274.69999998807907},{""stimulus"":""run_exp/static/images/task_images/dig.jpg"",""time"":540.4000000357628}]",[],7,,,,,,,,,,,,,,
harvest,174,625154,0.0-56.0-1.0,"""event"",""trial"",""time""
""fullscreenenter"",""1"",""7501""
""blur"",""14"",""148956""
""focus"",""15"",""157943""
","""event"",""trial"",""time""
""blur"",""14"",""148956""
","""event"",""trial"",""time""
""focus"",""15"",""157943""
","""event"",""trial"",""time""
""fullscreenenter"",""1"",""7501""
","
",,null,run_exp/static/images/task_images/gems/41.jpg,null,,,,,,,36,,,7,,,,,41,0.884382365,0.87804878,,,,,,,
decision,175,625783,0.0-56.0-2.0,"""event"",""trial"",""time""
""fullscreenenter"",""1"",""7501""
""blur"",""14"",""148956""
""focus"",""15"",""157943""
","""event"",""trial"",""time""
""blur"",""14"",""148956""
","""event"",""trial"",""time""
""focus"",""15"",""157943""
","""event"",""trial"",""time""
""fullscreenenter"",""1"",""7501""
","
",,628,run_exp/static/images/task_images/land.jpg,65,,,,,,,36,,,7,,,,,,,,204898,1,5,FALSE,,,
dig,176,628169,0.0-57.0-0.0,"""event"",""trial"",""time""
""fullscreenenter"",""1"",""7501""
""blur"",""14"",""148956""
""focus"",""15"",""157943""
","""event"",""trial"",""time""
""blur"",""14"",""148956""
","""event"",""trial"",""time""
""focus"",""15"",""157943""
","""event"",""trial"",""time""
""fullscreenenter"",""1"",""7501""
","
",,,,,,,,,,,,"[{""stimulus"":""run_exp/static/images/task_images/dig.jpg"",""time"":0.20000004768371582},{""stimulus"":""run_exp/static/images/task_images/land.jpg"",""time"":797.2000000476837},{""stimulus"":""run_exp/static/images/task_images/dig.jpg"",""time"":1582.1000000238419}]",[],7,,,,,,,,,,,,,,
