trial_type,trial_index,time_elapsed,internal_node_id,interactions,blur_events,focus_events,fullscreenenter_events,fullscreenexit_events,success,rt,stimulus,key_press,prompt,subject_id,participant_id,age,gender,button_pressed,next_reward,animation_sequence,responses,planet,curr_prac_trial,n_prac_rounds,alien,aliens,reward_received,decay_rate_actual,decay_rate_exp,time_in_block,block_num,prt,last_trial_on_planet,button_html,bonus,num_failures
pavlovia,0,3,0.0-0.0,"""event"",""trial"",""time""
""fullscreenenter"",""1"",""2347""
","
","
","""event"",""trial"",""time""
""fullscreenenter"",""1"",""2347""
","
",,,,,,,,,,,,,,,,,,,,,,,,,,,,
fullscreen,1,3335,0.0-1.0,"""event"",""trial"",""time""
""fullscreenenter"",""1"",""2347""
","
","
","""event"",""trial"",""time""
""fullscreenenter"",""1"",""2347""
","
",TRUE,,,,,,,,,,,,,,,,,,,,,,,,,,,
instruc_welcome,2,13062,0.0-2.0,"""event"",""trial"",""time""
""fullscreenenter"",""1"",""2347""
","
","
","""event"",""trial"",""time""
""fullscreenenter"",""1"",""2347""
","
",,null,run_exp/static/audio/clip_1_welcome.m4a,null,"<p>Howdy! In this experiment, you’ll be an explorer traveling through space to collect space treasure.</p><p>Your mission is to collect as much treasure as possible.</p><br><br><p><img src='run_exp/static/images/task_images/opening_img-01.jpg' height='300' width='auto'></p>",9288,3595,17.17,Male,,,,,,,,,,,,,,,,,,,
audio-keyboard-response,3,29644,0.0-3.0,"""event"",""trial"",""time""
""fullscreenenter"",""1"",""2347""
""blur"",""4"",""30589""
""focus"",""4"",""38815""
","""event"",""trial"",""time""
""blur"",""4"",""30589""
","""event"",""trial"",""time""
""focus"",""4"",""38815""
","""event"",""trial"",""time""
""fullscreenenter"",""1"",""2347""
","
",,null,run_exp/static/audio/clip_2_move.m4a,null,,,,,,,,,,,,,,,,,,,,,,,,
welcome_dec,4,38920,0.0-4.0,"""event"",""trial"",""time""
""fullscreenenter"",""1"",""2347""
""blur"",""4"",""30589""
""focus"",""4"",""38815""
","""event"",""trial"",""time""
""blur"",""4"",""30589""
","""event"",""trial"",""time""
""focus"",""4"",""38815""
","""event"",""trial"",""time""
""fullscreenenter"",""1"",""2347""
","
",,9274.1,"<p>Howdy! In this experiment, you’ll be an explorer traveling through space to collect space treasure.</p><p>Your mission is to collect as much treasure as possible.</p><br><br><p><img src='run_exp/static/images/task_images/opening_img-01.jpg' height='300' width='auto'></p>",,,,,,,1,,,,,,,,,,,,,,,,,,
html-keyboard-response,5,40877,0.0-5.0,"""event"",""trial"",""time""
""fullscreenenter"",""1"",""2347""
""blur"",""4"",""30589""
""focus"",""4"",""38815""
","""event"",""trial"",""time""
""blur"",""4"",""30589""
","""event"",""trial"",""time""
""focus"",""4"",""38815""
","""event"",""trial"",""time""
""fullscreenenter"",""1"",""2347""
","
",,1956,"<p>Howdy! In this experiment, you’ll be an explorer traveling through space to collect space treasure.</p><p>Your mission is to collect as much treasure as possible.</p><br><br><p><img src='run_exp/static/images/task_images/opening_img-01.jpg' height='300' width='auto'></p><button class=""jspsych-html-btn-unchosen""><img src=""run_exp/static/images/task_images/planet-01.jpg"" height=""50""></button><button class=""jspsych-html-btn-chosen""><img src=""run_exp/static/images/task_images/planet-02.jpg"" height=""50""></button><p><b>[press the space bar to lock in your answer]<b><br></p>",32,,,,,,,,,,,,,,,,,,,,,,,,
instruc_goal,6,50916,0.0-6.0-0.0,"""event"",""trial"",""time""
""fullscreenenter"",""1"",""2347""
""blur"",""4"",""30589""
""focus"",""4"",""38815""
","""event"",""trial"",""time""
""blur"",""4"",""30589""
","""event"",""trial"",""time""
""focus"",""4"",""38815""
","""event"",""trial"",""time""
""fullscreenenter"",""1"",""2347""
","
",,null,run_exp/static/audio/clip_3_goal.m4a,null,"<p> As a space explorer, you’ll visit different planets to dig for space treasure, these pink gems.</p> <p> The more treasure you dig up, the more bonus money you’ll win! </p><br><br><p><img src='run_exp/static/images/task_images/pink_gem.jpg' height='300' width='auto'></p>",,,,,,,,,,,,,,,,,,,,,,,
instruc_goal,7,51794,0.0-6.0-1.0,"""event"",""trial"",""time""
""fullscreenenter"",""1"",""2347""
""blur"",""4"",""30589""
""focus"",""4"",""38815""
","""event"",""trial"",""time""
""blur"",""4"",""30589""
","""event"",""trial"",""time""
""focus"",""4"",""38815""
","""event"",""trial"",""time""
""fullscreenenter"",""1"",""2347""
","
",,876,"<p> As a space explorer, you’ll visit different planets to dig for space treasure, these pink gems.</p> <p> The more treasure you dig up, the more bonus money you’ll win! </p><br><br><p><img src='run_exp/static/images/task_images/pink_gem.jpg' height='300' width='auto'></p>",,,,,,,1,,,,,,,,,,,,,,,,,,
html-keyboard-response,8,52237,0.0-6.0-2.0,"""event"",""trial"",""time""
""fullscreenenter"",""1"",""2347""
""blur"",""4"",""30589""
""focus"",""4"",""38815""
","""event"",""trial"",""time""
""blur"",""4"",""30589""
","""event"",""trial"",""time""
""focus"",""4"",""38815""
","""event"",""trial"",""time""
""fullscreenenter"",""1"",""2347""
","
",,442.3,"<p> As a space explorer, you’ll visit different planets to dig for space treasure, these pink gems.</p> <p> The more treasure you dig up, the more bonus money you’ll win! </p><br><br><p><img src='run_exp/static/images/task_images/pink_gem.jpg' height='300' width='auto'></p><button class=""jspsych-html-btn-unchosen""><img src=""run_exp/static/images/task_images/planet-01.jpg"" height=""50""></button><button class=""jspsych-html-btn-chosen""><img src=""run_exp/static/images/task_images/planet-02.jpg"" height=""50""></button><p><b>[press the space bar to lock in your answer]<b><br></p>",32,,,,,,,,,,,,,,,,,,,,,,,,
instruc_dig,9,68239,0.0-7.0-0.0,"""event"",""trial"",""time""
""fullscreenenter"",""1"",""2347""
""blur"",""4"",""30589""
""focus"",""4"",""38815""
","""event"",""trial"",""time""
""blur"",""4"",""30589""
","""event"",""trial"",""time""
""focus"",""4"",""38815""
","""event"",""trial"",""time""
""fullscreenenter"",""1"",""2347""
","
",,null,run_exp/static/audio/clip_4_dig.m4a,null,,,,,,,100,,,,,,,,,,,,,,,,,
instruc_dig_try,10,70510,0.0-7.0-1.0,"""event"",""trial"",""time""
""fullscreenenter"",""1"",""2347""
""blur"",""4"",""30589""
""focus"",""4"",""38815""
","""event"",""trial"",""time""
""blur"",""4"",""30589""
","""event"",""trial"",""time""
""focus"",""4"",""38815""
","""event"",""trial"",""time""
""fullscreenenter"",""1"",""2347""
","
",,2269.8,"<p> When you’ve arrived at a new planet, you will dig once. </p> <p>Then, you get to decide if you want to stay on the planet and dig again or travel to a new planet and dig there.</p> <p> To stay and dig, press the letter <strong>‘A’</strong> on your keyboard. Try pressing it now! </p><p><img src='run_exp/static/images/task_images/land.jpg'  height='700' width='auto'></p>",65,"<p> When you’ve arrived at a new planet, you will dig once. </p> <p>Then, you get to decide if you want to stay on the planet and dig again or travel to a new planet and dig there.</p> <p> To stay and dig, press the letter <strong>‘A’</strong> on your keyboard. Try pressing it now! </p><p><img src='run_exp/static/images/task_images/land.jpg'  height='700' width='auto'></p>",,,,,,100,,,,,,,,,,,,,,,,,
dig_prac,11,72519,0.0-7.0-2.0,"""event"",""trial"",""time""
""fullscreenenter"",""1"",""2347""
""blur"",""4"",""30589""
""focus"",""4"",""38815""
","""event"",""trial"",""time""
""blur"",""4"",""30589""
","""event"",""trial"",""time""
""focus"",""4"",""38815""
","""event"",""trial"",""time""
""fullscreenenter"",""1"",""2347""
","
",,,,,,,,,,,,"[{""stimulus"":""run_exp/static/images/task_images/dig.jpg"",""time"":0.2999999998137355},{""stimulus"":""run_exp/static/images/task_images/land.jpg"",""time"":679.5999999996275},{""stimulus"":""run_exp/static/images/task_images/dig.jpg"",""time"":1349.0999999996275}]",[],,,,,,,,,,,,,,,
instruc_travel,12,108764,0.0-7.0-3.0,"""event"",""trial"",""time""
""fullscreenenter"",""1"",""2347""
""blur"",""4"",""30589""
""focus"",""4"",""38815""
","""event"",""trial"",""time""
""blur"",""4"",""30589""
","""event"",""trial"",""time""
""focus"",""4"",""38815""
","""event"",""trial"",""time""
""fullscreenenter"",""1"",""2347""
","
",,null,run_exp/static/audio/clip_5_travel.m4a,null,"<p>Every time you dig up gems, there are less gems on the planet, so the more you dig on a planet the fewer gems you’ll get with each dig.</p><p>When gems are running low, you may want to travel to a new planet. </p> <p>  Planets are very far apart in this galaxy, so it will take some time to travel between them. </p> <br><p>There are lots and lots of planets for you to visit, so you won’t be able to return to any planets you’ve seen before. </p><br><p>To leave this planet and travel to a new one, press the letter <strong>‘L’</strong> on your keyboard. Try pressing it now! </p><p><img src='run_exp/static/images/task_images/rocket-01.jpg'  height='600' width='auto'></p>",,,,,,,,,,,,,,,,,,,,,,,
instruc_travel_try,13,108773,0.0-7.0-4.0,"""event"",""trial"",""time""
""fullscreenenter"",""1"",""2347""
""blur"",""4"",""30589""
""focus"",""4"",""38815""
","""event"",""trial"",""time""
""blur"",""4"",""30589""
","""event"",""trial"",""time""
""focus"",""4"",""38815""
","""event"",""trial"",""time""
""fullscreenenter"",""1"",""2347""
","
",,8.5,"<p>Every time you dig up gems, there are less gems on the planet, so the more you dig on a planet the fewer gems you’ll get with each dig.</p><p>When gems are running low, you may want to travel to a new planet. </p> <p>  Planets are very far apart in this galaxy, so it will take some time to travel between them. </p> <br><p>There are lots and lots of planets for you to visit, so you won’t be able to return to any planets you’ve seen before. </p><br><p>To leave this planet and travel to a new one, press the letter <strong>‘L’</strong> on your keyboard. Try pressing it now! </p><p><img src='run_exp/static/images/task_images/rocket-01.jpg'  height='600' width='auto'></p>",76,"<p>Every time you dig up gems, there are less gems on the planet, so the more you dig on a planet the fewer gems you’ll get with each dig.</p><p>When gems are running low, you may want to travel to a new planet. </p> <p>  Planets are very far apart in this galaxy, so it will take some time to travel between them. </p> <br><p>There are lots and lots of planets for you to visit, so you won’t be able to return to any planets you’ve seen before. </p><br><p>To leave this planet and travel to a new one, press the letter <strong>‘L’</strong> on your keyboard. Try pressing it now! </p><p><img src='run_exp/static/images/task_images/rocket-01.jpg'  height='600' width='auto'></p>",,,,,,,,,,,,,,,,,,,,,,,
travel_prac,14,118774,0.0-7.0-5.0,"""event"",""trial"",""time""
""fullscreenenter"",""1"",""2347""
""blur"",""4"",""30589""
""focus"",""4"",""38815""
","""event"",""trial"",""time""
""blur"",""4"",""30589""
","""event"",""trial"",""time""
""focus"",""4"",""38815""
","""event"",""trial"",""time""
""fullscreenenter"",""1"",""2347""
","
",,,,,,,,,,,,"[{""stimulus"":""run_exp/static/images/task_images/rocket-01.jpg"",""time"":0.19999999972060323},{""stimulus"":""run_exp/static/images/task_images/rocket-02.jpg"",""time"":1121.5},{""stimulus"":""run_exp/static/images/task_images/rocket-03.jpg"",""time"":2223.5},{""stimulus"":""run_exp/static/images/task_images/rocket-04.jpg"",""time"":3343.5},{""stimulus"":""run_exp/static/images/task_images/rocket-05.jpg"",""time"":4445.399999999907},{""stimulus"":""run_exp/static/images/task_images/rocket-06.jpg"",""time"":5566.399999999907},{""stimulus"":""run_exp/static/images/task_images/rocket-07.jpg"",""time"":6681.399999999907},{""stimulus"":""run_exp/static/images/task_images/rocket-08.jpg"",""time"":7780.799999999814},{""stimulus"":""run_exp/static/images/task_images/rocket-09.jpg"",""time"":8898.19999999972}]",[],0,,,,,,,,,,,,,,
instruc_alien_greet,15,145958,0.0-7.0-6.0,"""event"",""trial"",""time""
""fullscreenenter"",""1"",""2347""
""blur"",""4"",""30589""
""focus"",""4"",""38815""
","""event"",""trial"",""time""
""blur"",""4"",""30589""
","""event"",""trial"",""time""
""focus"",""4"",""38815""
","""event"",""trial"",""time""
""fullscreenenter"",""1"",""2347""
","
",,null,run_exp/static/audio/clip_6_alien.m4a,null,"<p>When you arrive at a new planet, the alien who owns the treasure mine on that planet will greet you!</p><p>The better an alien takes care of their mine the easier it is to dig for gems. Some aliens take better care of their mine than others. So, you won’t get exactly the same amount of gems on each planet.</p><p>What the alien looks like does not tell you anything about how many gems there are on the planet.</p><br><p><img src=""run_exp/static/images/task_images/aliens/instructions_aliens/planet/alien_planet-1.jpg""  height=""600"" width=""auto""></p>",,,,,,,,,,,,,,,,,,,,,,,
instruc_alien_greet,16,149140,0.0-7.0-7.0,"""event"",""trial"",""time""
""fullscreenenter"",""1"",""2347""
""blur"",""4"",""30589""
""focus"",""4"",""38815""
","""event"",""trial"",""time""
""blur"",""4"",""30589""
","""event"",""trial"",""time""
""focus"",""4"",""38815""
","""event"",""trial"",""time""
""fullscreenenter"",""1"",""2347""
","
",,3181.1,"<p>When you arrive at a new planet, the alien who owns the treasure mine on that planet will greet you!</p><p>The better an alien takes care of their mine the easier it is to dig for gems. Some aliens take better care of their mine than others. So, you won’t get exactly the same amount of gems on each planet.</p><p>What the alien looks like does not tell you anything about how many gems there are on the planet.</p><br><p><img src=""run_exp/static/images/task_images/aliens/instructions_aliens/planet/alien_planet-1.jpg""  height=""600"" width=""auto""></p>",,,,,,,1,,,,,,,,,,,,,,,,,,
html-keyboard-response,17,150325,0.0-7.0-8.0,"""event"",""trial"",""time""
""fullscreenenter"",""1"",""2347""
""blur"",""4"",""30589""
""focus"",""4"",""38815""
","""event"",""trial"",""time""
""blur"",""4"",""30589""
","""event"",""trial"",""time""
""focus"",""4"",""38815""
","""event"",""trial"",""time""
""fullscreenenter"",""1"",""2347""
","
",,1183.5,"<p>When you arrive at a new planet, the alien who owns the treasure mine on that planet will greet you!</p><p>The better an alien takes care of their mine the easier it is to dig for gems. Some aliens take better care of their mine than others. So, you won’t get exactly the same amount of gems on each planet.</p><p>What the alien looks like does not tell you anything about how many gems there are on the planet.</p><br><p><img src=""run_exp/static/images/task_images/aliens/instructions_aliens/planet/alien_planet-1.jpg""  height=""600"" width=""auto""></p><button class=""jspsych-html-btn-unchosen""><img src=""run_exp/static/images/task_images/planet-01.jpg"" height=""50""></button><button class=""jspsych-html-btn-chosen""><img src=""run_exp/static/images/task_images/planet-02.jpg"" height=""50""></button><p><b>[press the space bar to lock in your answer]<b><br></p>",32,,,,,,,,,,,,,,,,,,,,,,,,
time_out,18,161400,0.0-8.0-0.0,"""event"",""trial"",""time""
""fullscreenenter"",""1"",""2347""
""blur"",""4"",""30589""
""focus"",""4"",""38815""
","""event"",""trial"",""time""
""blur"",""4"",""30589""
","""event"",""trial"",""time""
""focus"",""4"",""38815""
","""event"",""trial"",""time""
""fullscreenenter"",""1"",""2347""
","
",,null,run_exp/static/audio/clip_7_timeout.m4a,null,"<p>If you don't make your choice fast enough, you’ll have to wait a few seconds before you can make another one.</p><p>You can’t dig for more gems or travel to new planets. You just have to sit and wait.</p><br><p><img src='run_exp/static/images/task_images/time_out.jpg'  height='600' width='auto'></p>",,,,,,,,,,,,,,,,,,,,,,,
time_out,19,163887,0.0-8.0-1.0,"""event"",""trial"",""time""
""fullscreenenter"",""1"",""2347""
""blur"",""4"",""30589""
""focus"",""4"",""38815""
","""event"",""trial"",""time""
""blur"",""4"",""30589""
","""event"",""trial"",""time""
""focus"",""4"",""38815""
","""event"",""trial"",""time""
""fullscreenenter"",""1"",""2347""
","
",,2486.3,"<p>If you don't make your choice fast enough, you’ll have to wait a few seconds before you can make another one.</p><p>You can’t dig for more gems or travel to new planets. You just have to sit and wait.</p><br><p><img src='run_exp/static/images/task_images/time_out.jpg'  height='600' width='auto'></p>",,,,,,,1,,,,,,,,,,,,,,,,,,
html-keyboard-response,20,164749,0.0-8.0-2.0,"""event"",""trial"",""time""
""fullscreenenter"",""1"",""2347""
""blur"",""4"",""30589""
""focus"",""4"",""38815""
","""event"",""trial"",""time""
""blur"",""4"",""30589""
","""event"",""trial"",""time""
""focus"",""4"",""38815""
","""event"",""trial"",""time""
""fullscreenenter"",""1"",""2347""
","
",,860.4,"<p>If you don't make your choice fast enough, you’ll have to wait a few seconds before you can make another one.</p><p>You can’t dig for more gems or travel to new planets. You just have to sit and wait.</p><br><p><img src='run_exp/static/images/task_images/time_out.jpg'  height='600' width='auto'></p><button class=""jspsych-html-btn-unchosen""><img src=""run_exp/static/images/task_images/planet-01.jpg"" height=""50""></button><button class=""jspsych-html-btn-chosen""><img src=""run_exp/static/images/task_images/planet-02.jpg"" height=""50""></button><p><b>[press the space bar to lock in your answer]<b><br></p>",32,,,,,,,,,,,,,,,,,,,,,,,,
instruc_break,21,180422,0.0-9.0-0.0,"""event"",""trial"",""time""
""fullscreenenter"",""1"",""2347""
""blur"",""4"",""30589""
""focus"",""4"",""38815""
","""event"",""trial"",""time""
""blur"",""4"",""30589""
","""event"",""trial"",""time""
""focus"",""4"",""38815""
","""event"",""trial"",""time""
""fullscreenenter"",""1"",""2347""
","
",,null,run_exp/static/audio/clip_8_break.m4a,null,"<p> After digging and traveling for a while, you’ll be able to take a break at home base. </p><p>The game will last 20 minutes no matter what.</p><p>You will visit home base every 5 minutes, so, you will visit home base three times during the game.</p><br><p><img src='run_exp/static/images/task_images/home_base.jpg' height='600' width='auto'></p>",,,,,,,,,,,,,,,,,,,,,,,
instruc_break,22,182079,0.0-9.0-1.0,"""event"",""trial"",""time""
""fullscreenenter"",""1"",""2347""
""blur"",""4"",""30589""
""focus"",""4"",""38815""
","""event"",""trial"",""time""
""blur"",""4"",""30589""
","""event"",""trial"",""time""
""focus"",""4"",""38815""
","""event"",""trial"",""time""
""fullscreenenter"",""1"",""2347""
","
",,1654.9,"<p> After digging and traveling for a while, you’ll be able to take a break at home base. </p><p>The game will last 20 minutes no matter what.</p><p>You will visit home base every 5 minutes, so, you will visit home base three times during the game.</p><br><p><img src='run_exp/static/images/task_images/home_base.jpg' height='600' width='auto'></p>",,,,,,,1,,,,,,,,,,,,,,,,,,
html-keyboard-response,23,182941,0.0-9.0-2.0,"""event"",""trial"",""time""
""fullscreenenter"",""1"",""2347""
""blur"",""4"",""30589""
""focus"",""4"",""38815""
","""event"",""trial"",""time""
""blur"",""4"",""30589""
","""event"",""trial"",""time""
""focus"",""4"",""38815""
","""event"",""trial"",""time""
""fullscreenenter"",""1"",""2347""
","
",,861.4,"<p> After digging and traveling for a while, you’ll be able to take a break at home base. </p><p>The game will last 20 minutes no matter what.</p><p>You will visit home base every 5 minutes, so, you will visit home base three times during the game.</p><br><p><img src='run_exp/static/images/task_images/home_base.jpg' height='600' width='auto'></p><button class=""jspsych-html-btn-unchosen""><img src=""run_exp/static/images/task_images/planet-01.jpg"" height=""50""></button><button class=""jspsych-html-btn-chosen""><img src=""run_exp/static/images/task_images/planet-02.jpg"" height=""50""></button><p><b>[press the space bar to lock in your answer]<b><br></p>",32,,,,,,,,,,,,,,,,,,,,,,,,
instruc_prac_game,24,193064,0.0-10.0-0.0,"""event"",""trial"",""time""
""fullscreenenter"",""1"",""2347""
""blur"",""4"",""30589""
""focus"",""4"",""38815""
","""event"",""trial"",""time""
""blur"",""4"",""30589""
","""event"",""trial"",""time""
""focus"",""4"",""38815""
","""event"",""trial"",""time""
""fullscreenenter"",""1"",""2347""
","
",,null,run_exp/static/audio/clip_9_practice.m4a,null,"<p> Are you ready to play a practice game? </p> <p>In this practice game, you'll be digging up barrels of gems. But, in the real game, you'll be digging up the gems themselves. </p>",,,,,,,,,,,,,,,,,,,,,,,
html-button-response,25,195798,0.0-10.0-1.0,"""event"",""trial"",""time""
""fullscreenenter"",""1"",""2347""
""blur"",""4"",""30589""
""focus"",""4"",""38815""
","""event"",""trial"",""time""
""blur"",""4"",""30589""
","""event"",""trial"",""time""
""focus"",""4"",""38815""
","""event"",""trial"",""time""
""fullscreenenter"",""1"",""2347""
","
",,2733,"<p> Are you ready to play a practice game? </p> <p>In this practice game, you'll be digging up barrels of gems. But, in the real game, you'll be digging up the gems themselves. </p>",,,,,,,0,,,,,,,,,,,,,,,,,,
alien_welcome_prac,26,200807,0.0-11.0-0.0,"""event"",""trial"",""time""
""fullscreenenter"",""1"",""2347""
""blur"",""4"",""30589""
""focus"",""4"",""38815""
","""event"",""trial"",""time""
""blur"",""4"",""30589""
","""event"",""trial"",""time""
""focus"",""4"",""38815""
","""event"",""trial"",""time""
""fullscreenenter"",""1"",""2347""
","
",,null,run_exp/static/images/task_images/aliens/practice_aliens/planet/alien_planet-5.jpg,null,,,,,,,,,,,,,,,,,,,,,,,,
land_prac,27,201309,0.0-11.0-1.0,"""event"",""trial"",""time""
""fullscreenenter"",""1"",""2347""
""blur"",""4"",""30589""
""focus"",""4"",""38815""
","""event"",""trial"",""time""
""blur"",""4"",""30589""
","""event"",""trial"",""time""
""focus"",""4"",""38815""
","""event"",""trial"",""time""
""fullscreenenter"",""1"",""2347""
","
",,null,run_exp/static/images/task_images/land.jpg,null,,,,,,,97,,,0,,,,,,,,,,,,,,
dig_prac,28,203327,0.0-11.0-2.0,"""event"",""trial"",""time""
""fullscreenenter"",""1"",""2347""
""blur"",""4"",""30589""
""focus"",""4"",""38815""
","""event"",""trial"",""time""
""blur"",""4"",""30589""
","""event"",""trial"",""time""
""focus"",""4"",""38815""
","""event"",""trial"",""time""
""fullscreenenter"",""1"",""2347""
","
",,,,,,,,,,,,"[{""stimulus"":""run_exp/static/images/task_images/dig.jpg"",""time"":0.19999999972060323},{""stimulus"":""run_exp/static/images/task_images/land.jpg"",""time"":676.1999999997206},{""stimulus"":""run_exp/static/images/task_images/dig.jpg"",""time"":1348}]",[],,,,,,,,,,,,,,,
harvest_prac,29,204334,0.0-11.0-3.0,"""event"",""trial"",""time""
""fullscreenenter"",""1"",""2347""
""blur"",""4"",""30589""
""focus"",""4"",""38815""
","""event"",""trial"",""time""
""blur"",""4"",""30589""
","""event"",""trial"",""time""
""focus"",""4"",""38815""
","""event"",""trial"",""time""
""fullscreenenter"",""1"",""2347""
","
",,null,run_exp/static/images/task_images/barrel_text.jpg,null,,,,,,,,,,,,,,,,,,,,,,,,
decision_prac,30,206941,0.0-11.0-4.0,"""event"",""trial"",""time""
""fullscreenenter"",""1"",""2347""
""blur"",""4"",""30589""
""focus"",""4"",""38815""
","""event"",""trial"",""time""
""blur"",""4"",""30589""
","""event"",""trial"",""time""
""focus"",""4"",""38815""
","""event"",""trial"",""time""
""fullscreenenter"",""1"",""2347""
","
",,2606.1,run_exp/static/images/task_images/land.jpg,76,,,,,,,,,,,1,,,,,,,,,,,,,
travel,31,214340,0.0-12.0-0.0,"""event"",""trial"",""time""
""fullscreenenter"",""1"",""2347""
""blur"",""4"",""30589""
""focus"",""4"",""38815""
","""event"",""trial"",""time""
""blur"",""4"",""30589""
","""event"",""trial"",""time""
""focus"",""4"",""38815""
","""event"",""trial"",""time""
""fullscreenenter"",""1"",""2347""
","
",,,,,,,,,,,,"[{""stimulus"":""run_exp/static/images/task_images/rocket-01.jpg"",""time"":0},{""stimulus"":""run_exp/static/images/task_images/rocket-02.jpg"",""time"":822.6000000000931},{""stimulus"":""run_exp/static/images/task_images/rocket-03.jpg"",""time"":1644.2000000001863},{""stimulus"":""run_exp/static/images/task_images/rocket-04.jpg"",""time"":2469.899999999907},{""stimulus"":""run_exp/static/images/task_images/rocket-05.jpg"",""time"":3285.2000000001863},{""stimulus"":""run_exp/static/images/task_images/rocket-06.jpg"",""time"":4110},{""stimulus"":""run_exp/static/images/task_images/rocket-07.jpg"",""time"":4935.799999999814},{""stimulus"":""run_exp/static/images/task_images/rocket-08.jpg"",""time"":5759.600000000093},{""stimulus"":""run_exp/static/images/task_images/rocket-09.jpg"",""time"":6582.100000000093}]",[],0,,,,,,,,,,,,,,
alien_welcome_prac,32,219341,0.0-12.0-1.0,"""event"",""trial"",""time""
""fullscreenenter"",""1"",""2347""
""blur"",""4"",""30589""
""focus"",""4"",""38815""
","""event"",""trial"",""time""
""blur"",""4"",""30589""
","""event"",""trial"",""time""
""focus"",""4"",""38815""
","""event"",""trial"",""time""
""fullscreenenter"",""1"",""2347""
","
",,null,run_exp/static/images/task_images/aliens/practice_aliens/planet/alien_planet-4.jpg,null,,,,,,,,,,,,,,,,,,,,,,,,
land_prac,33,219851,0.0-12.0-2.0,"""event"",""trial"",""time""
""fullscreenenter"",""1"",""2347""
""blur"",""4"",""30589""
""focus"",""4"",""38815""
","""event"",""trial"",""time""
""blur"",""4"",""30589""
","""event"",""trial"",""time""
""focus"",""4"",""38815""
","""event"",""trial"",""time""
""fullscreenenter"",""1"",""2347""
","
",,null,run_exp/static/images/task_images/land.jpg,null,,,,,,,104,,,0,,,,,,,,,,,,,,
dig_prac,34,221854,0.0-12.0-3.0,"""event"",""trial"",""time""
""fullscreenenter"",""1"",""2347""
""blur"",""4"",""30589""
""focus"",""4"",""38815""
","""event"",""trial"",""time""
""blur"",""4"",""30589""
","""event"",""trial"",""time""
""focus"",""4"",""38815""
","""event"",""trial"",""time""
""fullscreenenter"",""1"",""2347""
","
",,,,,,,,,,,,"[{""stimulus"":""run_exp/static/images/task_images/dig.jpg"",""time"":0.10000000009313226},{""stimulus"":""run_exp/static/images/task_images/land.jpg"",""time"":671.7999999998137},{""stimulus"":""run_exp/static/images/task_images/dig.jpg"",""time"":1342.2999999998137}]",[],,,,,,,,,,,,,,,
harvest_prac,35,222855,0.0-12.0-4.0,"""event"",""trial"",""time""
""fullscreenenter"",""1"",""2347""
""blur"",""4"",""30589""
""focus"",""4"",""38815""
","""event"",""trial"",""time""
""blur"",""4"",""30589""
","""event"",""trial"",""time""
""focus"",""4"",""38815""
","""event"",""trial"",""time""
""fullscreenenter"",""1"",""2347""
","
",,null,run_exp/static/images/task_images/barrel_text.jpg,null,,,,,,,,,,,,,,,,,,,,,,,,
decision_prac,36,223221,0.0-12.0-5.0,"""event"",""trial"",""time""
""fullscreenenter"",""1"",""2347""
""blur"",""4"",""30589""
""focus"",""4"",""38815""
","""event"",""trial"",""time""
""blur"",""4"",""30589""
","""event"",""trial"",""time""
""focus"",""4"",""38815""
","""event"",""trial"",""time""
""fullscreenenter"",""1"",""2347""
","
",,365,run_exp/static/images/task_images/land.jpg,65,,,,,,,,,,,2,,,,,,,,,,,,,
dig_prac,37,225231,0.0-13.0-0.0,"""event"",""trial"",""time""
""fullscreenenter"",""1"",""2347""
""blur"",""4"",""30589""
""focus"",""4"",""38815""
","""event"",""trial"",""time""
""blur"",""4"",""30589""
","""event"",""trial"",""time""
""focus"",""4"",""38815""
","""event"",""trial"",""time""
""fullscreenenter"",""1"",""2347""
","
",,,,,,,,,,,,"[{""stimulus"":""run_exp/static/images/task_images/dig.jpg"",""time"":0},{""stimulus"":""run_exp/static/images/task_images/land.jpg"",""time"":682.3999999999069},{""stimulus"":""run_exp/static/images/task_images/dig.jpg"",""time"":1337}]",[],,,,,,,,,,,,,,,
harvest_prac,38,226232,0.0-13.0-1.0,"""event"",""trial"",""time""
""fullscreenenter"",""1"",""2347""
""blur"",""4"",""30589""
""focus"",""4"",""38815""
","""event"",""trial"",""time""
""blur"",""4"",""30589""
","""event"",""trial"",""time""
""focus"",""4"",""38815""
","""event"",""trial"",""time""
""fullscreenenter"",""1"",""2347""
","
",,null,run_exp/static/images/task_images/barrel_text.jpg,null,,,,,,,,,,,,,,,,,,,,,,,,
decision_prac,39,226445,0.0-13.0-2.0,"""event"",""trial"",""time""
""fullscreenenter"",""1"",""2347""
""blur"",""4"",""30589""
""focus"",""4"",""38815""
","""event"",""trial"",""time""
""blur"",""4"",""30589""
","""event"",""trial"",""time""
""focus"",""4"",""38815""
","""event"",""trial"",""time""
""fullscreenenter"",""1"",""2347""
","
",,211.9,run_exp/static/images/task_images/land.jpg,65,,,,,,,,,,,3,,,,,,,,,,,,,
dig_prac,40,228453,0.0-14.0-0.0,"""event"",""trial"",""time""
""fullscreenenter"",""1"",""2347""
""blur"",""4"",""30589""
""focus"",""4"",""38815""
","""event"",""trial"",""time""
""blur"",""4"",""30589""
","""event"",""trial"",""time""
""focus"",""4"",""38815""
","""event"",""trial"",""time""
""fullscreenenter"",""1"",""2347""
","
",,,,,,,,,,,,"[{""stimulus"":""run_exp/static/images/task_images/dig.jpg"",""time"":0.20000000018626451},{""stimulus"":""run_exp/static/images/task_images/land.jpg"",""time"":670.6000000000931},{""stimulus"":""run_exp/static/images/task_images/dig.jpg"",""time"":1334.8999999999069}]",[],,,,,,,,,,,,,,,
harvest_prac,41,229468,0.0-14.0-1.0,"""event"",""trial"",""time""
""fullscreenenter"",""1"",""2347""
""blur"",""4"",""30589""
""focus"",""4"",""38815""
","""event"",""trial"",""time""
""blur"",""4"",""30589""
","""event"",""trial"",""time""
""focus"",""4"",""38815""
","""event"",""trial"",""time""
""fullscreenenter"",""1"",""2347""
","
",,null,run_exp/static/images/task_images/barrel_text.jpg,null,,,,,,,,,,,,,,,,,,,,,,,,
decision_prac,42,229773,0.0-14.0-2.0,"""event"",""trial"",""time""
""fullscreenenter"",""1"",""2347""
""blur"",""4"",""30589""
""focus"",""4"",""38815""
","""event"",""trial"",""time""
""blur"",""4"",""30589""
","""event"",""trial"",""time""
""focus"",""4"",""38815""
","""event"",""trial"",""time""
""fullscreenenter"",""1"",""2347""
","
",,304.3,run_exp/static/images/task_images/land.jpg,65,,,,,,,,,,,4,,,,,,,,,,,,,
dig_prac,43,231783,0.0-15.0-0.0,"""event"",""trial"",""time""
""fullscreenenter"",""1"",""2347""
""blur"",""4"",""30589""
""focus"",""4"",""38815""
","""event"",""trial"",""time""
""blur"",""4"",""30589""
","""event"",""trial"",""time""
""focus"",""4"",""38815""
","""event"",""trial"",""time""
""fullscreenenter"",""1"",""2347""
","
",,,,,,,,,,,,"[{""stimulus"":""run_exp/static/images/task_images/dig.jpg"",""time"":0.19999999972060323},{""stimulus"":""run_exp/static/images/task_images/land.jpg"",""time"":676.1000000000931},{""stimulus"":""run_exp/static/images/task_images/dig.jpg"",""time"":1340.6999999997206}]",[],,,,,,,,,,,,,,,
harvest_prac,44,232787,0.0-15.0-1.0,"""event"",""trial"",""time""
""fullscreenenter"",""1"",""2347""
""blur"",""4"",""30589""
""focus"",""4"",""38815""
","""event"",""trial"",""time""
""blur"",""4"",""30589""
","""event"",""trial"",""time""
""focus"",""4"",""38815""
","""event"",""trial"",""time""
""fullscreenenter"",""1"",""2347""
","
",,null,run_exp/static/images/task_images/barrel_text.jpg,null,,,,,,,,,,,,,,,,,,,,,,,,
decision_prac,45,233421,0.0-15.0-2.0,"""event"",""trial"",""time""
""fullscreenenter"",""1"",""2347""
""blur"",""4"",""30589""
""focus"",""4"",""38815""
","""event"",""trial"",""time""
""blur"",""4"",""30589""
","""event"",""trial"",""time""
""focus"",""4"",""38815""
","""event"",""trial"",""time""
""fullscreenenter"",""1"",""2347""
","
",,632.9,run_exp/static/images/task_images/land.jpg,65,,,,,,,,,,,,1,,,,,,,,,,,,
quiz_instruc,46,238917,0.0-16.0-0.0,"""event"",""trial"",""time""
""fullscreenenter"",""1"",""2347""
""blur"",""4"",""30589""
""focus"",""4"",""38815""
""blur"",""47"",""252712""
","""event"",""trial"",""time""
""blur"",""4"",""30589""
""blur"",""47"",""252712""
","""event"",""trial"",""time""
""focus"",""4"",""38815""
","""event"",""trial"",""time""
""fullscreenenter"",""1"",""2347""
","
",,5494.4,run_exp/static/audio/clip_10_quiz.m4a,,,,,,,0,,,,,,,,,,,,,,,,,,
instruc_repeat,47,281676,0.0-16.0-1.0,"""event"",""trial"",""time""
""fullscreenenter"",""1"",""2347""
""blur"",""4"",""30589""
""focus"",""4"",""38815""
""blur"",""47"",""252712""
""focus"",""48"",""282914""
","""event"",""trial"",""time""
""blur"",""4"",""30589""
""blur"",""47"",""252712""
","""event"",""trial"",""time""
""focus"",""4"",""38815""
""focus"",""48"",""282914""
","""event"",""trial"",""time""
""fullscreenenter"",""1"",""2347""
","
",,null,"<p> Are you ready to play a practice game? </p> <p>In this practice game, you'll be digging up barrels of gems. But, in the real game, you'll be digging up the gems themselves. </p>",null,"<p>In this game, your goal is to collect as many gems as you can. That’s how you will win bonus money. </p> <p>The entire game will last 20 minutes no matter how many gems you collect or how many planets you visit. </p><p>To stay on a planet and dig again, press the letter A on your keyboard. To leave for a new planet, press the letter L.</p><p>The more you dig on a planet, the fewer gems you’ll get with each dig which is why you might consider leaving for a new planet. </p><p>When you arrive at a new planet, you’ll be greeted by an alien. What the alien looks like does not tell you anything about how much treasure is on the planet. </p>",,,,,,,,,,,,,,,,,,,,,,,
instruc_repeat_continue,48,283003,0.0-16.0-2.0,"""event"",""trial"",""time""
""fullscreenenter"",""1"",""2347""
""blur"",""4"",""30589""
""focus"",""4"",""38815""
""blur"",""47"",""252712""
""focus"",""48"",""282914""
","""event"",""trial"",""time""
""blur"",""4"",""30589""
""blur"",""47"",""252712""
","""event"",""trial"",""time""
""focus"",""4"",""38815""
""focus"",""48"",""282914""
","""event"",""trial"",""time""
""fullscreenenter"",""1"",""2347""
","
",,1326.6,"<p> Are you ready to play a practice game? </p> <p>In this practice game, you'll be digging up barrels of gems. But, in the real game, you'll be digging up the gems themselves. </p>",,,,,,,0,,,,,,,,,,,,,,,,,,
quiz_q_1_ask,49,285842,0.0-16.0-3.0,"""event"",""trial"",""time""
""fullscreenenter"",""1"",""2347""
""blur"",""4"",""30589""
""focus"",""4"",""38815""
""blur"",""47"",""252712""
""focus"",""48"",""282914""
","""event"",""trial"",""time""
""blur"",""4"",""30589""
""blur"",""47"",""252712""
","""event"",""trial"",""time""
""focus"",""4"",""38815""
""focus"",""48"",""282914""
","""event"",""trial"",""time""
""fullscreenenter"",""1"",""2347""
","
",,2837.4,run_exp/static/audio/clip_11_q1_ask.m4a,,,,,,,2,,,,,,,,,,,,,,,,,,
quiz_q_1_fb_correct,50,289676,0.0-17.0-0.0,"""event"",""trial"",""time""
""fullscreenenter"",""1"",""2347""
""blur"",""4"",""30589""
""focus"",""4"",""38815""
""blur"",""47"",""252712""
""focus"",""48"",""282914""
","""event"",""trial"",""time""
""blur"",""4"",""30589""
""blur"",""47"",""252712""
","""event"",""trial"",""time""
""focus"",""4"",""38815""
""focus"",""48"",""282914""
","""event"",""trial"",""time""
""fullscreenenter"",""1"",""2347""
","
",,null,run_exp/static/audio/clip_12_q1_correct.m4a,null,<p>That’s correct. You win extra money by collecting more gems.</p>,,,,,,,,,,,,,,,,,,,,,,,
quiz_q_2_ask,51,292620,0.0-17.0-1.0,"""event"",""trial"",""time""
""fullscreenenter"",""1"",""2347""
""blur"",""4"",""30589""
""focus"",""4"",""38815""
""blur"",""47"",""252712""
""focus"",""48"",""282914""
","""event"",""trial"",""time""
""blur"",""4"",""30589""
""blur"",""47"",""252712""
","""event"",""trial"",""time""
""focus"",""4"",""38815""
""focus"",""48"",""282914""
","""event"",""trial"",""time""
""fullscreenenter"",""1"",""2347""
","
",,2942.4,run_exp/static/audio/clip_14_q2_ask.m4a,,,,,,,1,,,,,,,,,,,,,,,,,,
quiz_q_2_fb_correct,52,296617,0.0-18.0-0.0,"""event"",""trial"",""time""
""fullscreenenter"",""1"",""2347""
""blur"",""4"",""30589""
""focus"",""4"",""38815""
""blur"",""47"",""252712""
""focus"",""48"",""282914""
","""event"",""trial"",""time""
""blur"",""4"",""30589""
""blur"",""47"",""252712""
","""event"",""trial"",""time""
""focus"",""4"",""38815""
""focus"",""48"",""282914""
","""event"",""trial"",""time""
""fullscreenenter"",""1"",""2347""
","
",,null,run_exp/static/audio/clip_15_q2_correct.m4a,null,<p>That’s correct. The experiment is 20 minutes no matter what.</p>,,,,,,,,,,,,,,,,,,,,,,,
quiz_q_3_ask,53,299596,0.0-18.0-1.0,"""event"",""trial"",""time""
""fullscreenenter"",""1"",""2347""
""blur"",""4"",""30589""
""focus"",""4"",""38815""
""blur"",""47"",""252712""
""focus"",""48"",""282914""
","""event"",""trial"",""time""
""blur"",""4"",""30589""
""blur"",""47"",""252712""
","""event"",""trial"",""time""
""focus"",""4"",""38815""
""focus"",""48"",""282914""
","""event"",""trial"",""time""
""fullscreenenter"",""1"",""2347""
","
",,2978.3,run_exp/static/audio/clip_17_q3_ask.m4a,,,,,,,1,,,,,,,,,,,,,,,,,,
quiz_q_3_fb_correct,54,303578,0.0-19.0-0.0,"""event"",""trial"",""time""
""fullscreenenter"",""1"",""2347""
""blur"",""4"",""30589""
""focus"",""4"",""38815""
""blur"",""47"",""252712""
""focus"",""48"",""282914""
","""event"",""trial"",""time""
""blur"",""4"",""30589""
""blur"",""47"",""252712""
","""event"",""trial"",""time""
""focus"",""4"",""38815""
""focus"",""48"",""282914""
","""event"",""trial"",""time""
""fullscreenenter"",""1"",""2347""
","
",,null,run_exp/static/audio/clip_18_q3_correct.m4a,null,<p> That’s correct. You press the letter L to travel to a new planet.</p>,,,,,,,,,,,,,,,,,,,,,,,
quiz_q_4_ask,55,307451,0.0-19.0-1.0,"""event"",""trial"",""time""
""fullscreenenter"",""1"",""2347""
""blur"",""4"",""30589""
""focus"",""4"",""38815""
""blur"",""47"",""252712""
""focus"",""48"",""282914""
","""event"",""trial"",""time""
""blur"",""4"",""30589""
""blur"",""47"",""252712""
","""event"",""trial"",""time""
""focus"",""4"",""38815""
""focus"",""48"",""282914""
","""event"",""trial"",""time""
""fullscreenenter"",""1"",""2347""
","
",,3871.8,run_exp/static/audio/clip_20_q4_ask.m4a,,,,,,,0,,,,,,,,,,,,,,,,,,
quiz_q_4_fb_correct,56,312779,0.0-20.0-0.0,"""event"",""trial"",""time""
""fullscreenenter"",""1"",""2347""
""blur"",""4"",""30589""
""focus"",""4"",""38815""
""blur"",""47"",""252712""
""focus"",""48"",""282914""
","""event"",""trial"",""time""
""blur"",""4"",""30589""
""blur"",""47"",""252712""
","""event"",""trial"",""time""
""focus"",""4"",""38815""
""focus"",""48"",""282914""
","""event"",""trial"",""time""
""fullscreenenter"",""1"",""2347""
","
",,null,run_exp/static/audio/clip_21_q4_correct.m4a,null,<p> That’s correct. The more you dig on a planet the fewer gems you’ll get with each dig. </p>,,,,,,,,,,,,,,,,,,,,,,,
quiz_q_5_ask,57,315140,0.0-20.0-1.0,"""event"",""trial"",""time""
""fullscreenenter"",""1"",""2347""
""blur"",""4"",""30589""
""focus"",""4"",""38815""
""blur"",""47"",""252712""
""focus"",""48"",""282914""
","""event"",""trial"",""time""
""blur"",""4"",""30589""
""blur"",""47"",""252712""
","""event"",""trial"",""time""
""focus"",""4"",""38815""
""focus"",""48"",""282914""
","""event"",""trial"",""time""
""fullscreenenter"",""1"",""2347""
","
",,2360.3,run_exp/static/audio/clip_23_q5_ask.m4a,,,,,,,1,,,,,,,,,,,,,,,,,,
quiz_q_5_fb_correct,58,320140,0.0-21.0-0.0,"""event"",""trial"",""time""
""fullscreenenter"",""1"",""2347""
""blur"",""4"",""30589""
""focus"",""4"",""38815""
""blur"",""47"",""252712""
""focus"",""48"",""282914""
","""event"",""trial"",""time""
""blur"",""4"",""30589""
""blur"",""47"",""252712""
","""event"",""trial"",""time""
""focus"",""4"",""38815""
""focus"",""48"",""282914""
","""event"",""trial"",""time""
""fullscreenenter"",""1"",""2347""
","
",,null,run_exp/static/audio/clip_24_q5_correct.m4a,null,<p> That’s correct. The alien tells you nothing about how much treasure is on the planet.</p>,,,,,,,,,,,,,,,,,,,,,,,
quiz_correct,59,323601,0.0-22.0-0.0,"""event"",""trial"",""time""
""fullscreenenter"",""1"",""2347""
""blur"",""4"",""30589""
""focus"",""4"",""38815""
""blur"",""47"",""252712""
""focus"",""48"",""282914""
","""event"",""trial"",""time""
""blur"",""4"",""30589""
""blur"",""47"",""252712""
","""event"",""trial"",""time""
""focus"",""4"",""38815""
""focus"",""48"",""282914""
","""event"",""trial"",""time""
""fullscreenenter"",""1"",""2347""
","
",,null,run_exp/static/audio/clip_26_correct_quiz.m4a,null,,,,,,,,,,,,,,,,,,,,,,,,
quiz_correct_continue,60,379960,0.0-22.0-1.0,"""event"",""trial"",""time""
""fullscreenenter"",""1"",""2347""
""blur"",""4"",""30589""
""focus"",""4"",""38815""
""blur"",""47"",""252712""
""focus"",""48"",""282914""
","""event"",""trial"",""time""
""blur"",""4"",""30589""
""blur"",""47"",""252712""
","""event"",""trial"",""time""
""focus"",""4"",""38815""
""focus"",""48"",""282914""
","""event"",""trial"",""time""
""fullscreenenter"",""1"",""2347""
","
",,56358.4,<p>Good job! You're now ready to move on to the real game!</p>,,,,,,,0,,,,,,,,,,,,,,,,,,
audio-keyboard-response,61,390079,0.0-22.0-2.0,"""event"",""trial"",""time""
""fullscreenenter"",""1"",""2347""
""blur"",""4"",""30589""
""focus"",""4"",""38815""
""blur"",""47"",""252712""
""focus"",""48"",""282914""
","""event"",""trial"",""time""
""blur"",""4"",""30589""
""blur"",""47"",""252712""
","""event"",""trial"",""time""
""focus"",""4"",""38815""
""focus"",""48"",""282914""
","""event"",""trial"",""time""
""fullscreenenter"",""1"",""2347""
","
",,null,run_exp/static/audio/clip_28_real_game.m4a,null,,,,,,,,,,,,,,,,,,,,,,,,
instruc_begin_exp_contine,62,391735,0.0-22.0-3.0,"""event"",""trial"",""time""
""fullscreenenter"",""1"",""2347""
""blur"",""4"",""30589""
""focus"",""4"",""38815""
""blur"",""47"",""252712""
""focus"",""48"",""282914""
","""event"",""trial"",""time""
""blur"",""4"",""30589""
""blur"",""47"",""252712""
","""event"",""trial"",""time""
""focus"",""4"",""38815""
""focus"",""48"",""282914""
","""event"",""trial"",""time""
""fullscreenenter"",""1"",""2347""
","
",,1655.2,"<p>Now that you know how  to dig for space treasure and travel to new planets,you can start exploring! </p><p>Do you want to go over the instructions again or get started with the real game?</p>",,,,,,,1,,,,,,1,,,,,,,,,,,,
alien_welcome,63,396736,0.0-23.0-0.0,"""event"",""trial"",""time""
""fullscreenenter"",""1"",""2347""
""blur"",""4"",""30589""
""focus"",""4"",""38815""
""blur"",""47"",""252712""
""focus"",""48"",""282914""
","""event"",""trial"",""time""
""blur"",""4"",""30589""
""blur"",""47"",""252712""
","""event"",""trial"",""time""
""focus"",""4"",""38815""
""focus"",""48"",""282914""
","""event"",""trial"",""time""
""fullscreenenter"",""1"",""2347""
","
",,null,run_exp/static/images/task_images/aliens/old_aliens/planet/alien_planet-55.jpg,null,,,,,,,,,,,,,55,"55,63,10,48,44,3,30,36,17,7,43,20,58,14,28,38,34,51,4,60,62,18,75,74,80,53,25,2,76,66,47,13,27,61,35,8,26,46,40,54,52,5,64,78,67,22,23,11",,,,,,,,,,
land,64,397239,0.0-23.0-1.0,"""event"",""trial"",""time""
""fullscreenenter"",""1"",""2347""
""blur"",""4"",""30589""
""focus"",""4"",""38815""
""blur"",""47"",""252712""
""focus"",""48"",""282914""
","""event"",""trial"",""time""
""blur"",""4"",""30589""
""blur"",""47"",""252712""
","""event"",""trial"",""time""
""focus"",""4"",""38815""
""focus"",""48"",""282914""
","""event"",""trial"",""time""
""fullscreenenter"",""1"",""2347""
","
",,null,run_exp/static/images/task_images/land.jpg,null,,,,,,,97,,,1,,,,,,,,,,,,,,
dig,65,399241,0.0-23.0-2.0,"""event"",""trial"",""time""
""fullscreenenter"",""1"",""2347""
""blur"",""4"",""30589""
""focus"",""4"",""38815""
""blur"",""47"",""252712""
""focus"",""48"",""282914""
","""event"",""trial"",""time""
""blur"",""4"",""30589""
""blur"",""47"",""252712""
","""event"",""trial"",""time""
""focus"",""4"",""38815""
""focus"",""48"",""282914""
","""event"",""trial"",""time""
""fullscreenenter"",""1"",""2347""
","
",,,,,,,,,,,,"[{""stimulus"":""run_exp/static/images/task_images/dig.jpg"",""time"":0.20000000018626451},{""stimulus"":""run_exp/static/images/task_images/land.jpg"",""time"":670.7000000001863},{""stimulus"":""run_exp/static/images/task_images/dig.jpg"",""time"":1342.3000000002794}]",[],1,,,,,,,,,,,,,,
harvest,66,400245,0.0-23.0-3.0,"""event"",""trial"",""time""
""fullscreenenter"",""1"",""2347""
""blur"",""4"",""30589""
""focus"",""4"",""38815""
""blur"",""47"",""252712""
""focus"",""48"",""282914""
","""event"",""trial"",""time""
""blur"",""4"",""30589""
""blur"",""47"",""252712""
","""event"",""trial"",""time""
""focus"",""4"",""38815""
""focus"",""48"",""282914""
","""event"",""trial"",""time""
""fullscreenenter"",""1"",""2347""
","
",,null,run_exp/static/images/task_images/gems/97.jpg,null,,,,,,,14,,,1,,,,,97,0.147342067,0.144329897,,,,,,,
decision,67,401133,0.0-23.0-4.0,"""event"",""trial"",""time""
""fullscreenenter"",""1"",""2347""
""blur"",""4"",""30589""
""focus"",""4"",""38815""
""blur"",""47"",""252712""
""focus"",""48"",""282914""
","""event"",""trial"",""time""
""blur"",""4"",""30589""
""blur"",""47"",""252712""
","""event"",""trial"",""time""
""focus"",""4"",""38815""
""focus"",""48"",""282914""
","""event"",""trial"",""time""
""fullscreenenter"",""1"",""2347""
","
",,886.8,run_exp/static/images/task_images/land.jpg,65,,,,,,,14,,,1,,,,,,,,9398,1,0,FALSE,,,
dig,68,403251,0.0-24.0-0.0,"""event"",""trial"",""time""
""fullscreenenter"",""1"",""2347""
""blur"",""4"",""30589""
""focus"",""4"",""38815""
""blur"",""47"",""252712""
""focus"",""48"",""282914""
","""event"",""trial"",""time""
""blur"",""4"",""30589""
""blur"",""47"",""252712""
","""event"",""trial"",""time""
""focus"",""4"",""38815""
""focus"",""48"",""282914""
","""event"",""trial"",""time""
""fullscreenenter"",""1"",""2347""
","
",,,,,,,,,,,,"[{""stimulus"":""run_exp/static/images/task_images/dig.jpg"",""time"":0},{""stimulus"":""run_exp/static/images/task_images/land.jpg"",""time"":704.7999999998137},{""stimulus"":""run_exp/static/images/task_images/dig.jpg"",""time"":1411.6999999997206}]",[],1,,,,,,,,,,,,,,
harvest,69,404259,0.0-24.0-1.0,"""event"",""trial"",""time""
""fullscreenenter"",""1"",""2347""
""blur"",""4"",""30589""
""focus"",""4"",""38815""
""blur"",""47"",""252712""
""focus"",""48"",""282914""
","""event"",""trial"",""time""
""blur"",""4"",""30589""
""blur"",""47"",""252712""
","""event"",""trial"",""time""
""focus"",""4"",""38815""
""focus"",""48"",""282914""
","""event"",""trial"",""time""
""fullscreenenter"",""1"",""2347""
","
",,null,run_exp/static/images/task_images/gems/14.jpg,null,,,,,,,2,,,1,,,,,14,0.142150896,0.142857143,,,,,,,
decision,70,405109,0.0-24.0-2.0,"""event"",""trial"",""time""
""fullscreenenter"",""1"",""2347""
""blur"",""4"",""30589""
""focus"",""4"",""38815""
""blur"",""47"",""252712""
""focus"",""48"",""282914""
","""event"",""trial"",""time""
""blur"",""4"",""30589""
""blur"",""47"",""252712""
","""event"",""trial"",""time""
""focus"",""4"",""38815""
""focus"",""48"",""282914""
","""event"",""trial"",""time""
""fullscreenenter"",""1"",""2347""
","
",,848.7,run_exp/static/images/task_images/land.jpg,65,,,,,,,2,,,1,,,,,,,,13374,1,1,FALSE,,,
dig,71,407263,0.0-25.0-0.0,"""event"",""trial"",""time""
""fullscreenenter"",""1"",""2347""
""blur"",""4"",""30589""
""focus"",""4"",""38815""
""blur"",""47"",""252712""
""focus"",""48"",""282914""
","""event"",""trial"",""time""
""blur"",""4"",""30589""
""blur"",""47"",""252712""
","""event"",""trial"",""time""
""focus"",""4"",""38815""
""focus"",""48"",""282914""
","""event"",""trial"",""time""
""fullscreenenter"",""1"",""2347""
","
",,,,,,,,,,,,"[{""stimulus"":""run_exp/static/images/task_images/dig.jpg"",""time"":0.20000000018626451},{""stimulus"":""run_exp/static/images/task_images/land.jpg"",""time"":727.8000000002794},{""stimulus"":""run_exp/static/images/task_images/dig.jpg"",""time"":1448.3999999999069}]",[],1,,,,,,,,,,,,,,
harvest,72,408264,0.0-25.0-1.0,"""event"",""trial"",""time""
""fullscreenenter"",""1"",""2347""
""blur"",""4"",""30589""
""focus"",""4"",""38815""
""blur"",""47"",""252712""
""focus"",""48"",""282914""
","""event"",""trial"",""time""
""blur"",""4"",""30589""
""blur"",""47"",""252712""
","""event"",""trial"",""time""
""focus"",""4"",""38815""
""focus"",""48"",""282914""
","""event"",""trial"",""time""
""fullscreenenter"",""1"",""2347""
","
",,null,run_exp/static/images/task_images/gems/2.jpg,null,,,,,,,0,,,1,,,,,2,0.16857801,0,,,,,,,
decision,73,408949,0.0-25.0-2.0,"""event"",""trial"",""time""
""fullscreenenter"",""1"",""2347""
""blur"",""4"",""30589""
""focus"",""4"",""38815""
""blur"",""47"",""252712""
""focus"",""48"",""282914""
","""event"",""trial"",""time""
""blur"",""4"",""30589""
""blur"",""47"",""252712""
","""event"",""trial"",""time""
""focus"",""4"",""38815""
""focus"",""48"",""282914""
","""event"",""trial"",""time""
""fullscreenenter"",""1"",""2347""
","
",,683.9,run_exp/static/images/task_images/land.jpg,76,,,,,,,0,,,1,,,,,,,,17214,1,2,TRUE,,,
travel,74,418272,0.0-26.0-0.0,"""event"",""trial"",""time""
""fullscreenenter"",""1"",""2347""
""blur"",""4"",""30589""
""focus"",""4"",""38815""
""blur"",""47"",""252712""
""focus"",""48"",""282914""
","""event"",""trial"",""time""
""blur"",""4"",""30589""
""blur"",""47"",""252712""
","""event"",""trial"",""time""
""focus"",""4"",""38815""
""focus"",""48"",""282914""
","""event"",""trial"",""time""
""fullscreenenter"",""1"",""2347""
","
",,,,,,,,,,,,"[{""stimulus"":""run_exp/static/images/task_images/rocket-01.jpg"",""time"":0},{""stimulus"":""run_exp/static/images/task_images/rocket-02.jpg"",""time"":1044.1000000000931},{""stimulus"":""run_exp/static/images/task_images/rocket-03.jpg"",""time"":2080},{""stimulus"":""run_exp/static/images/task_images/rocket-04.jpg"",""time"":3119.100000000093},{""stimulus"":""run_exp/static/images/task_images/rocket-05.jpg"",""time"":4140.800000000279},{""stimulus"":""run_exp/static/images/task_images/rocket-06.jpg"",""time"":5179.700000000186},{""stimulus"":""run_exp/static/images/task_images/rocket-07.jpg"",""time"":6210.5},{""stimulus"":""run_exp/static/images/task_images/rocket-08.jpg"",""time"":7255.5},{""stimulus"":""run_exp/static/images/task_images/rocket-09.jpg"",""time"":8281.399999999907}]",[],1,,,,,,,,,,,,,,
alien_welcome,75,423273,0.0-26.0-1.0,"""event"",""trial"",""time""
""fullscreenenter"",""1"",""2347""
""blur"",""4"",""30589""
""focus"",""4"",""38815""
""blur"",""47"",""252712""
""focus"",""48"",""282914""
","""event"",""trial"",""time""
""blur"",""4"",""30589""
""blur"",""47"",""252712""
","""event"",""trial"",""time""
""focus"",""4"",""38815""
""focus"",""48"",""282914""
","""event"",""trial"",""time""
""fullscreenenter"",""1"",""2347""
","
",,null,run_exp/static/images/task_images/aliens/old_aliens/planet/alien_planet-63.jpg,null,,,,,,,,,,,,,63,"55,63,10,48,44,3,30,36,17,7,43,20,58,14,28,38,34,51,4,60,62,18,75,74,80,53,25,2,76,66,47,13,27,61,35,8,26,46,40,54,52,5,64,78,67,22,23,11",,,,,,,,,,
land,76,423781,0.0-26.0-2.0,"""event"",""trial"",""time""
""fullscreenenter"",""1"",""2347""
""blur"",""4"",""30589""
""focus"",""4"",""38815""
""blur"",""47"",""252712""
""focus"",""48"",""282914""
","""event"",""trial"",""time""
""blur"",""4"",""30589""
""blur"",""47"",""252712""
","""event"",""trial"",""time""
""focus"",""4"",""38815""
""focus"",""48"",""282914""
","""event"",""trial"",""time""
""fullscreenenter"",""1"",""2347""
","
",,null,run_exp/static/images/task_images/land.jpg,null,,,,,,,100,,,2,,,,,,,,,,,,,,
dig,77,425789,0.0-26.0-3.0,"""event"",""trial"",""time""
""fullscreenenter"",""1"",""2347""
""blur"",""4"",""30589""
""focus"",""4"",""38815""
""blur"",""47"",""252712""
""focus"",""48"",""282914""
","""event"",""trial"",""time""
""blur"",""4"",""30589""
""blur"",""47"",""252712""
","""event"",""trial"",""time""
""focus"",""4"",""38815""
""focus"",""48"",""282914""
","""event"",""trial"",""time""
""fullscreenenter"",""1"",""2347""
","
",,,,,,,,,,,,"[{""stimulus"":""run_exp/static/images/task_images/dig.jpg"",""time"":0.19999999972060323},{""stimulus"":""run_exp/static/images/task_images/land.jpg"",""time"":668.5999999996275},{""stimulus"":""run_exp/static/images/task_images/dig.jpg"",""time"":1338.0999999996275}]",[],2,,,,,,,,,,,,,,
harvest,78,426790,0.0-26.0-4.0,"""event"",""trial"",""time""
""fullscreenenter"",""1"",""2347""
""blur"",""4"",""30589""
""focus"",""4"",""38815""
""blur"",""47"",""252712""
""focus"",""48"",""282914""
","""event"",""trial"",""time""
""blur"",""4"",""30589""
""blur"",""47"",""252712""
","""event"",""trial"",""time""
""focus"",""4"",""38815""
""focus"",""48"",""282914""
","""event"",""trial"",""time""
""fullscreenenter"",""1"",""2347""
","
",,null,run_exp/static/images/task_images/gems/100.jpg,null,,,,,,,17,,,2,,,,,100,0.17348615,0.17,,,,,,,
decision,79,427389,0.0-26.0-5.0,"""event"",""trial"",""time""
""fullscreenenter"",""1"",""2347""
""blur"",""4"",""30589""
""focus"",""4"",""38815""
""blur"",""47"",""252712""
""focus"",""48"",""282914""
","""event"",""trial"",""time""
""blur"",""4"",""30589""
""blur"",""47"",""252712""
","""event"",""trial"",""time""
""focus"",""4"",""38815""
""focus"",""48"",""282914""
","""event"",""trial"",""time""
""fullscreenenter"",""1"",""2347""
","
",,596.9,run_exp/static/images/task_images/land.jpg,65,,,,,,,17,,,2,,,,,,,,35654,1,0,FALSE,,,
dig,80,429798,0.0-27.0-0.0,"""event"",""trial"",""time""
""fullscreenenter"",""1"",""2347""
""blur"",""4"",""30589""
""focus"",""4"",""38815""
""blur"",""47"",""252712""
""focus"",""48"",""282914""
","""event"",""trial"",""time""
""blur"",""4"",""30589""
""blur"",""47"",""252712""
","""event"",""trial"",""time""
""focus"",""4"",""38815""
""focus"",""48"",""282914""
","""event"",""trial"",""time""
""fullscreenenter"",""1"",""2347""
","
",,,,,,,,,,,,"[{""stimulus"":""run_exp/static/images/task_images/dig.jpg"",""time"":0.10000000009313226},{""stimulus"":""run_exp/static/images/task_images/land.jpg"",""time"":812.4000000003725},{""stimulus"":""run_exp/static/images/task_images/dig.jpg"",""time"":1611.9000000003725}]",[],2,,,,,,,,,,,,,,
harvest,81,430805,0.0-27.0-1.0,"""event"",""trial"",""time""
""fullscreenenter"",""1"",""2347""
""blur"",""4"",""30589""
""focus"",""4"",""38815""
""blur"",""47"",""252712""
""focus"",""48"",""282914""
","""event"",""trial"",""time""
""blur"",""4"",""30589""
""blur"",""47"",""252712""
","""event"",""trial"",""time""
""focus"",""4"",""38815""
""focus"",""48"",""282914""
","""event"",""trial"",""time""
""fullscreenenter"",""1"",""2347""
","
",,null,run_exp/static/images/task_images/gems/17.jpg,null,,,,,,,3,,,2,,,,,17,0.194757378,0.176470588,,,,,,,
decision,82,433822,0.0-27.0-2.0,"""event"",""trial"",""time""
""fullscreenenter"",""1"",""2347""
""blur"",""4"",""30589""
""focus"",""4"",""38815""
""blur"",""47"",""252712""
""focus"",""48"",""282914""
","""event"",""trial"",""time""
""blur"",""4"",""30589""
""blur"",""47"",""252712""
","""event"",""trial"",""time""
""focus"",""4"",""38815""
""focus"",""48"",""282914""
","""event"",""trial"",""time""
""fullscreenenter"",""1"",""2347""
","
",,null,run_exp/static/images/task_images/land.jpg,null,,,,,,,3,,,2,,,,,,,,42087,1,1,FALSE,,,
time_out,83,435834,0.0-28.0-0.0,"""event"",""trial"",""time""
""fullscreenenter"",""1"",""2347""
""blur"",""4"",""30589""
""focus"",""4"",""38815""
""blur"",""47"",""252712""
""focus"",""48"",""282914""
","""event"",""trial"",""time""
""blur"",""4"",""30589""
""blur"",""47"",""252712""
","""event"",""trial"",""time""
""focus"",""4"",""38815""
""focus"",""48"",""282914""
","""event"",""trial"",""time""
""fullscreenenter"",""1"",""2347""
","
",,null,run_exp/static/images/task_images/time_out.jpg,null,,,,,,,3,,,,,,,,,,,,,,,,,
decision,84,435949,0.0-28.0-1.0,"""event"",""trial"",""time""
""fullscreenenter"",""1"",""2347""
""blur"",""4"",""30589""
""focus"",""4"",""38815""
""blur"",""47"",""252712""
""focus"",""48"",""282914""
","""event"",""trial"",""time""
""blur"",""4"",""30589""
""blur"",""47"",""252712""
","""event"",""trial"",""time""
""focus"",""4"",""38815""
""focus"",""48"",""282914""
","""event"",""trial"",""time""
""fullscreenenter"",""1"",""2347""
","
",,113.1,run_exp/static/images/task_images/land.jpg,76,,,,,,,3,,,2,,,,,,,,44214,1,1,TRUE,,,
travel,85,445833,0.0-29.0-0.0,"""event"",""trial"",""time""
""fullscreenenter"",""1"",""2347""
""blur"",""4"",""30589""
""focus"",""4"",""38815""
""blur"",""47"",""252712""
""focus"",""48"",""282914""
","""event"",""trial"",""time""
""blur"",""4"",""30589""
""blur"",""47"",""252712""
","""event"",""trial"",""time""
""focus"",""4"",""38815""
""focus"",""48"",""282914""
","""event"",""trial"",""time""
""fullscreenenter"",""1"",""2347""
","
",,,,,,,,,,,,"[{""stimulus"":""run_exp/static/images/task_images/rocket-01.jpg"",""time"":0.10000000009313226},{""stimulus"":""run_exp/static/images/task_images/rocket-02.jpg"",""time"":1111.7999999998137},{""stimulus"":""run_exp/static/images/task_images/rocket-03.jpg"",""time"":2199.7999999998137},{""stimulus"":""run_exp/static/images/task_images/rocket-04.jpg"",""time"":3302.7999999998137},{""stimulus"":""run_exp/static/images/task_images/rocket-05.jpg"",""time"":4403.799999999814},{""stimulus"":""run_exp/static/images/task_images/rocket-06.jpg"",""time"":5504.799999999814},{""stimulus"":""run_exp/static/images/task_images/rocket-07.jpg"",""time"":6589.799999999814},{""stimulus"":""run_exp/static/images/task_images/rocket-08.jpg"",""time"":7694.799999999814},{""stimulus"":""run_exp/static/images/task_images/rocket-09.jpg"",""time"":8798.799999999814}]",[],2,,,,,,,,,,,,,,
alien_welcome,86,450844,0.0-29.0-1.0,"""event"",""trial"",""time""
""fullscreenenter"",""1"",""2347""
""blur"",""4"",""30589""
""focus"",""4"",""38815""
""blur"",""47"",""252712""
""focus"",""48"",""282914""
","""event"",""trial"",""time""
""blur"",""4"",""30589""
""blur"",""47"",""252712""
","""event"",""trial"",""time""
""focus"",""4"",""38815""
""focus"",""48"",""282914""
","""event"",""trial"",""time""
""fullscreenenter"",""1"",""2347""
","
",,null,run_exp/static/images/task_images/aliens/old_aliens/planet/alien_planet-10.jpg,null,,,,,,,,,,,,,10,"55,63,10,48,44,3,30,36,17,7,43,20,58,14,28,38,34,51,4,60,62,18,75,74,80,53,25,2,76,66,47,13,27,61,35,8,26,46,40,54,52,5,64,78,67,22,23,11",,,,,,,,,,
land,87,451356,0.0-29.0-2.0,"""event"",""trial"",""time""
""fullscreenenter"",""1"",""2347""
""blur"",""4"",""30589""
""focus"",""4"",""38815""
""blur"",""47"",""252712""
""focus"",""48"",""282914""
","""event"",""trial"",""time""
""blur"",""4"",""30589""
""blur"",""47"",""252712""
","""event"",""trial"",""time""
""focus"",""4"",""38815""
""focus"",""48"",""282914""
","""event"",""trial"",""time""
""fullscreenenter"",""1"",""2347""
","
",,null,run_exp/static/images/task_images/land.jpg,null,,,,,,,105,,,3,,,,,,,,,,,,,,
dig,88,453359,0.0-29.0-3.0,"""event"",""trial"",""time""
""fullscreenenter"",""1"",""2347""
""blur"",""4"",""30589""
""focus"",""4"",""38815""
""blur"",""47"",""252712""
""focus"",""48"",""282914""
","""event"",""trial"",""time""
""blur"",""4"",""30589""
""blur"",""47"",""252712""
","""event"",""trial"",""time""
""focus"",""4"",""38815""
""focus"",""48"",""282914""
","""event"",""trial"",""time""
""fullscreenenter"",""1"",""2347""
","
",,,,,,,,,,,,"[{""stimulus"":""run_exp/static/images/task_images/dig.jpg"",""time"":0.10000000009313226},{""stimulus"":""run_exp/static/images/task_images/land.jpg"",""time"":670.3999999999069},{""stimulus"":""run_exp/static/images/task_images/dig.jpg"",""time"":1342}]",[],3,,,,,,,,,,,,,,
harvest,89,454375,0.0-29.0-4.0,"""event"",""trial"",""time""
""fullscreenenter"",""1"",""2347""
""blur"",""4"",""30589""
""focus"",""4"",""38815""
""blur"",""47"",""252712""
""focus"",""48"",""282914""
","""event"",""trial"",""time""
""blur"",""4"",""30589""
""blur"",""47"",""252712""
","""event"",""trial"",""time""
""focus"",""4"",""38815""
""focus"",""48"",""282914""
","""event"",""trial"",""time""
""fullscreenenter"",""1"",""2347""
","
",,null,run_exp/static/images/task_images/gems/105.jpg,null,,,,,,,49,,,3,,,,,105,0.470209379,0.466666667,,,,,,,
decision,90,454973,0.0-29.0-5.0,"""event"",""trial"",""time""
""fullscreenenter"",""1"",""2347""
""blur"",""4"",""30589""
""focus"",""4"",""38815""
""blur"",""47"",""252712""
""focus"",""48"",""282914""
","""event"",""trial"",""time""
""blur"",""4"",""30589""
""blur"",""47"",""252712""
","""event"",""trial"",""time""
""focus"",""4"",""38815""
""focus"",""48"",""282914""
","""event"",""trial"",""time""
""fullscreenenter"",""1"",""2347""
","
",,596.2,run_exp/static/images/task_images/land.jpg,65,,,,,,,49,,,3,,,,,,,,63238,1,0,FALSE,,,
dig,91,457379,0.0-30.0-0.0,"""event"",""trial"",""time""
""fullscreenenter"",""1"",""2347""
""blur"",""4"",""30589""
""focus"",""4"",""38815""
""blur"",""47"",""252712""
""focus"",""48"",""282914""
","""event"",""trial"",""time""
""blur"",""4"",""30589""
""blur"",""47"",""252712""
","""event"",""trial"",""time""
""focus"",""4"",""38815""
""focus"",""48"",""282914""
","""event"",""trial"",""time""
""fullscreenenter"",""1"",""2347""
","
",,,,,,,,,,,,"[{""stimulus"":""run_exp/static/images/task_images/dig.jpg"",""time"":0.10000000009313226},{""stimulus"":""run_exp/static/images/task_images/land.jpg"",""time"":803.4000000003725},{""stimulus"":""run_exp/static/images/task_images/dig.jpg"",""time"":1604.1000000000931}]",[],3,,,,,,,,,,,,,,
harvest,92,458380,0.0-30.0-1.0,"""event"",""trial"",""time""
""fullscreenenter"",""1"",""2347""
""blur"",""4"",""30589""
""focus"",""4"",""38815""
""blur"",""47"",""252712""
""focus"",""48"",""282914""
","""event"",""trial"",""time""
""blur"",""4"",""30589""
""blur"",""47"",""252712""
","""event"",""trial"",""time""
""focus"",""4"",""38815""
""focus"",""48"",""282914""
","""event"",""trial"",""time""
""fullscreenenter"",""1"",""2347""
","
",,null,run_exp/static/images/task_images/gems/49.jpg,null,,,,,,,24,,,3,,,,,49,0.485072168,0.489795918,,,,,,,
decision,93,458629,0.0-30.0-2.0,"""event"",""trial"",""time""
""fullscreenenter"",""1"",""2347""
""blur"",""4"",""30589""
""focus"",""4"",""38815""
""blur"",""47"",""252712""
""focus"",""48"",""282914""
","""event"",""trial"",""time""
""blur"",""4"",""30589""
""blur"",""47"",""252712""
","""event"",""trial"",""time""
""focus"",""4"",""38815""
""focus"",""48"",""282914""
","""event"",""trial"",""time""
""fullscreenenter"",""1"",""2347""
","
",,247.1,run_exp/static/images/task_images/land.jpg,76,,,,,,,24,,,3,,,,,,,,66894,1,1,TRUE,,,
travel,94,468380,0.0-31.0-0.0,"""event"",""trial"",""time""
""fullscreenenter"",""1"",""2347""
""blur"",""4"",""30589""
""focus"",""4"",""38815""
""blur"",""47"",""252712""
""focus"",""48"",""282914""
","""event"",""trial"",""time""
""blur"",""4"",""30589""
""blur"",""47"",""252712""
","""event"",""trial"",""time""
""focus"",""4"",""38815""
""focus"",""48"",""282914""
","""event"",""trial"",""time""
""fullscreenenter"",""1"",""2347""
","
",,,,,,,,,,,,"[{""stimulus"":""run_exp/static/images/task_images/rocket-01.jpg"",""time"":0.09999999962747097},{""stimulus"":""run_exp/static/images/task_images/rocket-02.jpg"",""time"":1097.8999999999069},{""stimulus"":""run_exp/static/images/task_images/rocket-03.jpg"",""time"":2180.899999999907},{""stimulus"":""run_exp/static/images/task_images/rocket-04.jpg"",""time"":3251.899999999907},{""stimulus"":""run_exp/static/images/task_images/rocket-05.jpg"",""time"":4338.899999999907},{""stimulus"":""run_exp/static/images/task_images/rocket-06.jpg"",""time"":5425.799999999814},{""stimulus"":""run_exp/static/images/task_images/rocket-07.jpg"",""time"":6505.699999999721},{""stimulus"":""run_exp/static/images/task_images/rocket-08.jpg"",""time"":7593.899999999907},{""stimulus"":""run_exp/static/images/task_images/rocket-09.jpg"",""time"":8679.19999999972}]",[],3,,,,,,,,,,,,,,
alien_welcome,95,473381,0.0-31.0-1.0,"""event"",""trial"",""time""
""fullscreenenter"",""1"",""2347""
""blur"",""4"",""30589""
""focus"",""4"",""38815""
""blur"",""47"",""252712""
""focus"",""48"",""282914""
","""event"",""trial"",""time""
""blur"",""4"",""30589""
""blur"",""47"",""252712""
","""event"",""trial"",""time""
""focus"",""4"",""38815""
""focus"",""48"",""282914""
","""event"",""trial"",""time""
""fullscreenenter"",""1"",""2347""
","
",,null,run_exp/static/images/task_images/aliens/old_aliens/planet/alien_planet-48.jpg,null,,,,,,,,,,,,,48,"55,63,10,48,44,3,30,36,17,7,43,20,58,14,28,38,34,51,4,60,62,18,75,74,80,53,25,2,76,66,47,13,27,61,35,8,26,46,40,54,52,5,64,78,67,22,23,11",,,,,,,,,,
land,96,473896,0.0-31.0-2.0,"""event"",""trial"",""time""
""fullscreenenter"",""1"",""2347""
""blur"",""4"",""30589""
""focus"",""4"",""38815""
""blur"",""47"",""252712""
""focus"",""48"",""282914""
","""event"",""trial"",""time""
""blur"",""4"",""30589""
""blur"",""47"",""252712""
","""event"",""trial"",""time""
""focus"",""4"",""38815""
""focus"",""48"",""282914""
","""event"",""trial"",""time""
""fullscreenenter"",""1"",""2347""
","
",,null,run_exp/static/images/task_images/land.jpg,null,,,,,,,106,,,4,,,,,,,,,,,,,,
dig,97,475908,0.0-31.0-3.0,"""event"",""trial"",""time""
""fullscreenenter"",""1"",""2347""
""blur"",""4"",""30589""
""focus"",""4"",""38815""
""blur"",""47"",""252712""
""focus"",""48"",""282914""
","""event"",""trial"",""time""
""blur"",""4"",""30589""
""blur"",""47"",""252712""
","""event"",""trial"",""time""
""focus"",""4"",""38815""
""focus"",""48"",""282914""
","""event"",""trial"",""time""
""fullscreenenter"",""1"",""2347""
","
",,,,,,,,,,,,"[{""stimulus"":""run_exp/static/images/task_images/dig.jpg"",""time"":0.10000000009313226},{""stimulus"":""run_exp/static/images/task_images/land.jpg"",""time"":670.6000000000931},{""stimulus"":""run_exp/static/images/task_images/dig.jpg"",""time"":1339.1000000000931}]",[],4,,,,,,,,,,,,,,
harvest,98,476917,0.0-31.0-4.0,"""event"",""trial"",""time""
""fullscreenenter"",""1"",""2347""
""blur"",""4"",""30589""
""focus"",""4"",""38815""
""blur"",""47"",""252712""
""focus"",""48"",""282914""
","""event"",""trial"",""time""
""blur"",""4"",""30589""
""blur"",""47"",""252712""
","""event"",""trial"",""time""
""focus"",""4"",""38815""
""focus"",""48"",""282914""
","""event"",""trial"",""time""
""fullscreenenter"",""1"",""2347""
","
",,null,run_exp/static/images/task_images/gems/106.jpg,null,,,,,,,56,,,4,,,,,106,0.524689425,0.528301887,,,,,,,
decision,99,477389,0.0-31.0-5.0,"""event"",""trial"",""time""
""fullscreenenter"",""1"",""2347""
""blur"",""4"",""30589""
""focus"",""4"",""38815""
""blur"",""47"",""252712""
""focus"",""48"",""282914""
","""event"",""trial"",""time""
""blur"",""4"",""30589""
""blur"",""47"",""252712""
","""event"",""trial"",""time""
""focus"",""4"",""38815""
""focus"",""48"",""282914""
","""event"",""trial"",""time""
""fullscreenenter"",""1"",""2347""
","
",,470.8,run_exp/static/images/task_images/land.jpg,65,,,,,,,56,,,4,,,,,,,,85654,1,0,FALSE,,,
dig,100,479932,0.0-32.0-0.0,"""event"",""trial"",""time""
""fullscreenenter"",""1"",""2347""
""blur"",""4"",""30589""
""focus"",""4"",""38815""
""blur"",""47"",""252712""
""focus"",""48"",""282914""
","""event"",""trial"",""time""
""blur"",""4"",""30589""
""blur"",""47"",""252712""
","""event"",""trial"",""time""
""focus"",""4"",""38815""
""focus"",""48"",""282914""
","""event"",""trial"",""time""
""fullscreenenter"",""1"",""2347""
","
",,,,,,,,,,,,"[{""stimulus"":""run_exp/static/images/task_images/dig.jpg"",""time"":0},{""stimulus"":""run_exp/static/images/task_images/land.jpg"",""time"":852.2000000001863},{""stimulus"":""run_exp/static/images/task_images/dig.jpg"",""time"":1697.8999999999069}]",[],4,,,,,,,,,,,,,,
harvest,101,480933,0.0-32.0-1.0,"""event"",""trial"",""time""
""fullscreenenter"",""1"",""2347""
""blur"",""4"",""30589""
""focus"",""4"",""38815""
""blur"",""47"",""252712""
""focus"",""48"",""282914""
","""event"",""trial"",""time""
""blur"",""4"",""30589""
""blur"",""47"",""252712""
","""event"",""trial"",""time""
""focus"",""4"",""38815""
""focus"",""48"",""282914""
","""event"",""trial"",""time""
""fullscreenenter"",""1"",""2347""
","
",,null,run_exp/static/images/task_images/gems/56.jpg,null,,,,,,,28,,,4,,,,,56,0.498441897,0.5,,,,,,,
decision,102,481517,0.0-32.0-2.0,"""event"",""trial"",""time""
""fullscreenenter"",""1"",""2347""
""blur"",""4"",""30589""
""focus"",""4"",""38815""
""blur"",""47"",""252712""
""focus"",""48"",""282914""
","""event"",""trial"",""time""
""blur"",""4"",""30589""
""blur"",""47"",""252712""
","""event"",""trial"",""time""
""focus"",""4"",""38815""
""focus"",""48"",""282914""
","""event"",""trial"",""time""
""fullscreenenter"",""1"",""2347""
","
",,582.1,run_exp/static/images/task_images/land.jpg,65,,,,,,,28,,,4,,,,,,,,89782,1,1,FALSE,,,
dig,103,483950,0.0-33.0-0.0,"""event"",""trial"",""time""
""fullscreenenter"",""1"",""2347""
""blur"",""4"",""30589""
""focus"",""4"",""38815""
""blur"",""47"",""252712""
""focus"",""48"",""282914""
","""event"",""trial"",""time""
""blur"",""4"",""30589""
""blur"",""47"",""252712""
","""event"",""trial"",""time""
""focus"",""4"",""38815""
""focus"",""48"",""282914""
","""event"",""trial"",""time""
""fullscreenenter"",""1"",""2347""
","
",,,,,,,,,,,,"[{""stimulus"":""run_exp/static/images/task_images/dig.jpg"",""time"":0.10000000009313226},{""stimulus"":""run_exp/static/images/task_images/land.jpg"",""time"":809.1000000000931},{""stimulus"":""run_exp/static/images/task_images/dig.jpg"",""time"":1619.9000000003725}]",[],4,,,,,,,,,,,,,,
harvest,104,484966,0.0-33.0-1.0,"""event"",""trial"",""time""
""fullscreenenter"",""1"",""2347""
""blur"",""4"",""30589""
""focus"",""4"",""38815""
""blur"",""47"",""252712""
""focus"",""48"",""282914""
","""event"",""trial"",""time""
""blur"",""4"",""30589""
""blur"",""47"",""252712""
","""event"",""trial"",""time""
""focus"",""4"",""38815""
""focus"",""48"",""282914""
","""event"",""trial"",""time""
""fullscreenenter"",""1"",""2347""
","
",,null,run_exp/static/images/task_images/gems/28.jpg,null,,,,,,,15,,,4,,,,,28,0.543739028,0.535714286,,,,,,,
decision,105,485749,0.0-33.0-2.0,"""event"",""trial"",""time""
""fullscreenenter"",""1"",""2347""
""blur"",""4"",""30589""
""focus"",""4"",""38815""
""blur"",""47"",""252712""
""focus"",""48"",""282914""
","""event"",""trial"",""time""
""blur"",""4"",""30589""
""blur"",""47"",""252712""
","""event"",""trial"",""time""
""focus"",""4"",""38815""
""focus"",""48"",""282914""
","""event"",""trial"",""time""
""fullscreenenter"",""1"",""2347""
","
",,781.5,run_exp/static/images/task_images/land.jpg,76,,,,,,,15,,,4,,,,,,,,94014,1,2,TRUE,,,
travel,106,494973,0.0-34.0-0.0,"""event"",""trial"",""time""
""fullscreenenter"",""1"",""2347""
""blur"",""4"",""30589""
""focus"",""4"",""38815""
""blur"",""47"",""252712""
""focus"",""48"",""282914""
","""event"",""trial"",""time""
""blur"",""4"",""30589""
""blur"",""47"",""252712""
","""event"",""trial"",""time""
""focus"",""4"",""38815""
""focus"",""48"",""282914""
","""event"",""trial"",""time""
""fullscreenenter"",""1"",""2347""
","
",,,,,,,,,,,,"[{""stimulus"":""run_exp/static/images/task_images/rocket-01.jpg"",""time"":0.10000000009313226},{""stimulus"":""run_exp/static/images/task_images/rocket-02.jpg"",""time"":1034},{""stimulus"":""run_exp/static/images/task_images/rocket-03.jpg"",""time"":2056},{""stimulus"":""run_exp/static/images/task_images/rocket-04.jpg"",""time"":3077.9000000003725},{""stimulus"":""run_exp/static/images/task_images/rocket-05.jpg"",""time"":4096.9000000003725},{""stimulus"":""run_exp/static/images/task_images/rocket-06.jpg"",""time"":5121.100000000093},{""stimulus"":""run_exp/static/images/task_images/rocket-07.jpg"",""time"":6145},{""stimulus"":""run_exp/static/images/task_images/rocket-08.jpg"",""time"":7184},{""stimulus"":""run_exp/static/images/task_images/rocket-09.jpg"",""time"":8203}]",[],4,,,,,,,,,,,,,,
alien_welcome,107,499975,0.0-34.0-1.0,"""event"",""trial"",""time""
""fullscreenenter"",""1"",""2347""
""blur"",""4"",""30589""
""focus"",""4"",""38815""
""blur"",""47"",""252712""
""focus"",""48"",""282914""
","""event"",""trial"",""time""
""blur"",""4"",""30589""
""blur"",""47"",""252712""
","""event"",""trial"",""time""
""focus"",""4"",""38815""
""focus"",""48"",""282914""
","""event"",""trial"",""time""
""fullscreenenter"",""1"",""2347""
","
",,null,run_exp/static/images/task_images/aliens/old_aliens/planet/alien_planet-44.jpg,null,,,,,,,,,,,,,44,"55,63,10,48,44,3,30,36,17,7,43,20,58,14,28,38,34,51,4,60,62,18,75,74,80,53,25,2,76,66,47,13,27,61,35,8,26,46,40,54,52,5,64,78,67,22,23,11",,,,,,,,,,
land,108,500478,0.0-34.0-2.0,"""event"",""trial"",""time""
""fullscreenenter"",""1"",""2347""
""blur"",""4"",""30589""
""focus"",""4"",""38815""
""blur"",""47"",""252712""
""focus"",""48"",""282914""
","""event"",""trial"",""time""
""blur"",""4"",""30589""
""blur"",""47"",""252712""
","""event"",""trial"",""time""
""focus"",""4"",""38815""
""focus"",""48"",""282914""
","""event"",""trial"",""time""
""fullscreenenter"",""1"",""2347""
","
",,null,run_exp/static/images/task_images/land.jpg,null,,,,,,,95,,,5,,,,,,,,,,,,,,
dig,109,502481,0.0-34.0-3.0,"""event"",""trial"",""time""
""fullscreenenter"",""1"",""2347""
""blur"",""4"",""30589""
""focus"",""4"",""38815""
""blur"",""47"",""252712""
""focus"",""48"",""282914""
","""event"",""trial"",""time""
""blur"",""4"",""30589""
""blur"",""47"",""252712""
","""event"",""trial"",""time""
""focus"",""4"",""38815""
""focus"",""48"",""282914""
","""event"",""trial"",""time""
""fullscreenenter"",""1"",""2347""
","
",,,,,,,,,,,,"[{""stimulus"":""run_exp/static/images/task_images/dig.jpg"",""time"":0.10000000009313226},{""stimulus"":""run_exp/static/images/task_images/land.jpg"",""time"":669.3999999999069},{""stimulus"":""run_exp/static/images/task_images/dig.jpg"",""time"":1342.1000000000931}]",[],5,,,,,,,,,,,,,,
harvest,110,503482,0.0-34.0-4.0,"""event"",""trial"",""time""
""fullscreenenter"",""1"",""2347""
""blur"",""4"",""30589""
""focus"",""4"",""38815""
""blur"",""47"",""252712""
""focus"",""48"",""282914""
","""event"",""trial"",""time""
""blur"",""4"",""30589""
""blur"",""47"",""252712""
","""event"",""trial"",""time""
""focus"",""4"",""38815""
""focus"",""48"",""282914""
","""event"",""trial"",""time""
""fullscreenenter"",""1"",""2347""
","
",,null,run_exp/static/images/task_images/gems/95.jpg,null,,,,,,,45,,,5,,,,,95,0.472709527,0.473684211,,,,,,,
decision,111,504108,0.0-34.0-5.0,"""event"",""trial"",""time""
""fullscreenenter"",""1"",""2347""
""blur"",""4"",""30589""
""focus"",""4"",""38815""
""blur"",""47"",""252712""
""focus"",""48"",""282914""
","""event"",""trial"",""time""
""blur"",""4"",""30589""
""blur"",""47"",""252712""
","""event"",""trial"",""time""
""focus"",""4"",""38815""
""focus"",""48"",""282914""
","""event"",""trial"",""time""
""fullscreenenter"",""1"",""2347""
","
",,625,run_exp/static/images/task_images/land.jpg,65,,,,,,,45,,,5,,,,,,,,112374,1,0,FALSE,,,
dig,112,506484,0.0-35.0-0.0,"""event"",""trial"",""time""
""fullscreenenter"",""1"",""2347""
""blur"",""4"",""30589""
""focus"",""4"",""38815""
""blur"",""47"",""252712""
""focus"",""48"",""282914""
","""event"",""trial"",""time""
""blur"",""4"",""30589""
""blur"",""47"",""252712""
","""event"",""trial"",""time""
""focus"",""4"",""38815""
""focus"",""48"",""282914""
","""event"",""trial"",""time""
""fullscreenenter"",""1"",""2347""
","
",,,,,,,,,,,,"[{""stimulus"":""run_exp/static/images/task_images/dig.jpg"",""time"":0},{""stimulus"":""run_exp/static/images/task_images/land.jpg"",""time"":792.1999999997206},{""stimulus"":""run_exp/static/images/task_images/dig.jpg"",""time"":1587.1999999997206}]",[],5,,,,,,,,,,,,,,
harvest,113,507485,0.0-35.0-1.0,"""event"",""trial"",""time""
""fullscreenenter"",""1"",""2347""
""blur"",""4"",""30589""
""focus"",""4"",""38815""
""blur"",""47"",""252712""
""focus"",""48"",""282914""
","""event"",""trial"",""time""
""blur"",""4"",""30589""
""blur"",""47"",""252712""
","""event"",""trial"",""time""
""focus"",""4"",""38815""
""focus"",""48"",""282914""
","""event"",""trial"",""time""
""fullscreenenter"",""1"",""2347""
","
",,null,run_exp/static/images/task_images/gems/45.jpg,null,,,,,,,24,,,5,,,,,45,0.528567421,0.533333333,,,,,,,
decision,114,507869,0.0-35.0-2.0,"""event"",""trial"",""time""
""fullscreenenter"",""1"",""2347""
""blur"",""4"",""30589""
""focus"",""4"",""38815""
""blur"",""47"",""252712""
""focus"",""48"",""282914""
","""event"",""trial"",""time""
""blur"",""4"",""30589""
""blur"",""47"",""252712""
","""event"",""trial"",""time""
""focus"",""4"",""38815""
""focus"",""48"",""282914""
","""event"",""trial"",""time""
""fullscreenenter"",""1"",""2347""
","
",,382.5,run_exp/static/images/task_images/land.jpg,76,,,,,,,24,,,5,,,,,,,,116134,1,1,TRUE,,,
travel,115,517484,0.0-36.0-0.0,"""event"",""trial"",""time""
""fullscreenenter"",""1"",""2347""
""blur"",""4"",""30589""
""focus"",""4"",""38815""
""blur"",""47"",""252712""
""focus"",""48"",""282914""
""fullscreenexit"",""116"",""518988""
","""event"",""trial"",""time""
""blur"",""4"",""30589""
""blur"",""47"",""252712""
","""event"",""trial"",""time""
""focus"",""4"",""38815""
""focus"",""48"",""282914""
","""event"",""trial"",""time""
""fullscreenenter"",""1"",""2347""
","""event"",""trial"",""time""
""fullscreenexit"",""116"",""518988""
",,,,,,,,,,,,"[{""stimulus"":""run_exp/static/images/task_images/rocket-01.jpg"",""time"":0.10000000009313226},{""stimulus"":""run_exp/static/images/task_images/rocket-02.jpg"",""time"":1080.9000000003725},{""stimulus"":""run_exp/static/images/task_images/rocket-03.jpg"",""time"":2148.100000000093},{""stimulus"":""run_exp/static/images/task_images/rocket-04.jpg"",""time"":3204.600000000093},{""stimulus"":""run_exp/static/images/task_images/rocket-05.jpg"",""time"":4272.600000000093},{""stimulus"":""run_exp/static/images/task_images/rocket-06.jpg"",""time"":5342.4000000003725},{""stimulus"":""run_exp/static/images/task_images/rocket-07.jpg"",""time"":6408.5},{""stimulus"":""run_exp/static/images/task_images/rocket-08.jpg"",""time"":7477.4000000003725},{""stimulus"":""run_exp/static/images/task_images/rocket-09.jpg"",""time"":8551.80000000028}]",[],5,,,,,,,,,,,,,,
alien_welcome,116,522485,0.0-36.0-1.0,"""event"",""trial"",""time""
""fullscreenenter"",""1"",""2347""
""blur"",""4"",""30589""
""focus"",""4"",""38815""
""blur"",""47"",""252712""
""focus"",""48"",""282914""
""fullscreenexit"",""116"",""518988""
","""event"",""trial"",""time""
""blur"",""4"",""30589""
""blur"",""47"",""252712""
","""event"",""trial"",""time""
""focus"",""4"",""38815""
""focus"",""48"",""282914""
","""event"",""trial"",""time""
""fullscreenenter"",""1"",""2347""
","""event"",""trial"",""time""
""fullscreenexit"",""116"",""518988""
",,null,run_exp/static/images/task_images/aliens/old_aliens/planet/alien_planet-3.jpg,null,,,,,,,,,,,,,3,"55,63,10,48,44,3,30,36,17,7,43,20,58,14,28,38,34,51,4,60,62,18,75,74,80,53,25,2,76,66,47,13,27,61,35,8,26,46,40,54,52,5,64,78,67,22,23,11",,,,,,,,,,
land,117,522997,0.0-36.0-2.0,"""event"",""trial"",""time""
""fullscreenenter"",""1"",""2347""
""blur"",""4"",""30589""
""focus"",""4"",""38815""
""blur"",""47"",""252712""
""focus"",""48"",""282914""
""fullscreenexit"",""116"",""518988""
","""event"",""trial"",""time""
""blur"",""4"",""30589""
""blur"",""47"",""252712""
","""event"",""trial"",""time""
""focus"",""4"",""38815""
""focus"",""48"",""282914""
","""event"",""trial"",""time""
""fullscreenenter"",""1"",""2347""
","""event"",""trial"",""time""
""fullscreenexit"",""116"",""518988""
",,null,run_exp/static/images/task_images/land.jpg,null,,,,,,,101,,,6,,,,,,,,,,,,,,
dig,118,525011,0.0-36.0-3.0,"""event"",""trial"",""time""
""fullscreenenter"",""1"",""2347""
""blur"",""4"",""30589""
""focus"",""4"",""38815""
""blur"",""47"",""252712""
""focus"",""48"",""282914""
""fullscreenexit"",""116"",""518988""
","""event"",""trial"",""time""
""blur"",""4"",""30589""
""blur"",""47"",""252712""
","""event"",""trial"",""time""
""focus"",""4"",""38815""
""focus"",""48"",""282914""
","""event"",""trial"",""time""
""fullscreenenter"",""1"",""2347""
","""event"",""trial"",""time""
""fullscreenexit"",""116"",""518988""
",,,,,,,,,,,,"[{""stimulus"":""run_exp/static/images/task_images/dig.jpg"",""time"":0.19999999972060323},{""stimulus"":""run_exp/static/images/task_images/land.jpg"",""time"":671.8999999999069},{""stimulus"":""run_exp/static/images/task_images/dig.jpg"",""time"":1344.2999999998137}]",[],6,,,,,,,,,,,,,,
harvest,119,526012,0.0-36.0-4.0,"""event"",""trial"",""time""
""fullscreenenter"",""1"",""2347""
""blur"",""4"",""30589""
""focus"",""4"",""38815""
""blur"",""47"",""252712""
""focus"",""48"",""282914""
""fullscreenexit"",""116"",""518988""
","""event"",""trial"",""time""
""blur"",""4"",""30589""
""blur"",""47"",""252712""
","""event"",""trial"",""time""
""focus"",""4"",""38815""
""focus"",""48"",""282914""
","""event"",""trial"",""time""
""fullscreenenter"",""1"",""2347""
","""event"",""trial"",""time""
""fullscreenexit"",""116"",""518988""
",,null,run_exp/static/images/task_images/gems/101.jpg,null,,,,,,,83,,,6,,,,,101,0.816941872,0.821782178,,,,,,,
decision,120,526740,0.0-36.0-5.0,"""event"",""trial"",""time""
""fullscreenenter"",""1"",""2347""
""blur"",""4"",""30589""
""focus"",""4"",""38815""
""blur"",""47"",""252712""
""focus"",""48"",""282914""
""fullscreenexit"",""116"",""518988""
","""event"",""trial"",""time""
""blur"",""4"",""30589""
""blur"",""47"",""252712""
","""event"",""trial"",""time""
""focus"",""4"",""38815""
""focus"",""48"",""282914""
","""event"",""trial"",""time""
""fullscreenenter"",""1"",""2347""
","""event"",""trial"",""time""
""fullscreenexit"",""116"",""518988""
",,726.7,run_exp/static/images/task_images/land.jpg,65,,,,,,,83,,,6,,,,,,,,135006,1,0,FALSE,,,
dig,121,529017,0.0-37.0-0.0,"""event"",""trial"",""time""
""fullscreenenter"",""1"",""2347""
""blur"",""4"",""30589""
""focus"",""4"",""38815""
""blur"",""47"",""252712""
""focus"",""48"",""282914""
""fullscreenexit"",""116"",""518988""
","""event"",""trial"",""time""
""blur"",""4"",""30589""
""blur"",""47"",""252712""
","""event"",""trial"",""time""
""focus"",""4"",""38815""
""focus"",""48"",""282914""
","""event"",""trial"",""time""
""fullscreenenter"",""1"",""2347""
","""event"",""trial"",""time""
""fullscreenexit"",""116"",""518988""
",,,,,,,,,,,,"[{""stimulus"":""run_exp/static/images/task_images/dig.jpg"",""time"":0},{""stimulus"":""run_exp/static/images/task_images/land.jpg"",""time"":772.8000000002794},{""stimulus"":""run_exp/static/images/task_images/dig.jpg"",""time"":1524.6000000000931}]",[],6,,,,,,,,,,,,,,
harvest,122,530021,0.0-37.0-1.0,"""event"",""trial"",""time""
""fullscreenenter"",""1"",""2347""
""blur"",""4"",""30589""
""focus"",""4"",""38815""
""blur"",""47"",""252712""
""focus"",""48"",""282914""
""fullscreenexit"",""116"",""518988""
","""event"",""trial"",""time""
""blur"",""4"",""30589""
""blur"",""47"",""252712""
","""event"",""trial"",""time""
""focus"",""4"",""38815""
""focus"",""48"",""282914""
","""event"",""trial"",""time""
""fullscreenenter"",""1"",""2347""
","""event"",""trial"",""time""
""fullscreenexit"",""116"",""518988""
",,null,run_exp/static/images/task_images/gems/83.jpg,null,,,,,,,66,,,6,,,,,83,0.796942364,0.795180723,,,,,,,
decision,123,530612,0.0-37.0-2.0,"""event"",""trial"",""time""
""fullscreenenter"",""1"",""2347""
""blur"",""4"",""30589""
""focus"",""4"",""38815""
""blur"",""47"",""252712""
""focus"",""48"",""282914""
""fullscreenexit"",""116"",""518988""
","""event"",""trial"",""time""
""blur"",""4"",""30589""
""blur"",""47"",""252712""
","""event"",""trial"",""time""
""focus"",""4"",""38815""
""focus"",""48"",""282914""
","""event"",""trial"",""time""
""fullscreenenter"",""1"",""2347""
","""event"",""trial"",""time""
""fullscreenexit"",""116"",""518988""
",,590.2,run_exp/static/images/task_images/land.jpg,65,,,,,,,66,,,6,,,,,,,,138878,1,1,FALSE,,,
dig,124,533026,0.0-38.0-0.0,"""event"",""trial"",""time""
""fullscreenenter"",""1"",""2347""
""blur"",""4"",""30589""
""focus"",""4"",""38815""
""blur"",""47"",""252712""
""focus"",""48"",""282914""
""fullscreenexit"",""116"",""518988""
","""event"",""trial"",""time""
""blur"",""4"",""30589""
""blur"",""47"",""252712""
","""event"",""trial"",""time""
""focus"",""4"",""38815""
""focus"",""48"",""282914""
","""event"",""trial"",""time""
""fullscreenenter"",""1"",""2347""
","""event"",""trial"",""time""
""fullscreenexit"",""116"",""518988""
",,,,,,,,,,,,"[{""stimulus"":""run_exp/static/images/task_images/dig.jpg"",""time"":0.10000000009313226},{""stimulus"":""run_exp/static/images/task_images/land.jpg"",""time"":812.8000000002794},{""stimulus"":""run_exp/static/images/task_images/dig.jpg"",""time"":1611.5}]",[],6,,,,,,,,,,,,,,
harvest,125,534032,0.0-38.0-1.0,"""event"",""trial"",""time""
""fullscreenenter"",""1"",""2347""
""blur"",""4"",""30589""
""focus"",""4"",""38815""
""blur"",""47"",""252712""
""focus"",""48"",""282914""
""fullscreenexit"",""116"",""518988""
","""event"",""trial"",""time""
""blur"",""4"",""30589""
""blur"",""47"",""252712""
","""event"",""trial"",""time""
""focus"",""4"",""38815""
""focus"",""48"",""282914""
","""event"",""trial"",""time""
""fullscreenenter"",""1"",""2347""
","""event"",""trial"",""time""
""fullscreenexit"",""116"",""518988""
",,null,run_exp/static/images/task_images/gems/66.jpg,null,,,,,,,56,,,6,,,,,66,0.855944032,0.848484848,,,,,,,
decision,126,534557,0.0-38.0-2.0,"""event"",""trial"",""time""
""fullscreenenter"",""1"",""2347""
""blur"",""4"",""30589""
""focus"",""4"",""38815""
""blur"",""47"",""252712""
""focus"",""48"",""282914""
""fullscreenexit"",""116"",""518988""
","""event"",""trial"",""time""
""blur"",""4"",""30589""
""blur"",""47"",""252712""
","""event"",""trial"",""time""
""focus"",""4"",""38815""
""focus"",""48"",""282914""
","""event"",""trial"",""time""
""fullscreenenter"",""1"",""2347""
","""event"",""trial"",""time""
""fullscreenexit"",""116"",""518988""
",,523.9,run_exp/static/images/task_images/land.jpg,65,,,,,,,56,,,6,,,,,,,,142822,1,2,FALSE,,,
dig,127,537034,0.0-39.0-0.0,"""event"",""trial"",""time""
""fullscreenenter"",""1"",""2347""
""blur"",""4"",""30589""
""focus"",""4"",""38815""
""blur"",""47"",""252712""
""focus"",""48"",""282914""
""fullscreenexit"",""116"",""518988""
","""event"",""trial"",""time""
""blur"",""4"",""30589""
""blur"",""47"",""252712""
","""event"",""trial"",""time""
""focus"",""4"",""38815""
""focus"",""48"",""282914""
","""event"",""trial"",""time""
""fullscreenenter"",""1"",""2347""
","""event"",""trial"",""time""
""fullscreenexit"",""116"",""518988""
",,,,,,,,,,,,"[{""stimulus"":""run_exp/static/images/task_images/dig.jpg"",""time"":0.10000000009313226},{""stimulus"":""run_exp/static/images/task_images/land.jpg"",""time"":832.2000000001863},{""stimulus"":""run_exp/static/images/task_images/dig.jpg"",""time"":1662.2999999998137}]",[],6,,,,,,,,,,,,,,
harvest,128,538041,0.0-39.0-1.0,"""event"",""trial"",""time""
""fullscreenenter"",""1"",""2347""
""blur"",""4"",""30589""
""focus"",""4"",""38815""
""blur"",""47"",""252712""
""focus"",""48"",""282914""
""fullscreenexit"",""116"",""518988""
","""event"",""trial"",""time""
""blur"",""4"",""30589""
""blur"",""47"",""252712""
","""event"",""trial"",""time""
""focus"",""4"",""38815""
""focus"",""48"",""282914""
","""event"",""trial"",""time""
""fullscreenenter"",""1"",""2347""
","""event"",""trial"",""time""
""fullscreenexit"",""116"",""518988""
",,null,run_exp/static/images/task_images/gems/56.jpg,null,,,,,,,48,,,6,,,,,56,0.85256442,0.857142857,,,,,,,
decision,129,538716,0.0-39.0-2.0,"""event"",""trial"",""time""
""fullscreenenter"",""1"",""2347""
""blur"",""4"",""30589""
""focus"",""4"",""38815""
""blur"",""47"",""252712""
""focus"",""48"",""282914""
""fullscreenexit"",""116"",""518988""
","""event"",""trial"",""time""
""blur"",""4"",""30589""
""blur"",""47"",""252712""
","""event"",""trial"",""time""
""focus"",""4"",""38815""
""focus"",""48"",""282914""
","""event"",""trial"",""time""
""fullscreenenter"",""1"",""2347""
","""event"",""trial"",""time""
""fullscreenexit"",""116"",""518988""
",,673.9,run_exp/static/images/task_images/land.jpg,65,,,,,,,48,,,6,,,,,,,,146981,1,3,FALSE,,,
dig,130,541044,0.0-40.0-0.0,"""event"",""trial"",""time""
""fullscreenenter"",""1"",""2347""
""blur"",""4"",""30589""
""focus"",""4"",""38815""
""blur"",""47"",""252712""
""focus"",""48"",""282914""
""fullscreenexit"",""116"",""518988""
","""event"",""trial"",""time""
""blur"",""4"",""30589""
""blur"",""47"",""252712""
","""event"",""trial"",""time""
""focus"",""4"",""38815""
""focus"",""48"",""282914""
","""event"",""trial"",""time""
""fullscreenenter"",""1"",""2347""
","""event"",""trial"",""time""
""fullscreenexit"",""116"",""518988""
",,,,,,,,,,,,"[{""stimulus"":""run_exp/static/images/task_images/dig.jpg"",""time"":0.10000000009313226},{""stimulus"":""run_exp/static/images/task_images/land.jpg"",""time"":776.6000000000931},{""stimulus"":""run_exp/static/images/task_images/dig.jpg"",""time"":1560.4000000003725}]",[],6,,,,,,,,,,,,,,
harvest,131,542045,0.0-40.0-1.0,"""event"",""trial"",""time""
""fullscreenenter"",""1"",""2347""
""blur"",""4"",""30589""
""focus"",""4"",""38815""
""blur"",""47"",""252712""
""focus"",""48"",""282914""
""fullscreenexit"",""116"",""518988""
","""event"",""trial"",""time""
""blur"",""4"",""30589""
""blur"",""47"",""252712""
","""event"",""trial"",""time""
""focus"",""4"",""38815""
""focus"",""48"",""282914""
","""event"",""trial"",""time""
""fullscreenenter"",""1"",""2347""
","""event"",""trial"",""time""
""fullscreenexit"",""116"",""518988""
",,null,run_exp/static/images/task_images/gems/48.jpg,null,,,,,,,36,,,6,,,,,48,0.743234027,0.75,,,,,,,
decision,132,542492,0.0-40.0-2.0,"""event"",""trial"",""time""
""fullscreenenter"",""1"",""2347""
""blur"",""4"",""30589""
""focus"",""4"",""38815""
""blur"",""47"",""252712""
""focus"",""48"",""282914""
""fullscreenexit"",""116"",""518988""
","""event"",""trial"",""time""
""blur"",""4"",""30589""
""blur"",""47"",""252712""
","""event"",""trial"",""time""
""focus"",""4"",""38815""
""focus"",""48"",""282914""
","""event"",""trial"",""time""
""fullscreenenter"",""1"",""2347""
","""event"",""trial"",""time""
""fullscreenexit"",""116"",""518988""
",,445.9,run_exp/static/images/task_images/land.jpg,65,,,,,,,36,,,6,,,,,,,,150757,1,4,FALSE,,,
dig,133,545049,0.0-41.0-0.0,"""event"",""trial"",""time""
""fullscreenenter"",""1"",""2347""
""blur"",""4"",""30589""
""focus"",""4"",""38815""
""blur"",""47"",""252712""
""focus"",""48"",""282914""
""fullscreenexit"",""116"",""518988""
","""event"",""trial"",""time""
""blur"",""4"",""30589""
""blur"",""47"",""252712""
","""event"",""trial"",""time""
""focus"",""4"",""38815""
""focus"",""48"",""282914""
","""event"",""trial"",""time""
""fullscreenenter"",""1"",""2347""
","""event"",""trial"",""time""
""fullscreenexit"",""116"",""518988""
",,,,,,,,,,,,"[{""stimulus"":""run_exp/static/images/task_images/dig.jpg"",""time"":0.09999999962747097},{""stimulus"":""run_exp/static/images/task_images/land.jpg"",""time"":865.0999999996275},{""stimulus"":""run_exp/static/images/task_images/dig.jpg"",""time"":1712.8999999999069}]",[],6,,,,,,,,,,,,,,
harvest,134,546050,0.0-41.0-1.0,"""event"",""trial"",""time""
""fullscreenenter"",""1"",""2347""
""blur"",""4"",""30589""
""focus"",""4"",""38815""
""blur"",""47"",""252712""
""focus"",""48"",""282914""
""fullscreenexit"",""116"",""518988""
","""event"",""trial"",""time""
""blur"",""4"",""30589""
""blur"",""47"",""252712""
","""event"",""trial"",""time""
""focus"",""4"",""38815""
""focus"",""48"",""282914""
","""event"",""trial"",""time""
""fullscreenenter"",""1"",""2347""
","""event"",""trial"",""time""
""fullscreenexit"",""116"",""518988""
",,null,run_exp/static/images/task_images/gems/36.jpg,null,,,,,,,28,,,6,,,,,36,0.787178031,0.777777778,,,,,,,
decision,135,546549,0.0-41.0-2.0,"""event"",""trial"",""time""
""fullscreenenter"",""1"",""2347""
""blur"",""4"",""30589""
""focus"",""4"",""38815""
""blur"",""47"",""252712""
""focus"",""48"",""282914""
""fullscreenexit"",""116"",""518988""
","""event"",""trial"",""time""
""blur"",""4"",""30589""
""blur"",""47"",""252712""
","""event"",""trial"",""time""
""focus"",""4"",""38815""
""focus"",""48"",""282914""
","""event"",""trial"",""time""
""fullscreenenter"",""1"",""2347""
","""event"",""trial"",""time""
""fullscreenexit"",""116"",""518988""
",,497.5,run_exp/static/images/task_images/land.jpg,65,,,,,,,28,,,6,,,,,,,,154814,1,5,FALSE,,,
dig,136,549058,0.0-42.0-0.0,"""event"",""trial"",""time""
""fullscreenenter"",""1"",""2347""
""blur"",""4"",""30589""
""focus"",""4"",""38815""
""blur"",""47"",""252712""
""focus"",""48"",""282914""
""fullscreenexit"",""116"",""518988""
","""event"",""trial"",""time""
""blur"",""4"",""30589""
""blur"",""47"",""252712""
","""event"",""trial"",""time""
""focus"",""4"",""38815""
""focus"",""48"",""282914""
","""event"",""trial"",""time""
""fullscreenenter"",""1"",""2347""
","""event"",""trial"",""time""
""fullscreenexit"",""116"",""518988""
",,,,,,,,,,,,"[{""stimulus"":""run_exp/static/images/task_images/dig.jpg"",""time"":0.10000000009313226},{""stimulus"":""run_exp/static/images/task_images/land.jpg"",""time"":849.5},{""stimulus"":""run_exp/static/images/task_images/dig.jpg"",""time"":1669.1000000000931}]",[],6,,,,,,,,,,,,,,
harvest,137,550063,0.0-42.0-1.0,"""event"",""trial"",""time""
""fullscreenenter"",""1"",""2347""
""blur"",""4"",""30589""
""focus"",""4"",""38815""
""blur"",""47"",""252712""
""focus"",""48"",""282914""
""fullscreenexit"",""116"",""518988""
","""event"",""trial"",""time""
""blur"",""4"",""30589""
""blur"",""47"",""252712""
","""event"",""trial"",""time""
""focus"",""4"",""38815""
""focus"",""48"",""282914""
","""event"",""trial"",""time""
""fullscreenenter"",""1"",""2347""
","""event"",""trial"",""time""
""fullscreenexit"",""116"",""518988""
",,null,run_exp/static/images/task_images/gems/28.jpg,null,,,,,,,23,,,6,,,,,28,0.830279268,0.821428571,,,,,,,
decision,138,550716,0.0-42.0-2.0,"""event"",""trial"",""time""
""fullscreenenter"",""1"",""2347""
""blur"",""4"",""30589""
""focus"",""4"",""38815""
""blur"",""47"",""252712""
""focus"",""48"",""282914""
""fullscreenexit"",""116"",""518988""
","""event"",""trial"",""time""
""blur"",""4"",""30589""
""blur"",""47"",""252712""
","""event"",""trial"",""time""
""focus"",""4"",""38815""
""focus"",""48"",""282914""
","""event"",""trial"",""time""
""fullscreenenter"",""1"",""2347""
","""event"",""trial"",""time""
""fullscreenexit"",""116"",""518988""
",,651.1,run_exp/static/images/task_images/land.jpg,76,,,,,,,23,,,6,,,,,,,,158982,1,6,TRUE,,,
travel,139,560071,0.0-43.0-0.0,"""event"",""trial"",""time""
""fullscreenenter"",""1"",""2347""
""blur"",""4"",""30589""
""focus"",""4"",""38815""
""blur"",""47"",""252712""
""focus"",""48"",""282914""
""fullscreenexit"",""116"",""518988""
","""event"",""trial"",""time""
""blur"",""4"",""30589""
""blur"",""47"",""252712""
","""event"",""trial"",""time""
""focus"",""4"",""38815""
""focus"",""48"",""282914""
","""event"",""trial"",""time""
""fullscreenenter"",""1"",""2347""
","""event"",""trial"",""time""
""fullscreenexit"",""116"",""518988""
",,,,,,,,,,,,"[{""stimulus"":""run_exp/static/images/task_images/rocket-01.jpg"",""time"":0},{""stimulus"":""run_exp/static/images/task_images/rocket-02.jpg"",""time"":1053},{""stimulus"":""run_exp/static/images/task_images/rocket-03.jpg"",""time"":2076.899999999907},{""stimulus"":""run_exp/static/images/task_images/rocket-04.jpg"",""time"":3115.8000000002794},{""stimulus"":""run_exp/static/images/task_images/rocket-05.jpg"",""time"":4153.300000000279},{""stimulus"":""run_exp/static/images/task_images/rocket-06.jpg"",""time"":5192.100000000093},{""stimulus"":""run_exp/static/images/task_images/rocket-07.jpg"",""time"":6244},{""stimulus"":""run_exp/static/images/task_images/rocket-08.jpg"",""time"":7281.100000000093},{""stimulus"":""run_exp/static/images/task_images/rocket-09.jpg"",""time"":8316.899999999907}]",[],6,,,,,,,,,,,,,,
alien_welcome,140,565073,0.0-43.0-1.0,"""event"",""trial"",""time""
""fullscreenenter"",""1"",""2347""
""blur"",""4"",""30589""
""focus"",""4"",""38815""
""blur"",""47"",""252712""
""focus"",""48"",""282914""
""fullscreenexit"",""116"",""518988""
","""event"",""trial"",""time""
""blur"",""4"",""30589""
""blur"",""47"",""252712""
","""event"",""trial"",""time""
""focus"",""4"",""38815""
""focus"",""48"",""282914""
","""event"",""trial"",""time""
""fullscreenenter"",""1"",""2347""
","""event"",""trial"",""time""
""fullscreenexit"",""116"",""518988""
",,null,run_exp/static/images/task_images/aliens/old_aliens/planet/alien_planet-30.jpg,null,,,,,,,,,,,,,30,"55,63,10,48,44,3,30,36,17,7,43,20,58,14,28,38,34,51,4,60,62,18,75,74,80,53,25,2,76,66,47,13,27,61,35,8,26,46,40,54,52,5,64,78,67,22,23,11",,,,,,,,,,
land,141,565585,0.0-43.0-2.0,"""event"",""trial"",""time""
""fullscreenenter"",""1"",""2347""
""blur"",""4"",""30589""
""focus"",""4"",""38815""
""blur"",""47"",""252712""
""focus"",""48"",""282914""
""fullscreenexit"",""116"",""518988""
","""event"",""trial"",""time""
""blur"",""4"",""30589""
""blur"",""47"",""252712""
","""event"",""trial"",""time""
""focus"",""4"",""38815""
""focus"",""48"",""282914""
","""event"",""trial"",""time""
""fullscreenenter"",""1"",""2347""
","""event"",""trial"",""time""
""fullscreenexit"",""116"",""518988""
",,null,run_exp/static/images/task_images/land.jpg,null,,,,,,,96,,,7,,,,,,,,,,,,,,
dig,142,567596,0.0-43.0-3.0,"""event"",""trial"",""time""
""fullscreenenter"",""1"",""2347""
""blur"",""4"",""30589""
""focus"",""4"",""38815""
""blur"",""47"",""252712""
""focus"",""48"",""282914""
""fullscreenexit"",""116"",""518988""
","""event"",""trial"",""time""
""blur"",""4"",""30589""
""blur"",""47"",""252712""
","""event"",""trial"",""time""
""focus"",""4"",""38815""
""focus"",""48"",""282914""
","""event"",""trial"",""time""
""fullscreenenter"",""1"",""2347""
","""event"",""trial"",""time""
""fullscreenexit"",""116"",""518988""
",,,,,,,,,,,,"[{""stimulus"":""run_exp/static/images/task_images/dig.jpg"",""time"":0.20000000018626451},{""stimulus"":""run_exp/static/images/task_images/land.jpg"",""time"":667.7999999998137},{""stimulus"":""run_exp/static/images/task_images/dig.jpg"",""time"":1339.5}]",[],7,,,,,,,,,,,,,,
harvest,143,568597,0.0-43.0-4.0,"""event"",""trial"",""time""
""fullscreenenter"",""1"",""2347""
""blur"",""4"",""30589""
""focus"",""4"",""38815""
""blur"",""47"",""252712""
""focus"",""48"",""282914""
""fullscreenexit"",""116"",""518988""
","""event"",""trial"",""time""
""blur"",""4"",""30589""
""blur"",""47"",""252712""
","""event"",""trial"",""time""
""focus"",""4"",""38815""
""focus"",""48"",""282914""
","""event"",""trial"",""time""
""fullscreenenter"",""1"",""2347""
","""event"",""trial"",""time""
""fullscreenexit"",""116"",""518988""
",,null,run_exp/static/images/task_images/gems/96.jpg,null,,,,,,,81,,,7,,,,,96,0.838661543,0.84375,,,,,,,
decision,144,569420,0.0-43.0-5.0,"""event"",""trial"",""time""
""fullscreenenter"",""1"",""2347""
""blur"",""4"",""30589""
""focus"",""4"",""38815""
""blur"",""47"",""252712""
""focus"",""48"",""282914""
""fullscreenexit"",""116"",""518988""
","""event"",""trial"",""time""
""blur"",""4"",""30589""
""blur"",""47"",""252712""
","""event"",""trial"",""time""
""focus"",""4"",""38815""
""focus"",""48"",""282914""
","""event"",""trial"",""time""
""fullscreenenter"",""1"",""2347""
","""event"",""trial"",""time""
""fullscreenexit"",""116"",""518988""
",,821.7,run_exp/static/images/task_images/land.jpg,65,,,,,,,81,,,7,,,,,,,,177685,1,0,FALSE,,,
dig,145,571602,0.0-44.0-0.0,"""event"",""trial"",""time""
""fullscreenenter"",""1"",""2347""
""blur"",""4"",""30589""
""focus"",""4"",""38815""
""blur"",""47"",""252712""
""focus"",""48"",""282914""
""fullscreenexit"",""116"",""518988""
","""event"",""trial"",""time""
""blur"",""4"",""30589""
""blur"",""47"",""252712""
","""event"",""trial"",""time""
""focus"",""4"",""38815""
""focus"",""48"",""282914""
","""event"",""trial"",""time""
""fullscreenenter"",""1"",""2347""
","""event"",""trial"",""time""
""fullscreenexit"",""116"",""518988""
",,,,,,,,,,,,"[{""stimulus"":""run_exp/static/images/task_images/dig.jpg"",""time"":0.10000000009313226},{""stimulus"":""run_exp/static/images/task_images/land.jpg"",""time"":731.3999999999069},{""stimulus"":""run_exp/static/images/task_images/dig.jpg"",""time"":1463}]",[],7,,,,,,,,,,,,,,
