trial_type,trial_index,time_elapsed,internal_node_id,interactions,blur_events,focus_events,fullscreenenter_events,fullscreenexit_events,success,rt,stimulus,key_press,prompt,subject_id,participant_id,age,gender,button_pressed,next_reward,animation_sequence,responses,planet,curr_prac_trial,n_prac_rounds,alien,aliens,reward_received,decay_rate_actual,decay_rate_exp,time_in_block,block_num,prt,last_trial_on_planet,button_html,bonus,num_failures
pavlovia,0,3,0.0-0.0,"""event"",""trial"",""time""
""fullscreenenter"",""1"",""2188""
","
","
","""event"",""trial"",""time""
""fullscreenenter"",""1"",""2188""
","
",,,,,,,,,,,,,,,,,,,,,,,,,,,,
fullscreen,1,3173,0.0-1.0,"""event"",""trial"",""time""
""fullscreenenter"",""1"",""2188""
","
","
","""event"",""trial"",""time""
""fullscreenenter"",""1"",""2188""
","
",TRUE,,,,,,,,,,,,,,,,,,,,,,,,,,,
instruc_welcome,2,12899,0.0-2.0,"""event"",""trial"",""time""
""fullscreenenter"",""1"",""2188""
","
","
","""event"",""trial"",""time""
""fullscreenenter"",""1"",""2188""
","
",,null,run_exp/static/audio/clip_1_welcome.m4a,null,"<p>Howdy! In this experiment, you’ll be an explorer traveling through space to collect space treasure.</p><p>Your mission is to collect as much treasure as possible.</p><br><br><p><img src='run_exp/static/images/task_images/opening_img-01.jpg' height='300' width='auto'></p>",9329,3747,11.72,Male,,,,,,,,,,,,,,,,,,,
audio-keyboard-response,3,29477,0.0-3.0,"""event"",""trial"",""time""
""fullscreenenter"",""1"",""2188""
","
","
","""event"",""trial"",""time""
""fullscreenenter"",""1"",""2188""
","
",,null,run_exp/static/audio/clip_2_move.m4a,null,,,,,,,,,,,,,,,,,,,,,,,,
welcome_dec,4,32956,0.0-4.0,"""event"",""trial"",""time""
""fullscreenenter"",""1"",""2188""
","
","
","""event"",""trial"",""time""
""fullscreenenter"",""1"",""2188""
","
",,3477.2,"<p>Howdy! In this experiment, you’ll be an explorer traveling through space to collect space treasure.</p><p>Your mission is to collect as much treasure as possible.</p><br><br><p><img src='run_exp/static/images/task_images/opening_img-01.jpg' height='300' width='auto'></p>",,,,,,,1,,,,,,,,,,,,,,,,,,
html-keyboard-response,5,35157,0.0-5.0,"""event"",""trial"",""time""
""fullscreenenter"",""1"",""2188""
","
","
","""event"",""trial"",""time""
""fullscreenenter"",""1"",""2188""
","
",,2199.2,"<p>Howdy! In this experiment, you’ll be an explorer traveling through space to collect space treasure.</p><p>Your mission is to collect as much treasure as possible.</p><br><br><p><img src='run_exp/static/images/task_images/opening_img-01.jpg' height='300' width='auto'></p><button class=""jspsych-html-btn-unchosen""><img src=""run_exp/static/images/task_images/planet-01.jpg"" height=""50""></button><button class=""jspsych-html-btn-chosen""><img src=""run_exp/static/images/task_images/planet-02.jpg"" height=""50""></button><p><b>[press the space bar to lock in your answer]<b><br></p>",32,,,,,,,,,,,,,,,,,,,,,,,,
instruc_goal,6,45218,0.0-6.0-0.0,"""event"",""trial"",""time""
""fullscreenenter"",""1"",""2188""
","
","
","""event"",""trial"",""time""
""fullscreenenter"",""1"",""2188""
","
",,null,run_exp/static/audio/clip_3_goal.m4a,null,"<p> As a space explorer, you’ll visit different planets to dig for space treasure, these pink gems.</p> <p> The more treasure you dig up, the more bonus money you’ll win! </p><br><br><p><img src='run_exp/static/images/task_images/pink_gem.jpg' height='300' width='auto'></p>",,,,,,,,,,,,,,,,,,,,,,,
instruc_goal,7,48252,0.0-6.0-1.0,"""event"",""trial"",""time""
""fullscreenenter"",""1"",""2188""
","
","
","""event"",""trial"",""time""
""fullscreenenter"",""1"",""2188""
","
",,3031.5,"<p> As a space explorer, you’ll visit different planets to dig for space treasure, these pink gems.</p> <p> The more treasure you dig up, the more bonus money you’ll win! </p><br><br><p><img src='run_exp/static/images/task_images/pink_gem.jpg' height='300' width='auto'></p>",,,,,,,1,,,,,,,,,,,,,,,,,,
html-keyboard-response,8,48308,0.0-6.0-2.0,"""event"",""trial"",""time""
""fullscreenenter"",""1"",""2188""
","
","
","""event"",""trial"",""time""
""fullscreenenter"",""1"",""2188""
","
",,54.9000001,"<p> As a space explorer, you’ll visit different planets to dig for space treasure, these pink gems.</p> <p> The more treasure you dig up, the more bonus money you’ll win! </p><br><br><p><img src='run_exp/static/images/task_images/pink_gem.jpg' height='300' width='auto'></p><button class=""jspsych-html-btn-unchosen""><img src=""run_exp/static/images/task_images/planet-01.jpg"" height=""50""></button><button class=""jspsych-html-btn-chosen""><img src=""run_exp/static/images/task_images/planet-02.jpg"" height=""50""></button><p><b>[press the space bar to lock in your answer]<b><br></p>",32,,,,,,,,,,,,,,,,,,,,,,,,
instruc_dig,9,64317,0.0-7.0-0.0,"""event"",""trial"",""time""
""fullscreenenter"",""1"",""2188""
","
","
","""event"",""trial"",""time""
""fullscreenenter"",""1"",""2188""
","
",,null,run_exp/static/audio/clip_4_dig.m4a,null,,,,,,,100,,,,,,,,,,,,,,,,,
instruc_dig_try,10,64901,0.0-7.0-1.0,"""event"",""trial"",""time""
""fullscreenenter"",""1"",""2188""
","
","
","""event"",""trial"",""time""
""fullscreenenter"",""1"",""2188""
","
",,582.7000003,"<p> When you’ve arrived at a new planet, you will dig once. </p> <p>Then, you get to decide if you want to stay on the planet and dig again or travel to a new planet and dig there.</p> <p> To stay and dig, press the letter <strong>‘A’</strong> on your keyboard. Try pressing it now! </p><p><img src='run_exp/static/images/task_images/land.jpg'  height='700' width='auto'></p>",65,"<p> When you’ve arrived at a new planet, you will dig once. </p> <p>Then, you get to decide if you want to stay on the planet and dig again or travel to a new planet and dig there.</p> <p> To stay and dig, press the letter <strong>‘A’</strong> on your keyboard. Try pressing it now! </p><p><img src='run_exp/static/images/task_images/land.jpg'  height='700' width='auto'></p>",,,,,,100,,,,,,,,,,,,,,,,,
dig_prac,11,66910,0.0-7.0-2.0,"""event"",""trial"",""time""
""fullscreenenter"",""1"",""2188""
","
","
","""event"",""trial"",""time""
""fullscreenenter"",""1"",""2188""
","
",,,,,,,,,,,,"[{""stimulus"":""run_exp/static/images/task_images/dig.jpg"",""time"":0.19999980926513672},{""stimulus"":""run_exp/static/images/task_images/land.jpg"",""time"":668.2999997138977},{""stimulus"":""run_exp/static/images/task_images/dig.jpg"",""time"":1334.9000000953674}]",[],,,,,,,,,,,,,,,
instruc_travel,12,103159,0.0-7.0-3.0,"""event"",""trial"",""time""
""fullscreenenter"",""1"",""2188""
","
","
","""event"",""trial"",""time""
""fullscreenenter"",""1"",""2188""
","
",,null,run_exp/static/audio/clip_5_travel.m4a,null,"<p>Every time you dig up gems, there are less gems on the planet, so the more you dig on a planet the fewer gems you’ll get with each dig.</p><p>When gems are running low, you may want to travel to a new planet. </p> <p>  Planets are very far apart in this galaxy, so it will take some time to travel between them. </p> <br><p>There are lots and lots of planets for you to visit, so you won’t be able to return to any planets you’ve seen before. </p><br><p>To leave this planet and travel to a new one, press the letter <strong>‘L’</strong> on your keyboard. Try pressing it now! </p><p><img src='run_exp/static/images/task_images/rocket-01.jpg'  height='600' width='auto'></p>",,,,,,,,,,,,,,,,,,,,,,,
instruc_travel_try,13,104037,0.0-7.0-4.0,"""event"",""trial"",""time""
""fullscreenenter"",""1"",""2188""
","
","
","""event"",""trial"",""time""
""fullscreenenter"",""1"",""2188""
","
",,876,"<p>Every time you dig up gems, there are less gems on the planet, so the more you dig on a planet the fewer gems you’ll get with each dig.</p><p>When gems are running low, you may want to travel to a new planet. </p> <p>  Planets are very far apart in this galaxy, so it will take some time to travel between them. </p> <br><p>There are lots and lots of planets for you to visit, so you won’t be able to return to any planets you’ve seen before. </p><br><p>To leave this planet and travel to a new one, press the letter <strong>‘L’</strong> on your keyboard. Try pressing it now! </p><p><img src='run_exp/static/images/task_images/rocket-01.jpg'  height='600' width='auto'></p>",76,"<p>Every time you dig up gems, there are less gems on the planet, so the more you dig on a planet the fewer gems you’ll get with each dig.</p><p>When gems are running low, you may want to travel to a new planet. </p> <p>  Planets are very far apart in this galaxy, so it will take some time to travel between them. </p> <br><p>There are lots and lots of planets for you to visit, so you won’t be able to return to any planets you’ve seen before. </p><br><p>To leave this planet and travel to a new one, press the letter <strong>‘L’</strong> on your keyboard. Try pressing it now! </p><p><img src='run_exp/static/images/task_images/rocket-01.jpg'  height='600' width='auto'></p>",,,,,,,,,,,,,,,,,,,,,,,
travel_prac,14,114039,0.0-7.0-5.0,"""event"",""trial"",""time""
""fullscreenenter"",""1"",""2188""
","
","
","""event"",""trial"",""time""
""fullscreenenter"",""1"",""2188""
","
",,,,,,,,,,,,"[{""stimulus"":""run_exp/static/images/task_images/rocket-01.jpg"",""time"":0.40000009536743164},{""stimulus"":""run_exp/static/images/task_images/rocket-02.jpg"",""time"":1112.9000000953674},{""stimulus"":""run_exp/static/images/task_images/rocket-03.jpg"",""time"":2223.0999999046326},{""stimulus"":""run_exp/static/images/task_images/rocket-04.jpg"",""time"":3334.5999999046326},{""stimulus"":""run_exp/static/images/task_images/rocket-05.jpg"",""time"":4446.5},{""stimulus"":""run_exp/static/images/task_images/rocket-06.jpg"",""time"":5557.800000190735},{""stimulus"":""run_exp/static/images/task_images/rocket-07.jpg"",""time"":6668.300000190735},{""stimulus"":""run_exp/static/images/task_images/rocket-08.jpg"",""time"":7778.700000286102},{""stimulus"":""run_exp/static/images/task_images/rocket-09.jpg"",""time"":8889.900000095367}]",[],0,,,,,,,,,,,,,,
instruc_alien_greet,15,141218,0.0-7.0-6.0,"""event"",""trial"",""time""
""fullscreenenter"",""1"",""2188""
","
","
","""event"",""trial"",""time""
""fullscreenenter"",""1"",""2188""
","
",,null,run_exp/static/audio/clip_6_alien.m4a,null,"<p>When you arrive at a new planet, the alien who owns the treasure mine on that planet will greet you!</p><p>The better an alien takes care of their mine the easier it is to dig for gems. Some aliens take better care of their mine than others. So, you won’t get exactly the same amount of gems on each planet.</p><p>What the alien looks like does not tell you anything about how many gems there are on the planet.</p><br><p><img src=""run_exp/static/images/task_images/aliens/instructions_aliens/planet/alien_planet-1.jpg""  height=""600"" width=""auto""></p>",,,,,,,,,,,,,,,,,,,,,,,
instruc_alien_greet,16,143468,0.0-7.0-7.0,"""event"",""trial"",""time""
""fullscreenenter"",""1"",""2188""
","
","
","""event"",""trial"",""time""
""fullscreenenter"",""1"",""2188""
","
",,2246.4,"<p>When you arrive at a new planet, the alien who owns the treasure mine on that planet will greet you!</p><p>The better an alien takes care of their mine the easier it is to dig for gems. Some aliens take better care of their mine than others. So, you won’t get exactly the same amount of gems on each planet.</p><p>What the alien looks like does not tell you anything about how many gems there are on the planet.</p><br><p><img src=""run_exp/static/images/task_images/aliens/instructions_aliens/planet/alien_planet-1.jpg""  height=""600"" width=""auto""></p>",,,,,,,1,,,,,,,,,,,,,,,,,,
html-keyboard-response,17,143637,0.0-7.0-8.0,"""event"",""trial"",""time""
""fullscreenenter"",""1"",""2188""
","
","
","""event"",""trial"",""time""
""fullscreenenter"",""1"",""2188""
","
",,167.9000001,"<p>When you arrive at a new planet, the alien who owns the treasure mine on that planet will greet you!</p><p>The better an alien takes care of their mine the easier it is to dig for gems. Some aliens take better care of their mine than others. So, you won’t get exactly the same amount of gems on each planet.</p><p>What the alien looks like does not tell you anything about how many gems there are on the planet.</p><br><p><img src=""run_exp/static/images/task_images/aliens/instructions_aliens/planet/alien_planet-1.jpg""  height=""600"" width=""auto""></p><button class=""jspsych-html-btn-unchosen""><img src=""run_exp/static/images/task_images/planet-01.jpg"" height=""50""></button><button class=""jspsych-html-btn-chosen""><img src=""run_exp/static/images/task_images/planet-02.jpg"" height=""50""></button><p><b>[press the space bar to lock in your answer]<b><br></p>",32,,,,,,,,,,,,,,,,,,,,,,,,
time_out,18,154717,0.0-8.0-0.0,"""event"",""trial"",""time""
""fullscreenenter"",""1"",""2188""
","
","
","""event"",""trial"",""time""
""fullscreenenter"",""1"",""2188""
","
",,null,run_exp/static/audio/clip_7_timeout.m4a,null,"<p>If you don't make your choice fast enough, you’ll have to wait a few seconds before you can make another one.</p><p>You can’t dig for more gems or travel to new planets. You just have to sit and wait.</p><br><p><img src='run_exp/static/images/task_images/time_out.jpg'  height='600' width='auto'></p>",,,,,,,,,,,,,,,,,,,,,,,
time_out,19,156156,0.0-8.0-1.0,"""event"",""trial"",""time""
""fullscreenenter"",""1"",""2188""
","
","
","""event"",""trial"",""time""
""fullscreenenter"",""1"",""2188""
","
",,1435.5,"<p>If you don't make your choice fast enough, you’ll have to wait a few seconds before you can make another one.</p><p>You can’t dig for more gems or travel to new planets. You just have to sit and wait.</p><br><p><img src='run_exp/static/images/task_images/time_out.jpg'  height='600' width='auto'></p>",,,,,,,1,,,,,,,,,,,,,,,,,,
html-keyboard-response,20,157797,0.0-8.0-2.0,"""event"",""trial"",""time""
""fullscreenenter"",""1"",""2188""
","
","
","""event"",""trial"",""time""
""fullscreenenter"",""1"",""2188""
","
",,1639.1,"<p>If you don't make your choice fast enough, you’ll have to wait a few seconds before you can make another one.</p><p>You can’t dig for more gems or travel to new planets. You just have to sit and wait.</p><br><p><img src='run_exp/static/images/task_images/time_out.jpg'  height='600' width='auto'></p><button class=""jspsych-html-btn-unchosen""><img src=""run_exp/static/images/task_images/planet-01.jpg"" height=""50""></button><button class=""jspsych-html-btn-chosen""><img src=""run_exp/static/images/task_images/planet-02.jpg"" height=""50""></button><p><b>[press the space bar to lock in your answer]<b><br></p>",32,,,,,,,,,,,,,,,,,,,,,,,,
instruc_break,21,173459,0.0-9.0-0.0,"""event"",""trial"",""time""
""fullscreenenter"",""1"",""2188""
","
","
","""event"",""trial"",""time""
""fullscreenenter"",""1"",""2188""
","
",,null,run_exp/static/audio/clip_8_break.m4a,null,"<p> After digging and traveling for a while, you’ll be able to take a break at home base. </p><p>The game will last 20 minutes no matter what.</p><p>You will visit home base every 5 minutes, so, you will visit home base three times during the game.</p><br><p><img src='run_exp/static/images/task_images/home_base.jpg' height='600' width='auto'></p>",,,,,,,,,,,,,,,,,,,,,,,
instruc_break,22,175068,0.0-9.0-1.0,"""event"",""trial"",""time""
""fullscreenenter"",""1"",""2188""
","
","
","""event"",""trial"",""time""
""fullscreenenter"",""1"",""2188""
","
",,1606.3,"<p> After digging and traveling for a while, you’ll be able to take a break at home base. </p><p>The game will last 20 minutes no matter what.</p><p>You will visit home base every 5 minutes, so, you will visit home base three times during the game.</p><br><p><img src='run_exp/static/images/task_images/home_base.jpg' height='600' width='auto'></p>",,,,,,,1,,,,,,,,,,,,,,,,,,
html-keyboard-response,23,175461,0.0-9.0-2.0,"""event"",""trial"",""time""
""fullscreenenter"",""1"",""2188""
","
","
","""event"",""trial"",""time""
""fullscreenenter"",""1"",""2188""
","
",,391.5,"<p> After digging and traveling for a while, you’ll be able to take a break at home base. </p><p>The game will last 20 minutes no matter what.</p><p>You will visit home base every 5 minutes, so, you will visit home base three times during the game.</p><br><p><img src='run_exp/static/images/task_images/home_base.jpg' height='600' width='auto'></p><button class=""jspsych-html-btn-unchosen""><img src=""run_exp/static/images/task_images/planet-01.jpg"" height=""50""></button><button class=""jspsych-html-btn-chosen""><img src=""run_exp/static/images/task_images/planet-02.jpg"" height=""50""></button><p><b>[press the space bar to lock in your answer]<b><br></p>",32,,,,,,,,,,,,,,,,,,,,,,,,
instruc_prac_game,24,185579,0.0-10.0-0.0,"""event"",""trial"",""time""
""fullscreenenter"",""1"",""2188""
","
","
","""event"",""trial"",""time""
""fullscreenenter"",""1"",""2188""
","
",,null,run_exp/static/audio/clip_9_practice.m4a,null,"<p> Are you ready to play a practice game? </p> <p>In this practice game, you'll be digging up barrels of gems. But, in the real game, you'll be digging up the gems themselves. </p>",,,,,,,,,,,,,,,,,,,,,,,
html-button-response,25,187156,0.0-10.0-1.0,"""event"",""trial"",""time""
""fullscreenenter"",""1"",""2188""
","
","
","""event"",""trial"",""time""
""fullscreenenter"",""1"",""2188""
","
",,1575.5,"<p> Are you ready to play a practice game? </p> <p>In this practice game, you'll be digging up barrels of gems. But, in the real game, you'll be digging up the gems themselves. </p>",,,,,,,0,,,,,,,,,,,,,,,,,,
alien_welcome_prac,26,192159,0.0-11.0-0.0,"""event"",""trial"",""time""
""fullscreenenter"",""1"",""2188""
","
","
","""event"",""trial"",""time""
""fullscreenenter"",""1"",""2188""
","
",,null,run_exp/static/images/task_images/aliens/practice_aliens/planet/alien_planet-5.jpg,null,,,,,,,,,,,,,,,,,,,,,,,,
land_prac,27,192663,0.0-11.0-1.0,"""event"",""trial"",""time""
""fullscreenenter"",""1"",""2188""
","
","
","""event"",""trial"",""time""
""fullscreenenter"",""1"",""2188""
","
",,null,run_exp/static/images/task_images/land.jpg,null,,,,,,,99,,,0,,,,,,,,,,,,,,
dig_prac,28,194667,0.0-11.0-2.0,"""event"",""trial"",""time""
""fullscreenenter"",""1"",""2188""
","
","
","""event"",""trial"",""time""
""fullscreenenter"",""1"",""2188""
","
",,,,,,,,,,,,"[{""stimulus"":""run_exp/static/images/task_images/dig.jpg"",""time"":0.3000001907348633},{""stimulus"":""run_exp/static/images/task_images/land.jpg"",""time"":668.3000001907349},{""stimulus"":""run_exp/static/images/task_images/dig.jpg"",""time"":1335.5999999046326}]",[],,,,,,,,,,,,,,,
harvest_prac,29,195670,0.0-11.0-3.0,"""event"",""trial"",""time""
""fullscreenenter"",""1"",""2188""
","
","
","""event"",""trial"",""time""
""fullscreenenter"",""1"",""2188""
","
",,null,run_exp/static/images/task_images/barrel_text.jpg,null,,,,,,,,,,,,,,,,,,,,,,,,
decision_prac,30,195861,0.0-11.0-4.0,"""event"",""trial"",""time""
""fullscreenenter"",""1"",""2188""
","
","
","""event"",""trial"",""time""
""fullscreenenter"",""1"",""2188""
","
",,189.5999999,run_exp/static/images/task_images/land.jpg,65,,,,,,,,,,,1,,,,,,,,,,,,,
dig_prac,31,197864,0.0-12.0-0.0,"""event"",""trial"",""time""
""fullscreenenter"",""1"",""2188""
","
","
","""event"",""trial"",""time""
""fullscreenenter"",""1"",""2188""
","
",,,,,,,,,,,,"[{""stimulus"":""run_exp/static/images/task_images/dig.jpg"",""time"":0.20000028610229492},{""stimulus"":""run_exp/static/images/task_images/land.jpg"",""time"":668.5999999046326},{""stimulus"":""run_exp/static/images/task_images/dig.jpg"",""time"":1336.0999999046326}]",[],,,,,,,,,,,,,,,
harvest_prac,32,198867,0.0-12.0-1.0,"""event"",""trial"",""time""
""fullscreenenter"",""1"",""2188""
","
","
","""event"",""trial"",""time""
""fullscreenenter"",""1"",""2188""
","
",,null,run_exp/static/images/task_images/barrel_text.jpg,null,,,,,,,,,,,,,,,,,,,,,,,,
decision_prac,33,200165,0.0-12.0-2.0,"""event"",""trial"",""time""
""fullscreenenter"",""1"",""2188""
","
","
","""event"",""trial"",""time""
""fullscreenenter"",""1"",""2188""
","
",,1297.1,run_exp/static/images/task_images/land.jpg,65,,,,,,,,,,,2,,,,,,,,,,,,,
dig_prac,34,202169,0.0-13.0-0.0,"""event"",""trial"",""time""
""fullscreenenter"",""1"",""2188""
","
","
","""event"",""trial"",""time""
""fullscreenenter"",""1"",""2188""
","
",,,,,,,,,,,,"[{""stimulus"":""run_exp/static/images/task_images/dig.jpg"",""time"":0.09999990463256836},{""stimulus"":""run_exp/static/images/task_images/land.jpg"",""time"":668.1999998092651},{""stimulus"":""run_exp/static/images/task_images/dig.jpg"",""time"":1336.0999999046326}]",[],,,,,,,,,,,,,,,
harvest_prac,35,203171,0.0-13.0-1.0,"""event"",""trial"",""time""
""fullscreenenter"",""1"",""2188""
","
","
","""event"",""trial"",""time""
""fullscreenenter"",""1"",""2188""
","
",,null,run_exp/static/images/task_images/barrel_text.jpg,null,,,,,,,,,,,,,,,,,,,,,,,,
decision_prac,36,203541,0.0-13.0-2.0,"""event"",""trial"",""time""
""fullscreenenter"",""1"",""2188""
","
","
","""event"",""trial"",""time""
""fullscreenenter"",""1"",""2188""
","
",,367.8000002,run_exp/static/images/task_images/land.jpg,65,,,,,,,,,,,3,,,,,,,,,,,,,
dig_prac,37,205547,0.0-14.0-0.0,"""event"",""trial"",""time""
""fullscreenenter"",""1"",""2188""
","
","
","""event"",""trial"",""time""
""fullscreenenter"",""1"",""2188""
","
",,,,,,,,,,,,"[{""stimulus"":""run_exp/static/images/task_images/dig.jpg"",""time"":0.2999997138977051},{""stimulus"":""run_exp/static/images/task_images/land.jpg"",""time"":669.1999998092651},{""stimulus"":""run_exp/static/images/task_images/dig.jpg"",""time"":1335.7999997138977}]",[],,,,,,,,,,,,,,,
harvest_prac,38,206549,0.0-14.0-1.0,"""event"",""trial"",""time""
""fullscreenenter"",""1"",""2188""
","
","
","""event"",""trial"",""time""
""fullscreenenter"",""1"",""2188""
","
",,null,run_exp/static/images/task_images/barrel_text.jpg,null,,,,,,,,,,,,,,,,,,,,,,,,
decision_prac,39,207461,0.0-14.0-2.0,"""event"",""trial"",""time""
""fullscreenenter"",""1"",""2188""
","
","
","""event"",""trial"",""time""
""fullscreenenter"",""1"",""2188""
","
",,910.5,run_exp/static/images/task_images/land.jpg,65,,,,,,,,,,,4,,,,,,,,,,,,,
dig_prac,40,209467,0.0-15.0-0.0,"""event"",""trial"",""time""
""fullscreenenter"",""1"",""2188""
","
","
","""event"",""trial"",""time""
""fullscreenenter"",""1"",""2188""
","
",,,,,,,,,,,,"[{""stimulus"":""run_exp/static/images/task_images/dig.jpg"",""time"":0.20000028610229492},{""stimulus"":""run_exp/static/images/task_images/land.jpg"",""time"":668.7000002861023},{""stimulus"":""run_exp/static/images/task_images/dig.jpg"",""time"":1336.6000003814697}]",[],,,,,,,,,,,,,,,
harvest_prac,41,210469,0.0-15.0-1.0,"""event"",""trial"",""time""
""fullscreenenter"",""1"",""2188""
","
","
","""event"",""trial"",""time""
""fullscreenenter"",""1"",""2188""
","
",,null,run_exp/static/images/task_images/barrel_text.jpg,null,,,,,,,,,,,,,,,,,,,,,,,,
decision_prac,42,211061,0.0-15.0-2.0,"""event"",""trial"",""time""
""fullscreenenter"",""1"",""2188""
","
","
","""event"",""trial"",""time""
""fullscreenenter"",""1"",""2188""
","
",,590.6000004,run_exp/static/images/task_images/land.jpg,65,,,,,,,,,,,,1,,,,,,,,,,,,
quiz_instruc,43,214348,0.0-16.0-0.0,"""event"",""trial"",""time""
""fullscreenenter"",""1"",""2188""
","
","
","""event"",""trial"",""time""
""fullscreenenter"",""1"",""2188""
","
",,3284.8,run_exp/static/audio/clip_10_quiz.m4a,,,,,,,0,,,,,,,,,,,,,,,,,,
instruc_repeat,44,257118,0.0-16.0-1.0,"""event"",""trial"",""time""
""fullscreenenter"",""1"",""2188""
","
","
","""event"",""trial"",""time""
""fullscreenenter"",""1"",""2188""
","
",,null,"<p> Are you ready to play a practice game? </p> <p>In this practice game, you'll be digging up barrels of gems. But, in the real game, you'll be digging up the gems themselves. </p>",null,"<p>In this game, your goal is to collect as many gems as you can. That’s how you will win bonus money. </p> <p>The entire game will last 20 minutes no matter how many gems you collect or how many planets you visit. </p><p>To stay on a planet and dig again, press the letter A on your keyboard. To leave for a new planet, press the letter L.</p><p>The more you dig on a planet, the fewer gems you’ll get with each dig which is why you might consider leaving for a new planet. </p><p>When you arrive at a new planet, you’ll be greeted by an alien. What the alien looks like does not tell you anything about how much treasure is on the planet. </p>",,,,,,,,,,,,,,,,,,,,,,,
instruc_repeat_continue,45,258348,0.0-16.0-2.0,"""event"",""trial"",""time""
""fullscreenenter"",""1"",""2188""
","
","
","""event"",""trial"",""time""
""fullscreenenter"",""1"",""2188""
","
",,1228.9,"<p> Are you ready to play a practice game? </p> <p>In this practice game, you'll be digging up barrels of gems. But, in the real game, you'll be digging up the gems themselves. </p>",,,,,,,0,,,,,,,,,,,,,,,,,,
quiz_q_1_ask,46,261132,0.0-16.0-3.0,"""event"",""trial"",""time""
""fullscreenenter"",""1"",""2188""
","
","
","""event"",""trial"",""time""
""fullscreenenter"",""1"",""2188""
","
",,2783.3,run_exp/static/audio/clip_11_q1_ask.m4a,,,,,,,2,,,,,,,,,,,,,,,,,,
quiz_q_1_fb_correct,47,264979,0.0-17.0-0.0,"""event"",""trial"",""time""
""fullscreenenter"",""1"",""2188""
","
","
","""event"",""trial"",""time""
""fullscreenenter"",""1"",""2188""
","
",,null,run_exp/static/audio/clip_12_q1_correct.m4a,null,<p>That’s correct. You win extra money by collecting more gems.</p>,,,,,,,,,,,,,,,,,,,,,,,
quiz_q_2_ask,48,269661,0.0-17.0-1.0,"""event"",""trial"",""time""
""fullscreenenter"",""1"",""2188""
","
","
","""event"",""trial"",""time""
""fullscreenenter"",""1"",""2188""
","
",,4680.4,run_exp/static/audio/clip_14_q2_ask.m4a,,,,,,,1,,,,,,,,,,,,,,,,,,
quiz_q_2_fb_correct,49,273658,0.0-18.0-0.0,"""event"",""trial"",""time""
""fullscreenenter"",""1"",""2188""
","
","
","""event"",""trial"",""time""
""fullscreenenter"",""1"",""2188""
","
",,null,run_exp/static/audio/clip_15_q2_correct.m4a,null,<p>That’s correct. The experiment is 20 minutes no matter what.</p>,,,,,,,,,,,,,,,,,,,,,,,
quiz_q_3_ask,50,276660,0.0-18.0-1.0,"""event"",""trial"",""time""
""fullscreenenter"",""1"",""2188""
","
","
","""event"",""trial"",""time""
""fullscreenenter"",""1"",""2188""
","
",,3000.4,run_exp/static/audio/clip_17_q3_ask.m4a,,,,,,,1,,,,,,,,,,,,,,,,,,
quiz_q_3_fb_correct,51,280639,0.0-19.0-0.0,"""event"",""trial"",""time""
""fullscreenenter"",""1"",""2188""
","
","
","""event"",""trial"",""time""
""fullscreenenter"",""1"",""2188""
","
",,null,run_exp/static/audio/clip_18_q3_correct.m4a,null,<p> That’s correct. You press the letter L to travel to a new planet.</p>,,,,,,,,,,,,,,,,,,,,,,,
quiz_q_4_ask,52,289181,0.0-19.0-1.0,"""event"",""trial"",""time""
""fullscreenenter"",""1"",""2188""
","
","
","""event"",""trial"",""time""
""fullscreenenter"",""1"",""2188""
","
",,8540.5,run_exp/static/audio/clip_20_q4_ask.m4a,,,,,,,0,,,,,,,,,,,,,,,,,,
quiz_q_4_fb_correct,53,294498,0.0-20.0-0.0,"""event"",""trial"",""time""
""fullscreenenter"",""1"",""2188""
","
","
","""event"",""trial"",""time""
""fullscreenenter"",""1"",""2188""
","
",,null,run_exp/static/audio/clip_21_q4_correct.m4a,null,<p> That’s correct. The more you dig on a planet the fewer gems you’ll get with each dig. </p>,,,,,,,,,,,,,,,,,,,,,,,
quiz_q_5_ask,54,296884,0.0-20.0-1.0,"""event"",""trial"",""time""
""fullscreenenter"",""1"",""2188""
","
","
","""event"",""trial"",""time""
""fullscreenenter"",""1"",""2188""
","
",,2384.6,run_exp/static/audio/clip_23_q5_ask.m4a,,,,,,,1,,,,,,,,,,,,,,,,,,
quiz_q_5_fb_correct,55,301879,0.0-21.0-0.0,"""event"",""trial"",""time""
""fullscreenenter"",""1"",""2188""
","
","
","""event"",""trial"",""time""
""fullscreenenter"",""1"",""2188""
","
",,null,run_exp/static/audio/clip_24_q5_correct.m4a,null,<p> That’s correct. The alien tells you nothing about how much treasure is on the planet.</p>,,,,,,,,,,,,,,,,,,,,,,,
quiz_correct,56,305338,0.0-22.0-0.0,"""event"",""trial"",""time""
""fullscreenenter"",""1"",""2188""
","
","
","""event"",""trial"",""time""
""fullscreenenter"",""1"",""2188""
","
",,null,run_exp/static/audio/clip_26_correct_quiz.m4a,null,,,,,,,,,,,,,,,,,,,,,,,,
quiz_correct_continue,57,306596,0.0-22.0-1.0,"""event"",""trial"",""time""
""fullscreenenter"",""1"",""2188""
","
","
","""event"",""trial"",""time""
""fullscreenenter"",""1"",""2188""
","
",,1256.8,<p>Good job! You're now ready to move on to the real game!</p>,,,,,,,0,,,,,,,,,,,,,,,,,,
audio-keyboard-response,58,316718,0.0-22.0-2.0,"""event"",""trial"",""time""
""fullscreenenter"",""1"",""2188""
","
","
","""event"",""trial"",""time""
""fullscreenenter"",""1"",""2188""
","
",,null,run_exp/static/audio/clip_28_real_game.m4a,null,,,,,,,,,,,,,,,,,,,,,,,,
instruc_begin_exp_contine,59,318244,0.0-22.0-3.0,"""event"",""trial"",""time""
""fullscreenenter"",""1"",""2188""
","
","
","""event"",""trial"",""time""
""fullscreenenter"",""1"",""2188""
","
",,1524.9,"<p>Now that you know how  to dig for space treasure and travel to new planets,you can start exploring! </p><p>Do you want to go over the instructions again or get started with the real game?</p>",,,,,,,1,,,,,,1,,,,,,,,,,,,
alien_welcome,60,323246,0.0-23.0-0.0,"""event"",""trial"",""time""
""fullscreenenter"",""1"",""2188""
","
","
","""event"",""trial"",""time""
""fullscreenenter"",""1"",""2188""
","
",,null,run_exp/static/images/task_images/aliens/old_aliens/planet/alien_planet-63.jpg,null,,,,,,,,,,,,,63,"63,49,57,71,17,16,54,77,46,23,8,45,39,52,38,30,28,22,27,25,62,3,55,56,12,11,1,29,13,73,58,79,59,76,37,53,6,15,50,61,24,70",,,,,,,,,,
land,61,323750,0.0-23.0-1.0,"""event"",""trial"",""time""
""fullscreenenter"",""1"",""2188""
","
","
","""event"",""trial"",""time""
""fullscreenenter"",""1"",""2188""
","
",,null,run_exp/static/images/task_images/land.jpg,null,,,,,,,98,,,1,,,,,,,,,,,,,,
dig,62,325754,0.0-23.0-2.0,"""event"",""trial"",""time""
""fullscreenenter"",""1"",""2188""
","
","
","""event"",""trial"",""time""
""fullscreenenter"",""1"",""2188""
","
",,,,,,,,,,,,"[{""stimulus"":""run_exp/static/images/task_images/dig.jpg"",""time"":0.40000009536743164},{""stimulus"":""run_exp/static/images/task_images/land.jpg"",""time"":668.5},{""stimulus"":""run_exp/static/images/task_images/dig.jpg"",""time"":1335.6000003814697}]",[],1,,,,,,,,,,,,,,
harvest,63,326756,0.0-23.0-3.0,"""event"",""trial"",""time""
""fullscreenenter"",""1"",""2188""
","
","
","""event"",""trial"",""time""
""fullscreenenter"",""1"",""2188""
","
",,null,run_exp/static/images/task_images/gems/98.jpg,null,,,,,,,15,,,1,,,,,98,0.157638172,0.153061224,,,,,,,
decision,64,327268,0.0-23.0-4.0,"""event"",""trial"",""time""
""fullscreenenter"",""1"",""2188""
","
","
","""event"",""trial"",""time""
""fullscreenenter"",""1"",""2188""
","
",,510.0999999,run_exp/static/images/task_images/land.jpg,65,,,,,,,15,,,1,,,,,,,,9024,1,0,FALSE,,,
dig,65,329759,0.0-24.0-0.0,"""event"",""trial"",""time""
""fullscreenenter"",""1"",""2188""
","
","
","""event"",""trial"",""time""
""fullscreenenter"",""1"",""2188""
","
",,,,,,,,,,,,"[{""stimulus"":""run_exp/static/images/task_images/dig.jpg"",""time"":0.19999980926513672},{""stimulus"":""run_exp/static/images/task_images/land.jpg"",""time"":830.4000000953674},{""stimulus"":""run_exp/static/images/task_images/dig.jpg"",""time"":1659.6999998092651}]",[],1,,,,,,,,,,,,,,
harvest,66,330760,0.0-24.0-1.0,"""event"",""trial"",""time""
""fullscreenenter"",""1"",""2188""
","
","
","""event"",""trial"",""time""
""fullscreenenter"",""1"",""2188""
","
",,null,run_exp/static/images/task_images/gems/15.jpg,null,,,,,,,3,,,1,,,,,15,0.232276486,0.2,,,,,,,
decision,67,331605,0.0-24.0-2.0,"""event"",""trial"",""time""
""fullscreenenter"",""1"",""2188""
","
","
","""event"",""trial"",""time""
""fullscreenenter"",""1"",""2188""
","
",,843.7000003,run_exp/static/images/task_images/land.jpg,65,,,,,,,3,,,1,,,,,,,,13360,1,1,FALSE,,,
dig,68,333763,0.0-25.0-0.0,"""event"",""trial"",""time""
""fullscreenenter"",""1"",""2188""
","
","
","""event"",""trial"",""time""
""fullscreenenter"",""1"",""2188""
","
",,,,,,,,,,,,"[{""stimulus"":""run_exp/static/images/task_images/dig.jpg"",""time"":0},{""stimulus"":""run_exp/static/images/task_images/land.jpg"",""time"":720.6000003814697},{""stimulus"":""run_exp/static/images/task_images/dig.jpg"",""time"":1437.3000001907349}]",[],1,,,,,,,,,,,,,,
harvest,69,334779,0.0-25.0-1.0,"""event"",""trial"",""time""
""fullscreenenter"",""1"",""2188""
","
","
","""event"",""trial"",""time""
""fullscreenenter"",""1"",""2188""
","
",,null,run_exp/static/images/task_images/gems/3.jpg,null,,,,,,,1,,,1,,,,,3,0.198614909,0.333333333,,,,,,,
decision,70,334884,0.0-25.0-2.0,"""event"",""trial"",""time""
""fullscreenenter"",""1"",""2188""
","
","
","""event"",""trial"",""time""
""fullscreenenter"",""1"",""2188""
","
",,104.3000002,run_exp/static/images/task_images/land.jpg,76,,,,,,,1,,,1,,,,,,,,16639,1,2,TRUE,,,
travel,71,344780,0.0-26.0-0.0,"""event"",""trial"",""time""
""fullscreenenter"",""1"",""2188""
","
","
","""event"",""trial"",""time""
""fullscreenenter"",""1"",""2188""
","
",,,,,,,,,,,,"[{""stimulus"":""run_exp/static/images/task_images/rocket-01.jpg"",""time"":0.19999980926513672},{""stimulus"":""run_exp/static/images/task_images/rocket-02.jpg"",""time"":1100.1999998092651},{""stimulus"":""run_exp/static/images/task_images/rocket-03.jpg"",""time"":2198.8999996185303},{""stimulus"":""run_exp/static/images/task_images/rocket-04.jpg"",""time"":3298.699999809265},{""stimulus"":""run_exp/static/images/task_images/rocket-05.jpg"",""time"":4397.599999904633},{""stimulus"":""run_exp/static/images/task_images/rocket-06.jpg"",""time"":5496.199999809265},{""stimulus"":""run_exp/static/images/task_images/rocket-07.jpg"",""time"":6595.5},{""stimulus"":""run_exp/static/images/task_images/rocket-08.jpg"",""time"":7694.199999809265},{""stimulus"":""run_exp/static/images/task_images/rocket-09.jpg"",""time"":8793.5}]",[],1,,,,,,,,,,,,,,
alien_welcome,72,349782,0.0-26.0-1.0,"""event"",""trial"",""time""
""fullscreenenter"",""1"",""2188""
","
","
","""event"",""trial"",""time""
""fullscreenenter"",""1"",""2188""
","
",,null,run_exp/static/images/task_images/aliens/old_aliens/planet/alien_planet-49.jpg,null,,,,,,,,,,,,,49,"63,49,57,71,17,16,54,77,46,23,8,45,39,52,38,30,28,22,27,25,62,3,55,56,12,11,1,29,13,73,58,79,59,76,37,53,6,15,50,61,24,70",,,,,,,,,,
land,73,350284,0.0-26.0-2.0,"""event"",""trial"",""time""
""fullscreenenter"",""1"",""2188""
","
","
","""event"",""trial"",""time""
""fullscreenenter"",""1"",""2188""
","
",,null,run_exp/static/images/task_images/land.jpg,null,,,,,,,94,,,2,,,,,,,,,,,,,,
dig,74,352288,0.0-26.0-3.0,"""event"",""trial"",""time""
""fullscreenenter"",""1"",""2188""
","
","
","""event"",""trial"",""time""
""fullscreenenter"",""1"",""2188""
","
",,,,,,,,,,,,"[{""stimulus"":""run_exp/static/images/task_images/dig.jpg"",""time"":0.2999997138977051},{""stimulus"":""run_exp/static/images/task_images/land.jpg"",""time"":668.5999999046326},{""stimulus"":""run_exp/static/images/task_images/dig.jpg"",""time"":1336}]",[],2,,,,,,,,,,,,,,
harvest,75,353291,0.0-26.0-4.0,"""event"",""trial"",""time""
""fullscreenenter"",""1"",""2188""
","
","
","""event"",""trial"",""time""
""fullscreenenter"",""1"",""2188""
","
",,null,run_exp/static/images/task_images/gems/94.jpg,null,,,,,,,17,,,2,,,,,94,0.177199528,0.180851064,,,,,,,
decision,76,353332,0.0-26.0-5.0,"""event"",""trial"",""time""
""fullscreenenter"",""1"",""2188""
","
","
","""event"",""trial"",""time""
""fullscreenenter"",""1"",""2188""
","
",,40.39999962,run_exp/static/images/task_images/land.jpg,65,,,,,,,17,,,2,,,,,,,,35087,1,0,FALSE,,,
dig,77,356292,0.0-27.0-0.0,"""event"",""trial"",""time""
""fullscreenenter"",""1"",""2188""
","
","
","""event"",""trial"",""time""
""fullscreenenter"",""1"",""2188""
","
",,,,,,,,,,,,"[{""stimulus"":""run_exp/static/images/task_images/dig.jpg"",""time"":0.10000038146972656},{""stimulus"":""run_exp/static/images/task_images/land.jpg"",""time"":987.1000003814697},{""stimulus"":""run_exp/static/images/task_images/dig.jpg"",""time"":1973.1000003814697}]",[],2,,,,,,,,,,,,,,
harvest,78,357294,0.0-27.0-1.0,"""event"",""trial"",""time""
""fullscreenenter"",""1"",""2188""
","
","
","""event"",""trial"",""time""
""fullscreenenter"",""1"",""2188""
","
",,null,run_exp/static/images/task_images/gems/17.jpg,null,,,,,,,4,,,2,,,,,17,0.210100906,0.235294118,,,,,,,
decision,79,357396,0.0-27.0-2.0,"""event"",""trial"",""time""
""fullscreenenter"",""1"",""2188""
","
","
","""event"",""trial"",""time""
""fullscreenenter"",""1"",""2188""
","
",,100.5999999,run_exp/static/images/task_images/land.jpg,65,,,,,,,4,,,2,,,,,,,,39151,1,1,FALSE,,,
dig,80,360297,0.0-28.0-0.0,"""event"",""trial"",""time""
""fullscreenenter"",""1"",""2188""
","
","
","""event"",""trial"",""time""
""fullscreenenter"",""1"",""2188""
","
",,,,,,,,,,,,"[{""stimulus"":""run_exp/static/images/task_images/dig.jpg"",""time"":0.10000038146972656},{""stimulus"":""run_exp/static/images/task_images/land.jpg"",""time"":968.2000002861023},{""stimulus"":""run_exp/static/images/task_images/dig.jpg"",""time"":1933.7000002861023}]",[],2,,,,,,,,,,,,,,
harvest,81,361298,0.0-28.0-1.0,"""event"",""trial"",""time""
""fullscreenenter"",""1"",""2188""
","
","
","""event"",""trial"",""time""
""fullscreenenter"",""1"",""2188""
","
",,null,run_exp/static/images/task_images/gems/4.jpg,null,,,,,,,1,,,2,,,,,4,0.219884218,0.25,,,,,,,
decision,82,361331,0.0-28.0-2.0,"""event"",""trial"",""time""
""fullscreenenter"",""1"",""2188""
","
","
","""event"",""trial"",""time""
""fullscreenenter"",""1"",""2188""
","
",,32.69999981,run_exp/static/images/task_images/land.jpg,76,,,,,,,1,,,2,,,,,,,,43086,1,2,TRUE,,,
travel,83,371297,0.0-29.0-0.0,"""event"",""trial"",""time""
""fullscreenenter"",""1"",""2188""
","
","
","""event"",""trial"",""time""
""fullscreenenter"",""1"",""2188""
","
",,,,,,,,,,,,"[{""stimulus"":""run_exp/static/images/task_images/rocket-01.jpg"",""time"":0.09999990463256836},{""stimulus"":""run_exp/static/images/task_images/rocket-02.jpg"",""time"":1107.7000002861023},{""stimulus"":""run_exp/static/images/task_images/rocket-03.jpg"",""time"":2215.4000000953674},{""stimulus"":""run_exp/static/images/task_images/rocket-04.jpg"",""time"":3322.9000000953674},{""stimulus"":""run_exp/static/images/task_images/rocket-05.jpg"",""time"":4429.099999904633},{""stimulus"":""run_exp/static/images/task_images/rocket-06.jpg"",""time"":5536.099999904633},{""stimulus"":""run_exp/static/images/task_images/rocket-07.jpg"",""time"":6644.099999904633},{""stimulus"":""run_exp/static/images/task_images/rocket-08.jpg"",""time"":7750.300000190735},{""stimulus"":""run_exp/static/images/task_images/rocket-09.jpg"",""time"":8857.5}]",[],2,,,,,,,,,,,,,,
alien_welcome,84,376308,0.0-29.0-1.0,"""event"",""trial"",""time""
""fullscreenenter"",""1"",""2188""
","
","
","""event"",""trial"",""time""
""fullscreenenter"",""1"",""2188""
","
",,null,run_exp/static/images/task_images/aliens/old_aliens/planet/alien_planet-57.jpg,null,,,,,,,,,,,,,57,"63,49,57,71,17,16,54,77,46,23,8,45,39,52,38,30,28,22,27,25,62,3,55,56,12,11,1,29,13,73,58,79,59,76,37,53,6,15,50,61,24,70",,,,,,,,,,
land,85,376810,0.0-29.0-2.0,"""event"",""trial"",""time""
""fullscreenenter"",""1"",""2188""
","
","
","""event"",""trial"",""time""
""fullscreenenter"",""1"",""2188""
","
",,null,run_exp/static/images/task_images/land.jpg,null,,,,,,,96,,,3,,,,,,,,,,,,,,
dig,86,378814,0.0-29.0-3.0,"""event"",""trial"",""time""
""fullscreenenter"",""1"",""2188""
","
","
","""event"",""trial"",""time""
""fullscreenenter"",""1"",""2188""
","
",,,,,,,,,,,,"[{""stimulus"":""run_exp/static/images/task_images/dig.jpg"",""time"":0.3000001907348633},{""stimulus"":""run_exp/static/images/task_images/land.jpg"",""time"":668.5999999046326},{""stimulus"":""run_exp/static/images/task_images/dig.jpg"",""time"":1336.4000000953674}]",[],3,,,,,,,,,,,,,,
harvest,87,379816,0.0-29.0-4.0,"""event"",""trial"",""time""
""fullscreenenter"",""1"",""2188""
","
","
","""event"",""trial"",""time""
""fullscreenenter"",""1"",""2188""
","
",,null,run_exp/static/images/task_images/gems/96.jpg,null,,,,,,,46,,,3,,,,,96,0.48250927,0.479166667,,,,,,,
decision,88,379861,0.0-29.0-5.0,"""event"",""trial"",""time""
""fullscreenenter"",""1"",""2188""
","
","
","""event"",""trial"",""time""
""fullscreenenter"",""1"",""2188""
","
",,43.0999999,run_exp/static/images/task_images/land.jpg,65,,,,,,,46,,,3,,,,,,,,61616,1,0,FALSE,,,
dig,89,382819,0.0-30.0-0.0,"""event"",""trial"",""time""
""fullscreenenter"",""1"",""2188""
","
","
","""event"",""trial"",""time""
""fullscreenenter"",""1"",""2188""
","
",,,,,,,,,,,,"[{""stimulus"":""run_exp/static/images/task_images/dig.jpg"",""time"":0.20000028610229492},{""stimulus"":""run_exp/static/images/task_images/land.jpg"",""time"":986.8000001907349},{""stimulus"":""run_exp/static/images/task_images/dig.jpg"",""time"":1971.2000002861023}]",[],3,,,,,,,,,,,,,,
harvest,90,383821,0.0-30.0-1.0,"""event"",""trial"",""time""
""fullscreenenter"",""1"",""2188""
","
","
","""event"",""trial"",""time""
""fullscreenenter"",""1"",""2188""
","
",,null,run_exp/static/images/task_images/gems/46.jpg,null,,,,,,,24,,,3,,,,,46,0.520129847,0.52173913,,,,,,,
decision,91,383924,0.0-30.0-2.0,"""event"",""trial"",""time""
""fullscreenenter"",""1"",""2188""
","
","
","""event"",""trial"",""time""
""fullscreenenter"",""1"",""2188""
","
",,101.5,run_exp/static/images/task_images/land.jpg,65,,,,,,,24,,,3,,,,,,,,65679,1,1,FALSE,,,
dig,92,386826,0.0-31.0-0.0,"""event"",""trial"",""time""
""fullscreenenter"",""1"",""2188""
","
","
","""event"",""trial"",""time""
""fullscreenenter"",""1"",""2188""
","
",,,,,,,,,,,,"[{""stimulus"":""run_exp/static/images/task_images/dig.jpg"",""time"":0.19999980926513672},{""stimulus"":""run_exp/static/images/task_images/land.jpg"",""time"":968.9000000953674},{""stimulus"":""run_exp/static/images/task_images/dig.jpg"",""time"":1933.2999997138977}]",[],3,,,,,,,,,,,,,,
harvest,93,387840,0.0-31.0-1.0,"""event"",""trial"",""time""
""fullscreenenter"",""1"",""2188""
","
","
","""event"",""trial"",""time""
""fullscreenenter"",""1"",""2188""
","
",,null,run_exp/static/images/task_images/gems/24.jpg,null,,,,,,,12,,,3,,,,,24,0.492054789,0.5,,,,,,,
decision,94,387844,0.0-31.0-2.0,"""event"",""trial"",""time""
""fullscreenenter"",""1"",""2188""
","
","
","""event"",""trial"",""time""
""fullscreenenter"",""1"",""2188""
","
",,2.099999905,run_exp/static/images/task_images/land.jpg,65,,,,,,,12,,,3,,,,,,,,69599,1,2,FALSE,,,
dig,95,390846,0.0-32.0-0.0,"""event"",""trial"",""time""
""fullscreenenter"",""1"",""2188""
","
","
","""event"",""trial"",""time""
""fullscreenenter"",""1"",""2188""
","
",,,,,,,,,,,,"[{""stimulus"":""run_exp/static/images/task_images/dig.jpg"",""time"":0.10000038146972656},{""stimulus"":""run_exp/static/images/task_images/land.jpg"",""time"":1000.5},{""stimulus"":""run_exp/static/images/task_images/dig.jpg"",""time"":1999.8000001907349}]",[],3,,,,,,,,,,,,,,
harvest,96,391848,0.0-32.0-1.0,"""event"",""trial"",""time""
""fullscreenenter"",""1"",""2188""
","
","
","""event"",""trial"",""time""
""fullscreenenter"",""1"",""2188""
","
",,null,run_exp/static/images/task_images/gems/12.jpg,null,,,,,,,6,,,3,,,,,12,0.510212528,0.5,,,,,,,
decision,97,392309,0.0-32.0-2.0,"""event"",""trial"",""time""
""fullscreenenter"",""1"",""2188""
","
","
","""event"",""trial"",""time""
""fullscreenenter"",""1"",""2188""
","
",,459.2999997,run_exp/static/images/task_images/land.jpg,76,,,,,,,6,,,3,,,,,,,,74064,1,3,TRUE,,,
travel,98,401852,0.0-33.0-0.0,"""event"",""trial"",""time""
""fullscreenenter"",""1"",""2188""
","
","
","""event"",""trial"",""time""
""fullscreenenter"",""1"",""2188""
","
",,,,,,,,,,,,"[{""stimulus"":""run_exp/static/images/task_images/rocket-01.jpg"",""time"":0.19999980926513672},{""stimulus"":""run_exp/static/images/task_images/rocket-02.jpg"",""time"":1061.5},{""stimulus"":""run_exp/static/images/task_images/rocket-03.jpg"",""time"":2122.5},{""stimulus"":""run_exp/static/images/task_images/rocket-04.jpg"",""time"":3181.5},{""stimulus"":""run_exp/static/images/task_images/rocket-05.jpg"",""time"":4241.699999809265},{""stimulus"":""run_exp/static/images/task_images/rocket-06.jpg"",""time"":5301.5},{""stimulus"":""run_exp/static/images/task_images/rocket-07.jpg"",""time"":6361},{""stimulus"":""run_exp/static/images/task_images/rocket-08.jpg"",""time"":7421.900000095367},{""stimulus"":""run_exp/static/images/task_images/rocket-09.jpg"",""time"":8480.599999904633}]",[],3,,,,,,,,,,,,,,
alien_welcome,99,406855,0.0-33.0-1.0,"""event"",""trial"",""time""
""fullscreenenter"",""1"",""2188""
","
","
","""event"",""trial"",""time""
""fullscreenenter"",""1"",""2188""
","
",,null,run_exp/static/images/task_images/aliens/old_aliens/planet/alien_planet-71.jpg,null,,,,,,,,,,,,,71,"63,49,57,71,17,16,54,77,46,23,8,45,39,52,38,30,28,22,27,25,62,3,55,56,12,11,1,29,13,73,58,79,59,76,37,53,6,15,50,61,24,70",,,,,,,,,,
land,100,407357,0.0-33.0-2.0,"""event"",""trial"",""time""
""fullscreenenter"",""1"",""2188""
","
","
","""event"",""trial"",""time""
""fullscreenenter"",""1"",""2188""
","
",,null,run_exp/static/images/task_images/land.jpg,null,,,,,,,103,,,4,,,,,,,,,,,,,,
dig,101,409361,0.0-33.0-3.0,"""event"",""trial"",""time""
""fullscreenenter"",""1"",""2188""
","
","
","""event"",""trial"",""time""
""fullscreenenter"",""1"",""2188""
","
",,,,,,,,,,,,"[{""stimulus"":""run_exp/static/images/task_images/dig.jpg"",""time"":0.3000001907348633},{""stimulus"":""run_exp/static/images/task_images/land.jpg"",""time"":668.3000001907349},{""stimulus"":""run_exp/static/images/task_images/dig.jpg"",""time"":1335.7000002861023}]",[],4,,,,,,,,,,,,,,
harvest,102,410363,0.0-33.0-4.0,"""event"",""trial"",""time""
""fullscreenenter"",""1"",""2188""
","
","
","""event"",""trial"",""time""
""fullscreenenter"",""1"",""2188""
","
",,null,run_exp/static/images/task_images/gems/103.jpg,null,,,,,,,54,,,4,,,,,103,0.525415377,0.524271845,,,,,,,
decision,103,411093,0.0-33.0-5.0,"""event"",""trial"",""time""
""fullscreenenter"",""1"",""2188""
","
","
","""event"",""trial"",""time""
""fullscreenenter"",""1"",""2188""
","
",,728.6000004,run_exp/static/images/task_images/land.jpg,65,,,,,,,54,,,4,,,,,,,,92848,1,0,FALSE,,,
dig,104,413367,0.0-34.0-0.0,"""event"",""trial"",""time""
""fullscreenenter"",""1"",""2188""
","
","
","""event"",""trial"",""time""
""fullscreenenter"",""1"",""2188""
","
",,,,,,,,,,,,"[{""stimulus"":""run_exp/static/images/task_images/dig.jpg"",""time"":0.19999980926513672},{""stimulus"":""run_exp/static/images/task_images/land.jpg"",""time"":758.5},{""stimulus"":""run_exp/static/images/task_images/dig.jpg"",""time"":1515.5}]",[],4,,,,,,,,,,,,,,
harvest,105,414380,0.0-34.0-1.0,"""event"",""trial"",""time""
""fullscreenenter"",""1"",""2188""
","
","
","""event"",""trial"",""time""
""fullscreenenter"",""1"",""2188""
","
",,null,run_exp/static/images/task_images/gems/54.jpg,null,,,,,,,30,,,4,,,,,54,0.54716777,0.555555556,,,,,,,
decision,106,415108,0.0-34.0-2.0,"""event"",""trial"",""time""
""fullscreenenter"",""1"",""2188""
","
","
","""event"",""trial"",""time""
""fullscreenenter"",""1"",""2188""
","
",,726.8000002,run_exp/static/images/task_images/land.jpg,65,,,,,,,30,,,4,,,,,,,,96863,1,1,FALSE,,,
dig,107,417384,0.0-35.0-0.0,"""event"",""trial"",""time""
""fullscreenenter"",""1"",""2188""
","
","
","""event"",""trial"",""time""
""fullscreenenter"",""1"",""2188""
","
",,,,,,,,,,,,"[{""stimulus"":""run_exp/static/images/task_images/dig.jpg"",""time"":0.19999980926513672},{""stimulus"":""run_exp/static/images/task_images/land.jpg"",""time"":758.5999999046326},{""stimulus"":""run_exp/static/images/task_images/dig.jpg"",""time"":1516.0999999046326}]",[],4,,,,,,,,,,,,,,
harvest,108,418385,0.0-35.0-1.0,"""event"",""trial"",""time""
""fullscreenenter"",""1"",""2188""
","
","
","""event"",""trial"",""time""
""fullscreenenter"",""1"",""2188""
","
",,null,run_exp/static/images/task_images/gems/30.jpg,null,,,,,,,16,,,4,,,,,30,0.534113193,0.533333333,,,,,,,
decision,109,419188,0.0-35.0-2.0,"""event"",""trial"",""time""
""fullscreenenter"",""1"",""2188""
","
","
","""event"",""trial"",""time""
""fullscreenenter"",""1"",""2188""
","
",,801.3000002,run_exp/static/images/task_images/land.jpg,65,,,,,,,16,,,4,,,,,,,,100943,1,2,FALSE,,,
dig,110,421393,0.0-36.0-0.0,"""event"",""trial"",""time""
""fullscreenenter"",""1"",""2188""
","
","
","""event"",""trial"",""time""
""fullscreenenter"",""1"",""2188""
","
",,,,,,,,,,,,"[{""stimulus"":""run_exp/static/images/task_images/dig.jpg"",""time"":0.3000001907348633},{""stimulus"":""run_exp/static/images/task_images/land.jpg"",""time"":733.4000000953674},{""stimulus"":""run_exp/static/images/task_images/dig.jpg"",""time"":1467}]",[],4,,,,,,,,,,,,,,
harvest,111,422395,0.0-36.0-1.0,"""event"",""trial"",""time""
""fullscreenenter"",""1"",""2188""
","
","
","""event"",""trial"",""time""
""fullscreenenter"",""1"",""2188""
","
",,null,run_exp/static/images/task_images/gems/16.jpg,null,,,,,,,8,,,4,,,,,16,0.494034299,0.5,,,,,,,
decision,112,422948,0.0-36.0-2.0,"""event"",""trial"",""time""
""fullscreenenter"",""1"",""2188""
","
","
","""event"",""trial"",""time""
""fullscreenenter"",""1"",""2188""
","
",,552.8000002,run_exp/static/images/task_images/land.jpg,76,,,,,,,8,,,4,,,,,,,,104704,1,3,TRUE,,,
travel,113,432394,0.0-37.0-0.0,"""event"",""trial"",""time""
""fullscreenenter"",""1"",""2188""
","
","
","""event"",""trial"",""time""
""fullscreenenter"",""1"",""2188""
","
",,,,,,,,,,,,"[{""stimulus"":""run_exp/static/images/task_images/rocket-01.jpg"",""time"":0.3000001907348633},{""stimulus"":""run_exp/static/images/task_images/rocket-02.jpg"",""time"":1050.3000001907349},{""stimulus"":""run_exp/static/images/task_images/rocket-03.jpg"",""time"":2099.800000190735},{""stimulus"":""run_exp/static/images/task_images/rocket-04.jpg"",""time"":3149.0999999046326},{""stimulus"":""run_exp/static/images/task_images/rocket-05.jpg"",""time"":4198.300000190735},{""stimulus"":""run_exp/static/images/task_images/rocket-06.jpg"",""time"":5246.300000190735},{""stimulus"":""run_exp/static/images/task_images/rocket-07.jpg"",""time"":6296.099999904633},{""stimulus"":""run_exp/static/images/task_images/rocket-08.jpg"",""time"":7344.800000190735},{""stimulus"":""run_exp/static/images/task_images/rocket-09.jpg"",""time"":8393.699999809265}]",[],4,,,,,,,,,,,,,,
alien_welcome,114,437395,0.0-37.0-1.0,"""event"",""trial"",""time""
""fullscreenenter"",""1"",""2188""
","
","
","""event"",""trial"",""time""
""fullscreenenter"",""1"",""2188""
","
",,null,run_exp/static/images/task_images/aliens/old_aliens/planet/alien_planet-17.jpg,null,,,,,,,,,,,,,17,"63,49,57,71,17,16,54,77,46,23,8,45,39,52,38,30,28,22,27,25,62,3,55,56,12,11,1,29,13,73,58,79,59,76,37,53,6,15,50,61,24,70",,,,,,,,,,
land,115,437899,0.0-37.0-2.0,"""event"",""trial"",""time""
""fullscreenenter"",""1"",""2188""
","
","
","""event"",""trial"",""time""
""fullscreenenter"",""1"",""2188""
","
",,null,run_exp/static/images/task_images/land.jpg,null,,,,,,,95,,,5,,,,,,,,,,,,,,
dig,116,439903,0.0-37.0-3.0,"""event"",""trial"",""time""
""fullscreenenter"",""1"",""2188""
","
","
","""event"",""trial"",""time""
""fullscreenenter"",""1"",""2188""
","
",,,,,,,,,,,,"[{""stimulus"":""run_exp/static/images/task_images/dig.jpg"",""time"":0.3000001907348633},{""stimulus"":""run_exp/static/images/task_images/land.jpg"",""time"":669.3000001907349},{""stimulus"":""run_exp/static/images/task_images/dig.jpg"",""time"":1335.7000002861023}]",[],5,,,,,,,,,,,,,,
harvest,117,440905,0.0-37.0-4.0,"""event"",""trial"",""time""
""fullscreenenter"",""1"",""2188""
","
","
","""event"",""trial"",""time""
""fullscreenenter"",""1"",""2188""
","
",,null,run_exp/static/images/task_images/gems/95.jpg,null,,,,,,,44,,,5,,,,,95,0.466695994,0.463157895,,,,,,,
decision,118,441317,0.0-37.0-5.0,"""event"",""trial"",""time""
""fullscreenenter"",""1"",""2188""
","
","
","""event"",""trial"",""time""
""fullscreenenter"",""1"",""2188""
","
",,410.2000003,run_exp/static/images/task_images/land.jpg,65,,,,,,,44,,,5,,,,,,,,123072,1,0,FALSE,,,
dig,119,443910,0.0-38.0-0.0,"""event"",""trial"",""time""
""fullscreenenter"",""1"",""2188""
","
","
","""event"",""trial"",""time""
""fullscreenenter"",""1"",""2188""
","
",,,,,,,,,,,,"[{""stimulus"":""run_exp/static/images/task_images/dig.jpg"",""time"":0.09999990463256836},{""stimulus"":""run_exp/static/images/task_images/land.jpg"",""time"":864.6999998092651},{""stimulus"":""run_exp/static/images/task_images/dig.jpg"",""time"":1728.4000000953674}]",[],5,,,,,,,,,,,,,,
harvest,120,444911,0.0-38.0-1.0,"""event"",""trial"",""time""
""fullscreenenter"",""1"",""2188""
","
","
","""event"",""trial"",""time""
""fullscreenenter"",""1"",""2188""
","
",,null,run_exp/static/images/task_images/gems/44.jpg,null,,,,,,,20,,,5,,,,,44,0.465488106,0.454545455,,,,,,,
decision,121,446069,0.0-38.0-2.0,"""event"",""trial"",""time""
""fullscreenenter"",""1"",""2188""
","
","
","""event"",""trial"",""time""
""fullscreenenter"",""1"",""2188""
","
",,1155.7,run_exp/static/images/task_images/land.jpg,65,,,,,,,20,,,5,,,,,,,,127824,1,1,FALSE,,,
dig,122,447914,0.0-39.0-0.0,"""event"",""trial"",""time""
""fullscreenenter"",""1"",""2188""
","
","
","""event"",""trial"",""time""
""fullscreenenter"",""1"",""2188""
","
",,,,,,,,,,,,"[{""stimulus"":""run_exp/static/images/task_images/dig.jpg"",""time"":0.19999980926513672},{""stimulus"":""run_exp/static/images/task_images/land.jpg"",""time"":616.0999999046326},{""stimulus"":""run_exp/static/images/task_images/dig.jpg"",""time"":1228.5999999046326}]",[],5,,,,,,,,,,,,,,
harvest,123,448917,0.0-39.0-1.0,"""event"",""trial"",""time""
""fullscreenenter"",""1"",""2188""
","
","
","""event"",""trial"",""time""
""fullscreenenter"",""1"",""2188""
","
",,null,run_exp/static/images/task_images/gems/20.jpg,null,,,,,,,11,,,5,,,,,20,0.539272638,0.55,,,,,,,
decision,124,449300,0.0-39.0-2.0,"""event"",""trial"",""time""
""fullscreenenter"",""1"",""2188""
","
","
","""event"",""trial"",""time""
""fullscreenenter"",""1"",""2188""
","
",,382.3000002,run_exp/static/images/task_images/land.jpg,76,,,,,,,11,,,5,,,,,,,,131056,1,2,TRUE,,,
travel,125,458917,0.0-40.0-0.0,"""event"",""trial"",""time""
""fullscreenenter"",""1"",""2188""
","
","
","""event"",""trial"",""time""
""fullscreenenter"",""1"",""2188""
","
",,,,,,,,,,,,"[{""stimulus"":""run_exp/static/images/task_images/rocket-01.jpg"",""time"":0.09999990463256836},{""stimulus"":""run_exp/static/images/task_images/rocket-02.jpg"",""time"":1069.6999998092651},{""stimulus"":""run_exp/static/images/task_images/rocket-03.jpg"",""time"":2136.8999996185303},{""stimulus"":""run_exp/static/images/task_images/rocket-04.jpg"",""time"":3205.5},{""stimulus"":""run_exp/static/images/task_images/rocket-05.jpg"",""time"":4273.599999904633},{""stimulus"":""run_exp/static/images/task_images/rocket-06.jpg"",""time"":5340.599999904633},{""stimulus"":""run_exp/static/images/task_images/rocket-07.jpg"",""time"":6408.89999961853},{""stimulus"":""run_exp/static/images/task_images/rocket-08.jpg"",""time"":7477.5},{""stimulus"":""run_exp/static/images/task_images/rocket-09.jpg"",""time"":8545.099999904633}]",[],5,,,,,,,,,,,,,,
alien_welcome,126,463919,0.0-40.0-1.0,"""event"",""trial"",""time""
""fullscreenenter"",""1"",""2188""
","
","
","""event"",""trial"",""time""
""fullscreenenter"",""1"",""2188""
","
",,null,run_exp/static/images/task_images/aliens/old_aliens/planet/alien_planet-16.jpg,null,,,,,,,,,,,,,16,"63,49,57,71,17,16,54,77,46,23,8,45,39,52,38,30,28,22,27,25,62,3,55,56,12,11,1,29,13,73,58,79,59,76,37,53,6,15,50,61,24,70",,,,,,,,,,
land,127,464421,0.0-40.0-2.0,"""event"",""trial"",""time""
""fullscreenenter"",""1"",""2188""
","
","
","""event"",""trial"",""time""
""fullscreenenter"",""1"",""2188""
","
",,null,run_exp/static/images/task_images/land.jpg,null,,,,,,,94,,,6,,,,,,,,,,,,,,
dig,128,466424,0.0-40.0-3.0,"""event"",""trial"",""time""
""fullscreenenter"",""1"",""2188""
","
","
","""event"",""trial"",""time""
""fullscreenenter"",""1"",""2188""
","
",,,,,,,,,,,,"[{""stimulus"":""run_exp/static/images/task_images/dig.jpg"",""time"":0.09999990463256836},{""stimulus"":""run_exp/static/images/task_images/land.jpg"",""time"":668.7999997138977},{""stimulus"":""run_exp/static/images/task_images/dig.jpg"",""time"":1335.5999999046326}]",[],6,,,,,,,,,,,,,,
harvest,129,467439,0.0-40.0-4.0,"""event"",""trial"",""time""
""fullscreenenter"",""1"",""2188""
","
","
","""event"",""trial"",""time""
""fullscreenenter"",""1"",""2188""
","
",,null,run_exp/static/images/task_images/gems/94.jpg,null,,,,,,,77,,,6,,,,,94,0.824205953,0.819148936,,,,,,,
decision,130,467588,0.0-40.0-5.0,"""event"",""trial"",""time""
""fullscreenenter"",""1"",""2188""
","
","
","""event"",""trial"",""time""
""fullscreenenter"",""1"",""2188""
","
",,148,run_exp/static/images/task_images/land.jpg,65,,,,,,,77,,,6,,,,,,,,149343,1,0,FALSE,,,
dig,131,470441,0.0-41.0-0.0,"""event"",""trial"",""time""
""fullscreenenter"",""1"",""2188""
","
","
","""event"",""trial"",""time""
""fullscreenenter"",""1"",""2188""
","
",,,,,,,,,,,,"[{""stimulus"":""run_exp/static/images/task_images/dig.jpg"",""time"":0.19999980926513672},{""stimulus"":""run_exp/static/images/task_images/land.jpg"",""time"":951.0999999046326},{""stimulus"":""run_exp/static/images/task_images/dig.jpg"",""time"":1901.5999999046326}]",[],6,,,,,,,,,,,,,,
harvest,132,471443,0.0-41.0-1.0,"""event"",""trial"",""time""
""fullscreenenter"",""1"",""2188""
","
","
","""event"",""trial"",""time""
""fullscreenenter"",""1"",""2188""
","
",,null,run_exp/static/images/task_images/gems/77.jpg,null,,,,,,,63,,,6,,,,,77,0.815163579,0.818181818,,,,,,,
decision,133,472213,0.0-41.0-2.0,"""event"",""trial"",""time""
""fullscreenenter"",""1"",""2188""
","
","
","""event"",""trial"",""time""
""fullscreenenter"",""1"",""2188""
","
",,768.3000002,run_exp/static/images/task_images/land.jpg,65,,,,,,,63,,,6,,,,,,,,153968,1,1,FALSE,,,
dig,134,474445,0.0-42.0-0.0,"""event"",""trial"",""time""
""fullscreenenter"",""1"",""2188""
","
","
","""event"",""trial"",""time""
""fullscreenenter"",""1"",""2188""
","
",,,,,,,,,,,,"[{""stimulus"":""run_exp/static/images/task_images/dig.jpg"",""time"":0.09999990463256836},{""stimulus"":""run_exp/static/images/task_images/land.jpg"",""time"":744.5999999046326},{""stimulus"":""run_exp/static/images/task_images/dig.jpg"",""time"":1487.4000000953674}]",[],6,,,,,,,,,,,,,,
harvest,135,475447,0.0-42.0-1.0,"""event"",""trial"",""time""
""fullscreenenter"",""1"",""2188""
","
","
","""event"",""trial"",""time""
""fullscreenenter"",""1"",""2188""
","
",,null,run_exp/static/images/task_images/gems/63.jpg,null,,,,,,,55,,,6,,,,,63,0.866973466,0.873015873,,,,,,,
decision,136,475813,0.0-42.0-2.0,"""event"",""trial"",""time""
""fullscreenenter"",""1"",""2188""
","
","
","""event"",""trial"",""time""
""fullscreenenter"",""1"",""2188""
","
",,364.8000002,run_exp/static/images/task_images/land.jpg,65,,,,,,,55,,,6,,,,,,,,157568,1,2,FALSE,,,
dig,137,478450,0.0-43.0-0.0,"""event"",""trial"",""time""
""fullscreenenter"",""1"",""2188""
","
","
","""event"",""trial"",""time""
""fullscreenenter"",""1"",""2188""
","
",,,,,,,,,,,,"[{""stimulus"":""run_exp/static/images/task_images/dig.jpg"",""time"":0.19999980926513672},{""stimulus"":""run_exp/static/images/task_images/land.jpg"",""time"":880.2999997138977},{""stimulus"":""run_exp/static/images/task_images/dig.jpg"",""time"":1757.5999999046326}]",[],6,,,,,,,,,,,,,,
harvest,138,479452,0.0-43.0-1.0,"""event"",""trial"",""time""
""fullscreenenter"",""1"",""2188""
","
","
","""event"",""trial"",""time""
""fullscreenenter"",""1"",""2188""
","
",,null,run_exp/static/images/task_images/gems/55.jpg,null,,,,,,,43,,,6,,,,,55,0.784897395,0.781818182,,,,,,,
decision,139,479828,0.0-43.0-2.0,"""event"",""trial"",""time""
""fullscreenenter"",""1"",""2188""
","
","
","""event"",""trial"",""time""
""fullscreenenter"",""1"",""2188""
","
",,375.3000002,run_exp/static/images/task_images/land.jpg,65,,,,,,,43,,,6,,,,,,,,161583,1,3,FALSE,,,
dig,140,482452,0.0-44.0-0.0,"""event"",""trial"",""time""
""fullscreenenter"",""1"",""2188""
","
","
","""event"",""trial"",""time""
""fullscreenenter"",""1"",""2188""
","
",,,,,,,,,,,,"[{""stimulus"":""run_exp/static/images/task_images/dig.jpg"",""time"":0.09999990463256836},{""stimulus"":""run_exp/static/images/task_images/land.jpg"",""time"":875.0999999046326},{""stimulus"":""run_exp/static/images/task_images/dig.jpg"",""time"":1760.7999997138977}]",[],6,,,,,,,,,,,,,,
harvest,141,483454,0.0-44.0-1.0,"""event"",""trial"",""time""
""fullscreenenter"",""1"",""2188""
","
","
","""event"",""trial"",""time""
""fullscreenenter"",""1"",""2188""
","
",,null,run_exp/static/images/task_images/gems/43.jpg,null,,,,,,,36,,,6,,,,,43,0.846954154,0.837209302,,,,,,,
decision,142,483988,0.0-44.0-2.0,"""event"",""trial"",""time""
""fullscreenenter"",""1"",""2188""
","
","
","""event"",""trial"",""time""
""fullscreenenter"",""1"",""2188""
","
",,533.7999997,run_exp/static/images/task_images/land.jpg,65,,,,,,,36,,,6,,,,,,,,165743,1,4,FALSE,,,
dig,143,486459,0.0-45.0-0.0,"""event"",""trial"",""time""
""fullscreenenter"",""1"",""2188""
","
","
","""event"",""trial"",""time""
""fullscreenenter"",""1"",""2188""
","
",,,,,,,,,,,,"[{""stimulus"":""run_exp/static/images/task_images/dig.jpg"",""time"":0},{""stimulus"":""run_exp/static/images/task_images/land.jpg"",""time"":822.8000001907349},{""stimulus"":""run_exp/static/images/task_images/dig.jpg"",""time"":1645.1999998092651}]",[],6,,,,,,,,,,,,,,
harvest,144,487469,0.0-45.0-1.0,"""event"",""trial"",""time""
""fullscreenenter"",""1"",""2188""
","
","
","""event"",""trial"",""time""
""fullscreenenter"",""1"",""2188""
","
",,null,run_exp/static/images/task_images/gems/36.jpg,null,,,,,,,29,,,6,,,,,36,0.810806663,0.805555556,,,,,,,
decision,145,487605,0.0-45.0-2.0,"""event"",""trial"",""time""
""fullscreenenter"",""1"",""2188""
","
","
","""event"",""trial"",""time""
""fullscreenenter"",""1"",""2188""
","
",,135,run_exp/static/images/task_images/land.jpg,65,,,,,,,29,,,6,,,,,,,,169360,1,5,FALSE,,,
dig,146,490474,0.0-46.0-0.0,"""event"",""trial"",""time""
""fullscreenenter"",""1"",""2188""
","
","
","""event"",""trial"",""time""
""fullscreenenter"",""1"",""2188""
","
",,,,,,,,,,,,"[{""stimulus"":""run_exp/static/images/task_images/dig.jpg"",""time"":0.19999980926513672},{""stimulus"":""run_exp/static/images/task_images/land.jpg"",""time"":956.7999997138977},{""stimulus"":""run_exp/static/images/task_images/dig.jpg"",""time"":1911.6999998092651}]",[],6,,,,,,,,,,,,,,
harvest,147,491475,0.0-46.0-1.0,"""event"",""trial"",""time""
""fullscreenenter"",""1"",""2188""
","
","
","""event"",""trial"",""time""
""fullscreenenter"",""1"",""2188""
","
",,null,run_exp/static/images/task_images/gems/29.jpg,null,,,,,,,26,,,6,,,,,29,0.888628129,0.896551724,,,,,,,
decision,148,491748,0.0-46.0-2.0,"""event"",""trial"",""time""
""fullscreenenter"",""1"",""2188""
","
","
","""event"",""trial"",""time""
""fullscreenenter"",""1"",""2188""
","
",,271.5,run_exp/static/images/task_images/land.jpg,65,,,,,,,26,,,6,,,,,,,,173503,1,6,FALSE,,,
dig,149,494479,0.0-47.0-0.0,"""event"",""trial"",""time""
""fullscreenenter"",""1"",""2188""
","
","
","""event"",""trial"",""time""
""fullscreenenter"",""1"",""2188""
","
",,,,,,,,,,,,"[{""stimulus"":""run_exp/static/images/task_images/dig.jpg"",""time"":0},{""stimulus"":""run_exp/static/images/task_images/land.jpg"",""time"":910.8000001907349},{""stimulus"":""run_exp/static/images/task_images/dig.jpg"",""time"":1819.7000002861023}]",[],6,,,,,,,,,,,,,,
harvest,150,495481,0.0-47.0-1.0,"""event"",""trial"",""time""
""fullscreenenter"",""1"",""2188""
","
","
","""event"",""trial"",""time""
""fullscreenenter"",""1"",""2188""
","
",,null,run_exp/static/images/task_images/gems/26.jpg,null,,,,,,,22,,,6,,,,,26,0.854784817,0.846153846,,,,,,,
decision,151,496037,0.0-47.0-2.0,"""event"",""trial"",""time""
""fullscreenenter"",""1"",""2188""
","
","
","""event"",""trial"",""time""
""fullscreenenter"",""1"",""2188""
","
",,554.5999999,run_exp/static/images/task_images/land.jpg,65,,,,,,,22,,,6,,,,,,,,177792,1,7,FALSE,,,
dig,152,498488,0.0-48.0-0.0,"""event"",""trial"",""time""
""fullscreenenter"",""1"",""2188""
","
","
","""event"",""trial"",""time""
""fullscreenenter"",""1"",""2188""
","
",,,,,,,,,,,,"[{""stimulus"":""run_exp/static/images/task_images/dig.jpg"",""time"":0.09999990463256836},{""stimulus"":""run_exp/static/images/task_images/land.jpg"",""time"":817.3000001907349},{""stimulus"":""run_exp/static/images/task_images/dig.jpg"",""time"":1631.9000000953674}]",[],6,,,,,,,,,,,,,,
harvest,153,499498,0.0-48.0-1.0,"""event"",""trial"",""time""
""fullscreenenter"",""1"",""2188""
","
","
","""event"",""trial"",""time""
""fullscreenenter"",""1"",""2188""
","
",,null,run_exp/static/images/task_images/gems/22.jpg,null,,,,,,,14,,,6,,,,,22,0.649333019,0.636363636,,,,,,,
decision,154,500308,0.0-48.0-2.0,"""event"",""trial"",""time""
""fullscreenenter"",""1"",""2188""
","
","
","""event"",""trial"",""time""
""fullscreenenter"",""1"",""2188""
","
",,808.6999998,run_exp/static/images/task_images/land.jpg,76,,,,,,,14,,,6,,,,,,,,182063,1,8,TRUE,,,
travel,155,509500,0.0-49.0-0.0,"""event"",""trial"",""time""
""fullscreenenter"",""1"",""2188""
","
","
","""event"",""trial"",""time""
""fullscreenenter"",""1"",""2188""
","
",,,,,,,,,,,,"[{""stimulus"":""run_exp/static/images/task_images/rocket-01.jpg"",""time"":0.09999990463256836},{""stimulus"":""run_exp/static/images/task_images/rocket-02.jpg"",""time"":1022.2999997138977},{""stimulus"":""run_exp/static/images/task_images/rocket-03.jpg"",""time"":2043.0999999046326},{""stimulus"":""run_exp/static/images/task_images/rocket-04.jpg"",""time"":3064.4000000953674},{""stimulus"":""run_exp/static/images/task_images/rocket-05.jpg"",""time"":4085.7999997138977},{""stimulus"":""run_exp/static/images/task_images/rocket-06.jpg"",""time"":5106.900000095367},{""stimulus"":""run_exp/static/images/task_images/rocket-07.jpg"",""time"":6127.299999713898},{""stimulus"":""run_exp/static/images/task_images/rocket-08.jpg"",""time"":7148.099999904633},{""stimulus"":""run_exp/static/images/task_images/rocket-09.jpg"",""time"":8169.299999713898}]",[],6,,,,,,,,,,,,,,
alien_welcome,156,514502,0.0-49.0-1.0,"""event"",""trial"",""time""
""fullscreenenter"",""1"",""2188""
","
","
","""event"",""trial"",""time""
""fullscreenenter"",""1"",""2188""
","
",,null,run_exp/static/images/task_images/aliens/old_aliens/planet/alien_planet-54.jpg,null,,,,,,,,,,,,,54,"63,49,57,71,17,16,54,77,46,23,8,45,39,52,38,30,28,22,27,25,62,3,55,56,12,11,1,29,13,73,58,79,59,76,37,53,6,15,50,61,24,70",,,,,,,,,,
land,157,515004,0.0-49.0-2.0,"""event"",""trial"",""time""
""fullscreenenter"",""1"",""2188""
","
","
","""event"",""trial"",""time""
""fullscreenenter"",""1"",""2188""
","
",,null,run_exp/static/images/task_images/land.jpg,null,,,,,,,96,,,7,,,,,,,,,,,,,,
dig,158,517009,0.0-49.0-3.0,"""event"",""trial"",""time""
""fullscreenenter"",""1"",""2188""
","
","
","""event"",""trial"",""time""
""fullscreenenter"",""1"",""2188""
","
",,,,,,,,,,,,"[{""stimulus"":""run_exp/static/images/task_images/dig.jpg"",""time"":0.19999980926513672},{""stimulus"":""run_exp/static/images/task_images/land.jpg"",""time"":669.2999997138977},{""stimulus"":""run_exp/static/images/task_images/dig.jpg"",""time"":1335.6999998092651}]",[],7,,,,,,,,,,,,,,
harvest,159,518011,0.0-49.0-4.0,"""event"",""trial"",""time""
""fullscreenenter"",""1"",""2188""
","
","
","""event"",""trial"",""time""
""fullscreenenter"",""1"",""2188""
","
",,null,run_exp/static/images/task_images/gems/96.jpg,null,,,,,,,68,,,7,,,,,96,0.7050548,0.708333333,,,,,,,
decision,160,518180,0.0-49.0-5.0,"""event"",""trial"",""time""
""fullscreenenter"",""1"",""2188""
","
","
","""event"",""trial"",""time""
""fullscreenenter"",""1"",""2188""
","
",,168,run_exp/static/images/task_images/land.jpg,65,,,,,,,68,,,7,,,,,,,,199935,1,0,FALSE,,,
dig,161,521015,0.0-50.0-0.0,"""event"",""trial"",""time""
""fullscreenenter"",""1"",""2188""
","
","
","""event"",""trial"",""time""
""fullscreenenter"",""1"",""2188""
","
",,,,,,,,,,,,"[{""stimulus"":""run_exp/static/images/task_images/dig.jpg"",""time"":0.10000038146972656},{""stimulus"":""run_exp/static/images/task_images/land.jpg"",""time"":945.5},{""stimulus"":""run_exp/static/images/task_images/dig.jpg"",""time"":1889.4000000953674}]",[],7,,,,,,,,,,,,,,
harvest,162,522017,0.0-50.0-1.0,"""event"",""trial"",""time""
""fullscreenenter"",""1"",""2188""
","
","
","""event"",""trial"",""time""
""fullscreenenter"",""1"",""2188""
","
",,null,run_exp/static/images/task_images/gems/68.jpg,null,,,,,,,59,,,7,,,,,68,0.862468532,0.867647059,,,,,,,
decision,163,522164,0.0-50.0-2.0,"""event"",""trial"",""time""
""fullscreenenter"",""1"",""2188""
","
","
","""event"",""trial"",""time""
""fullscreenenter"",""1"",""2188""
","
",,146,run_exp/static/images/task_images/land.jpg,65,,,,,,,59,,,7,,,,,,,,203920,1,1,FALSE,,,
dig,164,525022,0.0-51.0-0.0,"""event"",""trial"",""time""
""fullscreenenter"",""1"",""2188""
","
","
","""event"",""trial"",""time""
""fullscreenenter"",""1"",""2188""
","
",,,,,,,,,,,,"[{""stimulus"":""run_exp/static/images/task_images/dig.jpg"",""time"":0.19999980926513672},{""stimulus"":""run_exp/static/images/task_images/land.jpg"",""time"":952.5999999046326},{""stimulus"":""run_exp/static/images/task_images/dig.jpg"",""time"":1903.6999998092651}]",[],7,,,,,,,,,,,,,,
harvest,165,526024,0.0-51.0-1.0,"""event"",""trial"",""time""
""fullscreenenter"",""1"",""2188""
","
","
","""event"",""trial"",""time""
""fullscreenenter"",""1"",""2188""
","
",,null,run_exp/static/images/task_images/gems/59.jpg,null,,,,,,,47,,,7,,,,,59,0.800093598,0.796610169,,,,,,,
decision,166,526165,0.0-51.0-2.0,"""event"",""trial"",""time""
""fullscreenenter"",""1"",""2188""
","
","
","""event"",""trial"",""time""
""fullscreenenter"",""1"",""2188""
","
",,139.0999999,run_exp/static/images/task_images/land.jpg,65,,,,,,,47,,,7,,,,,,,,207920,1,2,FALSE,,,
dig,167,529028,0.0-52.0-0.0,"""event"",""trial"",""time""
""fullscreenenter"",""1"",""2188""
","
","
","""event"",""trial"",""time""
""fullscreenenter"",""1"",""2188""
","
",,,,,,,,,,,,"[{""stimulus"":""run_exp/static/images/task_images/dig.jpg"",""time"":0.20000028610229492},{""stimulus"":""run_exp/static/images/task_images/land.jpg"",""time"":954.4000000953674},{""stimulus"":""run_exp/static/images/task_images/dig.jpg"",""time"":1907.3000001907349}]",[],7,,,,,,,,,,,,,,
harvest,168,530030,0.0-52.0-1.0,"""event"",""trial"",""time""
""fullscreenenter"",""1"",""2188""
","
","
","""event"",""trial"",""time""
""fullscreenenter"",""1"",""2188""
","
",,null,run_exp/static/images/task_images/gems/47.jpg,null,,,,,,,39,,,7,,,,,47,0.832682862,0.829787234,,,,,,,
decision,169,530308,0.0-52.0-2.0,"""event"",""trial"",""time""
""fullscreenenter"",""1"",""2188""
","
","
","""event"",""trial"",""time""
""fullscreenenter"",""1"",""2188""
","
",,277.6999998,run_exp/static/images/task_images/land.jpg,65,,,,,,,39,,,7,,,,,,,,212064,1,3,FALSE,,,
dig,170,533040,0.0-53.0-0.0,"""event"",""trial"",""time""
""fullscreenenter"",""1"",""2188""
","
","
","""event"",""trial"",""time""
""fullscreenenter"",""1"",""2188""
","
",,,,,,,,,,,,"[{""stimulus"":""run_exp/static/images/task_images/dig.jpg"",""time"":0},{""stimulus"":""run_exp/static/images/task_images/land.jpg"",""time"":908.4000000953674},{""stimulus"":""run_exp/static/images/task_images/dig.jpg"",""time"":1814.9000000953674}]",[],7,,,,,,,,,,,,,,
harvest,171,534042,0.0-53.0-1.0,"""event"",""trial"",""time""
""fullscreenenter"",""1"",""2188""
","
","
","""event"",""trial"",""time""
""fullscreenenter"",""1"",""2188""
","
",,null,run_exp/static/images/task_images/gems/39.jpg,null,,,,,,,34,,,7,,,,,39,0.880145952,0.871794872,,,,,,,
decision,172,534516,0.0-53.0-2.0,"""event"",""trial"",""time""
""fullscreenenter"",""1"",""2188""
","
","
","""event"",""trial"",""time""
""fullscreenenter"",""1"",""2188""
","
",,472,run_exp/static/images/task_images/land.jpg,65,,,,,,,34,,,7,,,,,,,,216271,1,4,FALSE,,,
dig,173,537044,0.0-54.0-0.0,"""event"",""trial"",""time""
""fullscreenenter"",""1"",""2188""
","
","
","""event"",""trial"",""time""
""fullscreenenter"",""1"",""2188""
","
",,,,,,,,,,,,"[{""stimulus"":""run_exp/static/images/task_images/dig.jpg"",""time"":0.09999990463256836},{""stimulus"":""run_exp/static/images/task_images/land.jpg"",""time"":843.0999999046326},{""stimulus"":""run_exp/static/images/task_images/dig.jpg"",""time"":1685.3000001907349}]",[],7,,,,,,,,,,,,,,
harvest,174,538046,0.0-54.0-1.0,"""event"",""trial"",""time""
""fullscreenenter"",""1"",""2188""
","
","
","""event"",""trial"",""time""
""fullscreenenter"",""1"",""2188""
","
",,null,run_exp/static/images/task_images/gems/34.jpg,null,,,,,,,28,,,7,,,,,34,0.822071527,0.823529412,,,,,,,
decision,175,538067,0.0-54.0-2.0,"""event"",""trial"",""time""
""fullscreenenter"",""1"",""2188""
","
","
","""event"",""trial"",""time""
""fullscreenenter"",""1"",""2188""
","
",,20.20000029,run_exp/static/images/task_images/land.jpg,76,,,,,,,28,,,7,,,,,,,,219822,1,5,TRUE,,,
travel,176,548042,0.0-55.0-0.0,"""event"",""trial"",""time""
""fullscreenenter"",""1"",""2188""
","
","
","""event"",""trial"",""time""
""fullscreenenter"",""1"",""2188""
","
",,,,,,,,,,,,"[{""stimulus"":""run_exp/static/images/task_images/rocket-01.jpg"",""time"":0},{""stimulus"":""run_exp/static/images/task_images/rocket-02.jpg"",""time"":1109.2000002861023},{""stimulus"":""run_exp/static/images/task_images/rocket-03.jpg"",""time"":2218.300000190735},{""stimulus"":""run_exp/static/images/task_images/rocket-04.jpg"",""time"":3325.300000190735},{""stimulus"":""run_exp/static/images/task_images/rocket-05.jpg"",""time"":4433.300000190735},{""stimulus"":""run_exp/static/images/task_images/rocket-06.jpg"",""time"":5540.900000095367},{""stimulus"":""run_exp/static/images/task_images/rocket-07.jpg"",""time"":6649.599999904633},{""stimulus"":""run_exp/static/images/task_images/rocket-08.jpg"",""time"":7758.300000190735},{""stimulus"":""run_exp/static/images/task_images/rocket-09.jpg"",""time"":8865.800000190735}]",[],7,,,,,,,,,,,,,,
alien_welcome,177,553044,0.0-55.0-1.0,"""event"",""trial"",""time""
""fullscreenenter"",""1"",""2188""
","
","
","""event"",""trial"",""time""
""fullscreenenter"",""1"",""2188""
","
",,null,run_exp/static/images/task_images/aliens/old_aliens/planet/alien_planet-77.jpg,null,,,,,,,,,,,,,77,"63,49,57,71,17,16,54,77,46,23,8,45,39,52,38,30,28,22,27,25,62,3,55,56,12,11,1,29,13,73,58,79,59,76,37,53,6,15,50,61,24,70",,,,,,,,,,
land,178,553547,0.0-55.0-2.0,"""event"",""trial"",""time""
""fullscreenenter"",""1"",""2188""
","
","
","""event"",""trial"",""time""
""fullscreenenter"",""1"",""2188""
","
",,null,run_exp/static/images/task_images/land.jpg,null,,,,,,,104,,,8,,,,,,,,,,,,,,
dig,179,555550,0.0-55.0-3.0,"""event"",""trial"",""time""
""fullscreenenter"",""1"",""2188""
","
","
","""event"",""trial"",""time""
""fullscreenenter"",""1"",""2188""
","
",,,,,,,,,,,,"[{""stimulus"":""run_exp/static/images/task_images/dig.jpg"",""time"":0.09999990463256836},{""stimulus"":""run_exp/static/images/task_images/land.jpg"",""time"":668.3999996185303},{""stimulus"":""run_exp/static/images/task_images/dig.jpg"",""time"":1336.1999998092651}]",[],8,,,,,,,,,,,,,,
harvest,180,556553,0.0-55.0-4.0,"""event"",""trial"",""time""
""fullscreenenter"",""1"",""2188""
","
","
","""event"",""trial"",""time""
""fullscreenenter"",""1"",""2188""
","
",,null,run_exp/static/images/task_images/gems/104.jpg,null,,,,,,,87,,,8,,,,,104,0.832284008,0.836538462,,,,,,,
decision,181,557045,0.0-55.0-5.0,"""event"",""trial"",""time""
""fullscreenenter"",""1"",""2188""
","
","
","""event"",""trial"",""time""
""fullscreenenter"",""1"",""2188""
","
",,490.6000004,run_exp/static/images/task_images/land.jpg,65,,,,,,,87,,,8,,,,,,,,238800,1,0,FALSE,,,
dig,182,559557,0.0-56.0-0.0,"""event"",""trial"",""time""
""fullscreenenter"",""1"",""2188""
","
","
","""event"",""trial"",""time""
""fullscreenenter"",""1"",""2188""
","
",,,,,,,,,,,,"[{""stimulus"":""run_exp/static/images/task_images/dig.jpg"",""time"":0.19999980926513672},{""stimulus"":""run_exp/static/images/task_images/land.jpg"",""time"":837.5},{""stimulus"":""run_exp/static/images/task_images/dig.jpg"",""time"":1674}]",[],8,,,,,,,,,,,,,,
harvest,183,560559,0.0-56.0-1.0,"""event"",""trial"",""time""
""fullscreenenter"",""1"",""2188""
","
","
","""event"",""trial"",""time""
""fullscreenenter"",""1"",""2188""
","
",,null,run_exp/static/images/task_images/gems/87.jpg,null,,,,,,,69,,,8,,,,,87,0.798703919,0.793103448,,,,,,,
decision,184,560580,0.0-56.0-2.0,"""event"",""trial"",""time""
""fullscreenenter"",""1"",""2188""
","
","
","""event"",""trial"",""time""
""fullscreenenter"",""1"",""2188""
","
",,19,run_exp/static/images/task_images/land.jpg,65,,,,,,,69,,,8,,,,,,,,242335,1,1,FALSE,,,
dig,185,563561,0.0-57.0-0.0,"""event"",""trial"",""time""
""fullscreenenter"",""1"",""2188""
","
","
","""event"",""trial"",""time""
""fullscreenenter"",""1"",""2188""
","
",,,,,,,,,,,,"[{""stimulus"":""run_exp/static/images/task_images/dig.jpg"",""time"":0.09999990463256836},{""stimulus"":""run_exp/static/images/task_images/land.jpg"",""time"":994.8000001907349},{""stimulus"":""run_exp/static/images/task_images/dig.jpg"",""time"":1988}]",[],8,,,,,,,,,,,,,,
harvest,186,564564,0.0-57.0-1.0,"""event"",""trial"",""time""
""fullscreenenter"",""1"",""2188""
","
","
","""event"",""trial"",""time""
""fullscreenenter"",""1"",""2188""
","
",,null,run_exp/static/images/task_images/gems/69.jpg,null,,,,,,,54,,,8,,,,,69,0.784798119,0.782608696,,,,,,,
decision,187,564565,0.0-57.0-2.0,"""event"",""trial"",""time""
""fullscreenenter"",""1"",""2188""
","
","
","""event"",""trial"",""time""
""fullscreenenter"",""1"",""2188""
","
",,0.099999905,run_exp/static/images/task_images/land.jpg,65,,,,,,,54,,,8,,,,,,,,246320,1,2,FALSE,,,
dig,188,567567,0.0-58.0-0.0,"""event"",""trial"",""time""
""fullscreenenter"",""1"",""2188""
","
","
","""event"",""trial"",""time""
""fullscreenenter"",""1"",""2188""
","
",,,,,,,,,,,,"[{""stimulus"":""run_exp/static/images/task_images/dig.jpg"",""time"":0.09999990463256836},{""stimulus"":""run_exp/static/images/task_images/land.jpg"",""time"":1001.2999997138977},{""stimulus"":""run_exp/static/images/task_images/dig.jpg"",""time"":1999.5999999046326}]",[],8,,,,,,,,,,,,,,
harvest,189,568568,0.0-58.0-1.0,"""event"",""trial"",""time""
""fullscreenenter"",""1"",""2188""
","
","
","""event"",""trial"",""time""
""fullscreenenter"",""1"",""2188""
","
",,null,run_exp/static/images/task_images/gems/54.jpg,null,,,,,,,45,,,8,,,,,54,0.830243358,0.833333333,,,,,,,
decision,190,568708,0.0-58.0-2.0,"""event"",""trial"",""time""
""fullscreenenter"",""1"",""2188""
","
","
","""event"",""trial"",""time""
""fullscreenenter"",""1"",""2188""
","
",,138.9000001,run_exp/static/images/task_images/land.jpg,65,,,,,,,45,,,8,,,,,,,,250463,1,3,FALSE,,,
dig,191,571571,0.0-59.0-0.0,"""event"",""trial"",""time""
""fullscreenenter"",""1"",""2188""
","
","
","""event"",""trial"",""time""
""fullscreenenter"",""1"",""2188""
","
",,,,,,,,,,,,"[{""stimulus"":""run_exp/static/images/task_images/dig.jpg"",""time"":0.10000038146972656},{""stimulus"":""run_exp/static/images/task_images/land.jpg"",""time"":955.7000002861023},{""stimulus"":""run_exp/static/images/task_images/dig.jpg"",""time"":1913.5}]",[],8,,,,,,,,,,,,,,
harvest,192,572573,0.0-59.0-1.0,"""event"",""trial"",""time""
""fullscreenenter"",""1"",""2188""
","
","
","""event"",""trial"",""time""
""fullscreenenter"",""1"",""2188""
","
",,null,run_exp/static/images/task_images/gems/45.jpg,null,,,,,,,36,,,8,,,,,45,0.803291858,0.8,,,,,,,
decision,193,572644,0.0-59.0-2.0,"""event"",""trial"",""time""
""fullscreenenter"",""1"",""2188""
","
","
","""event"",""trial"",""time""
""fullscreenenter"",""1"",""2188""
","
",,69.80000019,run_exp/static/images/task_images/land.jpg,65,,,,,,,36,,,8,,,,,,,,254399,1,4,FALSE,,,
dig,194,575577,0.0-60.0-0.0,"""event"",""trial"",""time""
""fullscreenenter"",""1"",""2188""
","
","
","""event"",""trial"",""time""
""fullscreenenter"",""1"",""2188""
","
",,,,,,,,,,,,"[{""stimulus"":""run_exp/static/images/task_images/dig.jpg"",""time"":0.09999990463256836},{""stimulus"":""run_exp/static/images/task_images/land.jpg"",""time"":977.4000000953674},{""stimulus"":""run_exp/static/images/task_images/dig.jpg"",""time"":1953.5999999046326}]",[],8,,,,,,,,,,,,,,
harvest,195,576579,0.0-60.0-1.0,"""event"",""trial"",""time""
""fullscreenenter"",""1"",""2188""
","
","
","""event"",""trial"",""time""
""fullscreenenter"",""1"",""2188""
","
",,null,run_exp/static/images/task_images/gems/36.jpg,null,,,,,,,27,,,8,,,,,36,0.758557691,0.75,,,,,,,
decision,196,576980,0.0-60.0-2.0,"""event"",""trial"",""time""
""fullscreenenter"",""1"",""2188""
","
","
","""event"",""trial"",""time""
""fullscreenenter"",""1"",""2188""
","
",,399.5999999,run_exp/static/images/task_images/land.jpg,76,,,,,,,27,,,8,,,,,,,,258735,1,5,TRUE,,,
travel,197,586579,0.0-61.0-0.0,"""event"",""trial"",""time""
""fullscreenenter"",""1"",""2188""
","
","
","""event"",""trial"",""time""
""fullscreenenter"",""1"",""2188""
","
",,,,,,,,,,,,"[{""stimulus"":""run_exp/static/images/task_images/rocket-01.jpg"",""time"":0.19999980926513672},{""stimulus"":""run_exp/static/images/task_images/rocket-02.jpg"",""time"":1069},{""stimulus"":""run_exp/static/images/task_images/rocket-03.jpg"",""time"":2133.7999997138977},{""stimulus"":""run_exp/static/images/task_images/rocket-04.jpg"",""time"":3199.199999809265},{""stimulus"":""run_exp/static/images/task_images/rocket-05.jpg"",""time"":4265.199999809265},{""stimulus"":""run_exp/static/images/task_images/rocket-06.jpg"",""time"":5331.5},{""stimulus"":""run_exp/static/images/task_images/rocket-07.jpg"",""time"":6397.799999713898},{""stimulus"":""run_exp/static/images/task_images/rocket-08.jpg"",""time"":7463.799999713898},{""stimulus"":""run_exp/static/images/task_images/rocket-09.jpg"",""time"":8529.199999809265}]",[],8,,,,,,,,,,,,,,
alien_welcome,198,591582,0.0-61.0-1.0,"""event"",""trial"",""time""
""fullscreenenter"",""1"",""2188""
","
","
","""event"",""trial"",""time""
""fullscreenenter"",""1"",""2188""
","
",,null,run_exp/static/images/task_images/aliens/old_aliens/planet/alien_planet-46.jpg,null,,,,,,,,,,,,,46,"63,49,57,71,17,16,54,77,46,23,8,45,39,52,38,30,28,22,27,25,62,3,55,56,12,11,1,29,13,73,58,79,59,76,37,53,6,15,50,61,24,70",,,,,,,,,,
land,199,592085,0.0-61.0-2.0,"""event"",""trial"",""time""
""fullscreenenter"",""1"",""2188""
","
","
","""event"",""trial"",""time""
""fullscreenenter"",""1"",""2188""
","
",,null,run_exp/static/images/task_images/land.jpg,null,,,,,,,105,,,9,,,,,,,,,,,,,,
dig,200,594090,0.0-61.0-3.0,"""event"",""trial"",""time""
""fullscreenenter"",""1"",""2188""
","
","
","""event"",""trial"",""time""
""fullscreenenter"",""1"",""2188""
","
",,,,,,,,,,,,"[{""stimulus"":""run_exp/static/images/task_images/dig.jpg"",""time"":0.3000001907348633},{""stimulus"":""run_exp/static/images/task_images/land.jpg"",""time"":669.7000002861023},{""stimulus"":""run_exp/static/images/task_images/dig.jpg"",""time"":1335.5}]",[],9,,,,,,,,,,,,,,
harvest,201,595092,0.0-61.0-4.0,"""event"",""trial"",""time""
""fullscreenenter"",""1"",""2188""
","
","
","""event"",""trial"",""time""
""fullscreenenter"",""1"",""2188""
","
",,null,run_exp/static/images/task_images/gems/105.jpg,null,,,,,,,17,,,9,,,,,105,0.158131921,0.161904762,,,,,,,
decision,202,595429,0.0-61.0-5.0,"""event"",""trial"",""time""
""fullscreenenter"",""1"",""2188""
","
","
","""event"",""trial"",""time""
""fullscreenenter"",""1"",""2188""
","
",,335.3000002,run_exp/static/images/task_images/land.jpg,65,,,,,,,17,,,9,,,,,,,,277184,1,0,FALSE,,,
dig,203,598097,0.0-62.0-0.0,"""event"",""trial"",""time""
""fullscreenenter"",""1"",""2188""
","
","
","""event"",""trial"",""time""
""fullscreenenter"",""1"",""2188""
","
",,,,,,,,,,,,"[{""stimulus"":""run_exp/static/images/task_images/dig.jpg"",""time"":0.19999980926513672},{""stimulus"":""run_exp/static/images/task_images/land.jpg"",""time"":889.1999998092651},{""stimulus"":""run_exp/static/images/task_images/dig.jpg"",""time"":1778.5999999046326}]",[],9,,,,,,,,,,,,,,
harvest,204,599099,0.0-62.0-1.0,"""event"",""trial"",""time""
""fullscreenenter"",""1"",""2188""
","
","
","""event"",""trial"",""time""
""fullscreenenter"",""1"",""2188""
","
",,null,run_exp/static/images/task_images/gems/17.jpg,null,,,,,,,4,,,9,,,,,17,0.208430607,0.235294118,,,,,,,
decision,205,599508,0.0-62.0-2.0,"""event"",""trial"",""time""
""fullscreenenter"",""1"",""2188""
","
","
","""event"",""trial"",""time""
""fullscreenenter"",""1"",""2188""
","
",,407.5999999,run_exp/static/images/task_images/land.jpg,76,,,,,,,4,,,9,,,,,,,,281263,1,1,TRUE,,,
travel,206,609097,0.0-63.0-0.0,"""event"",""trial"",""time""
""fullscreenenter"",""1"",""2188""
","
","
","""event"",""trial"",""time""
""fullscreenenter"",""1"",""2188""
","
",,,,,,,,,,,,"[{""stimulus"":""run_exp/static/images/task_images/rocket-01.jpg"",""time"":0.09999990463256836},{""stimulus"":""run_exp/static/images/task_images/rocket-02.jpg"",""time"":1067.0999999046326},{""stimulus"":""run_exp/static/images/task_images/rocket-03.jpg"",""time"":2131.5999999046326},{""stimulus"":""run_exp/static/images/task_images/rocket-04.jpg"",""time"":3197.2000002861023},{""stimulus"":""run_exp/static/images/task_images/rocket-05.jpg"",""time"":4261.800000190735},{""stimulus"":""run_exp/static/images/task_images/rocket-06.jpg"",""time"":5327.099999904633},{""stimulus"":""run_exp/static/images/task_images/rocket-07.jpg"",""time"":6391},{""stimulus"":""run_exp/static/images/task_images/rocket-08.jpg"",""time"":7456.099999904633},{""stimulus"":""run_exp/static/images/task_images/rocket-09.jpg"",""time"":8521.800000190735}]",[],9,,,,,,,,,,,,,,
alien_welcome,207,614100,0.0-63.0-1.0,"""event"",""trial"",""time""
""fullscreenenter"",""1"",""2188""
","
","
","""event"",""trial"",""time""
""fullscreenenter"",""1"",""2188""
","
",,null,run_exp/static/images/task_images/aliens/old_aliens/planet/alien_planet-23.jpg,null,,,,,,,,,,,,,23,"63,49,57,71,17,16,54,77,46,23,8,45,39,52,38,30,28,22,27,25,62,3,55,56,12,11,1,29,13,73,58,79,59,76,37,53,6,15,50,61,24,70",,,,,,,,,,
land,208,614603,0.0-63.0-2.0,"""event"",""trial"",""time""
""fullscreenenter"",""1"",""2188""
","
","
","""event"",""trial"",""time""
""fullscreenenter"",""1"",""2188""
","
",,null,run_exp/static/images/task_images/land.jpg,null,,,,,,,103,,,10,,,,,,,,,,,,,,
dig,209,616607,0.0-63.0-3.0,"""event"",""trial"",""time""
""fullscreenenter"",""1"",""2188""
","
","
","""event"",""trial"",""time""
""fullscreenenter"",""1"",""2188""
","
",,,,,,,,,,,,"[{""stimulus"":""run_exp/static/images/task_images/dig.jpg"",""time"":0.20000028610229492},{""stimulus"":""run_exp/static/images/task_images/land.jpg"",""time"":668.5999999046326},{""stimulus"":""run_exp/static/images/task_images/dig.jpg"",""time"":1347.7000002861023}]",[],10,,,,,,,,,,,,,,
harvest,210,617610,0.0-63.0-4.0,"""event"",""trial"",""time""
""fullscreenenter"",""1"",""2188""
","
","
","""event"",""trial"",""time""
""fullscreenenter"",""1"",""2188""
","
",,null,run_exp/static/images/task_images/gems/103.jpg,null,,,,,,,19,,,10,,,,,103,0.182716429,0.184466019,,,,,,,
decision,211,617845,0.0-63.0-5.0,"""event"",""trial"",""time""
""fullscreenenter"",""1"",""2188""
","
","
","""event"",""trial"",""time""
""fullscreenenter"",""1"",""2188""
","
",,233.4000001,run_exp/static/images/task_images/land.jpg,65,,,,,,,19,,,10,,,,,,,,299600,1,0,FALSE,,,
dig,212,620615,0.0-64.0-0.0,"""event"",""trial"",""time""
""fullscreenenter"",""1"",""2188""
","
","
","""event"",""trial"",""time""
""fullscreenenter"",""1"",""2188""
","
",,,,,,,,,,,,"[{""stimulus"":""run_exp/static/images/task_images/dig.jpg"",""time"":0.09999990463256836},{""stimulus"":""run_exp/static/images/task_images/land.jpg"",""time"":924.0999999046326},{""stimulus"":""run_exp/static/images/task_images/dig.jpg"",""time"":1845.3999996185303}]",[],10,,,,,,,,,,,,,,
harvest,213,621617,0.0-64.0-1.0,"""event"",""trial"",""time""
""fullscreenenter"",""1"",""2188""
","
","
","""event"",""trial"",""time""
""fullscreenenter"",""1"",""2188""
","
",,null,run_exp/static/images/task_images/gems/19.jpg,null,,,,,,,4,,,10,,,,,19,0.228329463,0.210526316,,,,,,,
decision,214,621620,0.0-64.0-2.0,"""event"",""trial"",""time""
""fullscreenenter"",""1"",""2188""
","
","
","""event"",""trial"",""time""
""fullscreenenter"",""1"",""2188""
","
",,1.799999714,run_exp/static/images/task_images/land.jpg,76,,,,,,,4,,,10,,,,,,,,303376,1,1,TRUE,,,
end_of_block_continue,215,630479,0.0-65.0-0.0,"""event"",""trial"",""time""
""fullscreenenter"",""1"",""2188""
","
","
","""event"",""trial"",""time""
""fullscreenenter"",""1"",""2188""
","
",,null,run_exp/static/audio/clip_32_block_end.m4a,,,,,,,null,,,,,,,,,,,,,,,,,,
alien_welcome,216,635485,0.0-66.0-0.0,"""event"",""trial"",""time""
""fullscreenenter"",""1"",""2188""
","
","
","""event"",""trial"",""time""
""fullscreenenter"",""1"",""2188""
","
",,null,run_exp/static/images/task_images/aliens/old_aliens/planet/alien_planet-8.jpg,null,,,,,,,,,,,,,8,"63,49,57,71,17,16,54,77,46,23,8,45,39,52,38,30,28,22,27,25,62,3,55,56,12,11,1,29,13,73,58,79,59,76,37,53,6,15,50,61,24,70",,,,,,,,,,
land,217,635988,0.0-66.0-1.0,"""event"",""trial"",""time""
""fullscreenenter"",""1"",""2188""
","
","
","""event"",""trial"",""time""
""fullscreenenter"",""1"",""2188""
","
",,null,run_exp/static/images/task_images/land.jpg,null,,,,,,,98,,,11,,,,,,,,,,,,,,
dig,218,637992,0.0-66.0-2.0,"""event"",""trial"",""time""
""fullscreenenter"",""1"",""2188""
","
","
","""event"",""trial"",""time""
""fullscreenenter"",""1"",""2188""
","
",,,,,,,,,,,,"[{""stimulus"":""run_exp/static/images/task_images/dig.jpg"",""time"":0.20000028610229492},{""stimulus"":""run_exp/static/images/task_images/land.jpg"",""time"":668.6000003814697},{""stimulus"":""run_exp/static/images/task_images/dig.jpg"",""time"":1336.1000003814697}]",[],11,,,,,,,,,,,,,,
harvest,219,638993,0.0-66.0-3.0,"""event"",""trial"",""time""
""fullscreenenter"",""1"",""2188""
","
","
","""event"",""trial"",""time""
""fullscreenenter"",""1"",""2188""
","
",,null,run_exp/static/images/task_images/gems/98.jpg,null,,,,,,,17,,,11,,,,,98,0.177354511,0.173469388,,,,,,,
decision,220,639204,0.0-66.0-4.0,"""event"",""trial"",""time""
""fullscreenenter"",""1"",""2188""
","
","
","""event"",""trial"",""time""
""fullscreenenter"",""1"",""2188""
","
",,209.6999998,run_exp/static/images/task_images/land.jpg,65,,,,,,,17,,,11,,,,,,,,8721,2,0,FALSE,,,
dig,221,641999,0.0-67.0-0.0,"""event"",""trial"",""time""
""fullscreenenter"",""1"",""2188""
","
","
","""event"",""trial"",""time""
""fullscreenenter"",""1"",""2188""
","
",,,,,,,,,,,,"[{""stimulus"":""run_exp/static/images/task_images/dig.jpg"",""time"":0.3000001907348633},{""stimulus"":""run_exp/static/images/task_images/land.jpg"",""time"":933.5},{""stimulus"":""run_exp/static/images/task_images/dig.jpg"",""time"":1862.2000002861023}]",[],11,,,,,,,,,,,,,,
harvest,222,643000,0.0-67.0-1.0,"""event"",""trial"",""time""
""fullscreenenter"",""1"",""2188""
","
","
","""event"",""trial"",""time""
""fullscreenenter"",""1"",""2188""
","
",,null,run_exp/static/images/task_images/gems/17.jpg,null,,,,,,,3,,,11,,,,,17,0.162256312,0.176470588,,,,,,,
decision,223,643557,0.0-67.0-2.0,"""event"",""trial"",""time""
""fullscreenenter"",""1"",""2188""
","
","
","""event"",""trial"",""time""
""fullscreenenter"",""1"",""2188""
","
",,554.8999996,run_exp/static/images/task_images/land.jpg,76,,,,,,,3,,,11,,,,,,,,13074,2,1,TRUE,,,
travel,224,653002,0.0-68.0-0.0,"""event"",""trial"",""time""
""fullscreenenter"",""1"",""2188""
","
","
","""event"",""trial"",""time""
""fullscreenenter"",""1"",""2188""
","
",,,,,,,,,,,,"[{""stimulus"":""run_exp/static/images/task_images/rocket-01.jpg"",""time"":0.19999980926513672},{""stimulus"":""run_exp/static/images/task_images/rocket-02.jpg"",""time"":1051},{""stimulus"":""run_exp/static/images/task_images/rocket-03.jpg"",""time"":2099.9000000953674},{""stimulus"":""run_exp/static/images/task_images/rocket-04.jpg"",""time"":3149.5},{""stimulus"":""run_exp/static/images/task_images/rocket-05.jpg"",""time"":4197.199999809265},{""stimulus"":""run_exp/static/images/task_images/rocket-06.jpg"",""time"":5245.900000095367},{""stimulus"":""run_exp/static/images/task_images/rocket-07.jpg"",""time"":6296.099999904633},{""stimulus"":""run_exp/static/images/task_images/rocket-08.jpg"",""time"":7344.300000190735},{""stimulus"":""run_exp/static/images/task_images/rocket-09.jpg"",""time"":8392.900000095367}]",[],11,,,,,,,,,,,,,,
alien_welcome,225,658004,0.0-68.0-1.0,"""event"",""trial"",""time""
""fullscreenenter"",""1"",""2188""
","
","
","""event"",""trial"",""time""
""fullscreenenter"",""1"",""2188""
","
",,null,run_exp/static/images/task_images/aliens/old_aliens/planet/alien_planet-45.jpg,null,,,,,,,,,,,,,45,"63,49,57,71,17,16,54,77,46,23,8,45,39,52,38,30,28,22,27,25,62,3,55,56,12,11,1,29,13,73,58,79,59,76,37,53,6,15,50,61,24,70",,,,,,,,,,
land,226,658507,0.0-68.0-2.0,"""event"",""trial"",""time""
""fullscreenenter"",""1"",""2188""
","
","
","""event"",""trial"",""time""
""fullscreenenter"",""1"",""2188""
","
",,null,run_exp/static/images/task_images/land.jpg,null,,,,,,,102,,,12,,,,,,,,,,,,,,
dig,227,660511,0.0-68.0-3.0,"""event"",""trial"",""time""
""fullscreenenter"",""1"",""2188""
","
","
","""event"",""trial"",""time""
""fullscreenenter"",""1"",""2188""
","
",,,,,,,,,,,,"[{""stimulus"":""run_exp/static/images/task_images/dig.jpg"",""time"":0.3000001907348633},{""stimulus"":""run_exp/static/images/task_images/land.jpg"",""time"":668.0999999046326},{""stimulus"":""run_exp/static/images/task_images/dig.jpg"",""time"":1335.3000001907349}]",[],12,,,,,,,,,,,,,,
harvest,228,661514,0.0-68.0-4.0,"""event"",""trial"",""time""
""fullscreenenter"",""1"",""2188""
","
","
","""event"",""trial"",""time""
""fullscreenenter"",""1"",""2188""
","
",,null,run_exp/static/images/task_images/gems/102.jpg,null,,,,,,,22,,,12,,,,,102,0.214636834,0.215686275,,,,,,,
decision,229,661636,0.0-68.0-5.0,"""event"",""trial"",""time""
""fullscreenenter"",""1"",""2188""
","
","
","""event"",""trial"",""time""
""fullscreenenter"",""1"",""2188""
","
",,121.4000001,run_exp/static/images/task_images/land.jpg,65,,,,,,,22,,,12,,,,,,,,31154,2,0,FALSE,,,
dig,230,664519,0.0-69.0-0.0,"""event"",""trial"",""time""
""fullscreenenter"",""1"",""2188""
","
","
","""event"",""trial"",""time""
""fullscreenenter"",""1"",""2188""
","
",,,,,,,,,,,,"[{""stimulus"":""run_exp/static/images/task_images/dig.jpg"",""time"":0.20000028610229492},{""stimulus"":""run_exp/static/images/task_images/land.jpg"",""time"":960.8000001907349},{""stimulus"":""run_exp/static/images/task_images/dig.jpg"",""time"":1919.6000003814697}]",[],12,,,,,,,,,,,,,,
harvest,231,665521,0.0-69.0-1.0,"""event"",""trial"",""time""
""fullscreenenter"",""1"",""2188""
","
","
","""event"",""trial"",""time""
""fullscreenenter"",""1"",""2188""
","
",,null,run_exp/static/images/task_images/gems/22.jpg,null,,,,,,,4,,,12,,,,,22,0.187092041,0.181818182,,,,,,,
decision,232,665955,0.0-69.0-2.0,"""event"",""trial"",""time""
""fullscreenenter"",""1"",""2188""
","
","
","""event"",""trial"",""time""
""fullscreenenter"",""1"",""2188""
","
",,434.0999999,run_exp/static/images/task_images/land.jpg,76,,,,,,,4,,,12,,,,,,,,35472,2,1,TRUE,,,
travel,233,675516,0.0-70.0-0.0,"""event"",""trial"",""time""
""fullscreenenter"",""1"",""2188""
","
","
","""event"",""trial"",""time""
""fullscreenenter"",""1"",""2188""
","
",,,,,,,,,,,,"[{""stimulus"":""run_exp/static/images/task_images/rocket-01.jpg"",""time"":0.09999990463256836},{""stimulus"":""run_exp/static/images/task_images/rocket-02.jpg"",""time"":1063.2999997138977},{""stimulus"":""run_exp/static/images/task_images/rocket-03.jpg"",""time"":2125.0999999046326},{""stimulus"":""run_exp/static/images/task_images/rocket-04.jpg"",""time"":3188.2999997138977},{""stimulus"":""run_exp/static/images/task_images/rocket-05.jpg"",""time"":4250.199999809265},{""stimulus"":""run_exp/static/images/task_images/rocket-06.jpg"",""time"":5311.400000095367},{""stimulus"":""run_exp/static/images/task_images/rocket-07.jpg"",""time"":6373.5},{""stimulus"":""run_exp/static/images/task_images/rocket-08.jpg"",""time"":7435.099999904633},{""stimulus"":""run_exp/static/images/task_images/rocket-09.jpg"",""time"":8497.299999713898}]",[],12,,,,,,,,,,,,,,
alien_welcome,234,680518,0.0-70.0-1.0,"""event"",""trial"",""time""
""fullscreenenter"",""1"",""2188""
","
","
","""event"",""trial"",""time""
""fullscreenenter"",""1"",""2188""
","
",,null,run_exp/static/images/task_images/aliens/old_aliens/planet/alien_planet-39.jpg,null,,,,,,,,,,,,,39,"63,49,57,71,17,16,54,77,46,23,8,45,39,52,38,30,28,22,27,25,62,3,55,56,12,11,1,29,13,73,58,79,59,76,37,53,6,15,50,61,24,70",,,,,,,,,,
land,235,681021,0.0-70.0-2.0,"""event"",""trial"",""time""
""fullscreenenter"",""1"",""2188""
","
","
","""event"",""trial"",""time""
""fullscreenenter"",""1"",""2188""
","
",,null,run_exp/static/images/task_images/land.jpg,null,,,,,,,91,,,13,,,,,,,,,,,,,,
dig,236,683024,0.0-70.0-3.0,"""event"",""trial"",""time""
""fullscreenenter"",""1"",""2188""
","
","
","""event"",""trial"",""time""
""fullscreenenter"",""1"",""2188""
","
",,,,,,,,,,,,"[{""stimulus"":""run_exp/static/images/task_images/dig.jpg"",""time"":0.2999997138977051},{""stimulus"":""run_exp/static/images/task_images/land.jpg"",""time"":668.0999999046326},{""stimulus"":""run_exp/static/images/task_images/dig.jpg"",""time"":1335.1999998092651}]",[],13,,,,,,,,,,,,,,
harvest,237,684027,0.0-70.0-4.0,"""event"",""trial"",""time""
""fullscreenenter"",""1"",""2188""
","
","
","""event"",""trial"",""time""
""fullscreenenter"",""1"",""2188""
","
",,null,run_exp/static/images/task_images/gems/91.jpg,null,,,,,,,21,,,13,,,,,91,0.227429033,0.230769231,,,,,,,
decision,238,684185,0.0-70.0-5.0,"""event"",""trial"",""time""
""fullscreenenter"",""1"",""2188""
","
","
","""event"",""trial"",""time""
""fullscreenenter"",""1"",""2188""
","
",,156.7000003,run_exp/static/images/task_images/land.jpg,65,,,,,,,21,,,13,,,,,,,,53702,2,0,FALSE,,,
dig,239,687030,0.0-71.0-0.0,"""event"",""trial"",""time""
""fullscreenenter"",""1"",""2188""
","
","
","""event"",""trial"",""time""
""fullscreenenter"",""1"",""2188""
","
",,,,,,,,,,,,"[{""stimulus"":""run_exp/static/images/task_images/dig.jpg"",""time"":0.10000038146972656},{""stimulus"":""run_exp/static/images/task_images/land.jpg"",""time"":948.7000002861023},{""stimulus"":""run_exp/static/images/task_images/dig.jpg"",""time"":1895.3000001907349}]",[],13,,,,,,,,,,,,,,
harvest,240,688042,0.0-71.0-1.0,"""event"",""trial"",""time""
""fullscreenenter"",""1"",""2188""
","
","
","""event"",""trial"",""time""
""fullscreenenter"",""1"",""2188""
","
",,null,run_exp/static/images/task_images/gems/21.jpg,null,,,,,,,2,,,13,,,,,21,0.103212128,0.095238095,,,,,,,
decision,241,688052,0.0-71.0-2.0,"""event"",""trial"",""time""
""fullscreenenter"",""1"",""2188""
","
","
","""event"",""trial"",""time""
""fullscreenenter"",""1"",""2188""
","
",,8.200000286,run_exp/static/images/task_images/land.jpg,76,,,,,,,2,,,13,,,,,,,,57569,2,1,TRUE,,,
travel,242,698045,0.0-72.0-0.0,"""event"",""trial"",""time""
""fullscreenenter"",""1"",""2188""
","
","
","""event"",""trial"",""time""
""fullscreenenter"",""1"",""2188""
","
