trial_type,trial_index,time_elapsed,internal_node_id,success,rt,stimulus,key_press,prompt,subject_id,age,gender,button_pressed,next_reward,animation_sequence,responses,planet,curr_prac_trial,n_prac_rounds,alien,aliens,reward_received,decay_rate_actual,decay_rate_exp,time_in_block,block_num,prt,last_trial_on_planet,button_html,bonus,num_failures
pavlovia,0,1,0.0-0.0,,,,,,,,,,,,,,,,,,,,,,,,,,,
fullscreen,1,2182,0.0-1.0,TRUE,,,,,,,,,,,,,,,,,,,,,,,,,,
instruc_welcome,2,11982,0.0-2.0,,null,run_exp/static/audio/clip_1_welcome.m4a,null,"<p>Howdy! In this experiment, you’ll be an explorer traveling through space to collect space treasure.</p><p>Your mission is to collect as much treasure as possible.</p><br><br><p><img src='run_exp/static/images/task_images/opening_img-01.jpg' height='300' width='auto'></p>",qg0xa3LZw5abJIK_1Y3uCvx5VSxv8Zo_MLRP_71ynZl5NmcSO330,17.78,female,gl,,,,,,,,,,,,,,,,,,
audio-keyboard-response,3,28562,0.0-3.0,,null,run_exp/static/audio/clip_2_move.m4a,null,,,,,,,,,,,,,,,,,,,,,,,
welcome_dec,4,31463,0.0-4.0,,2892.3,"<p>Howdy! In this experiment, you’ll be an explorer traveling through space to collect space treasure.</p><p>Your mission is to collect as much treasure as possible.</p><br><br><p><img src='run_exp/static/images/task_images/opening_img-01.jpg' height='300' width='auto'></p>",,,,,,1,,,,,,,,,,,,,,,,,,
html-keyboard-response,5,62833,0.0-5.0,,31369.1,"<p>Howdy! In this experiment, you’ll be an explorer traveling through space to collect space treasure.</p><p>Your mission is to collect as much treasure as possible.</p><br><br><p><img src='run_exp/static/images/task_images/opening_img-01.jpg' height='300' width='auto'></p><button class=""jspsych-html-btn-unchosen""><img src=""run_exp/static/images/task_images/planet-01.jpg"" height=""50""></button><button class=""jspsych-html-btn-chosen""><img src=""run_exp/static/images/task_images/planet-02.jpg"" height=""50""></button><p><b>[press the space bar to lock in your answer]<b><br></p>",32,,,,,,,,,,,,,,,,,,,,,,,
instruc_goal,6,72888,0.0-6.0-0.0,,null,run_exp/static/audio/clip_3_goal.m4a,null,"<p> As a space explorer, you’ll visit different planets to dig for space treasure, these pink gems.</p> <p> The more treasure you dig up, the more bonus money you’ll win! </p><br><br><p><img src='run_exp/static/images/task_images/pink_gem.jpg' height='300' width='auto'></p>",,,,,,,,,,,,,,,,,,,,,,
instruc_goal,7,76939,0.0-6.0-1.0,,4037.2,"<p> As a space explorer, you’ll visit different planets to dig for space treasure, these pink gems.</p> <p> The more treasure you dig up, the more bonus money you’ll win! </p><br><br><p><img src='run_exp/static/images/task_images/pink_gem.jpg' height='300' width='auto'></p>",,,,,,1,,,,,,,,,,,,,,,,,,
html-keyboard-response,8,77682,0.0-6.0-2.0,,740.6,"<p> As a space explorer, you’ll visit different planets to dig for space treasure, these pink gems.</p> <p> The more treasure you dig up, the more bonus money you’ll win! </p><br><br><p><img src='run_exp/static/images/task_images/pink_gem.jpg' height='300' width='auto'></p><button class=""jspsych-html-btn-unchosen""><img src=""run_exp/static/images/task_images/planet-01.jpg"" height=""50""></button><button class=""jspsych-html-btn-chosen""><img src=""run_exp/static/images/task_images/planet-02.jpg"" height=""50""></button><p><b>[press the space bar to lock in your answer]<b><br></p>",32,,,,,,,,,,,,,,,,,,,,,,,
instruc_dig,9,93716,0.0-7.0-0.0,,null,run_exp/static/audio/clip_4_dig.m4a,null,,,,,,100,,,,,,,,,,,,,,,,,
instruc_dig_try,10,110975,0.0-7.0-1.0,,17247.4,"<p> When you’ve arrived at a new planet, you will dig once. </p> <p>Then, you get to decide if you want to stay on the planet and dig again or travel to a new planet and dig there.</p> <p> To stay and dig, press the letter <strong>‘A’</strong> on your keyboard. Try pressing it now! </p><p><img src='run_exp/static/images/task_images/land.jpg'  height='700' width='auto'></p>",65,"<p> When you’ve arrived at a new planet, you will dig once. </p> <p>Then, you get to decide if you want to stay on the planet and dig again or travel to a new planet and dig there.</p> <p> To stay and dig, press the letter <strong>‘A’</strong> on your keyboard. Try pressing it now! </p><p><img src='run_exp/static/images/task_images/land.jpg'  height='700' width='auto'></p>",,,,,100,,,,,,,,,,,,,,,,,
dig_prac,11,113009,0.0-7.0-2.0,,,,,,,,,,,"[{""stimulus"":""run_exp/static/images/task_images/dig.jpg"",""time"":0.7999999970197678},{""stimulus"":""run_exp/static/images/task_images/land.jpg"",""time"":671.0999999940395},{""stimulus"":""run_exp/static/images/task_images/dig.jpg"",""time"":1338}]",[],,,,,,,,,,,,,,,
instruc_travel,12,149220,0.0-7.0-3.0,,null,run_exp/static/audio/clip_5_travel.m4a,null,"<p>Every time you dig up gems, there are less gems on the planet, so the more you dig on a planet the fewer gems you’ll get with each dig.</p><p>When gems are running low, you may want to travel to a new planet. </p> <p>  Planets are very far apart in this galaxy, so it will take some time to travel between them. </p> <br><p>There are lots and lots of planets for you to visit, so you won’t be able to return to any planets you’ve seen before. </p><br><p>To leave this planet and travel to a new one, press the letter <strong>‘L’</strong> on your keyboard. Try pressing it now! </p><p><img src='run_exp/static/images/task_images/rocket-01.jpg'  height='600' width='auto'></p>",,,,,,,,,,,,,,,,,,,,,,
instruc_travel_try,13,162370,0.0-7.0-4.0,,13139.9,"<p>Every time you dig up gems, there are less gems on the planet, so the more you dig on a planet the fewer gems you’ll get with each dig.</p><p>When gems are running low, you may want to travel to a new planet. </p> <p>  Planets are very far apart in this galaxy, so it will take some time to travel between them. </p> <br><p>There are lots and lots of planets for you to visit, so you won’t be able to return to any planets you’ve seen before. </p><br><p>To leave this planet and travel to a new one, press the letter <strong>‘L’</strong> on your keyboard. Try pressing it now! </p><p><img src='run_exp/static/images/task_images/rocket-01.jpg'  height='600' width='auto'></p>",76,"<p>Every time you dig up gems, there are less gems on the planet, so the more you dig on a planet the fewer gems you’ll get with each dig.</p><p>When gems are running low, you may want to travel to a new planet. </p> <p>  Planets are very far apart in this galaxy, so it will take some time to travel between them. </p> <br><p>There are lots and lots of planets for you to visit, so you won’t be able to return to any planets you’ve seen before. </p><br><p>To leave this planet and travel to a new one, press the letter <strong>‘L’</strong> on your keyboard. Try pressing it now! </p><p><img src='run_exp/static/images/task_images/rocket-01.jpg'  height='600' width='auto'></p>",,,,,,,,,,,,,,,,,,,,,,
travel_prac,14,172376,0.0-7.0-5.0,,,,,,,,,,,"[{""stimulus"":""run_exp/static/images/task_images/rocket-01.jpg"",""time"":0.5999999940395355},{""stimulus"":""run_exp/static/images/task_images/rocket-02.jpg"",""time"":1116.7000000029802},{""stimulus"":""run_exp/static/images/task_images/rocket-03.jpg"",""time"":2227.8999999910593},{""stimulus"":""run_exp/static/images/task_images/rocket-04.jpg"",""time"":3338.7999999970198},{""stimulus"":""run_exp/static/images/task_images/rocket-05.jpg"",""time"":4448.79999999702},{""stimulus"":""run_exp/static/images/task_images/rocket-06.jpg"",""time"":5556.5},{""stimulus"":""run_exp/static/images/task_images/rocket-07.jpg"",""time"":6671},{""stimulus"":""run_exp/static/images/task_images/rocket-08.jpg"",""time"":7779.70000000298},{""stimulus"":""run_exp/static/images/task_images/rocket-09.jpg"",""time"":8894.29999999702}]",[],0,,,,,,,,,,,,,,
instruc_alien_greet,15,199583,0.0-7.0-6.0,,null,run_exp/static/audio/clip_6_alien.m4a,null,"<p>When you arrive at a new planet, the alien who owns the treasure mine on that planet will greet you!</p><p>The better an alien takes care of their mine the easier it is to dig for gems. Some aliens take better care of their mine than others. So, you won’t get exactly the same amount of gems on each planet.</p><p>What the alien looks like does not tell you anything about how many gems there are on the planet.</p><br><p><img src=""run_exp/static/images/task_images/aliens/instructions_aliens/planet/alien_planet-1.jpg""  height=""600"" width=""auto""></p>",,,,,,,,,,,,,,,,,,,,,,
instruc_alien_greet,16,203631,0.0-7.0-7.0,,4042.7,"<p>When you arrive at a new planet, the alien who owns the treasure mine on that planet will greet you!</p><p>The better an alien takes care of their mine the easier it is to dig for gems. Some aliens take better care of their mine than others. So, you won’t get exactly the same amount of gems on each planet.</p><p>What the alien looks like does not tell you anything about how many gems there are on the planet.</p><br><p><img src=""run_exp/static/images/task_images/aliens/instructions_aliens/planet/alien_planet-1.jpg""  height=""600"" width=""auto""></p>",,,,,,1,,,,,,,,,,,,,,,,,,
html-keyboard-response,17,204566,0.0-7.0-8.0,,931,"<p>When you arrive at a new planet, the alien who owns the treasure mine on that planet will greet you!</p><p>The better an alien takes care of their mine the easier it is to dig for gems. Some aliens take better care of their mine than others. So, you won’t get exactly the same amount of gems on each planet.</p><p>What the alien looks like does not tell you anything about how many gems there are on the planet.</p><br><p><img src=""run_exp/static/images/task_images/aliens/instructions_aliens/planet/alien_planet-1.jpg""  height=""600"" width=""auto""></p><button class=""jspsych-html-btn-unchosen""><img src=""run_exp/static/images/task_images/planet-01.jpg"" height=""50""></button><button class=""jspsych-html-btn-chosen""><img src=""run_exp/static/images/task_images/planet-02.jpg"" height=""50""></button><p><b>[press the space bar to lock in your answer]<b><br></p>",32,,,,,,,,,,,,,,,,,,,,,,,
time_out,18,215650,0.0-8.0-0.0,,null,run_exp/static/audio/clip_7_timeout.m4a,null,"<p>If you don't make your choice fast enough, you’ll have to wait a few seconds before you can make another one.</p><p>You can’t dig for more gems or travel to new planets. You just have to sit and wait.</p><br><p><img src='run_exp/static/images/task_images/time_out.jpg'  height='600' width='auto'></p>",,,,,,,,,,,,,,,,,,,,,,
time_out,19,222313,0.0-8.0-1.0,,6654,"<p>If you don't make your choice fast enough, you’ll have to wait a few seconds before you can make another one.</p><p>You can’t dig for more gems or travel to new planets. You just have to sit and wait.</p><br><p><img src='run_exp/static/images/task_images/time_out.jpg'  height='600' width='auto'></p>",,,,,,1,,,,,,,,,,,,,,,,,,
html-keyboard-response,20,223484,0.0-8.0-2.0,,1168.2,"<p>If you don't make your choice fast enough, you’ll have to wait a few seconds before you can make another one.</p><p>You can’t dig for more gems or travel to new planets. You just have to sit and wait.</p><br><p><img src='run_exp/static/images/task_images/time_out.jpg'  height='600' width='auto'></p><button class=""jspsych-html-btn-unchosen""><img src=""run_exp/static/images/task_images/planet-01.jpg"" height=""50""></button><button class=""jspsych-html-btn-chosen""><img src=""run_exp/static/images/task_images/planet-02.jpg"" height=""50""></button><p><b>[press the space bar to lock in your answer]<b><br></p>",32,,,,,,,,,,,,,,,,,,,,,,,
instruc_break,21,239148,0.0-9.0-0.0,,null,run_exp/static/audio/clip_8_break.m4a,null,"<p> After digging and traveling for a while, you’ll be able to take a break at home base. </p><p>The game will last 20 minutes no matter what.</p><p>You will visit home base every 5 minutes, so, you will visit home base three times during the game.</p><br><p><img src='run_exp/static/images/task_images/home_base.jpg' height='600' width='auto'></p>",,,,,,,,,,,,,,,,,,,,,,
instruc_break,22,243582,0.0-9.0-1.0,,4432.4,"<p> After digging and traveling for a while, you’ll be able to take a break at home base. </p><p>The game will last 20 minutes no matter what.</p><p>You will visit home base every 5 minutes, so, you will visit home base three times during the game.</p><br><p><img src='run_exp/static/images/task_images/home_base.jpg' height='600' width='auto'></p>",,,,,,1,,,,,,,,,,,,,,,,,,
html-keyboard-response,23,244225,0.0-9.0-2.0,,640.3,"<p> After digging and traveling for a while, you’ll be able to take a break at home base. </p><p>The game will last 20 minutes no matter what.</p><p>You will visit home base every 5 minutes, so, you will visit home base three times during the game.</p><br><p><img src='run_exp/static/images/task_images/home_base.jpg' height='600' width='auto'></p><button class=""jspsych-html-btn-unchosen""><img src=""run_exp/static/images/task_images/planet-01.jpg"" height=""50""></button><button class=""jspsych-html-btn-chosen""><img src=""run_exp/static/images/task_images/planet-02.jpg"" height=""50""></button><p><b>[press the space bar to lock in your answer]<b><br></p>",32,,,,,,,,,,,,,,,,,,,,,,,
instruc_prac_game,24,254358,0.0-10.0-0.0,,null,run_exp/static/audio/clip_9_practice.m4a,null,"<p> Are you ready to play a practice game? </p> <p>In this practice game, you'll be digging up barrels of gems. But, in the real game, you'll be digging up the gems themselves. </p>",,,,,,,,,,,,,,,,,,,,,,
html-button-response,25,261737,0.0-10.0-1.0,,7375.9,"<p> Are you ready to play a practice game? </p> <p>In this practice game, you'll be digging up barrels of gems. But, in the real game, you'll be digging up the gems themselves. </p>",,,,,,0,,,,,,,,,,,,,,,,,,
alien_welcome_prac,26,266745,0.0-11.0-0.0,,null,run_exp/static/images/task_images/aliens/practice_aliens/planet/alien_planet-5.jpg,null,,,,,,,,,,,,,,,,,,,,,,,
land_prac,27,267249,0.0-11.0-1.0,,null,run_exp/static/images/task_images/land.jpg,null,,,,,,99,,,0,,,,,,,,,,,,,,
dig_prac,28,269260,0.0-11.0-2.0,,,,,,,,,,,"[{""stimulus"":""run_exp/static/images/task_images/dig.jpg"",""time"":0.5999999940395355},{""stimulus"":""run_exp/static/images/task_images/land.jpg"",""time"":669.6999999880791},{""stimulus"":""run_exp/static/images/task_images/dig.jpg"",""time"":1341.699999988079}]",[],,,,,,,,,,,,,,,
harvest_prac,29,270264,0.0-11.0-3.0,,null,run_exp/static/images/task_images/barrel_text.jpg,null,,,,,,,,,,,,,,,,,,,,,,,
decision_prac,30,273271,0.0-11.0-4.0,,null,run_exp/static/images/task_images/land.jpg,null,,,,,,,,,,1,,,,,,,,,,,,,
time_out,31,275278,0.0-12.0-0.0,,null,run_exp/static/images/task_images/time_out.jpg,null,,,,,,,,,,,,,,,,,,,,,,,
decision_prac,32,276780,0.0-12.0-1.0,,1499.4,run_exp/static/images/task_images/land.jpg,65,,,,,,,,,,2,,,,,,,,,,,,,
dig_prac,33,278794,0.0-13.0-0.0,,,,,,,,,,,"[{""stimulus"":""run_exp/static/images/task_images/dig.jpg"",""time"":0.29999999701976776},{""stimulus"":""run_exp/static/images/task_images/land.jpg"",""time"":674.3999999910593},{""stimulus"":""run_exp/static/images/task_images/dig.jpg"",""time"":1335.7999999970198}]",[],,,,,,,,,,,,,,,
harvest_prac,34,279799,0.0-13.0-1.0,,null,run_exp/static/images/task_images/barrel_text.jpg,null,,,,,,,,,,,,,,,,,,,,,,,
decision_prac,35,280363,0.0-13.0-2.0,,560.9,run_exp/static/images/task_images/land.jpg,65,,,,,,,,,,3,,,,,,,,,,,,,
dig_prac,36,282378,0.0-14.0-0.0,,,,,,,,,,,"[{""stimulus"":""run_exp/static/images/task_images/dig.jpg"",""time"":0.29999999701976776},{""stimulus"":""run_exp/static/images/task_images/land.jpg"",""time"":673.7999999970198},{""stimulus"":""run_exp/static/images/task_images/dig.jpg"",""time"":1338.0999999940395}]",[],,,,,,,,,,,,,,,
harvest_prac,37,283386,0.0-14.0-1.0,,null,run_exp/static/images/task_images/barrel_text.jpg,null,,,,,,,,,,,,,,,,,,,,,,,
decision_prac,38,283460,0.0-14.0-2.0,,69.8,run_exp/static/images/task_images/land.jpg,65,,,,,,,,,,4,,,,,,,,,,,,,
dig_prac,39,285471,0.0-15.0-0.0,,,,,,,,,,,"[{""stimulus"":""run_exp/static/images/task_images/dig.jpg"",""time"":0.3999999910593033},{""stimulus"":""run_exp/static/images/task_images/land.jpg"",""time"":670.5999999940395},{""stimulus"":""run_exp/static/images/task_images/dig.jpg"",""time"":1337.0999999940395}]",[],,,,,,,,,,,,,,,
harvest_prac,40,286478,0.0-15.0-1.0,,null,run_exp/static/images/task_images/barrel_text.jpg,null,,,,,,,,,,,,,,,,,,,,,,,
decision_prac,41,287206,0.0-15.0-2.0,,724.3,run_exp/static/images/task_images/land.jpg,65,,,,,,,,,,,1,,,,,,,,,,,,
quiz_instruc,42,290007,0.0-16.0-0.0,,2796.7,run_exp/static/audio/clip_10_quiz.m4a,,,,,,0,,,,,,,,,,,,,,,,,,
instruc_repeat,43,332768,0.0-16.0-1.0,,null,"<p> Are you ready to play a practice game? </p> <p>In this practice game, you'll be digging up barrels of gems. But, in the real game, you'll be digging up the gems themselves. </p>",null,"<p>In this game, your goal is to collect as many gems as you can. That’s how you will win bonus money. </p> <p>The entire game will last 20 minutes no matter how many gems you collect or how many planets you visit. </p><p>To stay on a planet and dig again, press the letter A on your keyboard. To leave for a new planet, press the letter L.</p><p>The more you dig on a planet, the fewer gems you’ll get with each dig which is why you might consider leaving for a new planet. </p><p>When you arrive at a new planet, you’ll be greeted by an alien. What the alien looks like does not tell you anything about how much treasure is on the planet. </p>",,,,,,,,,,,,,,,,,,,,,,
instruc_repeat_continue,44,410049,0.0-16.0-2.0,,77281.1,"<p> Are you ready to play a practice game? </p> <p>In this practice game, you'll be digging up barrels of gems. But, in the real game, you'll be digging up the gems themselves. </p>",,,,,,0,,,,,,,,,,,,,,,,,,
quiz_q_1_ask,45,413292,0.0-16.0-3.0,,3240.9,run_exp/static/audio/clip_11_q1_ask.m4a,,,,,,2,,,,,,,,,,,,,,,,,,
quiz_q_1_fb_correct,46,417133,0.0-17.0-0.0,,null,run_exp/static/audio/clip_12_q1_corrrect.m4a,null,<p>That’s correct. You win extra money by collecting more gems.</p>,,,,,,,,,,,,,,,,,,,,,,
quiz_q_2_ask,47,439659,0.0-17.0-1.0,,22524,run_exp/static/audio/clip_14_q2_ask.m4a,,,,,,1,,,,,,,,,,,,,,,,,,
quiz_q_2_fb_correct,48,443648,0.0-18.0-0.0,,null,run_exp/static/audio/clip_15_q2_correct.m4a,null,<p>That’s correct. The experiment is 20 minutes no matter what.</p>,,,,,,,,,,,,,,,,,,,,,,
quiz_q_3_ask,49,446925,0.0-18.0-1.0,,3274.9,run_exp/static/audio/clip_17_q3_ask.m4a,,,,,,1,,,,,,,,,,,,,,,,,,
quiz_q_3_fb_correct,50,450895,0.0-19.0-0.0,,null,run_exp/static/audio/clip_18_q3_correct.m4a,null,<p> That’s correct. You press the letter L to travel to a new planet.</p>,,,,,,,,,,,,,,,,,,,,,,
quiz_q_4_ask,51,459813,0.0-19.0-1.0,,8914.8,run_exp/static/audio/clip_20_q4_ask.m4a,,,,,,0,,,,,,,,,,,,,,,,,,
quiz_q_4_fb_correct,52,465126,0.0-20.0-0.0,,null,run_exp/static/audio/clip_21_q4_correct.m4a,null,<p> That’s correct. The more you dig on a planet the fewer gems you’ll get with each dig. </p>,,,,,,,,,,,,,,,,,,,,,,
quiz_q_5_ask,53,472966,0.0-20.0-1.0,,7836.3,run_exp/static/audio/clip_23_q5_ask.m4a,,,,,,1,,,,,,,,,,,,,,,,,,
quiz_q_5_fb_correct,54,477966,0.0-21.0-0.0,,null,run_exp/static/audio/clip_24_q5_correct.m4a,null,<p> That’s correct. The alien tells you nothing about how much treasure is on the planet.</p>,,,,,,,,,,,,,,,,,,,,,,
quiz_correct,55,481425,0.0-22.0-0.0,,null,run_exp/static/audio/clip_26_correct_quiz.m4a,null,,,,,,,,,,,,,,,,,,,,,,,
quiz_correct_continue,56,520307,0.0-22.0-1.0,,38881.9,<p>Good job! You're now ready to move on to the real game!</p>,,,,,,0,,,,,,,,,,,,,,,,,,
audio-keyboard-response,57,530461,0.0-22.0-2.0,,null,run_exp/static/audio/clip_28_real_game.m4a,null,,,,,,,,,,,,,,,,,,,,,,,
instruc_begin_exp_contine,58,534797,0.0-22.0-3.0,,4333.9,"<p>Now that you know how  to dig for space treasure and travel to new planets,you can start exploring! </p><p>Do you want to go over the instructions again or get started with the real game?</p>",,,,,,1,,,,,,1,,,,,,,,,,,,
alien_welcome,59,539807,0.0-23.0-0.0,,null,run_exp/static/images/task_images/aliens/old_aliens/planet/alien_planet-77.jpg,null,,,,,,,,,,,,77,"77,37,26,36,70,58,6,48,78,72,59,51,74,4,49,10,15,73,8",,,,,,,,,,
land,60,540315,0.0-23.0-1.0,,null,run_exp/static/images/task_images/land.jpg,null,,,,,,102,,,1,,,,,,,,,,,,,,
dig,61,542327,0.0-23.0-2.0,,,,,,,,,,,"[{""stimulus"":""run_exp/static/images/task_images/dig.jpg"",""time"":0.6000000089406967},{""stimulus"":""run_exp/static/images/task_images/land.jpg"",""time"":674.2000000029802},{""stimulus"":""run_exp/static/images/task_images/dig.jpg"",""time"":1336.2000000029802}]",[],1,,,,,,,,,,,,,,
harvest,62,543330,0.0-23.0-3.0,,null,run_exp/static/images/task_images/gems/102.jpg,null,,,,,,19,,,1,,,,,102,0.185808047,0.18627451,,,,,,,
decision,63,544946,0.0-23.0-4.0,,1612.1,run_exp/static/images/task_images/land.jpg,65,,,,,,19,,,1,,,,,,,,10146,1,0,FALSE,,,
dig,64,546340,0.0-24.0-0.0,,,,,,,,,,,"[{""stimulus"":""run_exp/static/images/task_images/dig.jpg"",""time"":0.20000000298023224},{""stimulus"":""run_exp/static/images/task_images/land.jpg"",""time"":466.29999999701977},{""stimulus"":""run_exp/static/images/task_images/dig.jpg"",""time"":926}]",[],1,,,,,,,,,,,,,,
harvest,65,547342,0.0-24.0-1.0,,null,run_exp/static/images/task_images/gems/19.jpg,null,,,,,,4,,,1,,,,,19,0.218280814,0.210526316,,,,,,,
decision,66,547783,0.0-24.0-2.0,,437.2,run_exp/static/images/task_images/land.jpg,65,,,,,,4,,,1,,,,,,,,12982,1,1,FALSE,,,
dig,67,550357,0.0-25.0-0.0,,,,,,,,,,,"[{""stimulus"":""run_exp/static/images/task_images/dig.jpg"",""time"":0.29999999701976776},{""stimulus"":""run_exp/static/images/task_images/land.jpg"",""time"":858.7999999970198},{""stimulus"":""run_exp/static/images/task_images/dig.jpg"",""time"":1714.0999999940395}]",[],1,,,,,,,,,,,,,,
harvest,68,551365,0.0-25.0-1.0,,null,run_exp/static/images/task_images/gems/4.jpg,null,,,,,,0,,,1,,,,,4,0.117971499,0,,,,,,,
decision,69,552145,0.0-25.0-2.0,,776.7,run_exp/static/images/task_images/land.jpg,76,,,,,,0,,,1,,,,,,,,17344,1,2,TRUE,,,
travel,70,561373,0.0-26.0-0.0,,,,,,,,,,,"[{""stimulus"":""run_exp/static/images/task_images/rocket-01.jpg"",""time"":0.29999999701976776},{""stimulus"":""run_exp/static/images/task_images/rocket-02.jpg"",""time"":1027.7000000029802},{""stimulus"":""run_exp/static/images/task_images/rocket-03.jpg"",""time"":2054.4000000059605},{""stimulus"":""run_exp/static/images/task_images/rocket-04.jpg"",""time"":3076.9000000059605},{""stimulus"":""run_exp/static/images/task_images/rocket-05.jpg"",""time"":4100.20000000298},{""stimulus"":""run_exp/static/images/task_images/rocket-06.jpg"",""time"":5126.29999999702},{""stimulus"":""run_exp/static/images/task_images/rocket-07.jpg"",""time"":6148.0999999940395},{""stimulus"":""run_exp/static/images/task_images/rocket-08.jpg"",""time"":7173.5999999940395},{""stimulus"":""run_exp/static/images/task_images/rocket-09.jpg"",""time"":8197.09999999404}]",[],1,,,,,,,,,,,,,,
alien_welcome,71,566378,0.0-26.0-1.0,,null,run_exp/static/images/task_images/aliens/old_aliens/planet/alien_planet-37.jpg,null,,,,,,,,,,,,37,"77,37,26,36,70,58,6,48,78,72,59,51,74,4,49,10,15,73,8",,,,,,,,,,
land,72,566887,0.0-26.0-2.0,,null,run_exp/static/images/task_images/land.jpg,null,,,,,,106,,,2,,,,,,,,,,,,,,
dig,73,568896,0.0-26.0-3.0,,,,,,,,,,,"[{""stimulus"":""run_exp/static/images/task_images/dig.jpg"",""time"":0.29999999701976776},{""stimulus"":""run_exp/static/images/task_images/land.jpg"",""time"":673.2000000029802},{""stimulus"":""run_exp/static/images/task_images/dig.jpg"",""time"":1338.7000000029802}]",[],2,,,,,,,,,,,,,,
harvest,74,569902,0.0-26.0-4.0,,null,run_exp/static/images/task_images/gems/106.jpg,null,,,,,,25,,,2,,,,,106,0.233751474,0.235849057,,,,,,,
decision,75,572908,0.0-26.0-5.0,,null,run_exp/static/images/task_images/land.jpg,null,,,,,,25,,,2,,,,,,,,38107,1,0,FALSE,,,
time_out,76,574915,0.0-27.0-0.0,,null,run_exp/static/images/task_images/time_out.jpg,null,,,,,,25,,,,,,,,,,,,,,,,,
decision,77,575096,0.0-27.0-1.0,,177.4,run_exp/static/images/task_images/land.jpg,65,,,,,,25,,,2,,,,,,,,40295,1,0,FALSE,,,
dig,78,577928,0.0-28.0-0.0,,,,,,,,,,,"[{""stimulus"":""run_exp/static/images/task_images/dig.jpg"",""time"":0.29999999701976776},{""stimulus"":""run_exp/static/images/task_images/land.jpg"",""time"":945.2999999970198},{""stimulus"":""run_exp/static/images/task_images/dig.jpg"",""time"":1886.3999999910593}]",[],2,,,,,,,,,,,,,,
harvest,79,578934,0.0-28.0-1.0,,null,run_exp/static/images/task_images/gems/25.jpg,null,,,,,,4,,,2,,,,,25,0.150888108,0.16,,,,,,,
decision,80,579740,0.0-28.0-2.0,,804.1,run_exp/static/images/task_images/land.jpg,65,,,,,,4,,,2,,,,,,,,44942,1,1,FALSE,,,
dig,81,581947,0.0-29.0-0.0,,,,,,,,,,,"[{""stimulus"":""run_exp/static/images/task_images/dig.jpg"",""time"":0.29999999701976776},{""stimulus"":""run_exp/static/images/task_images/land.jpg"",""time"":735.7999999970198},{""stimulus"":""run_exp/static/images/task_images/dig.jpg"",""time"":1468}]",[],2,,,,,,,,,,,,,,
harvest,82,582952,0.0-29.0-1.0,,null,run_exp/static/images/task_images/gems/4.jpg,null,,,,,,1,,,2,,,,,4,0.162311662,0.25,,,,,,,
decision,83,583036,0.0-29.0-2.0,,81.09999999,run_exp/static/images/task_images/land.jpg,65,,,,,,1,,,2,,,,,,,,48235,1,2,FALSE,,,
dig,84,585962,0.0-30.0-0.0,,,,,,,,,,,"[{""stimulus"":""run_exp/static/images/task_images/dig.jpg"",""time"":0.19999998807907104},{""stimulus"":""run_exp/static/images/task_images/land.jpg"",""time"":974.5999999940395},{""stimulus"":""run_exp/static/images/task_images/dig.jpg"",""time"":1950.5999999940395}]",[],2,,,,,,,,,,,,,,
harvest,85,586969,0.0-30.0-1.0,,null,run_exp/static/images/task_images/gems/1.jpg,null,,,,,,0,,,2,,,,,1,0.292875118,0,,,,,,,
decision,86,587927,0.0-30.0-2.0,,956.1,run_exp/static/images/task_images/land.jpg,76,,,,,,0,,,2,,,,,,,,53127,1,3,TRUE,,,
travel,87,596971,0.0-31.0-0.0,,,,,,,,,,,"[{""stimulus"":""run_exp/static/images/task_images/rocket-01.jpg"",""time"":0.10000000894069672},{""stimulus"":""run_exp/static/images/task_images/rocket-02.jpg"",""time"":1006.3000000119209},{""stimulus"":""run_exp/static/images/task_images/rocket-03.jpg"",""time"":2012},{""stimulus"":""run_exp/static/images/task_images/rocket-04.jpg"",""time"":3014.1000000089407},{""stimulus"":""run_exp/static/images/task_images/rocket-05.jpg"",""time"":4018.300000011921},{""stimulus"":""run_exp/static/images/task_images/rocket-06.jpg"",""time"":5022.9000000059605},{""stimulus"":""run_exp/static/images/task_images/rocket-07.jpg"",""time"":6025.9000000059605},{""stimulus"":""run_exp/static/images/task_images/rocket-08.jpg"",""time"":7032.600000008941},{""stimulus"":""run_exp/static/images/task_images/rocket-09.jpg"",""time"":8037.20000000298}]",[],2,,,,,,,,,,,,,,
alien_welcome,88,601978,0.0-31.0-1.0,,null,run_exp/static/images/task_images/aliens/old_aliens/planet/alien_planet-26.jpg,null,,,,,,,,,,,,26,"77,37,26,36,70,58,6,48,78,72,59,51,74,4,49,10,15,73,8",,,,,,,,,,
land,89,602482,0.0-31.0-2.0,,null,run_exp/static/images/task_images/land.jpg,null,,,,,,97,,,3,,,,,,,,,,,,,,
dig,90,604493,0.0-31.0-3.0,,,,,,,,,,,"[{""stimulus"":""run_exp/static/images/task_images/dig.jpg"",""time"":0.3999999910593033},{""stimulus"":""run_exp/static/images/task_images/land.jpg"",""time"":672.8999999910593},{""stimulus"":""run_exp/static/images/task_images/dig.jpg"",""time"":1339.0999999940395}]",[],3,,,,,,,,,,,,,,
harvest,91,605501,0.0-31.0-4.0,,null,run_exp/static/images/task_images/gems/97.jpg,null,,,,,,40,,,3,,,,,97,0.414930588,0.412371134,,,,,,,
decision,92,606122,0.0-31.0-5.0,,618.9,run_exp/static/images/task_images/land.jpg,65,,,,,,40,,,3,,,,,,,,71322,1,0,FALSE,,,
dig,93,608516,0.0-32.0-0.0,,,,,,,,,,,"[{""stimulus"":""run_exp/static/images/task_images/dig.jpg"",""time"":0.4000000059604645},{""stimulus"":""run_exp/static/images/task_images/land.jpg"",""time"":795.5999999940395},{""stimulus"":""run_exp/static/images/task_images/dig.jpg"",""time"":1587.7999999970198}]",[],3,,,,,,,,,,,,,,
harvest,94,609520,0.0-32.0-1.0,,null,run_exp/static/images/task_images/gems/40.jpg,null,,,,,,21,,,3,,,,,40,0.518163173,0.525,,,,,,,
decision,95,610415,0.0-32.0-2.0,,892.2,run_exp/static/images/task_images/land.jpg,65,,,,,,21,,,3,,,,,,,,75614,1,1,FALSE,,,
dig,96,612530,0.0-33.0-0.0,,,,,,,,,,,"[{""stimulus"":""run_exp/static/images/task_images/dig.jpg"",""time"":0.29999999701976776},{""stimulus"":""run_exp/static/images/task_images/land.jpg"",""time"":707.2999999970198},{""stimulus"":""run_exp/static/images/task_images/dig.jpg"",""time"":1407.7000000029802}]",[],3,,,,,,,,,,,,,,
harvest,97,613535,0.0-33.0-1.0,,null,run_exp/static/images/task_images/gems/21.jpg,null,,,,,,12,,,3,,,,,21,0.591811234,0.571428571,,,,,,,
decision,98,616170,0.0-33.0-2.0,,2632.7,run_exp/static/images/task_images/land.jpg,65,,,,,,12,,,3,,,,,,,,81369,1,2,FALSE,,,
dig,99,616543,0.0-34.0-0.0,,,,,,,,,,,"[{""stimulus"":""run_exp/static/images/task_images/dig.jpg"",""time"":0.09999999403953552},{""stimulus"":""run_exp/static/images/task_images/land.jpg"",""time"":125.09999999403954},{""stimulus"":""run_exp/static/images/task_images/dig.jpg"",""time"":249.59999999403954}]",[],3,,,,,,,,,,,,,,
harvest,100,617545,0.0-34.0-1.0,,null,run_exp/static/images/task_images/gems/12.jpg,null,,,,,,6,,,3,,,,,12,0.481657685,0.5,,,,,,,
decision,101,619011,0.0-34.0-2.0,,1464.7,run_exp/static/images/task_images/land.jpg,65,,,,,,6,,,3,,,,,,,,84210,1,3,FALSE,,,
dig,102,620552,0.0-35.0-0.0,,,,,,,,,,,"[{""stimulus"":""run_exp/static/images/task_images/dig.jpg"",""time"":0.30000001192092896},{""stimulus"":""run_exp/static/images/task_images/land.jpg"",""time"":512.6000000089407},{""stimulus"":""run_exp/static/images/task_images/dig.jpg"",""time"":1026.4000000059605}]",[],3,,,,,,,,,,,,,,
harvest,103,621558,0.0-35.0-1.0,,null,run_exp/static/images/task_images/gems/6.jpg,null,,,,,,3,,,3,,,,,6,0.474744056,0.5,,,,,,,
decision,104,622455,0.0-35.0-2.0,,894.3,run_exp/static/images/task_images/land.jpg,76,,,,,,3,,,3,,,,,,,,87654,1,4,TRUE,,,
travel,105,631559,0.0-36.0-0.0,,,,,,,,,,,"[{""stimulus"":""run_exp/static/images/task_images/rocket-01.jpg"",""time"":0},{""stimulus"":""run_exp/static/images/task_images/rocket-02.jpg"",""time"":1013.2000000029802},{""stimulus"":""run_exp/static/images/task_images/rocket-03.jpg"",""time"":2024.2000000029802},{""stimulus"":""run_exp/static/images/task_images/rocket-04.jpg"",""time"":3037.2000000029802},{""stimulus"":""run_exp/static/images/task_images/rocket-05.jpg"",""time"":4050.2000000029802},{""stimulus"":""run_exp/static/images/task_images/rocket-06.jpg"",""time"":5061},{""stimulus"":""run_exp/static/images/task_images/rocket-07.jpg"",""time"":6070.70000000298},{""stimulus"":""run_exp/static/images/task_images/rocket-08.jpg"",""time"":7082.600000008941},{""stimulus"":""run_exp/static/images/task_images/rocket-09.jpg"",""time"":8092.9000000059605}]",[],3,,,,,,,,,,,,,,
alien_welcome,106,636567,0.0-36.0-1.0,,null,run_exp/static/images/task_images/aliens/old_aliens/planet/alien_planet-36.jpg,null,,,,,,,,,,,,36,"77,37,26,36,70,58,6,48,78,72,59,51,74,4,49,10,15,73,8",,,,,,,,,,
land,107,637075,0.0-36.0-2.0,,null,run_exp/static/images/task_images/land.jpg,null,,,,,,90,,,4,,,,,,,,,,,,,,
dig,108,639083,0.0-36.0-3.0,,,,,,,,,,,"[{""stimulus"":""run_exp/static/images/task_images/dig.jpg"",""time"":0.3999999910593033},{""stimulus"":""run_exp/static/images/task_images/land.jpg"",""time"":672.7999999970198},{""stimulus"":""run_exp/static/images/task_images/dig.jpg"",""time"":1336.199999988079}]",[],4,,,,,,,,,,,,,,
harvest,109,640086,0.0-36.0-4.0,,null,run_exp/static/images/task_images/gems/90.jpg,null,,,,,,47,,,4,,,,,90,0.520059948,0.522222222,,,,,,,
decision,110,640732,0.0-36.0-5.0,,643.5,run_exp/static/images/task_images/land.jpg,65,,,,,,47,,,4,,,,,,,,105931,1,0,FALSE,,,
dig,111,643093,0.0-37.0-0.0,,,,,,,,,,,"[{""stimulus"":""run_exp/static/images/task_images/dig.jpg"",""time"":0.20000000298023224},{""stimulus"":""run_exp/static/images/task_images/land.jpg"",""time"":790.2999999970198},{""stimulus"":""run_exp/static/images/task_images/dig.jpg"",""time"":1573.7999999970198}]",[],4,,,,,,,,,,,,,,
harvest,112,644099,0.0-37.0-1.0,,null,run_exp/static/images/task_images/gems/47.jpg,null,,,,,,23,,,4,,,,,47,0.483824119,0.489361702,,,,,,,
decision,113,646204,0.0-37.0-2.0,,2102.1,run_exp/static/images/task_images/land.jpg,65,,,,,,23,,,4,,,,,,,,111403,1,1,FALSE,,,
dig,114,647108,0.0-38.0-0.0,,,,,,,,,,,"[{""stimulus"":""run_exp/static/images/task_images/dig.jpg"",""time"":0.09999999403953552},{""stimulus"":""run_exp/static/images/task_images/land.jpg"",""time"":301},{""stimulus"":""run_exp/static/images/task_images/dig.jpg"",""time"":601.7000000029802}]",[],4,,,,,,,,,,,,,,
harvest,115,648116,0.0-38.0-1.0,,null,run_exp/static/images/task_images/gems/23.jpg,null,,,,,,12,,,4,,,,,23,0.502964015,0.52173913,,,,,,,
decision,116,648781,0.0-38.0-2.0,,664.8,run_exp/static/images/task_images/land.jpg,65,,,,,,12,,,4,,,,,,,,113981,1,2,FALSE,,,
dig,117,651124,0.0-39.0-0.0,,,,,,,,,,,"[{""stimulus"":""run_exp/static/images/task_images/dig.jpg"",""time"":0.19999998807907104},{""stimulus"":""run_exp/static/images/task_images/land.jpg"",""time"":780.5999999940395},{""stimulus"":""run_exp/static/images/task_images/dig.jpg"",""time"":1562.3999999910593}]",[],4,,,,,,,,,,,,,,
harvest,118,652131,0.0-39.0-1.0,,null,run_exp/static/images/task_images/gems/12.jpg,null,,,,,,6,,,4,,,,,12,0.516561691,0.5,,,,,,,
decision,119,652817,0.0-39.0-2.0,,683,run_exp/static/images/task_images/land.jpg,65,,,,,,6,,,4,,,,,,,,118016,1,3,FALSE,,,
dig,120,655143,0.0-40.0-0.0,,,,,,,,,,,"[{""stimulus"":""run_exp/static/images/task_images/dig.jpg"",""time"":0.5},{""stimulus"":""run_exp/static/images/task_images/land.jpg"",""time"":775.5999999940395},{""stimulus"":""run_exp/static/images/task_images/dig.jpg"",""time"":1550}]",[],4,,,,,,,,,,,,,,
harvest,121,656150,0.0-40.0-1.0,,null,run_exp/static/images/task_images/gems/6.jpg,null,,,,,,2,,,4,,,,,6,0.409000498,0.333333333,,,,,,,
decision,122,656585,0.0-40.0-2.0,,432.3,run_exp/static/images/task_images/land.jpg,76,,,,,,2,,,4,,,,,,,,121784,1,4,TRUE,,,
travel,123,666157,0.0-41.0-0.0,,,,,,,,,,,"[{""stimulus"":""run_exp/static/images/task_images/rocket-01.jpg"",""time"":0.09999999403953552},{""stimulus"":""run_exp/static/images/task_images/rocket-02.jpg"",""time"":1064.699999988079},{""stimulus"":""run_exp/static/images/task_images/rocket-03.jpg"",""time"":2127.699999988079},{""stimulus"":""run_exp/static/images/task_images/rocket-04.jpg"",""time"":3194},{""stimulus"":""run_exp/static/images/task_images/rocket-05.jpg"",""time"":4256.29999999702},{""stimulus"":""run_exp/static/images/task_images/rocket-06.jpg"",""time"":5319.899999991059},{""stimulus"":""run_exp/static/images/task_images/rocket-07.jpg"",""time"":6380.899999991059},{""stimulus"":""run_exp/static/images/task_images/rocket-08.jpg"",""time"":7446.29999999702},{""stimulus"":""run_exp/static/images/task_images/rocket-09.jpg"",""time"":8509.59999999404}]",[],4,,,,,,,,,,,,,,
alien_welcome,124,671166,0.0-41.0-1.0,,null,run_exp/static/images/task_images/aliens/old_aliens/planet/alien_planet-70.jpg,null,,,,,,,,,,,,70,"77,37,26,36,70,58,6,48,78,72,59,51,74,4,49,10,15,73,8",,,,,,,,,,
land,125,671674,0.0-41.0-2.0,,null,run_exp/static/images/task_images/land.jpg,null,,,,,,104,,,5,,,,,,,,,,,,,,
dig,126,673684,0.0-41.0-3.0,,,,,,,,,,,"[{""stimulus"":""run_exp/static/images/task_images/dig.jpg"",""time"":0.5},{""stimulus"":""run_exp/static/images/task_images/land.jpg"",""time"":672.7999999970198},{""stimulus"":""run_exp/static/images/task_images/dig.jpg"",""time"":1339.199999988079}]",[],5,,,,,,,,,,,,,,
harvest,127,674691,0.0-41.0-4.0,,null,run_exp/static/images/task_images/gems/104.jpg,null,,,,,,60,,,5,,,,,104,0.578503744,0.576923077,,,,,,,
decision,128,674725,0.0-41.0-5.0,,32.40000001,run_exp/static/images/task_images/land.jpg,65,,,,,,60,,,5,,,,,,,,139924,1,0,FALSE,,,
dig,129,677696,0.0-42.0-0.0,,,,,,,,,,,"[{""stimulus"":""run_exp/static/images/task_images/dig.jpg"",""time"":0.20000000298023224},{""stimulus"":""run_exp/static/images/task_images/land.jpg"",""time"":990.6000000089407},{""stimulus"":""run_exp/static/images/task_images/dig.jpg"",""time"":1981.6000000089407}]",[],5,,,,,,,,,,,,,,
harvest,130,678700,0.0-42.0-1.0,,null,run_exp/static/images/task_images/gems/60.jpg,null,,,,,,30,,,5,,,,,60,0.495127976,0.5,,,,,,,
decision,131,680005,0.0-42.0-2.0,,1302.9,run_exp/static/images/task_images/land.jpg,65,,,,,,30,,,5,,,,,,,,145205,1,1,FALSE,,,
dig,132,681711,0.0-43.0-0.0,,,,,,,,,,,"[{""stimulus"":""run_exp/static/images/task_images/dig.jpg"",""time"":0.19999998807907104},{""stimulus"":""run_exp/static/images/task_images/land.jpg"",""time"":569.8999999910593},{""stimulus"":""run_exp/static/images/task_images/dig.jpg"",""time"":1135.5999999940395}]",[],5,,,,,,,,,,,,,,
harvest,133,682716,0.0-43.0-1.0,,null,run_exp/static/images/task_images/gems/30.jpg,null,,,,,,12,,,5,,,,,30,0.403784809,0.4,,,,,,,
decision,134,683604,0.0-43.0-2.0,,885.9,run_exp/static/images/task_images/land.jpg,65,,,,,,12,,,5,,,,,,,,148803,1,2,FALSE,,,
dig,135,685724,0.0-44.0-0.0,,,,,,,,,,,"[{""stimulus"":""run_exp/static/images/task_images/dig.jpg"",""time"":0.29999999701976776},{""stimulus"":""run_exp/static/images/task_images/land.jpg"",""time"":708.6999999880791},{""stimulus"":""run_exp/static/images/task_images/dig.jpg"",""time"":1413.5}]",[],5,,,,,,,,,,,,,,
harvest,136,686727,0.0-44.0-1.0,,null,run_exp/static/images/task_images/gems/12.jpg,null,,,,,,6,,,5,,,,,12,0.541473768,0.5,,,,,,,
decision,137,687415,0.0-44.0-2.0,,684.3,run_exp/static/images/task_images/land.jpg,65,,,,,,6,,,5,,,,,,,,152614,1,3,FALSE,,,
dig,138,689737,0.0-45.0-0.0,,,,,,,,,,,"[{""stimulus"":""run_exp/static/images/task_images/dig.jpg"",""time"":0.4000000059604645},{""stimulus"":""run_exp/static/images/task_images/land.jpg"",""time"":773.3000000119209},{""stimulus"":""run_exp/static/images/task_images/dig.jpg"",""time"":1546.2000000029802}]",[],5,,,,,,,,,,,,,,
harvest,139,690743,0.0-45.0-1.0,,null,run_exp/static/images/task_images/gems/6.jpg,null,,,,,,3,,,5,,,,,6,0.482474829,0.5,,,,,,,
decision,140,691384,0.0-45.0-2.0,,638.2,run_exp/static/images/task_images/land.jpg,65,,,,,,3,,,5,,,,,,,,156583,1,4,FALSE,,,
dig,141,693756,0.0-46.0-0.0,,,,,,,,,,,"[{""stimulus"":""run_exp/static/images/task_images/dig.jpg"",""time"":0.3999999910593033},{""stimulus"":""run_exp/static/images/task_images/land.jpg"",""time"":793.1999999880791},{""stimulus"":""run_exp/static/images/task_images/dig.jpg"",""time"":1578.199999988079}]",[],5,,,,,,,,,,,,,,
harvest,142,694763,0.0-46.0-1.0,,null,run_exp/static/images/task_images/gems/3.jpg,null,,,,,,1,,,5,,,,,3,0.498828223,0.333333333,,,,,,,
decision,143,695210,0.0-46.0-2.0,,445.3,run_exp/static/images/task_images/land.jpg,76,,,,,,1,,,5,,,,,,,,160409,1,5,TRUE,,,
travel,144,704768,0.0-47.0-0.0,,,,,,,,,,,"[{""stimulus"":""run_exp/static/images/task_images/rocket-01.jpg"",""time"":0.30000001192092896},{""stimulus"":""run_exp/static/images/task_images/rocket-02.jpg"",""time"":1064.300000011921},{""stimulus"":""run_exp/static/images/task_images/rocket-03.jpg"",""time"":2126},{""stimulus"":""run_exp/static/images/task_images/rocket-04.jpg"",""time"":3187},{""stimulus"":""run_exp/static/images/task_images/rocket-05.jpg"",""time"":4248.9000000059605},{""stimulus"":""run_exp/static/images/task_images/rocket-06.jpg"",""time"":5311},{""stimulus"":""run_exp/static/images/task_images/rocket-07.jpg"",""time"":6368.4000000059605},{""stimulus"":""run_exp/static/images/task_images/rocket-08.jpg"",""time"":7429.20000000298},{""stimulus"":""run_exp/static/images/task_images/rocket-09.jpg"",""time"":8492.5}]",[],5,,,,,,,,,,,,,,
alien_welcome,145,709774,0.0-47.0-1.0,,null,run_exp/static/images/task_images/aliens/old_aliens/planet/alien_planet-58.jpg,null,,,,,,,,,,,,58,"77,37,26,36,70,58,6,48,78,72,59,51,74,4,49,10,15,73,8",,,,,,,,,,
land,146,710277,0.0-47.0-2.0,,null,run_exp/static/images/task_images/land.jpg,null,,,,,,105,,,6,,,,,,,,,,,,,,
dig,147,712286,0.0-47.0-3.0,,,,,,,,,,,"[{""stimulus"":""run_exp/static/images/task_images/dig.jpg"",""time"":0.4000000059604645},{""stimulus"":""run_exp/static/images/task_images/land.jpg"",""time"":671.4000000059605},{""stimulus"":""run_exp/static/images/task_images/dig.jpg"",""time"":1339.6000000089407}]",[],6,,,,,,,,,,,,,,
harvest,148,713290,0.0-47.0-4.0,,null,run_exp/static/images/task_images/gems/105.jpg,null,,,,,,86,,,6,,,,,105,0.818894227,0.819047619,,,,,,,
decision,149,716297,0.0-47.0-5.0,,null,run_exp/static/images/task_images/land.jpg,null,,,,,,86,,,6,,,,,,,,181496,1,0,FALSE,,,
time_out,150,718307,0.0-48.0-0.0,,null,run_exp/static/images/task_images/time_out.jpg,null,,,,,,86,,,,,,,,,,,,,,,,,
decision,151,719430,0.0-48.0-1.0,,1120,run_exp/static/images/task_images/land.jpg,65,,,,,,86,,,6,,,,,,,,184629,1,0,FALSE,,,
dig,152,721315,0.0-49.0-0.0,,,,,,,,,,,"[{""stimulus"":""run_exp/static/images/task_images/dig.jpg"",""time"":0.20000000298023224},{""stimulus"":""run_exp/static/images/task_images/land.jpg"",""time"":626.7000000029802},{""stimulus"":""run_exp/static/images/task_images/dig.jpg"",""time"":1253.1000000089407}]",[],6,,,,,,,,,,,,,,
harvest,153,722322,0.0-49.0-1.0,,null,run_exp/static/images/task_images/gems/86.jpg,null,,,,,,67,,,6,,,,,86,0.782294757,0.779069767,,,,,,,
decision,154,725329,0.0-49.0-2.0,,null,run_exp/static/images/task_images/land.jpg,null,,,,,,67,,,6,,,,,,,,190529,1,1,FALSE,,,
time_out,155,727337,0.0-50.0-0.0,,null,run_exp/static/images/task_images/time_out.jpg,null,,,,,,67,,,,,,,,,,,,,,,,,
decision,156,728145,0.0-50.0-1.0,,804.5,run_exp/static/images/task_images/land.jpg,65,,,,,,67,,,6,,,,,,,,193344,1,1,FALSE,,,
dig,157,730348,0.0-51.0-0.0,,,,,,,,,,,"[{""stimulus"":""run_exp/static/images/task_images/dig.jpg"",""time"":0.10000000894069672},{""stimulus"":""run_exp/static/images/task_images/land.jpg"",""time"":732.1000000089407},{""stimulus"":""run_exp/static/images/task_images/dig.jpg"",""time"":1466}]",[],6,,,,,,,,,,,,,,
harvest,158,731357,0.0-51.0-1.0,,null,run_exp/static/images/task_images/gems/67.jpg,null,,,,,,52,,,6,,,,,67,0.771805621,0.776119403,,,,,,,
decision,159,732780,0.0-51.0-2.0,,1420.2,run_exp/static/images/task_images/land.jpg,65,,,,,,52,,,6,,,,,,,,197979,1,2,FALSE,,,
dig,160,734367,0.0-52.0-0.0,,,,,,,,,,,"[{""stimulus"":""run_exp/static/images/task_images/dig.jpg"",""time"":0.29999999701976776},{""stimulus"":""run_exp/static/images/task_images/land.jpg"",""time"":531.5},{""stimulus"":""run_exp/static/images/task_images/dig.jpg"",""time"":1058.5}]",[],6,,,,,,,,,,,,,,
harvest,161,735377,0.0-52.0-1.0,,null,run_exp/static/images/task_images/gems/52.jpg,null,,,,,,39,,,6,,,,,52,0.753997672,0.75,,,,,,,
decision,162,736940,0.0-52.0-2.0,,1560.7,run_exp/static/images/task_images/land.jpg,65,,,,,,39,,,6,,,,,,,,202139,1,3,FALSE,,,
dig,163,738389,0.0-53.0-0.0,,,,,,,,,,,"[{""stimulus"":""run_exp/static/images/task_images/dig.jpg"",""time"":0.20000000298023224},{""stimulus"":""run_exp/static/images/task_images/land.jpg"",""time"":485.40000000596046},{""stimulus"":""run_exp/static/images/task_images/dig.jpg"",""time"":962.4000000059605}]",[],6,,,,,,,,,,,,,,
harvest,164,739394,0.0-53.0-1.0,,null,run_exp/static/images/task_images/gems/39.jpg,null,,,,,,35,,,6,,,,,39,0.898033606,0.897435897,,,,,,,
decision,165,742399,0.0-53.0-2.0,,null,run_exp/static/images/task_images/land.jpg,null,,,,,,35,,,6,,,,,,,,207598,1,4,FALSE,,,
time_out,166,744405,0.0-54.0-0.0,,null,run_exp/static/images/task_images/time_out.jpg,null,,,,,,35,,,,,,,,,,,,,,,,,
decision,167,744557,0.0-54.0-1.0,,148.9,run_exp/static/images/task_images/land.jpg,65,,,,,,35,,,6,,,,,,,,209756,1,4,FALSE,,,
dig,168,747415,0.0-55.0-0.0,,,,,,,,,,,"[{""stimulus"":""run_exp/static/images/task_images/dig.jpg"",""time"":0.20000000298023224},{""stimulus"":""run_exp/static/images/task_images/land.jpg"",""time"":954.7999999970198},{""stimulus"":""run_exp/static/images/task_images/dig.jpg"",""time"":1904.9000000059605}]",[],6,,,,,,,,,,,,,,
harvest,169,748421,0.0-55.0-1.0,,null,run_exp/static/images/task_images/gems/35.jpg,null,,,,,,28,,,6,,,,,35,0.801589546,0.8,,,,,,,
decision,170,750775,0.0-55.0-2.0,,2350.9,run_exp/static/images/task_images/land.jpg,65,,,,,,28,,,6,,,,,,,,215974,1,5,FALSE,,,
dig,171,751434,0.0-56.0-0.0,,,,,,,,,,,"[{""stimulus"":""run_exp/static/images/task_images/dig.jpg"",""time"":0.20000000298023224},{""stimulus"":""run_exp/static/images/task_images/land.jpg"",""time"":222.30000001192093},{""stimulus"":""run_exp/static/images/task_images/dig.jpg"",""time"":435.80000001192093}]",[],6,,,,,,,,,,,,,,
harvest,172,752440,0.0-56.0-1.0,,null,run_exp/static/images/task_images/gems/28.jpg,null,,,,,,21,,,6,,,,,28,0.747674054,0.75,,,,,,,
decision,173,755444,0.0-56.0-2.0,,null,run_exp/static/images/task_images/land.jpg,null,,,,,,21,,,6,,,,,,,,220643,1,6,FALSE,,,
time_out,174,757453,0.0-57.0-0.0,,null,run_exp/static/images/task_images/time_out.jpg,null,,,,,,21,,,,,,,,,,,,,,,,,
decision,175,757479,0.0-57.0-1.0,,23.39999999,run_exp/static/images/task_images/land.jpg,65,,,,,,21,,,6,,,,,,,,222678,1,6,FALSE,,,
dig,176,760460,0.0-58.0-0.0,,,,,,,,,,,"[{""stimulus"":""run_exp/static/images/task_images/dig.jpg"",""time"":0.20000000298023224},{""stimulus"":""run_exp/static/images/task_images/land.jpg"",""time"":998.5},{""stimulus"":""run_exp/static/images/task_images/dig.jpg"",""time"":1989.6000000089407}]",[],6,,,,,,,,,,,,,,
harvest,177,761464,0.0-58.0-1.0,,null,run_exp/static/images/task_images/gems/21.jpg,null,,,,,,19,,,6,,,,,21,0.891435027,0.904761905,,,,,,,
decision,178,764018,0.0-58.0-2.0,,2551.8,run_exp/static/images/task_images/land.jpg,65,,,,,,19,,,6,,,,,,,,229217,1,7,FALSE,,,
dig,179,764473,0.0-59.0-0.0,,,,,,,,,,,"[{""stimulus"":""run_exp/static/images/task_images/dig.jpg"",""time"":0.10000000894069672},{""stimulus"":""run_exp/static/images/task_images/land.jpg"",""time"":152.6000000089407},{""stimulus"":""run_exp/static/images/task_images/dig.jpg"",""time"":303.6000000089407}]",[],6,,,,,,,,,,,,,,
harvest,180,765480,0.0-59.0-1.0,,null,run_exp/static/images/task_images/gems/19.jpg,null,,,,,,16,,,6,,,,,19,0.818662023,0.842105263,,,,,,,
decision,181,766278,0.0-59.0-2.0,,797.2,run_exp/static/images/task_images/land.jpg,65,,,,,,16,,,6,,,,,,,,231477,1,8,FALSE,,,
dig,182,768482,0.0-60.0-0.0,,,,,,,,,,,"[{""stimulus"":""run_exp/static/images/task_images/dig.jpg"",""time"":0.09999999403953552},{""stimulus"":""run_exp/static/images/task_images/land.jpg"",""time"":736.2999999970198},{""stimulus"":""run_exp/static/images/task_images/dig.jpg"",""time"":1471.5}]",[],6,,,,,,,,,,,,,,
harvest,183,769488,0.0-60.0-1.0,,null,run_exp/static/images/task_images/gems/16.jpg,null,,,,,,13,,,6,,,,,16,0.790669602,0.8125,,,,,,,
decision,184,769981,0.0-60.0-2.0,,489.9,run_exp/static/images/task_images/land.jpg,65,,,,,,13,,,6,,,,,,,,235180,1,9,FALSE,,,
dig,185,772496,0.0-61.0-0.0,,,,,,,,,,,"[{""stimulus"":""run_exp/static/images/task_images/dig.jpg"",""time"":0.20000000298023224},{""stimulus"":""run_exp/static/images/task_images/land.jpg"",""time"":841.7000000029802},{""stimulus"":""run_exp/static/images/task_images/dig.jpg"",""time"":1674.2999999970198}]",[],6,,,,,,,,,,,,,,
harvest,186,773499,0.0-61.0-1.0,,null,run_exp/static/images/task_images/gems/13.jpg,null,,,,,,12,,,6,,,,,13,0.898554245,0.923076923,,,,,,,
decision,187,773511,0.0-61.0-2.0,,9.5,run_exp/static/images/task_images/land.jpg,65,,,,,,12,,,6,,,,,,,,238710,1,10,FALSE,,,
dig,188,776506,0.0-62.0-0.0,,,,,,,,,,,"[{""stimulus"":""run_exp/static/images/task_images/dig.jpg"",""time"":0.20000000298023224},{""stimulus"":""run_exp/static/images/task_images/land.jpg"",""time"":1000.2999999970198},{""stimulus"":""run_exp/static/images/task_images/dig.jpg"",""time"":1997.0999999940395}]",[],6,,,,,,,,,,,,,,
harvest,189,777509,0.0-62.0-1.0,,null,run_exp/static/images/task_images/gems/12.jpg,null,,,,,,10,,,6,,,,,12,0.825119233,0.833333333,,,,,,,
decision,190,778124,0.0-62.0-2.0,,611.8,run_exp/static/images/task_images/land.jpg,65,,,,,,10,,,6,,,,,,,,243323,1,11,FALSE,,,
dig,191,780523,0.0-63.0-0.0,,,,,,,,,,,"[{""stimulus"":""run_exp/static/images/task_images/dig.jpg"",""time"":0.29999999701976776},{""stimulus"":""run_exp/static/images/task_images/land.jpg"",""time"":802.4000000059605},{""stimulus"":""run_exp/static/images/task_images/dig.jpg"",""time"":1597.5}]",[],6,,,,,,,,,,,,,,
harvest,192,781525,0.0-63.0-1.0,,null,run_exp/static/images/task_images/gems/10.jpg,null,,,,,,8,,,6,,,,,10,0.838809554,0.8,,,,,,,
decision,193,782086,0.0-63.0-2.0,,558.7,run_exp/static/images/task_images/land.jpg,65,,,,,,8,,,6,,,,,,,,247285,1,12,FALSE,,,
dig,194,784532,0.0-64.0-0.0,,,,,,,,,,,"[{""stimulus"":""run_exp/static/images/task_images/dig.jpg"",""time"":0.09999999403953552},{""stimulus"":""run_exp/static/images/task_images/land.jpg"",""time"":817.5999999940395},{""stimulus"":""run_exp/static/images/task_images/dig.jpg"",""time"":1630.2000000029802}]",[],6,,,,,,,,,,,,,,
harvest,195,785537,0.0-64.0-1.0,,null,run_exp/static/images/task_images/gems/8.jpg,null,,,,,,6,,,6,,,,,8,0.809583707,0.75,,,,,,,
decision,196,785834,0.0-64.0-2.0,,294.7,run_exp/static/images/task_images/land.jpg,65,,,,,,6,,,6,,,,,,,,251033,1,13,FALSE,,,
dig,197,788544,0.0-65.0-0.0,,,,,,,,,,,"[{""stimulus"":""run_exp/static/images/task_images/dig.jpg"",""time"":0.10000000894069672},{""stimulus"":""run_exp/static/images/task_images/land.jpg"",""time"":902.2999999970198},{""stimulus"":""run_exp/static/images/task_images/dig.jpg"",""time"":1806.7000000029802}]",[],6,,,,,,,,,,,,,,
harvest,198,789549,0.0-65.0-1.0,,null,run_exp/static/images/task_images/gems/6.jpg,null,,,,,,4,,,6,,,,,6,0.731857178,0.666666667,,,,,,,
decision,199,790148,0.0-65.0-2.0,,597.3,run_exp/static/images/task_images/land.jpg,76,,,,,,4,,,6,,,,,,,,255347,1,14,TRUE,,,
travel,200,799551,0.0-66.0-0.0,,,,,,,,,,,"[{""stimulus"":""run_exp/static/images/task_images/rocket-01.jpg"",""time"":0.29999999701976776},{""stimulus"":""run_exp/static/images/task_images/rocket-02.jpg"",""time"":1049.8999999910593},{""stimulus"":""run_exp/static/images/task_images/rocket-03.jpg"",""time"":2090.5999999940395},{""stimulus"":""run_exp/static/images/task_images/rocket-04.jpg"",""time"":3138.5},{""stimulus"":""run_exp/static/images/task_images/rocket-05.jpg"",""time"":4181.5999999940395},{""stimulus"":""run_exp/static/images/task_images/rocket-06.jpg"",""time"":5223.699999988079},{""stimulus"":""run_exp/static/images/task_images/rocket-07.jpg"",""time"":6265.79999999702},{""stimulus"":""run_exp/static/images/task_images/rocket-08.jpg"",""time"":7313.399999991059},{""stimulus"":""run_exp/static/images/task_images/rocket-09.jpg"",""time"":8358.39999999106}]",[],6,,,,,,,,,,,,,,
alien_welcome,201,804558,0.0-66.0-1.0,,null,run_exp/static/images/task_images/aliens/old_aliens/planet/alien_planet-6.jpg,null,,,,,,,,,,,,6,"77,37,26,36,70,58,6,48,78,72,59,51,74,4,49,10,15,73,8",,,,,,,,,,
land,202,805065,0.0-66.0-2.0,,null,run_exp/static/images/task_images/land.jpg,null,,,,,,102,,,7,,,,,,,,,,,,,,
dig,203,807073,0.0-66.0-3.0,,,,,,,,,,,"[{""stimulus"":""run_exp/static/images/task_images/dig.jpg"",""time"":0.5999999940395355},{""stimulus"":""run_exp/static/images/task_images/land.jpg"",""time"":672.6999999880791},{""stimulus"":""run_exp/static/images/task_images/dig.jpg"",""time"":1336.7999999970198}]",[],7,,,,,,,,,,,,,,
harvest,204,808077,0.0-66.0-4.0,,null,run_exp/static/images/task_images/gems/102.jpg,null,,,,,,86,,,7,,,,,102,0.846955353,0.843137255,,,,,,,
decision,205,811084,0.0-66.0-5.0,,null,run_exp/static/images/task_images/land.jpg,null,,,,,,86,,,7,,,,,,,,276283,1,0,FALSE,,,
time_out,206,813092,0.0-67.0-0.0,,null,run_exp/static/images/task_images/time_out.jpg,null,,,,,,86,,,,,,,,,,,,,,,,,
decision,207,813259,0.0-67.0-1.0,,163.7,run_exp/static/images/task_images/land.jpg,65,,,,,,86,,,7,,,,,,,,278458,1,0,FALSE,,,
dig,208,816105,0.0-68.0-0.0,,,,,,,,,,,"[{""stimulus"":""run_exp/static/images/task_images/dig.jpg"",""time"":0.20000000298023224},{""stimulus"":""run_exp/static/images/task_images/land.jpg"",""time"":951.4000000059605},{""stimulus"":""run_exp/static/images/task_images/dig.jpg"",""time"":1895.2000000029802}]",[],7,,,,,,,,,,,,,,
harvest,209,817109,0.0-68.0-1.0,,null,run_exp/static/images/task_images/gems/86.jpg,null,,,,,,77,,,7,,,,,86,0.895450666,0.895348837,,,,,,,
decision,210,820116,0.0-68.0-2.0,,null,run_exp/static/images/task_images/land.jpg,null,,,,,,77,,,7,,,,,,,,285315,1,1,FALSE,,,
time_out,211,822125,0.0-69.0-0.0,,null,run_exp/static/images/task_images/time_out.jpg,null,,,,,,77,,,,,,,,,,,,,,,,,
decision,212,825131,0.0-69.0-1.0,,null,run_exp/static/images/task_images/land.jpg,null,,,,,,77,,,7,,,,,,,,290331,1,1,FALSE,,,
time_out,213,827139,0.0-70.0-0.0,,null,run_exp/static/images/task_images/time_out.jpg,null,,,,,,77,,,,,,,,,,,,,,,,,
decision,214,830141,0.0-70.0-1.0,,null,run_exp/static/images/task_images/land.jpg,null,,,,,,77,,,7,,,,,,,,295340,1,1,FALSE,,,
time_out,215,832149,0.0-71.0-0.0,,null,run_exp/static/images/task_images/time_out.jpg,null,,,,,,77,,,,,,,,,,,,,,,,,
decision,216,835156,0.0-71.0-1.0,,null,run_exp/static/images/task_images/land.jpg,null,,,,,,77,,,7,,,,,,,,300355,1,1,TRUE,,,
end_of_block_continue,217,844030,0.0-72.0-0.0,,null,run_exp/static/audio/clip_32_block_end.m4a,,,,,,null,,,,,,,,,,,,,,,,,,
alien_welcome,218,849048,0.0-73.0-0.0,,null,run_exp/static/images/task_images/aliens/old_aliens/planet/alien_planet-48.jpg,null,,,,,,,,,,,,48,"77,37,26,36,70,58,6,48,78,72,59,51,74,4,49,10,15,73,8",,,,,,,,,,
land,219,849556,0.0-73.0-1.0,,null,run_exp/static/images/task_images/land.jpg,null,,,,,,103,,,8,,,,,,,,,,,,,,
dig,220,851567,0.0-73.0-2.0,,,,,,,,,,,"[{""stimulus"":""run_exp/static/images/task_images/dig.jpg"",""time"":0.7000000029802322},{""stimulus"":""run_exp/static/images/task_images/land.jpg"",""time"":672.5},{""stimulus"":""run_exp/static/images/task_images/dig.jpg"",""time"":1339.5}]",[],8,,,,,,,,,,,,,,
harvest,221,852573,0.0-73.0-3.0,,null,run_exp/static/images/task_images/gems/103.jpg,null,,,,,,23,,,8,,,,,103,0.223715355,0.223300971,,,,,,,
decision,222,855575,0.0-73.0-4.0,,null,run_exp/static/images/task_images/land.jpg,null,,,,,,23,,,8,,,,,,,,11536,2,0,FALSE,,,
time_out,223,857585,0.0-74.0-0.0,,null,run_exp/static/images/task_images/time_out.jpg,null,,,,,,23,,,,,,,,,,,,,,,,,
decision,224,860591,0.0-74.0-1.0,,null,run_exp/static/images/task_images/land.jpg,null,,,,,,23,,,8,,,,,,,,16551,2,0,FALSE,,,
time_out,225,862602,0.0-75.0-0.0,,null,run_exp/static/images/task_images/time_out.jpg,null,,,,,,23,,,,,,,,,,,,,,,,,
decision,226,865608,0.0-75.0-1.0,,null,run_exp/static/images/task_images/land.jpg,null,,,,,,23,,,8,,,,,,,,21569,2,0,FALSE,,,
time_out,227,867617,0.0-76.0-0.0,,null,run_exp/static/images/task_images/time_out.jpg,null,,,,,,23,,,,,,,,,,,,,,,,,
decision,228,870624,0.0-76.0-1.0,,null,run_exp/static/images/task_images/land.jpg,null,,,,,,23,,,8,,,,,,,,26584,2,0,FALSE,,,
time_out,229,872632,0.0-77.0-0.0,,null,run_exp/static/images/task_images/time_out.jpg,null,,,,,,23,,,,,,,,,,,,,,,,,
decision,230,875654,0.0-77.0-1.0,,null,run_exp/static/images/task_images/land.jpg,null,,,,,,23,,,8,,,,,,,,31615,2,0,FALSE,,,
time_out,231,877677,0.0-78.0-0.0,,null,run_exp/static/images/task_images/time_out.jpg,null,,,,,,23,,,,,,,,,,,,,,,,,
decision,232,877689,0.0-78.0-1.0,,1.200000003,run_exp/static/images/task_images/land.jpg,65,,,,,,23,,,8,,,,,,,,33649,2,0,FALSE,,,
dig,233,880704,0.0-79.0-0.0,,,,,,,,,,,"[{""stimulus"":""run_exp/static/images/task_images/dig.jpg"",""time"":0.29999999701976776},{""stimulus"":""run_exp/static/images/task_images/land.jpg"",""time"":1004.5999999940395},{""stimulus"":""run_exp/static/images/task_images/dig.jpg"",""time"":2017.7999999970198}]",[],8,,,,,,,,,,,,,,
harvest,234,881711,0.0-79.0-1.0,,null,run_exp/static/images/task_images/gems/23.jpg,null,,,,,,3,,,8,,,,,23,0.14095485,0.130434783,,,,,,,
decision,235,884718,0.0-79.0-2.0,,null,run_exp/static/images/task_images/land.jpg,null,,,,,,3,,,8,,,,,,,,40678,2,1,FALSE,,,
time_out,236,886741,0.0-80.0-0.0,,null,run_exp/static/images/task_images/time_out.jpg,null,,,,,,3,,,,,,,,,,,,,,,,,
decision,237,889748,0.0-80.0-1.0,,null,run_exp/static/images/task_images/land.jpg,null,,,,,,3,,,8,,,,,,,,45710,2,1,FALSE,,,
time_out,238,891764,0.0-81.0-0.0,,null,run_exp/static/images/task_images/time_out.jpg,null,,,,,,3,,,,,,,,,,,,,,,,,
decision,239,894772,0.0-81.0-1.0,,null,run_exp/static/images/task_images/land.jpg,null,,,,,,3,,,8,,,,,,,,50732,2,1,FALSE,,,
time_out,240,896782,0.0-82.0-0.0,,null,run_exp/static/images/task_images/time_out.jpg,null,,,,,,3,,,,,,,,,,,,,,,,,
decision,241,899789,0.0-82.0-1.0,,null,run_exp/static/images/task_images/land.jpg,null,,,,,,3,,,8,,,,,,,,55749,2,1,FALSE,,,
time_out,242,901798,0.0-83.0-0.0,,null,run_exp/static/images/task_images/time_out.jpg,null,,,,,,3,,,,,,,,,,,,,,,,,
decision,243,901926,0.0-83.0-1.0,,125.2,run_exp/static/images/task_images/land.jpg,65,,,,,,0,,,8,,,,,,,,57887,2,1,FALSE,,,
dig,244,904812,0.0-84.0-0.0,,,,,,,,,,,"[{""stimulus"":""run_exp/static/images/task_images/dig.jpg"",""time"":0.29999999701976776},{""stimulus"":""run_exp/static/images/task_images/land.jpg"",""time"":961.0999999940395},{""stimulus"":""run_exp/static/images/task_images/dig.jpg"",""time"":1920.4000000059605}]",[],8,,,,,,,,,,,,,,
harvest,245,905816,0.0-84.0-1.0,,null,run_exp/static/images/task_images/gems/0.jpg,null,,,,,,0,,,8,,,,,0,0.251986337,NaN,,,,,,,
decision,246,906715,0.0-84.0-2.0,,896.4,run_exp/static/images/task_images/land.jpg,76,,,,,,0,,,8,,,,,,,,62675,2,2,TRUE,,,
travel,247,915826,0.0-85.0-0.0,,,,,,,,,,,"[{""stimulus"":""run_exp/static/images/task_images/rocket-01.jpg"",""time"":0.20000000298023224},{""stimulus"":""run_exp/static/images/task_images/rocket-02.jpg"",""time"":1013.3999999910593},{""stimulus"":""run_exp/static/images/task_images/rocket-03.jpg"",""time"":2024.0999999940395},{""stimulus"":""run_exp/static/images/task_images/rocket-04.jpg"",""time"":3038.5},{""stimulus"":""run_exp/static/images/task_images/rocket-05.jpg"",""time"":4048.3999999910593},{""stimulus"":""run_exp/static/images/task_images/rocket-06.jpg"",""time"":5059.29999999702},{""stimulus"":""run_exp/static/images/task_images/rocket-07.jpg"",""time"":6069.899999991059},{""stimulus"":""run_exp/static/images/task_images/rocket-08.jpg"",""time"":7084.0999999940395},{""stimulus"":""run_exp/static/images/task_images/rocket-09.jpg"",""time"":8093.79999999702}]",[],8,,,,,,,,,,,,,,
alien_welcome,248,920832,0.0-85.0-1.0,,null,run_exp/static/images/task_images/aliens/old_aliens/planet/alien_planet-78.jpg,null,,,,,,,,,,,,78,"77,37,26,36,70,58,6,48,78,72,59,51,74,4,49,10,15,73,8",,,,,,,,,,
land,249,921339,0.0-85.0-2.0,,null,run_exp/static/images/task_images/land.jpg,null,,,,,,94,,,9,,,,,,,,,,,,,,
dig,250,923350,0.0-85.0-3.0,,,,,,,,,,,"[{""stimulus"":""run_exp/static/images/task_images/dig.jpg"",""time"":0.7000000029802322},{""stimulus"":""run_exp/static/images/task_images/land.jpg"",""time"":671},{""stimulus"":""run_exp/static/images/task_images/dig.jpg"",""time"":1338.4000000059605}]",[],9,,,,,,,,,,,,,,
harvest,251,924355,0.0-85.0-4.0,,null,run_exp/static/images/task_images/gems/94.jpg,null,,,,,,24,,,9,,,,,94,0.250463977,0.255319149,,,,,,,
decision,252,925782,0.0-85.0-5.0,,1424.2,run_exp/static/images/task_images/land.jpg,65,,,,,,24,,,9,,,,,,,,81742,2,0,FALSE,,,
dig,253,927366,0.0-86.0-0.0,,,,,,,,,,,"[{""stimulus"":""run_exp/static/images/task_images/dig.jpg"",""time"":0.8999999910593033},{""stimulus"":""run_exp/static/images/task_images/land.jpg"",""time"":527.3999999910593},{""stimulus"":""run_exp/static/images/task_images/dig.jpg"",""time"":1055.5}]",[],9,,,,,,,,,,,,,,
harvest,254,928371,0.0-86.0-1.0,,null,run_exp/static/images/task_images/gems/24.jpg,null,,,,,,3,,,9,,,,,24,0.111326339,0.125,,,,,,,
decision,255,931377,0.0-86.0-2.0,,null,run_exp/static/images/task_images/land.jpg,null,,,,,,3,,,9,,,,,,,,87337,2,1,FALSE,,,
time_out,256,933384,0.0-87.0-0.0,,null,run_exp/static/images/task_images/time_out.jpg,null,,,,,,3,,,,,,,,,,,,,,,,,
decision,257,933612,0.0-87.0-1.0,,224.8,run_exp/static/images/task_images/land.jpg,65,,,,,,3,,,9,,,,,,,,89572,2,1,FALSE,,,
dig,258,936395,0.0-88.0-0.0,,,,,,,,,,,"[{""stimulus"":""run_exp/static/images/task_images/dig.jpg"",""time"":0.20000000298023224},{""stimulus"":""run_exp/static/images/task_images/land.jpg"",""time"":927.4000000059605},{""stimulus"":""run_exp/static/images/task_images/dig.jpg"",""time"":1852.4000000059605}]",[],9,,,,,,,,,,,,,,
harvest,259,937399,0.0-88.0-1.0,,null,run_exp/static/images/task_images/gems/3.jpg,null,,,,,,1,,,9,,,,,3,0.172490202,0.333333333,,,,,,,
decision,260,940400,0.0-88.0-2.0,,null,run_exp/static/images/task_images/land.jpg,null,,,,,,1,,,9,,,,,,,,96360,2,2,FALSE,,,
time_out,261,942408,0.0-89.0-0.0,,null,run_exp/static/images/task_images/time_out.jpg,null,,,,,,1,,,,,,,,,,,,,,,,,
decision,262,942484,0.0-89.0-1.0,,73,run_exp/static/images/task_images/land.jpg,65,,,,,,1,,,9,,,,,,,,98444,2,2,FALSE,,,
dig,263,945415,0.0-90.0-0.0,,,,,,,,,,,"[{""stimulus"":""run_exp/static/images/task_images/dig.jpg"",""time"":0.10000000894069672},{""stimulus"":""run_exp/static/images/task_images/land.jpg"",""time"":976.6000000089407},{""stimulus"":""run_exp/static/images/task_images/dig.jpg"",""time"":1951.2000000029802}]",[],9,,,,,,,,,,,,,,
harvest,264,946422,0.0-90.0-1.0,,null,run_exp/static/images/task_images/gems/1.jpg,null,,,,,,0,,,9,,,,,1,0.126872384,0,,,,,,,
decision,265,949428,0.0-90.0-2.0,,null,run_exp/static/images/task_images/land.jpg,null,,,,,,0,,,9,,,,,,,,105388,2,3,FALSE,,,
time_out,266,951438,0.0-91.0-0.0,,null,run_exp/static/images/task_images/time_out.jpg,null,,,,,,0,,,,,,,,,,,,,,,,,
decision,267,954443,0.0-91.0-1.0,,null,run_exp/static/images/task_images/land.jpg,null,,,,,,0,,,9,,,,,,,,110403,2,3,FALSE,,,
time_out,268,956451,0.0-92.0-0.0,,null,run_exp/static/images/task_images/time_out.jpg,null,,,,,,0,,,,,,,,,,,,,,,,,
decision,269,956644,0.0-92.0-1.0,,190.1,run_exp/static/images/task_images/land.jpg,65,,,,,,0,,,9,,,,,,,,112604,2,3,FALSE,,,
dig,270,959461,0.0-93.0-0.0,,,,,,,,,,,"[{""stimulus"":""run_exp/static/images/task_images/dig.jpg"",""time"":0.09999999403953552},{""stimulus"":""run_exp/static/images/task_images/land.jpg"",""time"":940.5999999940395},{""stimulus"":""run_exp/static/images/task_images/dig.jpg"",""time"":1876.3999999910593}]",[],9,,,,,,,,,,,,,,
harvest,271,960468,0.0-93.0-1.0,,null,run_exp/static/images/task_images/gems/0.jpg,null,,,,,,0,,,9,,,,,0,0.182218665,NaN,,,,,,,
decision,272,960477,0.0-93.0-2.0,,6.699999988,run_exp/static/images/task_images/land.jpg,65,,,,,,0,,,9,,,,,,,,116437,2,4,FALSE,,,
dig,273,963476,0.0-94.0-0.0,,,,,,,,,,,"[{""stimulus"":""run_exp/static/images/task_images/dig.jpg"",""time"":0.4000000059604645},{""stimulus"":""run_exp/static/images/task_images/land.jpg"",""time"":1001.5},{""stimulus"":""run_exp/static/images/task_images/dig.jpg"",""time"":2000.800000011921}]",[],9,,,,,,,,,,,,,,
harvest,274,964479,0.0-94.0-1.0,,null,run_exp/static/images/task_images/gems/0.jpg,null,,,,,,0,,,9,,,,,0,0.182691877,NaN,,,,,,,
decision,275,964674,0.0-94.0-2.0,,193.2,run_exp/static/images/task_images/land.jpg,65,,,,,,0,,,9,,,,,,,,120635,2,5,FALSE,,,
dig,276,967493,0.0-95.0-0.0,,,,,,,,,,,"[{""stimulus"":""run_exp/static/images/task_images/dig.jpg"",""time"":0.5999999940395355},{""stimulus"":""run_exp/static/images/task_images/land.jpg"",""time"":940.5999999940395},{""stimulus"":""run_exp/static/images/task_images/dig.jpg"",""time"":1876.7999999970198}]",[],9,,,,,,,,,,,,,,
harvest,277,968500,0.0-95.0-1.0,,null,run_exp/static/images/task_images/gems/0.jpg,null,,,,,,0,,,9,,,,,0,0.180075768,NaN,,,,,,,
decision,278,969555,0.0-95.0-2.0,,1051.7,run_exp/static/images/task_images/land.jpg,76,,,,,,0,,,9,,,,,,,,125516,2,6,TRUE,,,
travel,279,978516,0.0-96.0-0.0,,,,,,,,,,,"[{""stimulus"":""run_exp/static/images/task_images/rocket-01.jpg"",""time"":0.5},{""stimulus"":""run_exp/static/images/task_images/rocket-02.jpg"",""time"":998.9000000059605},{""stimulus"":""run_exp/static/images/task_images/rocket-03.jpg"",""time"":1993.7000000029802},{""stimulus"":""run_exp/static/images/task_images/rocket-04.jpg"",""time"":2987},{""stimulus"":""run_exp/static/images/task_images/rocket-05.jpg"",""time"":3983.1000000089407},{""stimulus"":""run_exp/static/images/task_images/rocket-06.jpg"",""time"":4974.4000000059605},{""stimulus"":""run_exp/static/images/task_images/rocket-07.jpg"",""time"":5971},{""stimulus"":""run_exp/static/images/task_images/rocket-08.jpg"",""time"":6960.4000000059605},{""stimulus"":""run_exp/static/images/task_images/rocket-09.jpg"",""time"":7958.70000000298}]",[],9,,,,,,,,,,,,,,
alien_welcome,280,983523,0.0-96.0-1.0,,null,run_exp/static/images/task_images/aliens/old_aliens/planet/alien_planet-72.jpg,null,,,,,,,,,,,,72,"77,37,26,36,70,58,6,48,78,72,59,51,74,4,49,10,15,73,8",,,,,,,,,,
land,281,984029,0.0-96.0-2.0,,null,run_exp/static/images/task_images/land.jpg,null,,,,,,103,,,10,,,,,,,,,,,,,,
dig,282,986038,0.0-96.0-3.0,,,,,,,,,,,"[{""stimulus"":""run_exp/static/images/task_images/dig.jpg"",""time"":0.19999998807907104},{""stimulus"":""run_exp/static/images/task_images/land.jpg"",""time"":671.0999999940395},{""stimulus"":""run_exp/static/images/task_images/dig.jpg"",""time"":1339.0999999940395}]",[],10,,,,,,,,,,,,,,
harvest,283,987044,0.0-96.0-4.0,,null,run_exp/static/images/task_images/gems/103.jpg,null,,,,,,27,,,10,,,,,103,0.260309578,0.262135922,,,,,,,
decision,284,987506,0.0-96.0-5.0,,458.5,run_exp/static/images/task_images/land.jpg,65,,,,,,27,,,10,,,,,,,,143466,2,0,FALSE,,,
dig,285,990060,0.0-97.0-0.0,,,,,,,,,,,"[{""stimulus"":""run_exp/static/images/task_images/dig.jpg"",""time"":0.29999999701976776},{""stimulus"":""run_exp/static/images/task_images/land.jpg"",""time"":851.5999999940395},{""stimulus"":""run_exp/static/images/task_images/dig.jpg"",""time"":1699.5}]",[],10,,,,,,,,,,,,,,
harvest,286,991065,0.0-97.0-1.0,,null,run_exp/static/images/task_images/gems/27.jpg,null,,,,,,5,,,10,,,,,27,0.171641038,0.185185185,,,,,,,
decision,287,993702,0.0-97.0-2.0,,2633.5,run_exp/static/images/task_images/land.jpg,65,,,,,,5,,,10,,,,,,,,149662,2,1,FALSE,,,
dig,288,994077,0.0-98.0-0.0,,,,,,,,,,,"[{""stimulus"":""run_exp/static/images/task_images/dig.jpg"",""time"":0.29999999701976776},{""stimulus"":""run_exp/static/images/task_images/land.jpg"",""time"":124},{""stimulus"":""run_exp/static/images/task_images/dig.jpg"",""time"":246.90000000596046}]",[],10,,,,,,,,,,,,,,
harvest,289,995078,0.0-98.0-1.0,,null,run_exp/static/images/task_images/gems/5.jpg,null,,,,,,1,,,10,,,,,5,0.266563625,0.2,,,,,,,
decision,290,997470,0.0-98.0-2.0,,2391.4,run_exp/static/images/task_images/land.jpg,65,,,,,,1,,,10,,,,,,,,153430,2,2,FALSE,,,
dig,291,998082,0.0-99.0-0.0,,,,,,,,,,,"[{""stimulus"":""run_exp/static/images/task_images/dig.jpg"",""time"":0.09999999403953552},{""stimulus"":""run_exp/static/images/task_images/land.jpg"",""time"":207.59999999403954},{""stimulus"":""run_exp/static/images/task_images/dig.jpg"",""time"":407.79999999701977}]",[],10,,,,,,,,,,,,,,
harvest,292,999089,0.0-99.0-1.0,,null,run_exp/static/images/task_images/gems/1.jpg,null,,,,,,0,,,10,,,,,1,0.223428776,0,,,,,,,
decision,293,1000042,0.0-99.0-2.0,,949.5,run_exp/static/images/task_images/land.jpg,76,,,,,,0,,,10,,,,,,,,156002,2,3,TRUE,,,
travel,294,1009098,0.0-100.0-0.0,,,,,,,,,,,"[{""stimulus"":""run_exp/static/images/task_images/rocket-01.jpg"",""time"":0.4000000059604645},{""stimulus"":""run_exp/static/images/task_images/rocket-02.jpg"",""time"":1007.0999999940395},{""stimulus"":""run_exp/static/images/task_images/rocket-03.jpg"",""time"":2013},{""stimulus"":""run_exp/static/images/task_images/rocket-04.jpg"",""time"":3017},{""stimulus"":""run_exp/static/images/task_images/rocket-05.jpg"",""time"":4022.4000000059605},{""stimulus"":""run_exp/static/images/task_images/rocket-06.jpg"",""time"":5028.29999999702},{""stimulus"":""run_exp/static/images/task_images/rocket-07.jpg"",""time"":6033.4000000059605},{""stimulus"":""run_exp/static/images/task_images/rocket-08.jpg"",""time"":7038.29999999702},{""stimulus"":""run_exp/static/images/task_images/rocket-09.jpg"",""time"":8042.5}]",[],10,,,,,,,,,,,,,,
alien_welcome,295,1014106,0.0-100.0-1.0,,null,run_exp/static/images/task_images/aliens/old_aliens/planet/alien_planet-59.jpg,null,,,,,,,,,,,,59,"77,37,26,36,70,58,6,48,78,72,59,51,74,4,49,10,15,73,8",,,,,,,,,,
land,296,1014609,0.0-100.0-2.0,,null,run_exp/static/images/task_images/land.jpg,null,,,,,,107,,,11,,,,,,,,,,,,,,
dig,297,1016617,0.0-100.0-3.0,,,,,,,,,,,"[{""stimulus"":""run_exp/static/images/task_images/dig.jpg"",""time"":0.20000000298023224},{""stimulus"":""run_exp/static/images/task_images/land.jpg"",""time"":671.2000000029802},{""stimulus"":""run_exp/static/images/task_images/dig.jpg"",""time"":1339}]",[],11,,,,,,,,,,,,,,
harvest,298,1017622,0.0-100.0-4.0,,null,run_exp/static/images/task_images/gems/107.jpg,null,,,,,,76,,,11,,,,,107,0.707921482,0.710280374,,,,,,,
decision,299,1019407,0.0-100.0-5.0,,1781.5,run_exp/static/images/task_images/land.jpg,65,,,,,,76,,,11,,,,,,,,175367,2,0,FALSE,,,
dig,300,1020637,0.0-101.0-0.0,,,,,,,,,,,"[{""stimulus"":""run_exp/static/images/task_images/dig.jpg"",""time"":0.09999999403953552},{""stimulus"":""run_exp/static/images/task_images/land.jpg"",""time"":411.09999999403954},{""stimulus"":""run_exp/static/images/task_images/dig.jpg"",""time"":813.5}]",[],11,,,,,,,,,,,,,,
harvest,301,1021644,0.0-101.0-1.0,,null,run_exp/static/images/task_images/gems/76.jpg,null,,,,,,55,,,11,,,,,76,0.725171906,0.723684211,,,,,,,
decision,302,1021685,0.0-101.0-2.0,,38.30000001,run_exp/static/images/task_images/land.jpg,65,,,,,,55,,,11,,,,,,,,177645,2,1,FALSE,,,
dig,303,1024651,0.0-102.0-0.0,,,,,,,,,,,"[{""stimulus"":""run_exp/static/images/task_images/dig.jpg"",""time"":0.10000000894069672},{""stimulus"":""run_exp/static/images/task_images/land.jpg"",""time"":992.1000000089407},{""stimulus"":""run_exp/static/images/task_images/dig.jpg"",""time"":1976.2000000029802}]",[],11,,,,,,,,,,,,,,
harvest,304,1025655,0.0-102.0-1.0,,null,run_exp/static/images/task_images/gems/55.jpg,null,,,,,,49,,,11,,,,,55,0.890405923,0.890909091,,,,,,,
decision,305,1028662,0.0-102.0-2.0,,null,run_exp/static/images/task_images/land.jpg,null,,,,,,49,,,11,,,,,,,,184622,2,2,FALSE,,,
time_out,306,1030670,0.0-103.0-0.0,,null,run_exp/static/images/task_images/time_out.jpg,null,,,,,,49,,,,,,,,,,,,,,,,,
decision,307,1030753,0.0-103.0-1.0,,79.5,run_exp/static/images/task_images/land.jpg,65,,,,,,49,,,11,,,,,,,,186713,2,2,FALSE,,,
dig,308,1033679,0.0-104.0-0.0,,,,,,,,,,,"[{""stimulus"":""run_exp/static/images/task_images/dig.jpg"",""time"":0.29999999701976776},{""stimulus"":""run_exp/static/images/task_images/land.jpg"",""time"":974.2000000029802},{""stimulus"":""run_exp/static/images/task_images/dig.jpg"",""time"":1947.5999999940395}]",[],11,,,,,,,,,,,,,,
harvest,309,1034684,0.0-104.0-1.0,,null,run_exp/static/images/task_images/gems/49.jpg,null,,,,,,37,,,11,,,,,49,0.75187688,0.755102041,,,,,,,
decision,310,1034803,0.0-104.0-2.0,,116.1,run_exp/static/images/task_images/land.jpg,65,,,,,,37,,,11,,,,,,,,190763,2,3,FALSE,,,
dig,311,1037694,0.0-105.0-0.0,,,,,,,,,,,"[{""stimulus"":""run_exp/static/images/task_images/dig.jpg"",""time"":0.10000000894069672},{""stimulus"":""run_exp/static/images/task_images/land.jpg"",""time"":966.4000000059605},{""stimulus"":""run_exp/static/images/task_images/dig.jpg"",""time"":1924.300000011921}]",[],11,,,,,,,,,,,,,,
harvest,312,1038698,0.0-105.0-1.0,,null,run_exp/static/images/task_images/gems/37.jpg,null,,,,,,30,,,11,,,,,37,0.804952918,0.810810811,,,,,,,
decision,313,1039154,0.0-105.0-2.0,,452.4,run_exp/static/images/task_images/land.jpg,65,,,,,,30,,,11,,,,,,,,195114,2,4,FALSE,,,
dig,314,1041711,0.0-106.0-0.0,,,,,,,,,,,"[{""stimulus"":""run_exp/static/images/task_images/dig.jpg"",""time"":0.5},{""stimulus"":""run_exp/static/images/task_images/land.jpg"",""time"":851.8000000119209},{""stimulus"":""run_exp/static/images/task_images/dig.jpg"",""time"":1700.4000000059605}]",[],11,,,,,,,,,,,,,,
harvest,315,1042717,0.0-106.0-1.0,,null,run_exp/static/images/task_images/gems/30.jpg,null,,,,,,22,,,11,,,,,30,0.74763641,0.733333333,,,,,,,
decision,316,1043449,0.0-106.0-2.0,,729.2,run_exp/static/images/task_images/land.jpg,65,,,,,,22,,,11,,,,,,,,199409,2,5,FALSE,,,
dig,317,1045730,0.0-107.0-0.0,,,,,,,,,,,"[{""stimulus"":""run_exp/static/images/task_images/dig.jpg"",""time"":0.29999999701976776},{""stimulus"":""run_exp/static/images/task_images/land.jpg"",""time"":760.2999999970198},{""stimulus"":""run_exp/static/images/task_images/dig.jpg"",""time"":1514}]",[],11,,,,,,,,,,,,,,
harvest,318,1046733,0.0-107.0-1.0,,null,run_exp/static/images/task_images/gems/22.jpg,null,,,,,,18,,,11,,,,,22,0.799657237,0.818181818,,,,,,,
decision,319,1047909,0.0-107.0-2.0,,1174.3,run_exp/static/images/task_images/land.jpg,65,,,,,,18,,,11,,,,,,,,203869,2,6,FALSE,,,
dig,320,1049744,0.0-108.0-0.0,,,,,,,,,,,"[{""stimulus"":""run_exp/static/images/task_images/dig.jpg"",""time"":0.19999998807907104},{""stimulus"":""run_exp/static/images/task_images/land.jpg"",""time"":610.5999999940395},{""stimulus"":""run_exp/static/images/task_images/dig.jpg"",""time"":1221.3999999910593}]",[],11,,,,,,,,,,,,,,
harvest,321,1050750,0.0-108.0-1.0,,null,run_exp/static/images/task_images/gems/18.jpg,null,,,,,,13,,,11,,,,,18,0.729516527,0.722222222,,,,,,,
decision,322,1053758,0.0-108.0-2.0,,null,run_exp/static/images/task_images/land.jpg,null,,,,,,13,,,11,,,,,,,,209718,2,7,FALSE,,,
time_out,323,1055765,0.0-109.0-0.0,,null,run_exp/static/images/task_images/time_out.jpg,null,,,,,,13,,,,,,,,,,,,,,,,,
decision,324,1056175,0.0-109.0-1.0,,408.7,run_exp/static/images/task_images/land.jpg,65,,,,,,13,,,11,,,,,,,,212135,2,7,FALSE,,,
dig,325,1058773,0.0-110.0-0.0,,,,,,,,,,,"[{""stimulus"":""run_exp/static/images/task_images/dig.jpg"",""time"":0.20000000298023224},{""stimulus"":""run_exp/static/images/task_images/land.jpg"",""time"":867.1000000089407},{""stimulus"":""run_exp/static/images/task_images/dig.jpg"",""time"":1732.1000000089407}]",[],11,,,,,,,,,,,,,,
harvest,326,1059776,0.0-110.0-1.0,,null,run_exp/static/images/task_images/gems/13.jpg,null,,,,,,10,,,11,,,,,13,0.747099437,0.769230769,,,,,,,
decision,327,1059990,0.0-110.0-2.0,,212.2,run_exp/static/images/task_images/land.jpg,76,,,,,,10,,,11,,,,,,,,215950,2,8,TRUE,,,
travel,328,1069778,0.0-111.0-0.0,,,,,,,,,,,"[{""stimulus"":""run_exp/static/images/task_images/rocket-01.jpg"",""time"":0},{""stimulus"":""run_exp/static/images/task_images/rocket-02.jpg"",""time"":1090.2999999970198},{""stimulus"":""run_exp/static/images/task_images/rocket-03.jpg"",""time"":2175.2999999970198},{""stimulus"":""run_exp/static/images/task_images/rocket-04.jpg"",""time"":3265},{""stimulus"":""run_exp/static/images/task_images/rocket-05.jpg"",""time"":4354.29999999702},{""stimulus"":""run_exp/static/images/task_images/rocket-06.jpg"",""time"":5437.20000000298},{""stimulus"":""run_exp/static/images/task_images/rocket-07.jpg"",""time"":6523},{""stimulus"":""run_exp/static/images/task_images/rocket-08.jpg"",""time"":7612.899999991059},{""stimulus"":""run_exp/static/images/task_images/rocket-09.jpg"",""time"":8698.29999999702}]",[],11,,,,,,,,,,,,,,
alien_welcome,329,1074784,0.0-111.0-1.0,,null,run_exp/static/images/task_images/aliens/old_aliens/planet/alien_planet-51.jpg,null,,,,,,,,,,,,51,"77,37,26,36,70,58,6,48,78,72,59,51,74,4,49,10,15,73,8",,,,,,,,,,
land,330,1075296,0.0-111.0-2.0,,null,run_exp/static/images/task_images/land.jpg,null,,,,,,95,,,12,,,,,,,,,,,,,,
dig,331,1077306,0.0-111.0-3.0,,,,,,,,,,,"[{""stimulus"":""run_exp/static/images/task_images/dig.jpg"",""time"":0.5999999940395355},{""stimulus"":""run_exp/static/images/task_images/land.jpg"",""time"":669},{""stimulus"":""run_exp/static/images/task_images/dig.jpg"",""time"":1338.5}]",[],12,,,,,,,,,,,,,,
harvest,332,1078313,0.0-111.0-4.0,,null,run_exp/static/images/task_images/gems/95.jpg,null,,,,,,80,,,12,,,,,95,0.840814494,0.842105263,,,,,,,
decision,333,1078379,0.0-111.0-5.0,,62.3,run_exp/static/images/task_images/land.jpg,65,,,,,,80,,,12,,,,,,,,234339,2,0,FALSE,,,
dig,334,1081324,0.0-112.0-0.0,,,,,,,,,,,"[{""stimulus"":""run_exp/static/images/task_images/dig.jpg"",""time"":0},{""stimulus"":""run_exp/static/images/task_images/land.jpg"",""time"":983.7999999970198},{""stimulus"":""run_exp/static/images/task_images/dig.jpg"",""time"":1962.7999999970198}]",[],12,,,,,,,,,,,,,,
harvest,335,1082330,0.0-112.0-1.0,,null,run_exp/static/images/task_images/gems/80.jpg,null,,,,,,62,,,12,,,,,80,0.775313533,0.775,,,,,,,
decision,336,1082351,0.0-112.0-2.0,,18.8,run_exp/static/images/task_images/land.jpg,65,,,,,,62,,,12,,,,,,,,238311,2,1,FALSE,,,
dig,337,1085336,0.0-113.0-0.0,,,,,,,,,,,"[{""stimulus"":""run_exp/static/images/task_images/dig.jpg"",""time"":0.20000000298023224},{""stimulus"":""run_exp/static/images/task_images/land.jpg"",""time"":994.5},{""stimulus"":""run_exp/static/images/task_images/dig.jpg"",""time"":1992.1000000089407}]",[],12,,,,,,,,,,,,,,
harvest,338,1086340,0.0-113.0-1.0,,null,run_exp/static/images/task_images/gems/62.jpg,null,,,,,,52,,,12,,,,,62,0.840893097,0.838709677,,,,,,,
decision,339,1086374,0.0-113.0-2.0,,31.90000001,run_exp/static/images/task_images/land.jpg,65,,,,,,52,,,12,,,,,,,,242334,2,2,FALSE,,,
dig,340,1089347,0.0-114.0-0.0,,,,,,,,,,,"[{""stimulus"":""run_exp/static/images/task_images/dig.jpg"",""time"":0.20000000298023224},{""stimulus"":""run_exp/static/images/task_images/land.jpg"",""time"":993.9000000059605},{""stimulus"":""run_exp/static/images/task_images/dig.jpg"",""time"":1981.2000000029802}]",[],12,,,,,,,,,,,,,,
harvest,341,1090349,0.0-114.0-1.0,,null,run_exp/static/images/task_images/gems/52.jpg,null,,,,,,36,,,12,,,,,52,0.693519212,0.692307692,,,,,,,
decision,342,1090397,0.0-114.0-2.0,,44.40000001,run_exp/static/images/task_images/land.jpg,65,,,,,,36,,,12,,,,,,,,246357,2,3,FALSE,,,
dig,343,1093359,0.0-115.0-0.0,,,,,,,,,,,"[{""stimulus"":""run_exp/static/images/task_images/dig.jpg"",""time"":0.09999999403953552},{""stimulus"":""run_exp/static/images/task_images/land.jpg"",""time"":987.6999999880791},{""stimulus"":""run_exp/static/images/task_images/dig.jpg"",""time"":1971.199999988079}]",[],12,,,,,,,,,,,,,,
harvest,344,1094364,0.0-115.0-1.0,,null,run_exp/static/images/task_images/gems/36.jpg,null,,,,,,31,,,12,,,,,36,0.852630812,0.861111111,,,,,,,
decision,345,1094370,0.0-115.0-2.0,,3.5,run_exp/static/images/task_images/land.jpg,65,,,,,,31,,,12,,,,,,,,250330,2,4,FALSE,,,
dig,346,1097374,0.0-116.0-0.0,,,,,,,,,,,"[{""stimulus"":""run_exp/static/images/task_images/dig.jpg"",""time"":0.20000000298023224},{""stimulus"":""run_exp/static/images/task_images/land.jpg"",""time"":999.4000000059605},{""stimulus"":""run_exp/static/images/task_images/dig.jpg"",""time"":1999.5}]",[],12,,,,,,,,,,,,,,
harvest,347,1098377,0.0-116.0-1.0,,null,run_exp/static/images/task_images/gems/31.jpg,null,,,,,,28,,,12,,,,,31,0.889863851,0.903225806,,,,,,,
decision,348,1098441,0.0-116.0-2.0,,61,run_exp/static/images/task_images/land.jpg,65,,,,,,28,,,12,,,,,,,,254401,2,5,FALSE,,,
dig,349,1101384,0.0-117.0-0.0,,,,,,,,,,,"[{""stimulus"":""run_exp/static/images/task_images/dig.jpg"",""time"":0.09999999403953552},{""stimulus"":""run_exp/static/images/task_images/land.jpg"",""time"":985.0999999940395},{""stimulus"":""run_exp/static/images/task_images/dig.jpg"",""time"":1964.2999999970198}]",[],12,,,,,,,,,,,,,,
harvest,350,1102388,0.0-117.0-1.0,,null,run_exp/static/images/task_images/gems/28.jpg,null,,,,,,21,,,12,,,,,28,0.736556152,0.75,,,,,,,
decision,351,1102602,0.0-117.0-2.0,,210.5,run_exp/static/images/task_images/land.jpg,65,,,,,,21,,,12,,,,,,,,258562,2,6,FALSE,,,
dig,352,1105397,0.0-118.0-0.0,,,,,,,,,,,"[{""stimulus"":""run_exp/static/images/task_images/dig.jpg"",""time"":0.20000000298023224},{""stimulus"":""run_exp/static/images/task_images/land.jpg"",""time"":935.4000000059605},{""stimulus"":""run_exp/static/images/task_images/dig.jpg"",""time"":1863.6000000089407}]",[],12,,,,,,,,,,,,,,
harvest,353,1106400,0.0-118.0-1.0,,null,run_exp/static/images/task_images/gems/21.jpg,null,,,,,,18,,,12,,,,,21,0.861275289,0.857142857,,,,,,,
decision,354,1106500,0.0-118.0-2.0,,97.5,run_exp/static/images/task_images/land.jpg,65,,,,,,18,,,12,,,,,,,,262461,2,7,FALSE,,,
dig,355,1109413,0.0-119.0-0.0,,,,,,,,,,,"[{""stimulus"":""run_exp/static/images/task_images/dig.jpg"",""time"":0.29999999701976776},{""stimulus"":""run_exp/static/images/task_images/land.jpg"",""time"":971.2000000029802},{""stimulus"":""run_exp/static/images/task_images/dig.jpg"",""time"":1940.0999999940395}]",[],12,,,,,,,,,,,,,,
harvest,356,1110417,0.0-119.0-1.0,,null,run_exp/static/images/task_images/gems/18.jpg,null,,,,,,15,,,12,,,,,18,0.814344119,0.833333333,,,,,,,
decision,357,1110556,0.0-119.0-2.0,,135.8,run_exp/static/images/task_images/land.jpg,65,,,,,,15,,,12,,,,,,,,266516,2,8,FALSE,,,
dig,358,1113429,0.0-120.0-0.0,,,,,,,,,,,"[{""stimulus"":""run_exp/static/images/task_images/dig.jpg"",""time"":0.29999999701976776},{""stimulus"":""run_exp/static/images/task_images/land.jpg"",""time"":959},{""stimulus"":""run_exp/static/images/task_images/dig.jpg"",""time"":1909.5999999940395}]",[],12,,,,,,,,,,,,,,
harvest,359,1114433,0.0-120.0-1.0,,null,run_exp/static/images/task_images/gems/15.jpg,null,,,,,,13,,,12,,,,,15,0.851660221,0.866666667,,,,,,,
decision,360,1114708,0.0-120.0-2.0,,271.2,run_exp/static/images/task_images/land.jpg,65,,,,,,13,,,12,,,,,,,,270668,2,9,FALSE,,,
dig,361,1117446,0.0-121.0-0.0,,,,,,,,,,,"[{""stimulus"":""run_exp/static/images/task_images/dig.jpg"",""time"":0.4000000059604645},{""stimulus"":""run_exp/static/images/task_images/land.jpg"",""time"":913.9000000059605},{""stimulus"":""run_exp/static/images/task_images/dig.jpg"",""time"":1824.1000000089407}]",[],12,,,,,,,,,,,,,,
harvest,362,1118450,0.0-121.0-1.0,,null,run_exp/static/images/task_images/gems/13.jpg,null,,,,,,10,,,12,,,,,13,0.741794837,0.769230769,,,,,,,
decision,363,1118955,0.0-121.0-2.0,,504,run_exp/static/images/task_images/land.jpg,65,,,,,,10,,,12,,,,,,,,274915,2,10,FALSE,,,
dig,364,1121457,0.0-122.0-0.0,,,,,,,,,,,"[{""stimulus"":""run_exp/static/images/task_images/dig.jpg"",""time"":0.09999999403953552},{""stimulus"":""run_exp/static/images/task_images/land.jpg"",""time"":837.5},{""stimulus"":""run_exp/static/images/task_images/dig.jpg"",""time"":1667.7000000029802}]",[],12,,,,,,,,,,,,,,
harvest,365,1122464,0.0-122.0-1.0,,null,run_exp/static/images/task_images/gems/10.jpg,null,,,,,,7,,,12,,,,,10,0.653849113,0.7,,,,,,,
decision,366,1122496,0.0-122.0-2.0,,29.8,run_exp/static/images/task_images/land.jpg,65,,,,,,7,,,12,,,,,,,,278456,2,11,FALSE,,,
dig,367,1125474,0.0-123.0-0.0,,,,,,,,,,,"[{""stimulus"":""run_exp/static/images/task_images/dig.jpg"",""time"":0.09999999403953552},{""stimulus"":""run_exp/static/images/task_images/land.jpg"",""time"":995.5},{""stimulus"":""run_exp/static/images/task_images/dig.jpg"",""time"":1981.3999999910593}]",[],12,,,,,,,,,,,,,,
harvest,368,1126478,0.0-123.0-1.0,,null,run_exp/static/images/task_images/gems/7.jpg,null,,,,,,6,,,12,,,,,7,0.912448127,0.857142857,,,,,,,
decision,369,1126504,0.0-123.0-2.0,,26,run_exp/static/images/task_images/land.jpg,65,,,,,,6,,,12,,,,,,,,282464,2,12,FALSE,,,
dig,370,1129480,0.0-124.0-0.0,,,,,,,,,,,"[{""stimulus"":""run_exp/static/images/task_images/dig.jpg"",""time"":0.20000000298023224},{""stimulus"":""run_exp/static/images/task_images/land.jpg"",""time"":993.3999999910593},{""stimulus"":""run_exp/static/images/task_images/dig.jpg"",""time"":1987.2000000029802}]",[],12,,,,,,,,,,,,,,
harvest,371,1130484,0.0-124.0-1.0,,null,run_exp/static/images/task_images/gems/6.jpg,null,,,,,,5,,,12,,,,,6,0.856363194,0.833333333,,,,,,,
decision,372,1130673,0.0-124.0-2.0,,186.3,run_exp/static/images/task_images/land.jpg,65,,,,,,5,,,12,,,,,,,,286634,2,13,FALSE,,,
dig,373,1133493,0.0-125.0-0.0,,,,,,,,,,,"[{""stimulus"":""run_exp/static/images/task_images/dig.jpg"",""time"":0},{""stimulus"":""run_exp/static/images/task_images/land.jpg"",""time"":942.7000000029802},{""stimulus"":""run_exp/static/images/task_images/dig.jpg"",""time"":1879.9000000059605}]",[],12,,,,,,,,,,,,,,
harvest,374,1134496,0.0-125.0-1.0,,null,run_exp/static/images/task_images/gems/5.jpg,null,,,,,,3,,,12,,,,,5,0.686178191,0.6,,,,,,,
decision,375,1134500,0.0-125.0-2.0,,0.5,run_exp/static/images/task_images/land.jpg,65,,,,,,3,,,12,,,,,,,,290460,2,14,FALSE,,,
dig,376,1137507,0.0-126.0-0.0,,,,,,,,,,,"[{""stimulus"":""run_exp/static/images/task_images/dig.jpg"",""time"":0.29999999701976776},{""stimulus"":""run_exp/static/images/task_images/land.jpg"",""time"":1001.6000000089407},{""stimulus"":""run_exp/static/images/task_images/dig.jpg"",""time"":2004.2000000029802}]",[],12,,,,,,,,,,,,,,
harvest,377,1138511,0.0-126.0-1.0,,null,run_exp/static/images/task_images/gems/3.jpg,null,,,,,,2,,,12,,,,,3,0.734270815,0.666666667,,,,,,,
decision,378,1140555,0.0-126.0-2.0,,2041,run_exp/static/images/task_images/land.jpg,65,,,,,,2,,,12,,,,,,,,296516,2,15,FALSE,,,
dig,379,1141525,0.0-127.0-0.0,,,,,,,,,,,"[{""stimulus"":""run_exp/static/images/task_images/dig.jpg"",""time"":0.19999998807907104},{""stimulus"":""run_exp/static/images/task_images/land.jpg"",""time"":324.29999999701977},{""stimulus"":""run_exp/static/images/task_images/dig.jpg"",""time"":643.6999999880791}]",[],12,,,,,,,,,,,,,,
harvest,380,1142534,0.0-127.0-1.0,,null,run_exp/static/images/task_images/gems/2.jpg,null,,,,,,2,,,12,,,,,2,0.789690105,1,,,,,,,
decision,381,1143682,0.0-127.0-2.0,,1137.7,run_exp/static/images/task_images/land.jpg,65,,,,,,2,,,12,,,,,,,,299642,2,16,FALSE,,,
dig,382,1145551,0.0-128.0-0.0,,,,,,,,,,,"[{""stimulus"":""run_exp/static/images/task_images/dig.jpg"",""time"":0},{""stimulus"":""run_exp/static/images/task_images/land.jpg"",""time"":624.2999999970198},{""stimulus"":""run_exp/static/images/task_images/dig.jpg"",""time"":1243.2999999970198}]",[],12,,,,,,,,,,,,,,
harvest,383,1146557,0.0-128.0-1.0,,null,run_exp/static/images/task_images/gems/2.jpg,null,,,,,,2,,,12,,,,,2,0.850833789,1,,,,,,,
decision,384,1148585,0.0-128.0-2.0,,2025.2,run_exp/static/images/task_images/land.jpg,65,,,,,,2,,,12,,,,,,,,304546,2,17,TRUE,,,
end_of_block_continue,385,1157427,0.0-129.0-0.0,,null,run_exp/static/audio/clip_32_block_end.m4a,,,,,,null,,,,,,,,,,,,,,,,,,
alien_welcome,386,1162442,0.0-130.0-0.0,,null,run_exp/static/images/task_images/aliens/old_aliens/planet/alien_planet-74.jpg,null,,,,,,,,,,,,74,"77,37,26,36,70,58,6,48,78,72,59,51,74,4,49,10,15,73,8",,,,,,,,,,
land,387,1162950,0.0-130.0-1.0,,null,run_exp/static/images/task_images/land.jpg,null,,,,,,102,,,13,,,,,,,,,,,,,,
dig,388,1164958,0.0-130.0-2.0,,,,,,,,,,,"[{""stimulus"":""run_exp/static/images/task_images/dig.jpg"",""time"":0.5},{""stimulus"":""run_exp/static/images/task_images/land.jpg"",""time"":669.7999999970198},{""stimulus"":""run_exp/static/images/task_images/dig.jpg"",""time"":1339.3999999910593}]",[],13,,,,,,,,,,,,,,
harvest,389,1165963,0.0-130.0-3.0,,null,run_exp/static/images/task_images/gems/102.jpg,null,,,,,,57,,,13,,,,,102,0.557290125,0.558823529,,,,,,,
decision,390,1166282,0.0-130.0-4.0,,316.2,run_exp/static/images/task_images/land.jpg,65,,,,,,57,,,13,,,,,,,,8843,3,0,FALSE,,,
dig,391,1168975,0.0-131.0-0.0,,,,,,,,,,,"[{""stimulus"":""run_exp/static/images/task_images/dig.jpg"",""time"":0.29999999701976776},{""stimulus"":""run_exp/static/images/task_images/land.jpg"",""time"":899.2000000029802},{""stimulus"":""run_exp/static/images/task_images/dig.jpg"",""time"":1793.2000000029802}]",[],13,,,,,,,,,,,,,,
harvest,392,1169982,0.0-131.0-1.0,,null,run_exp/static/images/task_images/gems/57.jpg,null,,,,,,28,,,13,,,,,57,0.486801151,0.49122807,,,,,,,
decision,393,1170255,0.0-131.0-2.0,,271.4,run_exp/static/images/task_images/land.jpg,65,,,,,,28,,,13,,,,,,,,12816,3,1,FALSE,,,
dig,394,1172992,0.0-132.0-0.0,,,,,,,,,,,"[{""stimulus"":""run_exp/static/images/task_images/dig.jpg"",""time"":0.09999999403953552},{""stimulus"":""run_exp/static/images/task_images/land.jpg"",""time"":912.8999999910593},{""stimulus"":""run_exp/static/images/task_images/dig.jpg"",""time"":1824.5999999940395}]",[],13,,,,,,,,,,,,,,
harvest,395,1173995,0.0-132.0-1.0,,null,run_exp/static/images/task_images/gems/28.jpg,null,,,,,,14,,,13,,,,,28,0.512676251,0.5,,,,,,,
decision,396,1174633,0.0-132.0-2.0,,636.3,run_exp/static/images/task_images/land.jpg,65,,,,,,14,,,13,,,,,,,,17194,3,2,FALSE,,,
dig,397,1176999,0.0-133.0-0.0,,,,,,,,,,,"[{""stimulus"":""run_exp/static/images/task_images/dig.jpg"",""time"":0},{""stimulus"":""run_exp/static/images/task_images/land.jpg"",""time"":789.4000000059605},{""stimulus"":""run_exp/static/images/task_images/dig.jpg"",""time"":1578.9000000059605}]",[],13,,,,,,,,,,,,,,
harvest,398,1178003,0.0-133.0-1.0,,null,run_exp/static/images/task_images/gems/14.jpg,null,,,,,,6,,,13,,,,,14,0.441075934,0.428571429,,,,,,,
decision,399,1178328,0.0-133.0-2.0,,323.8,run_exp/static/images/task_images/land.jpg,65,,,,,,6,,,13,,,,,,,,20889,3,3,FALSE,,,
dig,400,1181012,0.0-134.0-0.0,,,,,,,,,,,"[{""stimulus"":""run_exp/static/images/task_images/dig.jpg"",""time"":0.09999999403953552},{""stimulus"":""run_exp/static/images/task_images/land.jpg"",""time"":894.5999999940395},{""stimulus"":""run_exp/static/images/task_images/dig.jpg"",""time"":1789.5}]",[],13,,,,,,,,,,,,,,
harvest,401,1182018,0.0-134.0-1.0,,null,run_exp/static/images/task_images/gems/6.jpg,null,,,,,,3,,,13,,,,,6,0.498958183,0.5,,,,,,,
decision,402,1182153,0.0-134.0-2.0,,132.4,run_exp/static/images/task_images/land.jpg,65,,,,,,3,,,13,,,,,,,,24714,3,4,FALSE,,,
dig,403,1185029,0.0-135.0-0.0,,,,,,,,,,,"[{""stimulus"":""run_exp/static/images/task_images/dig.jpg"",""time"":0.09999999403953552},{""stimulus"":""run_exp/static/images/task_images/land.jpg"",""time"":958.0999999940395},{""stimulus"":""run_exp/static/images/task_images/dig.jpg"",""time"":1916.0999999940395}]",[],13,,,,,,,,,,,,,,
harvest,404,1186036,0.0-135.0-1.0,,null,run_exp/static/images/task_images/gems/3.jpg,null,,,,,,1,,,13,,,,,3,0.453076771,0.333333333,,,,,,,
decision,405,1188098,0.0-135.0-2.0,,2058.5,run_exp/static/images/task_images/land.jpg,65,,,,,,1,,,13,,,,,,,,30659,3,5,FALSE,,,
dig,406,1189048,0.0-136.0-0.0,,,,,,,,,,,"[{""stimulus"":""run_exp/static/images/task_images/dig.jpg"",""time"":0.30000001192092896},{""stimulus"":""run_exp/static/images/task_images/land.jpg"",""time"":316},{""stimulus"":""run_exp/static/images/task_images/dig.jpg"",""time"":630.7000000029802}]",[],13,,,,,,,,,,,,,,
harvest,407,1190053,0.0-136.0-1.0,,null,run_exp/static/images/task_images/gems/1.jpg,null,,,,,,1,,,13,,,,,1,0.539097479,1,,,,,,,
decision,408,1190881,0.0-136.0-2.0,,824.8,run_exp/static/images/task_images/land.jpg,65,,,,,,1,,,13,,,,,,,,33442,3,6,FALSE,,,
dig,409,1193065,0.0-137.0-0.0,,,,,,,,,,,"[{""stimulus"":""run_exp/static/images/task_images/dig.jpg"",""time"":0.20000000298023224},{""stimulus"":""run_exp/static/images/task_images/land.jpg"",""time"":729.0999999940395},{""stimulus"":""run_exp/static/images/task_images/dig.jpg"",""time"":1454.3999999910593}]",[],13,,,,,,,,,,,,,,
harvest,410,1194070,0.0-137.0-1.0,,null,run_exp/static/images/task_images/gems/1.jpg,null,,,,,,1,,,13,,,,,1,0.539349511,1,,,,,,,
decision,411,1194853,0.0-137.0-2.0,,780,run_exp/static/images/task_images/land.jpg,76,,,,,,1,,,13,,,,,,,,37415,3,7,TRUE,,,
travel,412,1204082,0.0-138.0-0.0,,,,,,,,,,,"[{""stimulus"":""run_exp/static/images/task_images/rocket-01.jpg"",""time"":0.4000000059604645},{""stimulus"":""run_exp/static/images/task_images/rocket-02.jpg"",""time"":1025.9000000059605},{""stimulus"":""run_exp/static/images/task_images/rocket-03.jpg"",""time"":2052.5},{""stimulus"":""run_exp/static/images/task_images/rocket-04.jpg"",""time"":3075.9000000059605},{""stimulus"":""run_exp/static/images/task_images/rocket-05.jpg"",""time"":4101.300000011921},{""stimulus"":""run_exp/static/images/task_images/rocket-06.jpg"",""time"":5125.600000008941},{""stimulus"":""run_exp/static/images/task_images/rocket-07.jpg"",""time"":6149.20000000298},{""stimulus"":""run_exp/static/images/task_images/rocket-08.jpg"",""time"":7174.5},{""stimulus"":""run_exp/static/images/task_images/rocket-09.jpg"",""time"":8198}]",[],13,,,,,,,,,,,,,,
alien_welcome,413,1209091,0.0-138.0-1.0,,null,run_exp/static/images/task_images/aliens/old_aliens/planet/alien_planet-4.jpg,null,,,,,,,,,,,,4,"77,37,26,36,70,58,6,48,78,72,59,51,74,4,49,10,15,73,8",,,,,,,,,,
land,414,1209597,0.0-138.0-2.0,,null,run_exp/static/images/task_images/land.jpg,null,,,,,,97,,,14,,,,,,,,,,,,,,
dig,415,1211606,0.0-138.0-3.0,,,,,,,,,,,"[{""stimulus"":""run_exp/static/images/task_images/dig.jpg"",""time"":0.6000000089406967},{""stimulus"":""run_exp/static/images/task_images/land.jpg"",""time"":670.7000000029802},{""stimulus"":""run_exp/static/images/task_images/dig.jpg"",""time"":1338}]",[],14,,,,,,,,,,,,,,
harvest,416,1212612,0.0-138.0-4.0,,null,run_exp/static/images/task_images/gems/97.jpg,null,,,,,,75,,,14,,,,,97,0.77236485,0.773195876,,,,,,,
decision,417,1214287,0.0-138.0-5.0,,1671.7,run_exp/static/images/task_images/land.jpg,65,,,,,,75,,,14,,,,,,,,56849,3,0,FALSE,,,
dig,418,1215622,0.0-139.0-0.0,,,,,,,,,,,"[{""stimulus"":""run_exp/static/images/task_images/dig.jpg"",""time"":0.10000000894069672},{""stimulus"":""run_exp/static/images/task_images/land.jpg"",""time"":445.40000000596046},{""stimulus"":""run_exp/static/images/task_images/dig.jpg"",""time"":887}]",[],14,,,,,,,,,,,,,,
harvest,419,1216629,0.0-139.0-1.0,,null,run_exp/static/images/task_images/gems/75.jpg,null,,,,,,60,,,14,,,,,75,0.801754487,0.8,,,,,,,
decision,420,1219633,0.0-139.0-2.0,,3001,run_exp/static/images/task_images/land.jpg,65,,,,,,60,,,14,,,,,,,,62194,3,1,FALSE,,,
dig,421,1219650,0.0-140.0-0.0,,,,,,,,,,,"[{""stimulus"":""run_exp/static/images/task_images/dig.jpg"",""time"":0.5},{""stimulus"":""run_exp/static/images/task_images/land.jpg"",""time"":4.399999991059303},{""stimulus"":""run_exp/static/images/task_images/dig.jpg"",""time"":6.5}]",[],14,,,,,,,,,,,,,,
harvest,422,1220653,0.0-140.0-1.0,,null,run_exp/static/images/task_images/gems/60.jpg,null,,,,,,47,,,14,,,,,60,0.787173338,0.783333333,,,,,,,
decision,423,1222915,0.0-140.0-2.0,,2260.1,run_exp/static/images/task_images/land.jpg,65,,,,,,47,,,14,,,,,,,,65476,3,2,FALSE,,,
dig,424,1223663,0.0-141.0-0.0,,,,,,,,,,,"[{""stimulus"":""run_exp/static/images/task_images/dig.jpg"",""time"":0.20000000298023224},{""stimulus"":""run_exp/static/images/task_images/land.jpg"",""time"":247.90000000596046},{""stimulus"":""run_exp/static/images/task_images/dig.jpg"",""time"":494.70000000298023}]",[],14,,,,,,,,,,,,,,
harvest,425,1224666,0.0-141.0-1.0,,null,run_exp/static/images/task_images/gems/47.jpg,null,,,,,,38,,,14,,,,,47,0.818831628,0.808510638,,,,,,,
decision,426,1227076,0.0-141.0-2.0,,2405.4,run_exp/static/images/task_images/land.jpg,65,,,,,,38,,,14,,,,,,,,69637,3,3,FALSE,,,
dig,427,1227678,0.0-142.0-0.0,,,,,,,,,,,"[{""stimulus"":""run_exp/static/images/task_images/dig.jpg"",""time"":0.5},{""stimulus"":""run_exp/static/images/task_images/land.jpg"",""time"":203.40000000596046},{""stimulus"":""run_exp/static/images/task_images/dig.jpg"",""time"":400.59999999403954}]",[],14,,,,,,,,,,,,,,
harvest,428,1228685,0.0-142.0-1.0,,null,run_exp/static/images/task_images/gems/38.jpg,null,,,,,,26,,,14,,,,,38,0.696086354,0.684210526,,,,,,,
decision,429,1230118,0.0-142.0-2.0,,1429.3,run_exp/static/images/task_images/land.jpg,65,,,,,,26,,,14,,,,,,,,72679,3,4,FALSE,,,
dig,430,1231699,0.0-143.0-0.0,,,,,,,,,,,"[{""stimulus"":""run_exp/static/images/task_images/dig.jpg"",""time"":0.3999999910593033},{""stimulus"":""run_exp/static/images/task_images/land.jpg"",""time"":527},{""stimulus"":""run_exp/static/images/task_images/dig.jpg"",""time"":1052.7000000029802}]",[],14,,,,,,,,,,,,,,
harvest,431,1232706,0.0-143.0-1.0,,null,run_exp/static/images/task_images/gems/26.jpg,null,,,,,,21,,,14,,,,,26,0.792156617,0.807692308,,,,,,,
decision,432,1235713,0.0-143.0-2.0,,null,run_exp/static/images/task_images/land.jpg,null,,,,,,21,,,14,,,,,,,,78274,3,5,FALSE,,,
time_out,433,1237721,0.0-144.0-0.0,,null,run_exp/static/images/task_images/time_out.jpg,null,,,,,,21,,,,,,,,,,,,,,,,,
decision,434,1237969,0.0-144.0-1.0,,244.2,run_exp/static/images/task_images/land.jpg,65,,,,,,21,,,14,,,,,,,,80530,3,5,FALSE,,,
dig,435,1240734,0.0-145.0-0.0,,,,,,,,,,,"[{""stimulus"":""run_exp/static/images/task_images/dig.jpg"",""time"":0.09999999403953552},{""stimulus"":""run_exp/static/images/task_images/land.jpg"",""time"":922.2999999970198},{""stimulus"":""run_exp/static/images/task_images/dig.jpg"",""time"":1841.2999999970198}]",[],14,,,,,,,,,,,,,,
harvest,436,1241738,0.0-145.0-1.0,,null,run_exp/static/images/task_images/gems/21.jpg,null,,,,,,17,,,14,,,,,21,0.817171855,0.80952381,,,,,,,
decision,437,1244513,0.0-145.0-2.0,,2771.9,run_exp/static/images/task_images/land.jpg,65,,,,,,17,,,14,,,,,,,,87074,3,6,FALSE,,,
dig,438,1244749,0.0-146.0-0.0,,,,,,,,,,,"[{""stimulus"":""run_exp/static/images/task_images/dig.jpg"",""time"":0.29999999701976776},{""stimulus"":""run_exp/static/images/task_images/land.jpg"",""time"":80.3999999910593},{""stimulus"":""run_exp/static/images/task_images/dig.jpg"",""time"":155.59999999403954}]",[],14,,,,,,,,,,,,,,
harvest,439,1245755,0.0-146.0-1.0,,null,run_exp/static/images/task_images/gems/17.jpg,null,,,,,,13,,,14,,,,,17,0.792726816,0.764705882,,,,,,,
decision,440,1248762,0.0-146.0-2.0,,null,run_exp/static/images/task_images/land.jpg,null,,,,,,13,,,14,,,,,,,,91323,3,7,FALSE,,,
time_out,441,1250770,0.0-147.0-0.0,,null,run_exp/static/images/task_images/time_out.jpg,null,,,,,,13,,,,,,,,,,,,,,,,,
decision,442,1252849,0.0-147.0-1.0,,2077.8,run_exp/static/images/task_images/land.jpg,65,,,,,,13,,,14,,,,,,,,95410,3,7,FALSE,,,
dig,443,1253778,0.0-148.0-0.0,,,,,,,,,,,"[{""stimulus"":""run_exp/static/images/task_images/dig.jpg"",""time"":0.30000001192092896},{""stimulus"":""run_exp/static/images/task_images/land.jpg"",""time"":308.90000000596046},{""stimulus"":""run_exp/static/images/task_images/dig.jpg"",""time"":616.9000000059605}]",[],14,,,,,,,,,,,,,,
harvest,444,1254782,0.0-148.0-1.0,,null,run_exp/static/images/task_images/gems/13.jpg,null,,,,,,8,,,14,,,,,13,0.633423892,0.615384615,,,,,,,
decision,445,1257789,0.0-148.0-2.0,,null,run_exp/static/images/task_images/land.jpg,null,,,,,,8,,,14,,,,,,,,100351,3,8,FALSE,,,
time_out,446,1259802,0.0-149.0-0.0,,null,run_exp/static/images/task_images/time_out.jpg,null,,,,,,8,,,,,,,,,,,,,,,,,
decision,447,1261436,0.0-149.0-1.0,,1632.6,run_exp/static/images/task_images/land.jpg,65,,,,,,8,,,14,,,,,,,,103998,3,8,FALSE,,,
dig,448,1262811,0.0-150.0-0.0,,,,,,,,,,,"[{""stimulus"":""run_exp/static/images/task_images/dig.jpg"",""time"":0.09999999403953552},{""stimulus"":""run_exp/static/images/task_images/land.jpg"",""time"":459.70000000298023},{""stimulus"":""run_exp/static/images/task_images/dig.jpg"",""time"":914}]",[],14,,,,,,,,,,,,,,
harvest,449,1263817,0.0-150.0-1.0,,null,run_exp/static/images/task_images/gems/8.jpg,null,,,,,,6,,,14,,,,,8,0.787720177,0.75,,,,,,,
decision,450,1263954,0.0-150.0-2.0,,134.3,run_exp/static/images/task_images/land.jpg,65,,,,,,6,,,14,,,,,,,,106515,3,9,FALSE,,,
dig,451,1266832,0.0-151.0-0.0,,,,,,,,,,,"[{""stimulus"":""run_exp/static/images/task_images/dig.jpg"",""time"":0.20000000298023224},{""stimulus"":""run_exp/static/images/task_images/land.jpg"",""time"":958.4000000059605},{""stimulus"":""run_exp/static/images/task_images/dig.jpg"",""time"":1913.2000000029802}]",[],14,,,,,,,,,,,,,,
harvest,452,1267839,0.0-151.0-1.0,,null,run_exp/static/images/task_images/gems/6.jpg,null,,,,,,5,,,14,,,,,6,0.802362277,0.833333333,,,,,,,
decision,453,1270845,0.0-151.0-2.0,,null,run_exp/static/images/task_images/land.jpg,null,,,,,,5,,,14,,,,,,,,113406,3,10,FALSE,,,
time_out,454,1272858,0.0-152.0-0.0,,null,run_exp/static/images/task_images/time_out.jpg,null,,,,,,5,,,,,,,,,,,,,,,,,
decision,455,1275865,0.0-152.0-1.0,,null,run_exp/static/images/task_images/land.jpg,null,,,,,,5,,,14,,,,,,,,118427,3,10,FALSE,,,
time_out,456,1277877,0.0-153.0-0.0,,null,run_exp/static/images/task_images/time_out.jpg,null,,,,,,5,,,,,,,,,,,,,,,,,
