trial_type,trial_index,time_elapsed,internal_node_id,interactions,blur_events,focus_events,fullscreenenter_events,fullscreenexit_events,success,rt,stimulus,key_press,prompt,subject_id,participant_id,age,gender,button_pressed,next_reward,animation_sequence,responses,planet,curr_prac_trial,n_prac_rounds,alien,aliens,reward_received,decay_rate_actual,decay_rate_exp,time_in_block,block_num,prt,last_trial_on_planet,button_html,bonus,num_failures
pavlovia,0,5,0.0-0.0,"""event"",""trial"",""time""
""fullscreenenter"",""1"",""7263""
","
","
","""event"",""trial"",""time""
""fullscreenenter"",""1"",""7263""
","
",,,,,,,,,,,,,,,,,,,,,,,,,,,,
fullscreen,1,8238,0.0-1.0,"""event"",""trial"",""time""
""fullscreenenter"",""1"",""7263""
","
","
","""event"",""trial"",""time""
""fullscreenenter"",""1"",""7263""
","
",TRUE,,,,,,,,,,,,,,,,,,,,,,,,,,,
instruc_welcome,2,18255,0.0-2.0,"""event"",""trial"",""time""
""fullscreenenter"",""1"",""7263""
","
","
","""event"",""trial"",""time""
""fullscreenenter"",""1"",""7263""
","
",,null,run_exp/static/audio/clip_1_welcome.m4a,null,"<p>Howdy! In this experiment, you’ll be an explorer traveling through space to collect space treasure.</p><p>Your mission is to collect as much treasure as possible.</p><br><br><p><img src='run_exp/static/images/task_images/opening_img-01.jpg' height='300' width='auto'></p>",7828,3042,25.34,Female,,,,,,,,,,,,,,,,,,,
audio-keyboard-response,3,34854,0.0-3.0,"""event"",""trial"",""time""
""fullscreenenter"",""1"",""7263""
","
","
","""event"",""trial"",""time""
""fullscreenenter"",""1"",""7263""
","
",,null,run_exp/static/audio/clip_2_move.m4a,null,,,,,,,,,,,,,,,,,,,,,,,,
welcome_dec,4,39034,0.0-4.0,"""event"",""trial"",""time""
""fullscreenenter"",""1"",""7263""
","
","
","""event"",""trial"",""time""
""fullscreenenter"",""1"",""7263""
","
",,4175.5,"<p>Howdy! In this experiment, you’ll be an explorer traveling through space to collect space treasure.</p><p>Your mission is to collect as much treasure as possible.</p><br><br><p><img src='run_exp/static/images/task_images/opening_img-01.jpg' height='300' width='auto'></p>",,,,,,,1,,,,,,,,,,,,,,,,,,
html-keyboard-response,5,40518,0.0-5.0,"""event"",""trial"",""time""
""fullscreenenter"",""1"",""7263""
","
","
","""event"",""trial"",""time""
""fullscreenenter"",""1"",""7263""
","
",,1481.8,"<p>Howdy! In this experiment, you’ll be an explorer traveling through space to collect space treasure.</p><p>Your mission is to collect as much treasure as possible.</p><br><br><p><img src='run_exp/static/images/task_images/opening_img-01.jpg' height='300' width='auto'></p><button class=""jspsych-html-btn-unchosen""><img src=""run_exp/static/images/task_images/planet-01.jpg"" height=""50""></button><button class=""jspsych-html-btn-chosen""><img src=""run_exp/static/images/task_images/planet-02.jpg"" height=""50""></button><p><b>[press the space bar to lock in your answer]<b><br></p>",32,,,,,,,,,,,,,,,,,,,,,,,,
instruc_goal,6,50593,0.0-6.0-0.0,"""event"",""trial"",""time""
""fullscreenenter"",""1"",""7263""
","
","
","""event"",""trial"",""time""
""fullscreenenter"",""1"",""7263""
","
",,null,run_exp/static/audio/clip_3_goal.m4a,null,"<p> As a space explorer, you’ll visit different planets to dig for space treasure, these pink gems.</p> <p> The more treasure you dig up, the more bonus money you’ll win! </p><br><br><p><img src='run_exp/static/images/task_images/pink_gem.jpg' height='300' width='auto'></p>",,,,,,,,,,,,,,,,,,,,,,,
instruc_goal,7,56163,0.0-6.0-1.0,"""event"",""trial"",""time""
""fullscreenenter"",""1"",""7263""
","
","
","""event"",""trial"",""time""
""fullscreenenter"",""1"",""7263""
","
",,5565.6,"<p> As a space explorer, you’ll visit different planets to dig for space treasure, these pink gems.</p> <p> The more treasure you dig up, the more bonus money you’ll win! </p><br><br><p><img src='run_exp/static/images/task_images/pink_gem.jpg' height='300' width='auto'></p>",,,,,,,1,,,,,,,,,,,,,,,,,,
html-keyboard-response,8,87481,0.0-6.0-2.0,"""event"",""trial"",""time""
""fullscreenenter"",""1"",""7263""
","
","
","""event"",""trial"",""time""
""fullscreenenter"",""1"",""7263""
","
",,31316.9,"<p> As a space explorer, you’ll visit different planets to dig for space treasure, these pink gems.</p> <p> The more treasure you dig up, the more bonus money you’ll win! </p><br><br><p><img src='run_exp/static/images/task_images/pink_gem.jpg' height='300' width='auto'></p><button class=""jspsych-html-btn-unchosen""><img src=""run_exp/static/images/task_images/planet-01.jpg"" height=""50""></button><button class=""jspsych-html-btn-chosen""><img src=""run_exp/static/images/task_images/planet-02.jpg"" height=""50""></button><p><b>[press the space bar to lock in your answer]<b><br></p>",32,,,,,,,,,,,,,,,,,,,,,,,,
instruc_dig,9,104336,0.0-7.0-0.0,"""event"",""trial"",""time""
""fullscreenenter"",""1"",""7263""
","
","
","""event"",""trial"",""time""
""fullscreenenter"",""1"",""7263""
","
",,null,run_exp/static/audio/clip_4_dig.m4a,null,,,,,,,100,,,,,,,,,,,,,,,,,
instruc_dig_try,10,116827,0.0-7.0-1.0,"""event"",""trial"",""time""
""fullscreenenter"",""1"",""7263""
","
","
","""event"",""trial"",""time""
""fullscreenenter"",""1"",""7263""
","
",,12488.4,"<p> When you’ve arrived at a new planet, you will dig once. </p> <p>Then, you get to decide if you want to stay on the planet and dig again or travel to a new planet and dig there.</p> <p> To stay and dig, press the letter <strong>‘A’</strong> on your keyboard. Try pressing it now! </p><p><img src='run_exp/static/images/task_images/land.jpg'  height='700' width='auto'></p>",65,"<p> When you’ve arrived at a new planet, you will dig once. </p> <p>Then, you get to decide if you want to stay on the planet and dig again or travel to a new planet and dig there.</p> <p> To stay and dig, press the letter <strong>‘A’</strong> on your keyboard. Try pressing it now! </p><p><img src='run_exp/static/images/task_images/land.jpg'  height='700' width='auto'></p>",,,,,,100,,,,,,,,,,,,,,,,,
dig_prac,11,118841,0.0-7.0-2.0,"""event"",""trial"",""time""
""fullscreenenter"",""1"",""7263""
","
","
","""event"",""trial"",""time""
""fullscreenenter"",""1"",""7263""
","
",,,,,,,,,,,,"[{""stimulus"":""run_exp/static/images/task_images/dig.jpg"",""time"":0.40000009536743164},{""stimulus"":""run_exp/static/images/task_images/land.jpg"",""time"":669},{""stimulus"":""run_exp/static/images/task_images/dig.jpg"",""time"":1336.9000000953674}]",[],,,,,,,,,,,,,,,
instruc_travel,12,155067,0.0-7.0-3.0,"""event"",""trial"",""time""
""fullscreenenter"",""1"",""7263""
","
","
","""event"",""trial"",""time""
""fullscreenenter"",""1"",""7263""
","
",,null,run_exp/static/audio/clip_5_travel.m4a,null,"<p>Every time you dig up gems, there are less gems on the planet, so the more you dig on a planet the fewer gems you’ll get with each dig.</p><p>When gems are running low, you may want to travel to a new planet. </p> <p>  Planets are very far apart in this galaxy, so it will take some time to travel between them. </p> <br><p>There are lots and lots of planets for you to visit, so you won’t be able to return to any planets you’ve seen before. </p><br><p>To leave this planet and travel to a new one, press the letter <strong>‘L’</strong> on your keyboard. Try pressing it now! </p><p><img src='run_exp/static/images/task_images/rocket-01.jpg'  height='600' width='auto'></p>",,,,,,,,,,,,,,,,,,,,,,,
instruc_travel_try,13,164838,0.0-7.0-4.0,"""event"",""trial"",""time""
""fullscreenenter"",""1"",""7263""
","
","
","""event"",""trial"",""time""
""fullscreenenter"",""1"",""7263""
","
",,9766.9,"<p>Every time you dig up gems, there are less gems on the planet, so the more you dig on a planet the fewer gems you’ll get with each dig.</p><p>When gems are running low, you may want to travel to a new planet. </p> <p>  Planets are very far apart in this galaxy, so it will take some time to travel between them. </p> <br><p>There are lots and lots of planets for you to visit, so you won’t be able to return to any planets you’ve seen before. </p><br><p>To leave this planet and travel to a new one, press the letter <strong>‘L’</strong> on your keyboard. Try pressing it now! </p><p><img src='run_exp/static/images/task_images/rocket-01.jpg'  height='600' width='auto'></p>",76,"<p>Every time you dig up gems, there are less gems on the planet, so the more you dig on a planet the fewer gems you’ll get with each dig.</p><p>When gems are running low, you may want to travel to a new planet. </p> <p>  Planets are very far apart in this galaxy, so it will take some time to travel between them. </p> <br><p>There are lots and lots of planets for you to visit, so you won’t be able to return to any planets you’ve seen before. </p><br><p>To leave this planet and travel to a new one, press the letter <strong>‘L’</strong> on your keyboard. Try pressing it now! </p><p><img src='run_exp/static/images/task_images/rocket-01.jpg'  height='600' width='auto'></p>",,,,,,,,,,,,,,,,,,,,,,,
travel_prac,14,174840,0.0-7.0-5.0,"""event"",""trial"",""time""
""fullscreenenter"",""1"",""7263""
""fullscreenexit"",""15"",""183731""
","
","
","""event"",""trial"",""time""
""fullscreenenter"",""1"",""7263""
","""event"",""trial"",""time""
""fullscreenexit"",""15"",""183731""
",,,,,,,,,,,,"[{""stimulus"":""run_exp/static/images/task_images/rocket-01.jpg"",""time"":0.20000004768371582},{""stimulus"":""run_exp/static/images/task_images/rocket-02.jpg"",""time"":1112.5},{""stimulus"":""run_exp/static/images/task_images/rocket-03.jpg"",""time"":2223.9000000953674},{""stimulus"":""run_exp/static/images/task_images/rocket-04.jpg"",""time"":3347.600000143051},{""stimulus"":""run_exp/static/images/task_images/rocket-05.jpg"",""time"":4446},{""stimulus"":""run_exp/static/images/task_images/rocket-06.jpg"",""time"":5557.100000143051},{""stimulus"":""run_exp/static/images/task_images/rocket-07.jpg"",""time"":6667.200000047684},{""stimulus"":""run_exp/static/images/task_images/rocket-08.jpg"",""time"":7778.600000143051},{""stimulus"":""run_exp/static/images/task_images/rocket-09.jpg"",""time"":8890.900000095367}]",[],0,,,,,,,,,,,,,,
instruc_alien_greet,15,202057,0.0-7.0-6.0,"""event"",""trial"",""time""
""fullscreenenter"",""1"",""7263""
""fullscreenexit"",""15"",""183731""
""blur"",""16"",""207044""
""focus"",""16"",""208657""
","""event"",""trial"",""time""
""blur"",""16"",""207044""
","""event"",""trial"",""time""
""focus"",""16"",""208657""
","""event"",""trial"",""time""
""fullscreenenter"",""1"",""7263""
","""event"",""trial"",""time""
""fullscreenexit"",""15"",""183731""
",,null,run_exp/static/audio/clip_6_alien.m4a,null,"<p>When you arrive at a new planet, the alien who owns the treasure mine on that planet will greet you!</p><p>The better an alien takes care of their mine the easier it is to dig for gems. Some aliens take better care of their mine than others. So, you won’t get exactly the same amount of gems on each planet.</p><p>What the alien looks like does not tell you anything about how many gems there are on the planet.</p><br><p><img src=""run_exp/static/images/task_images/aliens/instructions_aliens/planet/alien_planet-1.jpg""  height=""600"" width=""auto""></p>",,,,,,,,,,,,,,,,,,,,,,,
instruc_alien_greet,16,221899,0.0-7.0-7.0,"""event"",""trial"",""time""
""fullscreenenter"",""1"",""7263""
""fullscreenexit"",""15"",""183731""
""blur"",""16"",""207044""
""focus"",""16"",""208657""
","""event"",""trial"",""time""
""blur"",""16"",""207044""
","""event"",""trial"",""time""
""focus"",""16"",""208657""
","""event"",""trial"",""time""
""fullscreenenter"",""1"",""7263""
","""event"",""trial"",""time""
""fullscreenexit"",""15"",""183731""
",,19838.3,"<p>When you arrive at a new planet, the alien who owns the treasure mine on that planet will greet you!</p><p>The better an alien takes care of their mine the easier it is to dig for gems. Some aliens take better care of their mine than others. So, you won’t get exactly the same amount of gems on each planet.</p><p>What the alien looks like does not tell you anything about how many gems there are on the planet.</p><br><p><img src=""run_exp/static/images/task_images/aliens/instructions_aliens/planet/alien_planet-1.jpg""  height=""600"" width=""auto""></p>",,,,,,,1,,,,,,,,,,,,,,,,,,
html-keyboard-response,17,224138,0.0-7.0-8.0,"""event"",""trial"",""time""
""fullscreenenter"",""1"",""7263""
""fullscreenexit"",""15"",""183731""
""blur"",""16"",""207044""
""focus"",""16"",""208657""
","""event"",""trial"",""time""
""blur"",""16"",""207044""
","""event"",""trial"",""time""
""focus"",""16"",""208657""
","""event"",""trial"",""time""
""fullscreenenter"",""1"",""7263""
","""event"",""trial"",""time""
""fullscreenexit"",""15"",""183731""
",,2237.2,"<p>When you arrive at a new planet, the alien who owns the treasure mine on that planet will greet you!</p><p>The better an alien takes care of their mine the easier it is to dig for gems. Some aliens take better care of their mine than others. So, you won’t get exactly the same amount of gems on each planet.</p><p>What the alien looks like does not tell you anything about how many gems there are on the planet.</p><br><p><img src=""run_exp/static/images/task_images/aliens/instructions_aliens/planet/alien_planet-1.jpg""  height=""600"" width=""auto""></p><button class=""jspsych-html-btn-unchosen""><img src=""run_exp/static/images/task_images/planet-01.jpg"" height=""50""></button><button class=""jspsych-html-btn-chosen""><img src=""run_exp/static/images/task_images/planet-02.jpg"" height=""50""></button><p><b>[press the space bar to lock in your answer]<b><br></p>",32,,,,,,,,,,,,,,,,,,,,,,,,
time_out,18,235402,0.0-8.0-0.0,"""event"",""trial"",""time""
""fullscreenenter"",""1"",""7263""
""fullscreenexit"",""15"",""183731""
""blur"",""16"",""207044""
""focus"",""16"",""208657""
","""event"",""trial"",""time""
""blur"",""16"",""207044""
","""event"",""trial"",""time""
""focus"",""16"",""208657""
","""event"",""trial"",""time""
""fullscreenenter"",""1"",""7263""
","""event"",""trial"",""time""
""fullscreenexit"",""15"",""183731""
",,null,run_exp/static/audio/clip_7_timeout.m4a,null,"<p>If you don't make your choice fast enough, you’ll have to wait a few seconds before you can make another one.</p><p>You can’t dig for more gems or travel to new planets. You just have to sit and wait.</p><br><p><img src='run_exp/static/images/task_images/time_out.jpg'  height='600' width='auto'></p>",,,,,,,,,,,,,,,,,,,,,,,
time_out,19,236614,0.0-8.0-1.0,"""event"",""trial"",""time""
""fullscreenenter"",""1"",""7263""
""fullscreenexit"",""15"",""183731""
""blur"",""16"",""207044""
""focus"",""16"",""208657""
","""event"",""trial"",""time""
""blur"",""16"",""207044""
","""event"",""trial"",""time""
""focus"",""16"",""208657""
","""event"",""trial"",""time""
""fullscreenenter"",""1"",""7263""
","""event"",""trial"",""time""
""fullscreenexit"",""15"",""183731""
",,1209.4,"<p>If you don't make your choice fast enough, you’ll have to wait a few seconds before you can make another one.</p><p>You can’t dig for more gems or travel to new planets. You just have to sit and wait.</p><br><p><img src='run_exp/static/images/task_images/time_out.jpg'  height='600' width='auto'></p>",,,,,,,1,,,,,,,,,,,,,,,,,,
html-keyboard-response,20,237020,0.0-8.0-2.0,"""event"",""trial"",""time""
""fullscreenenter"",""1"",""7263""
""fullscreenexit"",""15"",""183731""
""blur"",""16"",""207044""
""focus"",""16"",""208657""
","""event"",""trial"",""time""
""blur"",""16"",""207044""
","""event"",""trial"",""time""
""focus"",""16"",""208657""
","""event"",""trial"",""time""
""fullscreenenter"",""1"",""7263""
","""event"",""trial"",""time""
""fullscreenexit"",""15"",""183731""
",,404.7,"<p>If you don't make your choice fast enough, you’ll have to wait a few seconds before you can make another one.</p><p>You can’t dig for more gems or travel to new planets. You just have to sit and wait.</p><br><p><img src='run_exp/static/images/task_images/time_out.jpg'  height='600' width='auto'></p><button class=""jspsych-html-btn-unchosen""><img src=""run_exp/static/images/task_images/planet-01.jpg"" height=""50""></button><button class=""jspsych-html-btn-chosen""><img src=""run_exp/static/images/task_images/planet-02.jpg"" height=""50""></button><p><b>[press the space bar to lock in your answer]<b><br></p>",32,,,,,,,,,,,,,,,,,,,,,,,,
instruc_break,21,252681,0.0-9.0-0.0,"""event"",""trial"",""time""
""fullscreenenter"",""1"",""7263""
""fullscreenexit"",""15"",""183731""
""blur"",""16"",""207044""
""focus"",""16"",""208657""
","""event"",""trial"",""time""
""blur"",""16"",""207044""
","""event"",""trial"",""time""
""focus"",""16"",""208657""
","""event"",""trial"",""time""
""fullscreenenter"",""1"",""7263""
","""event"",""trial"",""time""
""fullscreenexit"",""15"",""183731""
",,null,run_exp/static/audio/clip_8_break.m4a,null,"<p> After digging and traveling for a while, you’ll be able to take a break at home base. </p><p>The game will last 20 minutes no matter what.</p><p>You will visit home base every 5 minutes, so, you will visit home base three times during the game.</p><br><p><img src='run_exp/static/images/task_images/home_base.jpg' height='600' width='auto'></p>",,,,,,,,,,,,,,,,,,,,,,,
instruc_break,22,254562,0.0-9.0-1.0,"""event"",""trial"",""time""
""fullscreenenter"",""1"",""7263""
""fullscreenexit"",""15"",""183731""
""blur"",""16"",""207044""
""focus"",""16"",""208657""
","""event"",""trial"",""time""
""blur"",""16"",""207044""
","""event"",""trial"",""time""
""focus"",""16"",""208657""
","""event"",""trial"",""time""
""fullscreenenter"",""1"",""7263""
","""event"",""trial"",""time""
""fullscreenexit"",""15"",""183731""
",,1877.8,"<p> After digging and traveling for a while, you’ll be able to take a break at home base. </p><p>The game will last 20 minutes no matter what.</p><p>You will visit home base every 5 minutes, so, you will visit home base three times during the game.</p><br><p><img src='run_exp/static/images/task_images/home_base.jpg' height='600' width='auto'></p>",,,,,,,1,,,,,,,,,,,,,,,,,,
html-keyboard-response,23,255833,0.0-9.0-2.0,"""event"",""trial"",""time""
""fullscreenenter"",""1"",""7263""
""fullscreenexit"",""15"",""183731""
""blur"",""16"",""207044""
""focus"",""16"",""208657""
","""event"",""trial"",""time""
""blur"",""16"",""207044""
","""event"",""trial"",""time""
""focus"",""16"",""208657""
","""event"",""trial"",""time""
""fullscreenenter"",""1"",""7263""
","""event"",""trial"",""time""
""fullscreenexit"",""15"",""183731""
",,1270,"<p> After digging and traveling for a while, you’ll be able to take a break at home base. </p><p>The game will last 20 minutes no matter what.</p><p>You will visit home base every 5 minutes, so, you will visit home base three times during the game.</p><br><p><img src='run_exp/static/images/task_images/home_base.jpg' height='600' width='auto'></p><button class=""jspsych-html-btn-unchosen""><img src=""run_exp/static/images/task_images/planet-01.jpg"" height=""50""></button><button class=""jspsych-html-btn-chosen""><img src=""run_exp/static/images/task_images/planet-02.jpg"" height=""50""></button><p><b>[press the space bar to lock in your answer]<b><br></p>",32,,,,,,,,,,,,,,,,,,,,,,,,
instruc_prac_game,24,265962,0.0-10.0-0.0,"""event"",""trial"",""time""
""fullscreenenter"",""1"",""7263""
""fullscreenexit"",""15"",""183731""
""blur"",""16"",""207044""
""focus"",""16"",""208657""
","""event"",""trial"",""time""
""blur"",""16"",""207044""
","""event"",""trial"",""time""
""focus"",""16"",""208657""
","""event"",""trial"",""time""
""fullscreenenter"",""1"",""7263""
","""event"",""trial"",""time""
""fullscreenexit"",""15"",""183731""
",,null,run_exp/static/audio/clip_9_practice.m4a,null,"<p> Are you ready to play a practice game? </p> <p>In this practice game, you'll be digging up barrels of gems. But, in the real game, you'll be digging up the gems themselves. </p>",,,,,,,,,,,,,,,,,,,,,,,
html-button-response,25,267526,0.0-10.0-1.0,"""event"",""trial"",""time""
""fullscreenenter"",""1"",""7263""
""fullscreenexit"",""15"",""183731""
""blur"",""16"",""207044""
""focus"",""16"",""208657""
","""event"",""trial"",""time""
""blur"",""16"",""207044""
","""event"",""trial"",""time""
""focus"",""16"",""208657""
","""event"",""trial"",""time""
""fullscreenenter"",""1"",""7263""
","""event"",""trial"",""time""
""fullscreenexit"",""15"",""183731""
",,1561.6,"<p> Are you ready to play a practice game? </p> <p>In this practice game, you'll be digging up barrels of gems. But, in the real game, you'll be digging up the gems themselves. </p>",,,,,,,0,,,,,,,,,,,,,,,,,,
alien_welcome_prac,26,272532,0.0-11.0-0.0,"""event"",""trial"",""time""
""fullscreenenter"",""1"",""7263""
""fullscreenexit"",""15"",""183731""
""blur"",""16"",""207044""
""focus"",""16"",""208657""
","""event"",""trial"",""time""
""blur"",""16"",""207044""
","""event"",""trial"",""time""
""focus"",""16"",""208657""
","""event"",""trial"",""time""
""fullscreenenter"",""1"",""7263""
","""event"",""trial"",""time""
""fullscreenexit"",""15"",""183731""
",,null,run_exp/static/images/task_images/aliens/practice_aliens/planet/alien_planet-5.jpg,null,,,,,,,,,,,,,,,,,,,,,,,,
land_prac,27,273038,0.0-11.0-1.0,"""event"",""trial"",""time""
""fullscreenenter"",""1"",""7263""
""fullscreenexit"",""15"",""183731""
""blur"",""16"",""207044""
""focus"",""16"",""208657""
","""event"",""trial"",""time""
""blur"",""16"",""207044""
","""event"",""trial"",""time""
""focus"",""16"",""208657""
","""event"",""trial"",""time""
""fullscreenenter"",""1"",""7263""
","""event"",""trial"",""time""
""fullscreenexit"",""15"",""183731""
",,null,run_exp/static/images/task_images/land.jpg,null,,,,,,,102,,,0,,,,,,,,,,,,,,
dig_prac,28,275046,0.0-11.0-2.0,"""event"",""trial"",""time""
""fullscreenenter"",""1"",""7263""
""fullscreenexit"",""15"",""183731""
""blur"",""16"",""207044""
""focus"",""16"",""208657""
","""event"",""trial"",""time""
""blur"",""16"",""207044""
","""event"",""trial"",""time""
""focus"",""16"",""208657""
","""event"",""trial"",""time""
""fullscreenenter"",""1"",""7263""
","""event"",""trial"",""time""
""fullscreenexit"",""15"",""183731""
",,,,,,,,,,,,"[{""stimulus"":""run_exp/static/images/task_images/dig.jpg"",""time"":0.5},{""stimulus"":""run_exp/static/images/task_images/land.jpg"",""time"":669.9000000953674},{""stimulus"":""run_exp/static/images/task_images/dig.jpg"",""time"":1336.2000000476837}]",[],,,,,,,,,,,,,,,
harvest_prac,29,276047,0.0-11.0-3.0,"""event"",""trial"",""time""
""fullscreenenter"",""1"",""7263""
""fullscreenexit"",""15"",""183731""
""blur"",""16"",""207044""
""focus"",""16"",""208657""
","""event"",""trial"",""time""
""blur"",""16"",""207044""
","""event"",""trial"",""time""
""focus"",""16"",""208657""
","""event"",""trial"",""time""
""fullscreenenter"",""1"",""7263""
","""event"",""trial"",""time""
""fullscreenexit"",""15"",""183731""
",,null,run_exp/static/images/task_images/barrel_text.jpg,null,,,,,,,,,,,,,,,,,,,,,,,,
decision_prac,30,279049,0.0-11.0-4.0,"""event"",""trial"",""time""
""fullscreenenter"",""1"",""7263""
""fullscreenexit"",""15"",""183731""
""blur"",""16"",""207044""
""focus"",""16"",""208657""
","""event"",""trial"",""time""
""blur"",""16"",""207044""
","""event"",""trial"",""time""
""focus"",""16"",""208657""
","""event"",""trial"",""time""
""fullscreenenter"",""1"",""7263""
","""event"",""trial"",""time""
""fullscreenexit"",""15"",""183731""
",,null,run_exp/static/images/task_images/land.jpg,null,,,,,,,,,,,1,,,,,,,,,,,,,
time_out,31,281051,0.0-12.0-0.0,"""event"",""trial"",""time""
""fullscreenenter"",""1"",""7263""
""fullscreenexit"",""15"",""183731""
""blur"",""16"",""207044""
""focus"",""16"",""208657""
","""event"",""trial"",""time""
""blur"",""16"",""207044""
","""event"",""trial"",""time""
""focus"",""16"",""208657""
","""event"",""trial"",""time""
""fullscreenenter"",""1"",""7263""
","""event"",""trial"",""time""
""fullscreenexit"",""15"",""183731""
",,null,run_exp/static/images/task_images/time_out.jpg,null,,,,,,,,,,,,,,,,,,,,,,,,
decision_prac,32,283245,0.0-12.0-1.0,"""event"",""trial"",""time""
""fullscreenenter"",""1"",""7263""
""fullscreenexit"",""15"",""183731""
""blur"",""16"",""207044""
""focus"",""16"",""208657""
","""event"",""trial"",""time""
""blur"",""16"",""207044""
","""event"",""trial"",""time""
""focus"",""16"",""208657""
","""event"",""trial"",""time""
""fullscreenenter"",""1"",""7263""
","""event"",""trial"",""time""
""fullscreenexit"",""15"",""183731""
",,2193.1,run_exp/static/images/task_images/land.jpg,65,,,,,,,,,,,2,,,,,,,,,,,,,
dig_prac,33,285251,0.0-13.0-0.0,"""event"",""trial"",""time""
""fullscreenenter"",""1"",""7263""
""fullscreenexit"",""15"",""183731""
""blur"",""16"",""207044""
""focus"",""16"",""208657""
","""event"",""trial"",""time""
""blur"",""16"",""207044""
","""event"",""trial"",""time""
""focus"",""16"",""208657""
","""event"",""trial"",""time""
""fullscreenenter"",""1"",""7263""
","""event"",""trial"",""time""
""fullscreenexit"",""15"",""183731""
",,,,,,,,,,,,"[{""stimulus"":""run_exp/static/images/task_images/dig.jpg"",""time"":0.20000004768371582},{""stimulus"":""run_exp/static/images/task_images/land.jpg"",""time"":667.9000000953674},{""stimulus"":""run_exp/static/images/task_images/dig.jpg"",""time"":1335.5}]",[],,,,,,,,,,,,,,,
harvest_prac,34,286255,0.0-13.0-1.0,"""event"",""trial"",""time""
""fullscreenenter"",""1"",""7263""
""fullscreenexit"",""15"",""183731""
""blur"",""16"",""207044""
""focus"",""16"",""208657""
","""event"",""trial"",""time""
""blur"",""16"",""207044""
","""event"",""trial"",""time""
""focus"",""16"",""208657""
","""event"",""trial"",""time""
""fullscreenenter"",""1"",""7263""
","""event"",""trial"",""time""
""fullscreenexit"",""15"",""183731""
",,null,run_exp/static/images/task_images/barrel_text.jpg,null,,,,,,,,,,,,,,,,,,,,,,,,
decision_prac,35,287130,0.0-13.0-2.0,"""event"",""trial"",""time""
""fullscreenenter"",""1"",""7263""
""fullscreenexit"",""15"",""183731""
""blur"",""16"",""207044""
""focus"",""16"",""208657""
","""event"",""trial"",""time""
""blur"",""16"",""207044""
","""event"",""trial"",""time""
""focus"",""16"",""208657""
","""event"",""trial"",""time""
""fullscreenenter"",""1"",""7263""
","""event"",""trial"",""time""
""fullscreenexit"",""15"",""183731""
",,872.5,run_exp/static/images/task_images/land.jpg,65,,,,,,,,,,,3,,,,,,,,,,,,,
dig_prac,36,289138,0.0-14.0-0.0,"""event"",""trial"",""time""
""fullscreenenter"",""1"",""7263""
""fullscreenexit"",""15"",""183731""
""blur"",""16"",""207044""
""focus"",""16"",""208657""
","""event"",""trial"",""time""
""blur"",""16"",""207044""
","""event"",""trial"",""time""
""focus"",""16"",""208657""
","""event"",""trial"",""time""
""fullscreenenter"",""1"",""7263""
","""event"",""trial"",""time""
""fullscreenexit"",""15"",""183731""
",,,,,,,,,,,,"[{""stimulus"":""run_exp/static/images/task_images/dig.jpg"",""time"":0.20000004768371582},{""stimulus"":""run_exp/static/images/task_images/land.jpg"",""time"":669.9000000953674},{""stimulus"":""run_exp/static/images/task_images/dig.jpg"",""time"":1336.2999999523163}]",[],,,,,,,,,,,,,,,
harvest_prac,37,290140,0.0-14.0-1.0,"""event"",""trial"",""time""
""fullscreenenter"",""1"",""7263""
""fullscreenexit"",""15"",""183731""
""blur"",""16"",""207044""
""focus"",""16"",""208657""
","""event"",""trial"",""time""
""blur"",""16"",""207044""
","""event"",""trial"",""time""
""focus"",""16"",""208657""
","""event"",""trial"",""time""
""fullscreenenter"",""1"",""7263""
","""event"",""trial"",""time""
""fullscreenexit"",""15"",""183731""
",,null,run_exp/static/images/task_images/barrel_text.jpg,null,,,,,,,,,,,,,,,,,,,,,,,,
decision_prac,38,290919,0.0-14.0-2.0,"""event"",""trial"",""time""
""fullscreenenter"",""1"",""7263""
""fullscreenexit"",""15"",""183731""
""blur"",""16"",""207044""
""focus"",""16"",""208657""
","""event"",""trial"",""time""
""blur"",""16"",""207044""
","""event"",""trial"",""time""
""focus"",""16"",""208657""
","""event"",""trial"",""time""
""fullscreenenter"",""1"",""7263""
","""event"",""trial"",""time""
""fullscreenexit"",""15"",""183731""
",,778.3000002,run_exp/static/images/task_images/land.jpg,65,,,,,,,,,,,4,,,,,,,,,,,,,
dig_prac,39,292925,0.0-15.0-0.0,"""event"",""trial"",""time""
""fullscreenenter"",""1"",""7263""
""fullscreenexit"",""15"",""183731""
""blur"",""16"",""207044""
""focus"",""16"",""208657""
","""event"",""trial"",""time""
""blur"",""16"",""207044""
","""event"",""trial"",""time""
""focus"",""16"",""208657""
","""event"",""trial"",""time""
""fullscreenenter"",""1"",""7263""
","""event"",""trial"",""time""
""fullscreenexit"",""15"",""183731""
",,,,,,,,,,,,"[{""stimulus"":""run_exp/static/images/task_images/dig.jpg"",""time"":0.2999999523162842},{""stimulus"":""run_exp/static/images/task_images/land.jpg"",""time"":669.0999999046326},{""stimulus"":""run_exp/static/images/task_images/dig.jpg"",""time"":1336}]",[],,,,,,,,,,,,,,,
harvest_prac,40,293929,0.0-15.0-1.0,"""event"",""trial"",""time""
""fullscreenenter"",""1"",""7263""
""fullscreenexit"",""15"",""183731""
""blur"",""16"",""207044""
""focus"",""16"",""208657""
","""event"",""trial"",""time""
""blur"",""16"",""207044""
","""event"",""trial"",""time""
""focus"",""16"",""208657""
","""event"",""trial"",""time""
""fullscreenenter"",""1"",""7263""
","""event"",""trial"",""time""
""fullscreenexit"",""15"",""183731""
",,null,run_exp/static/images/task_images/barrel_text.jpg,null,,,,,,,,,,,,,,,,,,,,,,,,
decision_prac,41,294880,0.0-15.0-2.0,"""event"",""trial"",""time""
""fullscreenenter"",""1"",""7263""
""fullscreenexit"",""15"",""183731""
""blur"",""16"",""207044""
""focus"",""16"",""208657""
""blur"",""42"",""309326""
""focus"",""42"",""318564""
","""event"",""trial"",""time""
""blur"",""16"",""207044""
""blur"",""42"",""309326""
","""event"",""trial"",""time""
""focus"",""16"",""208657""
""focus"",""42"",""318564""
","""event"",""trial"",""time""
""fullscreenenter"",""1"",""7263""
","""event"",""trial"",""time""
""fullscreenexit"",""15"",""183731""
",,948.5,run_exp/static/images/task_images/land.jpg,65,,,,,,,,,,,,1,,,,,,,,,,,,
quiz_instruc,42,326311,0.0-16.0-0.0,"""event"",""trial"",""time""
""fullscreenenter"",""1"",""7263""
""fullscreenexit"",""15"",""183731""
""blur"",""16"",""207044""
""focus"",""16"",""208657""
""blur"",""42"",""309326""
""focus"",""42"",""318564""
","""event"",""trial"",""time""
""blur"",""16"",""207044""
""blur"",""42"",""309326""
","""event"",""trial"",""time""
""focus"",""16"",""208657""
""focus"",""42"",""318564""
","""event"",""trial"",""time""
""fullscreenenter"",""1"",""7263""
","""event"",""trial"",""time""
""fullscreenexit"",""15"",""183731""
",,31426.9,run_exp/static/audio/clip_10_quiz.m4a,,,,,,,0,,,,,,,,,,,,,,,,,,
instruc_repeat,43,369272,0.0-16.0-1.0,"""event"",""trial"",""time""
""fullscreenenter"",""1"",""7263""
""fullscreenexit"",""15"",""183731""
""blur"",""16"",""207044""
""focus"",""16"",""208657""
""blur"",""42"",""309326""
""focus"",""42"",""318564""
","""event"",""trial"",""time""
""blur"",""16"",""207044""
""blur"",""42"",""309326""
","""event"",""trial"",""time""
""focus"",""16"",""208657""
""focus"",""42"",""318564""
","""event"",""trial"",""time""
""fullscreenenter"",""1"",""7263""
","""event"",""trial"",""time""
""fullscreenexit"",""15"",""183731""
",,null,"<p> Are you ready to play a practice game? </p> <p>In this practice game, you'll be digging up barrels of gems. But, in the real game, you'll be digging up the gems themselves. </p>",null,"<p>In this game, your goal is to collect as many gems as you can. That’s how you will win bonus money. </p> <p>The entire game will last 20 minutes no matter how many gems you collect or how many planets you visit. </p><p>To stay on a planet and dig again, press the letter A on your keyboard. To leave for a new planet, press the letter L.</p><p>The more you dig on a planet, the fewer gems you’ll get with each dig which is why you might consider leaving for a new planet. </p><p>When you arrive at a new planet, you’ll be greeted by an alien. What the alien looks like does not tell you anything about how much treasure is on the planet. </p>",,,,,,,,,,,,,,,,,,,,,,,
instruc_repeat_continue,44,370666,0.0-16.0-2.0,"""event"",""trial"",""time""
""fullscreenenter"",""1"",""7263""
""fullscreenexit"",""15"",""183731""
""blur"",""16"",""207044""
""focus"",""16"",""208657""
""blur"",""42"",""309326""
""focus"",""42"",""318564""
","""event"",""trial"",""time""
""blur"",""16"",""207044""
""blur"",""42"",""309326""
","""event"",""trial"",""time""
""focus"",""16"",""208657""
""focus"",""42"",""318564""
","""event"",""trial"",""time""
""fullscreenenter"",""1"",""7263""
","""event"",""trial"",""time""
""fullscreenexit"",""15"",""183731""
",,1392.8,"<p> Are you ready to play a practice game? </p> <p>In this practice game, you'll be digging up barrels of gems. But, in the real game, you'll be digging up the gems themselves. </p>",,,,,,,0,,,,,,,,,,,,,,,,,,
quiz_q_1_ask,45,374445,0.0-16.0-3.0,"""event"",""trial"",""time""
""fullscreenenter"",""1"",""7263""
""fullscreenexit"",""15"",""183731""
""blur"",""16"",""207044""
""focus"",""16"",""208657""
""blur"",""42"",""309326""
""focus"",""42"",""318564""
","""event"",""trial"",""time""
""blur"",""16"",""207044""
""blur"",""42"",""309326""
","""event"",""trial"",""time""
""focus"",""16"",""208657""
""focus"",""42"",""318564""
","""event"",""trial"",""time""
""fullscreenenter"",""1"",""7263""
","""event"",""trial"",""time""
""fullscreenexit"",""15"",""183731""
",,3777.8,run_exp/static/audio/clip_11_q1_ask.m4a,,,,,,,2,,,,,,,,,,,,,,,,,,
quiz_q_1_fb_correct,46,378291,0.0-17.0-0.0,"""event"",""trial"",""time""
""fullscreenenter"",""1"",""7263""
""fullscreenexit"",""15"",""183731""
""blur"",""16"",""207044""
""focus"",""16"",""208657""
""blur"",""42"",""309326""
""focus"",""42"",""318564""
","""event"",""trial"",""time""
""blur"",""16"",""207044""
""blur"",""42"",""309326""
","""event"",""trial"",""time""
""focus"",""16"",""208657""
""focus"",""42"",""318564""
","""event"",""trial"",""time""
""fullscreenenter"",""1"",""7263""
","""event"",""trial"",""time""
""fullscreenexit"",""15"",""183731""
",,null,run_exp/static/audio/clip_12_q1_corrrect.m4a,null,<p>That’s correct. You win extra money by collecting more gems.</p>,,,,,,,,,,,,,,,,,,,,,,,
quiz_q_2_ask,47,380791,0.0-17.0-1.0,"""event"",""trial"",""time""
""fullscreenenter"",""1"",""7263""
""fullscreenexit"",""15"",""183731""
""blur"",""16"",""207044""
""focus"",""16"",""208657""
""blur"",""42"",""309326""
""focus"",""42"",""318564""
","""event"",""trial"",""time""
""blur"",""16"",""207044""
""blur"",""42"",""309326""
","""event"",""trial"",""time""
""focus"",""16"",""208657""
""focus"",""42"",""318564""
","""event"",""trial"",""time""
""fullscreenenter"",""1"",""7263""
","""event"",""trial"",""time""
""fullscreenexit"",""15"",""183731""
",,2498.2,run_exp/static/audio/clip_14_q2_ask.m4a,,,,,,,1,,,,,,,,,,,,,,,,,,
quiz_q_2_fb_correct,48,384812,0.0-18.0-0.0,"""event"",""trial"",""time""
""fullscreenenter"",""1"",""7263""
""fullscreenexit"",""15"",""183731""
""blur"",""16"",""207044""
""focus"",""16"",""208657""
""blur"",""42"",""309326""
""focus"",""42"",""318564""
","""event"",""trial"",""time""
""blur"",""16"",""207044""
""blur"",""42"",""309326""
","""event"",""trial"",""time""
""focus"",""16"",""208657""
""focus"",""42"",""318564""
","""event"",""trial"",""time""
""fullscreenenter"",""1"",""7263""
","""event"",""trial"",""time""
""fullscreenexit"",""15"",""183731""
",,null,run_exp/static/audio/clip_15_q2_correct.m4a,null,<p>That’s correct. The experiment is 20 minutes no matter what.</p>,,,,,,,,,,,,,,,,,,,,,,,
quiz_q_3_ask,49,389057,0.0-18.0-1.0,"""event"",""trial"",""time""
""fullscreenenter"",""1"",""7263""
""fullscreenexit"",""15"",""183731""
""blur"",""16"",""207044""
""focus"",""16"",""208657""
""blur"",""42"",""309326""
""focus"",""42"",""318564""
","""event"",""trial"",""time""
""blur"",""16"",""207044""
""blur"",""42"",""309326""
","""event"",""trial"",""time""
""focus"",""16"",""208657""
""focus"",""42"",""318564""
","""event"",""trial"",""time""
""fullscreenenter"",""1"",""7263""
","""event"",""trial"",""time""
""fullscreenexit"",""15"",""183731""
",,4242.8,run_exp/static/audio/clip_17_q3_ask.m4a,,,,,,,1,,,,,,,,,,,,,,,,,,
quiz_q_3_fb_correct,50,393052,0.0-19.0-0.0,"""event"",""trial"",""time""
""fullscreenenter"",""1"",""7263""
""fullscreenexit"",""15"",""183731""
""blur"",""16"",""207044""
""focus"",""16"",""208657""
""blur"",""42"",""309326""
""focus"",""42"",""318564""
","""event"",""trial"",""time""
""blur"",""16"",""207044""
""blur"",""42"",""309326""
","""event"",""trial"",""time""
""focus"",""16"",""208657""
""focus"",""42"",""318564""
","""event"",""trial"",""time""
""fullscreenenter"",""1"",""7263""
","""event"",""trial"",""time""
""fullscreenexit"",""15"",""183731""
",,null,run_exp/static/audio/clip_18_q3_correct.m4a,null,<p> That’s correct. You press the letter L to travel to a new planet.</p>,,,,,,,,,,,,,,,,,,,,,,,
quiz_q_4_ask,51,396563,0.0-19.0-1.0,"""event"",""trial"",""time""
""fullscreenenter"",""1"",""7263""
""fullscreenexit"",""15"",""183731""
""blur"",""16"",""207044""
""focus"",""16"",""208657""
""blur"",""42"",""309326""
""focus"",""42"",""318564""
","""event"",""trial"",""time""
""blur"",""16"",""207044""
""blur"",""42"",""309326""
","""event"",""trial"",""time""
""focus"",""16"",""208657""
""focus"",""42"",""318564""
","""event"",""trial"",""time""
""fullscreenenter"",""1"",""7263""
","""event"",""trial"",""time""
""fullscreenexit"",""15"",""183731""
",,3508.7,run_exp/static/audio/clip_20_q4_ask.m4a,,,,,,,0,,,,,,,,,,,,,,,,,,
quiz_q_4_fb_correct,52,401892,0.0-20.0-0.0,"""event"",""trial"",""time""
""fullscreenenter"",""1"",""7263""
""fullscreenexit"",""15"",""183731""
""blur"",""16"",""207044""
""focus"",""16"",""208657""
""blur"",""42"",""309326""
""focus"",""42"",""318564""
","""event"",""trial"",""time""
""blur"",""16"",""207044""
""blur"",""42"",""309326""
","""event"",""trial"",""time""
""focus"",""16"",""208657""
""focus"",""42"",""318564""
","""event"",""trial"",""time""
""fullscreenenter"",""1"",""7263""
","""event"",""trial"",""time""
""fullscreenexit"",""15"",""183731""
",,null,run_exp/static/audio/clip_21_q4_correct.m4a,null,<p> That’s correct. The more you dig on a planet the fewer gems you’ll get with each dig. </p>,,,,,,,,,,,,,,,,,,,,,,,
quiz_q_5_ask,53,404356,0.0-20.0-1.0,"""event"",""trial"",""time""
""fullscreenenter"",""1"",""7263""
""fullscreenexit"",""15"",""183731""
""blur"",""16"",""207044""
""focus"",""16"",""208657""
""blur"",""42"",""309326""
""focus"",""42"",""318564""
","""event"",""trial"",""time""
""blur"",""16"",""207044""
""blur"",""42"",""309326""
","""event"",""trial"",""time""
""focus"",""16"",""208657""
""focus"",""42"",""318564""
","""event"",""trial"",""time""
""fullscreenenter"",""1"",""7263""
","""event"",""trial"",""time""
""fullscreenexit"",""15"",""183731""
",,2461.1,run_exp/static/audio/clip_23_q5_ask.m4a,,,,,,,1,,,,,,,,,,,,,,,,,,
quiz_q_5_fb_correct,54,409372,0.0-21.0-0.0,"""event"",""trial"",""time""
""fullscreenenter"",""1"",""7263""
""fullscreenexit"",""15"",""183731""
""blur"",""16"",""207044""
""focus"",""16"",""208657""
""blur"",""42"",""309326""
""focus"",""42"",""318564""
","""event"",""trial"",""time""
""blur"",""16"",""207044""
""blur"",""42"",""309326""
","""event"",""trial"",""time""
""focus"",""16"",""208657""
""focus"",""42"",""318564""
","""event"",""trial"",""time""
""fullscreenenter"",""1"",""7263""
","""event"",""trial"",""time""
""fullscreenexit"",""15"",""183731""
",,null,run_exp/static/audio/clip_24_q5_correct.m4a,null,<p> That’s correct. The alien tells you nothing about how much treasure is on the planet.</p>,,,,,,,,,,,,,,,,,,,,,,,
quiz_correct,55,412832,0.0-22.0-0.0,"""event"",""trial"",""time""
""fullscreenenter"",""1"",""7263""
""fullscreenexit"",""15"",""183731""
""blur"",""16"",""207044""
""focus"",""16"",""208657""
""blur"",""42"",""309326""
""focus"",""42"",""318564""
","""event"",""trial"",""time""
""blur"",""16"",""207044""
""blur"",""42"",""309326""
","""event"",""trial"",""time""
""focus"",""16"",""208657""
""focus"",""42"",""318564""
","""event"",""trial"",""time""
""fullscreenenter"",""1"",""7263""
","""event"",""trial"",""time""
""fullscreenexit"",""15"",""183731""
",,null,run_exp/static/audio/clip_26_correct_quiz.m4a,null,,,,,,,,,,,,,,,,,,,,,,,,
quiz_correct_continue,56,414301,0.0-22.0-1.0,"""event"",""trial"",""time""
""fullscreenenter"",""1"",""7263""
""fullscreenexit"",""15"",""183731""
""blur"",""16"",""207044""
""focus"",""16"",""208657""
""blur"",""42"",""309326""
""focus"",""42"",""318564""
","""event"",""trial"",""time""
""blur"",""16"",""207044""
""blur"",""42"",""309326""
","""event"",""trial"",""time""
""focus"",""16"",""208657""
""focus"",""42"",""318564""
","""event"",""trial"",""time""
""fullscreenenter"",""1"",""7263""
","""event"",""trial"",""time""
""fullscreenexit"",""15"",""183731""
",,1467.5,<p>Good job! You're now ready to move on to the real game!</p>,,,,,,,0,,,,,,,,,,,,,,,,,,
audio-keyboard-response,57,424431,0.0-22.0-2.0,"""event"",""trial"",""time""
""fullscreenenter"",""1"",""7263""
""fullscreenexit"",""15"",""183731""
""blur"",""16"",""207044""
""focus"",""16"",""208657""
""blur"",""42"",""309326""
""focus"",""42"",""318564""
","""event"",""trial"",""time""
""blur"",""16"",""207044""
""blur"",""42"",""309326""
","""event"",""trial"",""time""
""focus"",""16"",""208657""
""focus"",""42"",""318564""
","""event"",""trial"",""time""
""fullscreenenter"",""1"",""7263""
","""event"",""trial"",""time""
""fullscreenexit"",""15"",""183731""
",,null,run_exp/static/audio/clip_28_real_game.m4a,null,,,,,,,,,,,,,,,,,,,,,,,,
instruc_begin_exp_contine,58,425481,0.0-22.0-3.0,"""event"",""trial"",""time""
""fullscreenenter"",""1"",""7263""
""fullscreenexit"",""15"",""183731""
""blur"",""16"",""207044""
""focus"",""16"",""208657""
""blur"",""42"",""309326""
""focus"",""42"",""318564""
","""event"",""trial"",""time""
""blur"",""16"",""207044""
""blur"",""42"",""309326""
","""event"",""trial"",""time""
""focus"",""16"",""208657""
""focus"",""42"",""318564""
","""event"",""trial"",""time""
""fullscreenenter"",""1"",""7263""
","""event"",""trial"",""time""
""fullscreenexit"",""15"",""183731""
",,1048.1,"<p>Now that you know how  to dig for space treasure and travel to new planets,you can start exploring! </p><p>Do you want to go over the instructions again or get started with the real game?</p>",,,,,,,1,,,,,,1,,,,,,,,,,,,
alien_welcome,59,430484,0.0-23.0-0.0,"""event"",""trial"",""time""
""fullscreenenter"",""1"",""7263""
""fullscreenexit"",""15"",""183731""
""blur"",""16"",""207044""
""focus"",""16"",""208657""
""blur"",""42"",""309326""
""focus"",""42"",""318564""
","""event"",""trial"",""time""
""blur"",""16"",""207044""
""blur"",""42"",""309326""
","""event"",""trial"",""time""
""focus"",""16"",""208657""
""focus"",""42"",""318564""
","""event"",""trial"",""time""
""fullscreenenter"",""1"",""7263""
","""event"",""trial"",""time""
""fullscreenexit"",""15"",""183731""
",,null,run_exp/static/images/task_images/aliens/old_aliens/planet/alien_planet-58.jpg,null,,,,,,,,,,,,,58,"58,9,40,75,21,28,14,44,72,50,39,79,80,18,7,53,1,17,4,49,27,12,69,6,48,60,77,13,24,32,61,23,33",,,,,,,,,,
land,60,430985,0.0-23.0-1.0,"""event"",""trial"",""time""
""fullscreenenter"",""1"",""7263""
""fullscreenexit"",""15"",""183731""
""blur"",""16"",""207044""
""focus"",""16"",""208657""
""blur"",""42"",""309326""
""focus"",""42"",""318564""
","""event"",""trial"",""time""
""blur"",""16"",""207044""
""blur"",""42"",""309326""
","""event"",""trial"",""time""
""focus"",""16"",""208657""
""focus"",""42"",""318564""
","""event"",""trial"",""time""
""fullscreenenter"",""1"",""7263""
","""event"",""trial"",""time""
""fullscreenexit"",""15"",""183731""
",,null,run_exp/static/images/task_images/land.jpg,null,,,,,,,104,,,1,,,,,,,,,,,,,,
dig,61,432988,0.0-23.0-2.0,"""event"",""trial"",""time""
""fullscreenenter"",""1"",""7263""
""fullscreenexit"",""15"",""183731""
""blur"",""16"",""207044""
""focus"",""16"",""208657""
""blur"",""42"",""309326""
""focus"",""42"",""318564""
","""event"",""trial"",""time""
""blur"",""16"",""207044""
""blur"",""42"",""309326""
","""event"",""trial"",""time""
""focus"",""16"",""208657""
""focus"",""42"",""318564""
","""event"",""trial"",""time""
""fullscreenenter"",""1"",""7263""
","""event"",""trial"",""time""
""fullscreenexit"",""15"",""183731""
",,,,,,,,,,,,"[{""stimulus"":""run_exp/static/images/task_images/dig.jpg"",""time"":0.5},{""stimulus"":""run_exp/static/images/task_images/land.jpg"",""time"":668.1999998092651},{""stimulus"":""run_exp/static/images/task_images/dig.jpg"",""time"":1336.1999998092651}]",[],1,,,,,,,,,,,,,,
harvest,62,433992,0.0-23.0-3.0,"""event"",""trial"",""time""
""fullscreenenter"",""1"",""7263""
""fullscreenexit"",""15"",""183731""
""blur"",""16"",""207044""
""focus"",""16"",""208657""
""blur"",""42"",""309326""
""focus"",""42"",""318564""
","""event"",""trial"",""time""
""blur"",""16"",""207044""
""blur"",""42"",""309326""
","""event"",""trial"",""time""
""focus"",""16"",""208657""
""focus"",""42"",""318564""
","""event"",""trial"",""time""
""fullscreenenter"",""1"",""7263""
","""event"",""trial"",""time""
""fullscreenexit"",""15"",""183731""
",,null,run_exp/static/images/task_images/gems/104.jpg,null,,,,,,,12,,,1,,,,,104,0.112022259,0.115384615,,,,,,,
decision,63,435111,0.0-23.0-4.0,"""event"",""trial"",""time""
""fullscreenenter"",""1"",""7263""
""fullscreenexit"",""15"",""183731""
""blur"",""16"",""207044""
""focus"",""16"",""208657""
""blur"",""42"",""309326""
""focus"",""42"",""318564""
","""event"",""trial"",""time""
""blur"",""16"",""207044""
""blur"",""42"",""309326""
","""event"",""trial"",""time""
""focus"",""16"",""208657""
""focus"",""42"",""318564""
","""event"",""trial"",""time""
""fullscreenenter"",""1"",""7263""
","""event"",""trial"",""time""
""fullscreenexit"",""15"",""183731""
",,1116.2,run_exp/static/images/task_images/land.jpg,65,,,,,,,12,,,1,,,,,,,,9629,1,0,FALSE,,,
dig,64,436996,0.0-24.0-0.0,"""event"",""trial"",""time""
""fullscreenenter"",""1"",""7263""
""fullscreenexit"",""15"",""183731""
""blur"",""16"",""207044""
""focus"",""16"",""208657""
""blur"",""42"",""309326""
""focus"",""42"",""318564""
","""event"",""trial"",""time""
""blur"",""16"",""207044""
""blur"",""42"",""309326""
","""event"",""trial"",""time""
""focus"",""16"",""208657""
""focus"",""42"",""318564""
","""event"",""trial"",""time""
""fullscreenenter"",""1"",""7263""
","""event"",""trial"",""time""
""fullscreenexit"",""15"",""183731""
",,,,,,,,,,,,"[{""stimulus"":""run_exp/static/images/task_images/dig.jpg"",""time"":0.09999990463256836},{""stimulus"":""run_exp/static/images/task_images/land.jpg"",""time"":629.0999999046326},{""stimulus"":""run_exp/static/images/task_images/dig.jpg"",""time"":1255.5999999046326}]",[],1,,,,,,,,,,,,,,
harvest,65,437999,0.0-24.0-1.0,"""event"",""trial"",""time""
""fullscreenenter"",""1"",""7263""
""fullscreenexit"",""15"",""183731""
""blur"",""16"",""207044""
""focus"",""16"",""208657""
""blur"",""42"",""309326""
""focus"",""42"",""318564""
","""event"",""trial"",""time""
""blur"",""16"",""207044""
""blur"",""42"",""309326""
","""event"",""trial"",""time""
""focus"",""16"",""208657""
""focus"",""42"",""318564""
","""event"",""trial"",""time""
""fullscreenenter"",""1"",""7263""
","""event"",""trial"",""time""
""fullscreenexit"",""15"",""183731""
",,null,run_exp/static/images/task_images/gems/12.jpg,null,,,,,,,3,,,1,,,,,12,0.238991838,0.25,,,,,,,
decision,66,438662,0.0-24.0-2.0,"""event"",""trial"",""time""
""fullscreenenter"",""1"",""7263""
""fullscreenexit"",""15"",""183731""
""blur"",""16"",""207044""
""focus"",""16"",""208657""
""blur"",""42"",""309326""
""focus"",""42"",""318564""
","""event"",""trial"",""time""
""blur"",""16"",""207044""
""blur"",""42"",""309326""
","""event"",""trial"",""time""
""focus"",""16"",""208657""
""focus"",""42"",""318564""
","""event"",""trial"",""time""
""fullscreenenter"",""1"",""7263""
","""event"",""trial"",""time""
""fullscreenexit"",""15"",""183731""
",,661.2,run_exp/static/images/task_images/land.jpg,65,,,,,,,3,,,1,,,,,,,,13180,1,1,FALSE,,,
dig,67,441005,0.0-25.0-0.0,"""event"",""trial"",""time""
""fullscreenenter"",""1"",""7263""
""fullscreenexit"",""15"",""183731""
""blur"",""16"",""207044""
""focus"",""16"",""208657""
""blur"",""42"",""309326""
""focus"",""42"",""318564""
","""event"",""trial"",""time""
""blur"",""16"",""207044""
""blur"",""42"",""309326""
","""event"",""trial"",""time""
""focus"",""16"",""208657""
""focus"",""42"",""318564""
","""event"",""trial"",""time""
""fullscreenenter"",""1"",""7263""
","""event"",""trial"",""time""
""fullscreenexit"",""15"",""183731""
",,,,,,,,,,,,"[{""stimulus"":""run_exp/static/images/task_images/dig.jpg"",""time"":0.2999999523162842},{""stimulus"":""run_exp/static/images/task_images/land.jpg"",""time"":780.9000000953674},{""stimulus"":""run_exp/static/images/task_images/dig.jpg"",""time"":1559.7999999523163}]",[],1,,,,,,,,,,,,,,
harvest,68,442008,0.0-25.0-1.0,"""event"",""trial"",""time""
""fullscreenenter"",""1"",""7263""
""fullscreenexit"",""15"",""183731""
""blur"",""16"",""207044""
""focus"",""16"",""208657""
""blur"",""42"",""309326""
""focus"",""42"",""318564""
","""event"",""trial"",""time""
""blur"",""16"",""207044""
""blur"",""42"",""309326""
","""event"",""trial"",""time""
""focus"",""16"",""208657""
""focus"",""42"",""318564""
","""event"",""trial"",""time""
""fullscreenenter"",""1"",""7263""
","""event"",""trial"",""time""
""fullscreenexit"",""15"",""183731""
",,null,run_exp/static/images/task_images/gems/3.jpg,null,,,,,,,1,,,1,,,,,3,0.253877784,0.333333333,,,,,,,
decision,69,442828,0.0-25.0-2.0,"""event"",""trial"",""time""
""fullscreenenter"",""1"",""7263""
""fullscreenexit"",""15"",""183731""
""blur"",""16"",""207044""
""focus"",""16"",""208657""
""blur"",""42"",""309326""
""focus"",""42"",""318564""
","""event"",""trial"",""time""
""blur"",""16"",""207044""
""blur"",""42"",""309326""
","""event"",""trial"",""time""
""focus"",""16"",""208657""
""focus"",""42"",""318564""
","""event"",""trial"",""time""
""fullscreenenter"",""1"",""7263""
","""event"",""trial"",""time""
""fullscreenexit"",""15"",""183731""
",,817.9000001,run_exp/static/images/task_images/land.jpg,65,,,,,,,1,,,1,,,,,,,,17346,1,2,FALSE,,,
dig,70,445014,0.0-26.0-0.0,"""event"",""trial"",""time""
""fullscreenenter"",""1"",""7263""
""fullscreenexit"",""15"",""183731""
""blur"",""16"",""207044""
""focus"",""16"",""208657""
""blur"",""42"",""309326""
""focus"",""42"",""318564""
","""event"",""trial"",""time""
""blur"",""16"",""207044""
""blur"",""42"",""309326""
","""event"",""trial"",""time""
""focus"",""16"",""208657""
""focus"",""42"",""318564""
","""event"",""trial"",""time""
""fullscreenenter"",""1"",""7263""
","""event"",""trial"",""time""
""fullscreenexit"",""15"",""183731""
",,,,,,,,,,,,"[{""stimulus"":""run_exp/static/images/task_images/dig.jpg"",""time"":0.2999999523162842},{""stimulus"":""run_exp/static/images/task_images/land.jpg"",""time"":728.9000000953674},{""stimulus"":""run_exp/static/images/task_images/dig.jpg"",""time"":1456.7000000476837}]",[],1,,,,,,,,,,,,,,
harvest,71,446017,0.0-26.0-1.0,"""event"",""trial"",""time""
""fullscreenenter"",""1"",""7263""
""fullscreenexit"",""15"",""183731""
""blur"",""16"",""207044""
""focus"",""16"",""208657""
""blur"",""42"",""309326""
""focus"",""42"",""318564""
","""event"",""trial"",""time""
""blur"",""16"",""207044""
""blur"",""42"",""309326""
","""event"",""trial"",""time""
""focus"",""16"",""208657""
""focus"",""42"",""318564""
","""event"",""trial"",""time""
""fullscreenenter"",""1"",""7263""
","""event"",""trial"",""time""
""fullscreenexit"",""15"",""183731""
",,null,run_exp/static/images/task_images/gems/1.jpg,null,,,,,,,0,,,1,,,,,1,0.175551343,0,,,,,,,
decision,72,446812,0.0-26.0-2.0,"""event"",""trial"",""time""
""fullscreenenter"",""1"",""7263""
""fullscreenexit"",""15"",""183731""
""blur"",""16"",""207044""
""focus"",""16"",""208657""
""blur"",""42"",""309326""
""focus"",""42"",""318564""
","""event"",""trial"",""time""
""blur"",""16"",""207044""
""blur"",""42"",""309326""
","""event"",""trial"",""time""
""focus"",""16"",""208657""
""focus"",""42"",""318564""
","""event"",""trial"",""time""
""fullscreenenter"",""1"",""7263""
","""event"",""trial"",""time""
""fullscreenexit"",""15"",""183731""
",,793.3,run_exp/static/images/task_images/land.jpg,65,,,,,,,0,,,1,,,,,,,,21331,1,3,FALSE,,,
dig,73,449024,0.0-27.0-0.0,"""event"",""trial"",""time""
""fullscreenenter"",""1"",""7263""
""fullscreenexit"",""15"",""183731""
""blur"",""16"",""207044""
""focus"",""16"",""208657""
""blur"",""42"",""309326""
""focus"",""42"",""318564""
","""event"",""trial"",""time""
""blur"",""16"",""207044""
""blur"",""42"",""309326""
","""event"",""trial"",""time""
""focus"",""16"",""208657""
""focus"",""42"",""318564""
","""event"",""trial"",""time""
""fullscreenenter"",""1"",""7263""
","""event"",""trial"",""time""
""fullscreenexit"",""15"",""183731""
",,,,,,,,,,,,"[{""stimulus"":""run_exp/static/images/task_images/dig.jpg"",""time"":0.40000009536743164},{""stimulus"":""run_exp/static/images/task_images/land.jpg"",""time"":737.7000000476837},{""stimulus"":""run_exp/static/images/task_images/dig.jpg"",""time"":1472.2999999523163}]",[],1,,,,,,,,,,,,,,
harvest,74,450027,0.0-27.0-1.0,"""event"",""trial"",""time""
""fullscreenenter"",""1"",""7263""
""fullscreenexit"",""15"",""183731""
""blur"",""16"",""207044""
""focus"",""16"",""208657""
""blur"",""42"",""309326""
""focus"",""42"",""318564""
","""event"",""trial"",""time""
""blur"",""16"",""207044""
""blur"",""42"",""309326""
","""event"",""trial"",""time""
""focus"",""16"",""208657""
""focus"",""42"",""318564""
","""event"",""trial"",""time""
""fullscreenenter"",""1"",""7263""
","""event"",""trial"",""time""
""fullscreenexit"",""15"",""183731""
",,null,run_exp/static/images/task_images/gems/0.jpg,null,,,,,,,0,,,1,,,,,0,0.186100429,NaN,,,,,,,
decision,75,450752,0.0-27.0-2.0,"""event"",""trial"",""time""
""fullscreenenter"",""1"",""7263""
""fullscreenexit"",""15"",""183731""
""blur"",""16"",""207044""
""focus"",""16"",""208657""
""blur"",""42"",""309326""
""focus"",""42"",""318564""
","""event"",""trial"",""time""
""blur"",""16"",""207044""
""blur"",""42"",""309326""
","""event"",""trial"",""time""
""focus"",""16"",""208657""
""focus"",""42"",""318564""
","""event"",""trial"",""time""
""fullscreenenter"",""1"",""7263""
","""event"",""trial"",""time""
""fullscreenexit"",""15"",""183731""
",,722.9000001,run_exp/static/images/task_images/land.jpg,65,,,,,,,0,,,1,,,,,,,,25270,1,4,FALSE,,,
dig,76,453037,0.0-28.0-0.0,"""event"",""trial"",""time""
""fullscreenenter"",""1"",""7263""
""fullscreenexit"",""15"",""183731""
""blur"",""16"",""207044""
""focus"",""16"",""208657""
""blur"",""42"",""309326""
""focus"",""42"",""318564""
","""event"",""trial"",""time""
""blur"",""16"",""207044""
""blur"",""42"",""309326""
","""event"",""trial"",""time""
""focus"",""16"",""208657""
""focus"",""42"",""318564""
","""event"",""trial"",""time""
""fullscreenenter"",""1"",""7263""
","""event"",""trial"",""time""
""fullscreenexit"",""15"",""183731""
",,,,,,,,,,,,"[{""stimulus"":""run_exp/static/images/task_images/dig.jpg"",""time"":0.40000009536743164},{""stimulus"":""run_exp/static/images/task_images/land.jpg"",""time"":760.6000001430511},{""stimulus"":""run_exp/static/images/task_images/dig.jpg"",""time"":1520.2000000476837}]",[],1,,,,,,,,,,,,,,
harvest,77,454038,0.0-28.0-1.0,"""event"",""trial"",""time""
""fullscreenenter"",""1"",""7263""
""fullscreenexit"",""15"",""183731""
""blur"",""16"",""207044""
""focus"",""16"",""208657""
""blur"",""42"",""309326""
""focus"",""42"",""318564""
","""event"",""trial"",""time""
""blur"",""16"",""207044""
""blur"",""42"",""309326""
","""event"",""trial"",""time""
""focus"",""16"",""208657""
""focus"",""42"",""318564""
","""event"",""trial"",""time""
""fullscreenenter"",""1"",""7263""
","""event"",""trial"",""time""
""fullscreenexit"",""15"",""183731""
",,null,run_exp/static/images/task_images/gems/0.jpg,null,,,,,,,0,,,1,,,,,0,0.2713605,NaN,,,,,,,
decision,78,455538,0.0-28.0-2.0,"""event"",""trial"",""time""
""fullscreenenter"",""1"",""7263""
""fullscreenexit"",""15"",""183731""
""blur"",""16"",""207044""
""focus"",""16"",""208657""
""blur"",""42"",""309326""
""focus"",""42"",""318564""
","""event"",""trial"",""time""
""blur"",""16"",""207044""
""blur"",""42"",""309326""
","""event"",""trial"",""time""
""focus"",""16"",""208657""
""focus"",""42"",""318564""
","""event"",""trial"",""time""
""fullscreenenter"",""1"",""7263""
","""event"",""trial"",""time""
""fullscreenexit"",""15"",""183731""
",,1497.7,run_exp/static/images/task_images/land.jpg,76,,,,,,,0,,,1,,,,,,,,30056,1,5,TRUE,,,
travel,79,464042,0.0-29.0-0.0,"""event"",""trial"",""time""
""fullscreenenter"",""1"",""7263""
""fullscreenexit"",""15"",""183731""
""blur"",""16"",""207044""
""focus"",""16"",""208657""
""blur"",""42"",""309326""
""focus"",""42"",""318564""
","""event"",""trial"",""time""
""blur"",""16"",""207044""
""blur"",""42"",""309326""
","""event"",""trial"",""time""
""focus"",""16"",""208657""
""focus"",""42"",""318564""
","""event"",""trial"",""time""
""fullscreenenter"",""1"",""7263""
","""event"",""trial"",""time""
""fullscreenexit"",""15"",""183731""
",,,,,,,,,,,,"[{""stimulus"":""run_exp/static/images/task_images/rocket-01.jpg"",""time"":0.20000004768371582},{""stimulus"":""run_exp/static/images/task_images/rocket-02.jpg"",""time"":946.7999999523163},{""stimulus"":""run_exp/static/images/task_images/rocket-03.jpg"",""time"":1890.5},{""stimulus"":""run_exp/static/images/task_images/rocket-04.jpg"",""time"":2833.5},{""stimulus"":""run_exp/static/images/task_images/rocket-05.jpg"",""time"":3778.2999999523163},{""stimulus"":""run_exp/static/images/task_images/rocket-06.jpg"",""time"":4722.400000095367},{""stimulus"":""run_exp/static/images/task_images/rocket-07.jpg"",""time"":5666.5},{""stimulus"":""run_exp/static/images/task_images/rocket-08.jpg"",""time"":6609.299999952316},{""stimulus"":""run_exp/static/images/task_images/rocket-09.jpg"",""time"":7553.299999952316}]",[],1,,,,,,,,,,,,,,
alien_welcome,80,469044,0.0-29.0-1.0,"""event"",""trial"",""time""
""fullscreenenter"",""1"",""7263""
""fullscreenexit"",""15"",""183731""
""blur"",""16"",""207044""
""focus"",""16"",""208657""
""blur"",""42"",""309326""
""focus"",""42"",""318564""
","""event"",""trial"",""time""
""blur"",""16"",""207044""
""blur"",""42"",""309326""
","""event"",""trial"",""time""
""focus"",""16"",""208657""
""focus"",""42"",""318564""
","""event"",""trial"",""time""
""fullscreenenter"",""1"",""7263""
","""event"",""trial"",""time""
""fullscreenexit"",""15"",""183731""
",,null,run_exp/static/images/task_images/aliens/old_aliens/planet/alien_planet-9.jpg,null,,,,,,,,,,,,,9,"58,9,40,75,21,28,14,44,72,50,39,79,80,18,7,53,1,17,4,49,27,12,69,6,48,60,77,13,24,32,61,23,33",,,,,,,,,,
land,81,469547,0.0-29.0-2.0,"""event"",""trial"",""time""
""fullscreenenter"",""1"",""7263""
""fullscreenexit"",""15"",""183731""
""blur"",""16"",""207044""
""focus"",""16"",""208657""
""blur"",""42"",""309326""
""focus"",""42"",""318564""
","""event"",""trial"",""time""
""blur"",""16"",""207044""
""blur"",""42"",""309326""
","""event"",""trial"",""time""
""focus"",""16"",""208657""
""focus"",""42"",""318564""
","""event"",""trial"",""time""
""fullscreenenter"",""1"",""7263""
","""event"",""trial"",""time""
""fullscreenexit"",""15"",""183731""
",,null,run_exp/static/images/task_images/land.jpg,null,,,,,,,99,,,2,,,,,,,,,,,,,,
dig,82,471550,0.0-29.0-3.0,"""event"",""trial"",""time""
""fullscreenenter"",""1"",""7263""
""fullscreenexit"",""15"",""183731""
""blur"",""16"",""207044""
""focus"",""16"",""208657""
""blur"",""42"",""309326""
""focus"",""42"",""318564""
","""event"",""trial"",""time""
""blur"",""16"",""207044""
""blur"",""42"",""309326""
","""event"",""trial"",""time""
""focus"",""16"",""208657""
""focus"",""42"",""318564""
","""event"",""trial"",""time""
""fullscreenenter"",""1"",""7263""
","""event"",""trial"",""time""
""fullscreenexit"",""15"",""183731""
",,,,,,,,,,,,"[{""stimulus"":""run_exp/static/images/task_images/dig.jpg"",""time"":0.09999990463256836},{""stimulus"":""run_exp/static/images/task_images/land.jpg"",""time"":669.5999999046326},{""stimulus"":""run_exp/static/images/task_images/dig.jpg"",""time"":1335.3999998569489}]",[],2,,,,,,,,,,,,,,
harvest,83,472554,0.0-29.0-4.0,"""event"",""trial"",""time""
""fullscreenenter"",""1"",""7263""
""fullscreenexit"",""15"",""183731""
""blur"",""16"",""207044""
""focus"",""16"",""208657""
""blur"",""42"",""309326""
""focus"",""42"",""318564""
","""event"",""trial"",""time""
""blur"",""16"",""207044""
""blur"",""42"",""309326""
","""event"",""trial"",""time""
""focus"",""16"",""208657""
""focus"",""42"",""318564""
","""event"",""trial"",""time""
""fullscreenenter"",""1"",""7263""
","""event"",""trial"",""time""
""fullscreenexit"",""15"",""183731""
",,null,run_exp/static/images/task_images/gems/99.jpg,null,,,,,,,23,,,2,,,,,99,0.231783225,0.232323232,,,,,,,
decision,84,473192,0.0-29.0-5.0,"""event"",""trial"",""time""
""fullscreenenter"",""1"",""7263""
""fullscreenexit"",""15"",""183731""
""blur"",""16"",""207044""
""focus"",""16"",""208657""
""blur"",""42"",""309326""
""focus"",""42"",""318564""
","""event"",""trial"",""time""
""blur"",""16"",""207044""
""blur"",""42"",""309326""
","""event"",""trial"",""time""
""focus"",""16"",""208657""
""focus"",""42"",""318564""
","""event"",""trial"",""time""
""fullscreenenter"",""1"",""7263""
","""event"",""trial"",""time""
""fullscreenexit"",""15"",""183731""
",,635.5,run_exp/static/images/task_images/land.jpg,65,,,,,,,23,,,2,,,,,,,,47710,1,0,FALSE,,,
dig,85,475562,0.0-30.0-0.0,"""event"",""trial"",""time""
""fullscreenenter"",""1"",""7263""
""fullscreenexit"",""15"",""183731""
""blur"",""16"",""207044""
""focus"",""16"",""208657""
""blur"",""42"",""309326""
""focus"",""42"",""318564""
","""event"",""trial"",""time""
""blur"",""16"",""207044""
""blur"",""42"",""309326""
","""event"",""trial"",""time""
""focus"",""16"",""208657""
""focus"",""42"",""318564""
","""event"",""trial"",""time""
""fullscreenenter"",""1"",""7263""
","""event"",""trial"",""time""
""fullscreenexit"",""15"",""183731""
",,,,,,,,,,,,"[{""stimulus"":""run_exp/static/images/task_images/dig.jpg"",""time"":0.3000001907348633},{""stimulus"":""run_exp/static/images/task_images/land.jpg"",""time"":789.9000000953674},{""stimulus"":""run_exp/static/images/task_images/dig.jpg"",""time"":1578.5}]",[],2,,,,,,,,,,,,,,
harvest,86,476567,0.0-30.0-1.0,"""event"",""trial"",""time""
""fullscreenenter"",""1"",""7263""
""fullscreenexit"",""15"",""183731""
""blur"",""16"",""207044""
""focus"",""16"",""208657""
""blur"",""42"",""309326""
""focus"",""42"",""318564""
","""event"",""trial"",""time""
""blur"",""16"",""207044""
""blur"",""42"",""309326""
","""event"",""trial"",""time""
""focus"",""16"",""208657""
""focus"",""42"",""318564""
","""event"",""trial"",""time""
""fullscreenenter"",""1"",""7263""
","""event"",""trial"",""time""
""fullscreenexit"",""15"",""183731""
",,null,run_exp/static/images/task_images/gems/23.jpg,null,,,,,,,6,,,2,,,,,23,0.275027575,0.260869565,,,,,,,
decision,87,477176,0.0-30.0-2.0,"""event"",""trial"",""time""
""fullscreenenter"",""1"",""7263""
""fullscreenexit"",""15"",""183731""
""blur"",""16"",""207044""
""focus"",""16"",""208657""
""blur"",""42"",""309326""
""focus"",""42"",""318564""
","""event"",""trial"",""time""
""blur"",""16"",""207044""
""blur"",""42"",""309326""
","""event"",""trial"",""time""
""focus"",""16"",""208657""
""focus"",""42"",""318564""
","""event"",""trial"",""time""
""fullscreenenter"",""1"",""7263""
","""event"",""trial"",""time""
""fullscreenexit"",""15"",""183731""
",,606.9000001,run_exp/static/images/task_images/land.jpg,65,,,,,,,6,,,2,,,,,,,,51694,1,1,FALSE,,,
dig,88,479572,0.0-31.0-0.0,"""event"",""trial"",""time""
""fullscreenenter"",""1"",""7263""
""fullscreenexit"",""15"",""183731""
""blur"",""16"",""207044""
""focus"",""16"",""208657""
""blur"",""42"",""309326""
""focus"",""42"",""318564""
","""event"",""trial"",""time""
""blur"",""16"",""207044""
""blur"",""42"",""309326""
","""event"",""trial"",""time""
""focus"",""16"",""208657""
""focus"",""42"",""318564""
","""event"",""trial"",""time""
""fullscreenenter"",""1"",""7263""
","""event"",""trial"",""time""
""fullscreenexit"",""15"",""183731""
",,,,,,,,,,,,"[{""stimulus"":""run_exp/static/images/task_images/dig.jpg"",""time"":0.40000009536743164},{""stimulus"":""run_exp/static/images/task_images/land.jpg"",""time"":799.2000000476837},{""stimulus"":""run_exp/static/images/task_images/dig.jpg"",""time"":1596.2000000476837}]",[],2,,,,,,,,,,,,,,
harvest,89,480575,0.0-31.0-1.0,"""event"",""trial"",""time""
""fullscreenenter"",""1"",""7263""
""fullscreenexit"",""15"",""183731""
""blur"",""16"",""207044""
""focus"",""16"",""208657""
""blur"",""42"",""309326""
""focus"",""42"",""318564""
","""event"",""trial"",""time""
""blur"",""16"",""207044""
""blur"",""42"",""309326""
","""event"",""trial"",""time""
""focus"",""16"",""208657""
""focus"",""42"",""318564""
","""event"",""trial"",""time""
""fullscreenenter"",""1"",""7263""
","""event"",""trial"",""time""
""fullscreenexit"",""15"",""183731""
",,null,run_exp/static/images/task_images/gems/6.jpg,null,,,,,,,1,,,2,,,,,6,0.209268821,0.166666667,,,,,,,
decision,90,481039,0.0-31.0-2.0,"""event"",""trial"",""time""
""fullscreenenter"",""1"",""7263""
""fullscreenexit"",""15"",""183731""
""blur"",""16"",""207044""
""focus"",""16"",""208657""
""blur"",""42"",""309326""
""focus"",""42"",""318564""
","""event"",""trial"",""time""
""blur"",""16"",""207044""
""blur"",""42"",""309326""
","""event"",""trial"",""time""
""focus"",""16"",""208657""
""focus"",""42"",""318564""
","""event"",""trial"",""time""
""fullscreenenter"",""1"",""7263""
","""event"",""trial"",""time""
""fullscreenexit"",""15"",""183731""
",,461.9000001,run_exp/static/images/task_images/land.jpg,65,,,,,,,1,,,2,,,,,,,,55557,1,2,FALSE,,,
dig,91,483585,0.0-32.0-0.0,"""event"",""trial"",""time""
""fullscreenenter"",""1"",""7263""
""fullscreenexit"",""15"",""183731""
""blur"",""16"",""207044""
""focus"",""16"",""208657""
""blur"",""42"",""309326""
""focus"",""42"",""318564""
","""event"",""trial"",""time""
""blur"",""16"",""207044""
""blur"",""42"",""309326""
","""event"",""trial"",""time""
""focus"",""16"",""208657""
""focus"",""42"",""318564""
","""event"",""trial"",""time""
""fullscreenenter"",""1"",""7263""
","""event"",""trial"",""time""
""fullscreenexit"",""15"",""183731""
",,,,,,,,,,,,"[{""stimulus"":""run_exp/static/images/task_images/dig.jpg"",""time"":0.2999999523162842},{""stimulus"":""run_exp/static/images/task_images/land.jpg"",""time"":848.2000000476837},{""stimulus"":""run_exp/static/images/task_images/dig.jpg"",""time"":1694.8999998569489}]",[],2,,,,,,,,,,,,,,
harvest,92,484588,0.0-32.0-1.0,"""event"",""trial"",""time""
""fullscreenenter"",""1"",""7263""
""fullscreenexit"",""15"",""183731""
""blur"",""16"",""207044""
""focus"",""16"",""208657""
""blur"",""42"",""309326""
""focus"",""42"",""318564""
","""event"",""trial"",""time""
""blur"",""16"",""207044""
""blur"",""42"",""309326""
","""event"",""trial"",""time""
""focus"",""16"",""208657""
""focus"",""42"",""318564""
","""event"",""trial"",""time""
""fullscreenenter"",""1"",""7263""
","""event"",""trial"",""time""
""fullscreenexit"",""15"",""183731""
",,null,run_exp/static/images/task_images/gems/1.jpg,null,,,,,,,0,,,2,,,,,1,0.165608538,0,,,,,,,
decision,93,485099,0.0-32.0-2.0,"""event"",""trial"",""time""
""fullscreenenter"",""1"",""7263""
""fullscreenexit"",""15"",""183731""
""blur"",""16"",""207044""
""focus"",""16"",""208657""
""blur"",""42"",""309326""
""focus"",""42"",""318564""
","""event"",""trial"",""time""
""blur"",""16"",""207044""
""blur"",""42"",""309326""
","""event"",""trial"",""time""
""focus"",""16"",""208657""
""focus"",""42"",""318564""
","""event"",""trial"",""time""
""fullscreenenter"",""1"",""7263""
","""event"",""trial"",""time""
""fullscreenexit"",""15"",""183731""
",,509.8999999,run_exp/static/images/task_images/land.jpg,65,,,,,,,0,,,2,,,,,,,,59617,1,3,FALSE,,,
dig,94,487593,0.0-33.0-0.0,"""event"",""trial"",""time""
""fullscreenenter"",""1"",""7263""
""fullscreenexit"",""15"",""183731""
""blur"",""16"",""207044""
""focus"",""16"",""208657""
""blur"",""42"",""309326""
""focus"",""42"",""318564""
","""event"",""trial"",""time""
""blur"",""16"",""207044""
""blur"",""42"",""309326""
","""event"",""trial"",""time""
""focus"",""16"",""208657""
""focus"",""42"",""318564""
","""event"",""trial"",""time""
""fullscreenenter"",""1"",""7263""
","""event"",""trial"",""time""
""fullscreenexit"",""15"",""183731""
",,,,,,,,,,,,"[{""stimulus"":""run_exp/static/images/task_images/dig.jpg"",""time"":0.20000004768371582},{""stimulus"":""run_exp/static/images/task_images/land.jpg"",""time"":831.7999999523163},{""stimulus"":""run_exp/static/images/task_images/dig.jpg"",""time"":1661.8999998569489}]",[],2,,,,,,,,,,,,,,
harvest,95,488596,0.0-33.0-1.0,"""event"",""trial"",""time""
""fullscreenenter"",""1"",""7263""
""fullscreenexit"",""15"",""183731""
""blur"",""16"",""207044""
""focus"",""16"",""208657""
""blur"",""42"",""309326""
""focus"",""42"",""318564""
","""event"",""trial"",""time""
""blur"",""16"",""207044""
""blur"",""42"",""309326""
","""event"",""trial"",""time""
""focus"",""16"",""208657""
""focus"",""42"",""318564""
","""event"",""trial"",""time""
""fullscreenenter"",""1"",""7263""
","""event"",""trial"",""time""
""fullscreenexit"",""15"",""183731""
",,null,run_exp/static/images/task_images/gems/0.jpg,null,,,,,,,0,,,2,,,,,0,0.11225711,NaN,,,,,,,
decision,96,489197,0.0-33.0-2.0,"""event"",""trial"",""time""
""fullscreenenter"",""1"",""7263""
""fullscreenexit"",""15"",""183731""
""blur"",""16"",""207044""
""focus"",""16"",""208657""
""blur"",""42"",""309326""
""focus"",""42"",""318564""
","""event"",""trial"",""time""
""blur"",""16"",""207044""
""blur"",""42"",""309326""
","""event"",""trial"",""time""
""focus"",""16"",""208657""
""focus"",""42"",""318564""
","""event"",""trial"",""time""
""fullscreenenter"",""1"",""7263""
","""event"",""trial"",""time""
""fullscreenexit"",""15"",""183731""
",,599.8000002,run_exp/static/images/task_images/land.jpg,65,,,,,,,0,,,2,,,,,,,,63715,1,4,FALSE,,,
dig,97,491602,0.0-34.0-0.0,"""event"",""trial"",""time""
""fullscreenenter"",""1"",""7263""
""fullscreenexit"",""15"",""183731""
""blur"",""16"",""207044""
""focus"",""16"",""208657""
""blur"",""42"",""309326""
""focus"",""42"",""318564""
","""event"",""trial"",""time""
""blur"",""16"",""207044""
""blur"",""42"",""309326""
","""event"",""trial"",""time""
""focus"",""16"",""208657""
""focus"",""42"",""318564""
","""event"",""trial"",""time""
""fullscreenenter"",""1"",""7263""
","""event"",""trial"",""time""
""fullscreenexit"",""15"",""183731""
",,,,,,,,,,,,"[{""stimulus"":""run_exp/static/images/task_images/dig.jpg"",""time"":0.20000004768371582},{""stimulus"":""run_exp/static/images/task_images/land.jpg"",""time"":802.6000001430511},{""stimulus"":""run_exp/static/images/task_images/dig.jpg"",""time"":1602.2999999523163}]",[],2,,,,,,,,,,,,,,
harvest,98,492605,0.0-34.0-1.0,"""event"",""trial"",""time""
""fullscreenenter"",""1"",""7263""
""fullscreenexit"",""15"",""183731""
""blur"",""16"",""207044""
""focus"",""16"",""208657""
""blur"",""42"",""309326""
""focus"",""42"",""318564""
","""event"",""trial"",""time""
""blur"",""16"",""207044""
""blur"",""42"",""309326""
","""event"",""trial"",""time""
""focus"",""16"",""208657""
""focus"",""42"",""318564""
","""event"",""trial"",""time""
""fullscreenenter"",""1"",""7263""
","""event"",""trial"",""time""
""fullscreenexit"",""15"",""183731""
",,null,run_exp/static/images/task_images/gems/0.jpg,null,,,,,,,0,,,2,,,,,0,0.267365019,NaN,,,,,,,
decision,99,495519,0.0-34.0-2.0,"""event"",""trial"",""time""
""fullscreenenter"",""1"",""7263""
""fullscreenexit"",""15"",""183731""
""blur"",""16"",""207044""
""focus"",""16"",""208657""
""blur"",""42"",""309326""
""focus"",""42"",""318564""
","""event"",""trial"",""time""
""blur"",""16"",""207044""
""blur"",""42"",""309326""
","""event"",""trial"",""time""
""focus"",""16"",""208657""
""focus"",""42"",""318564""
","""event"",""trial"",""time""
""fullscreenenter"",""1"",""7263""
","""event"",""trial"",""time""
""fullscreenexit"",""15"",""183731""
",,2911.7,run_exp/static/images/task_images/land.jpg,76,,,,,,,0,,,2,,,,,,,,70037,1,5,TRUE,,,
travel,100,502608,0.0-35.0-0.0,"""event"",""trial"",""time""
""fullscreenenter"",""1"",""7263""
""fullscreenexit"",""15"",""183731""
""blur"",""16"",""207044""
""focus"",""16"",""208657""
""blur"",""42"",""309326""
""focus"",""42"",""318564""
","""event"",""trial"",""time""
""blur"",""16"",""207044""
""blur"",""42"",""309326""
","""event"",""trial"",""time""
""focus"",""16"",""208657""
""focus"",""42"",""318564""
","""event"",""trial"",""time""
""fullscreenenter"",""1"",""7263""
","""event"",""trial"",""time""
""fullscreenexit"",""15"",""183731""
",,,,,,,,,,,,"[{""stimulus"":""run_exp/static/images/task_images/rocket-01.jpg"",""time"":0.20000004768371582},{""stimulus"":""run_exp/static/images/task_images/rocket-02.jpg"",""time"":789.5},{""stimulus"":""run_exp/static/images/task_images/rocket-03.jpg"",""time"":1578.8999998569489},{""stimulus"":""run_exp/static/images/task_images/rocket-04.jpg"",""time"":2362.2999999523163},{""stimulus"":""run_exp/static/images/task_images/rocket-05.jpg"",""time"":3149.2000000476837},{""stimulus"":""run_exp/static/images/task_images/rocket-06.jpg"",""time"":3936.899999856949},{""stimulus"":""run_exp/static/images/task_images/rocket-07.jpg"",""time"":4723.799999952316},{""stimulus"":""run_exp/static/images/task_images/rocket-08.jpg"",""time"":5511.399999856949},{""stimulus"":""run_exp/static/images/task_images/rocket-09.jpg"",""time"":6297.700000047684}]",[],2,,,,,,,,,,,,,,
alien_welcome,101,507612,0.0-35.0-1.0,"""event"",""trial"",""time""
""fullscreenenter"",""1"",""7263""
""fullscreenexit"",""15"",""183731""
""blur"",""16"",""207044""
""focus"",""16"",""208657""
""blur"",""42"",""309326""
""focus"",""42"",""318564""
","""event"",""trial"",""time""
""blur"",""16"",""207044""
""blur"",""42"",""309326""
","""event"",""trial"",""time""
""focus"",""16"",""208657""
""focus"",""42"",""318564""
","""event"",""trial"",""time""
""fullscreenenter"",""1"",""7263""
","""event"",""trial"",""time""
""fullscreenexit"",""15"",""183731""
",,null,run_exp/static/images/task_images/aliens/old_aliens/planet/alien_planet-40.jpg,null,,,,,,,,,,,,,40,"58,9,40,75,21,28,14,44,72,50,39,79,80,18,7,53,1,17,4,49,27,12,69,6,48,60,77,13,24,32,61,23,33",,,,,,,,,,
land,102,508115,0.0-35.0-2.0,"""event"",""trial"",""time""
""fullscreenenter"",""1"",""7263""
""fullscreenexit"",""15"",""183731""
""blur"",""16"",""207044""
""focus"",""16"",""208657""
""blur"",""42"",""309326""
""focus"",""42"",""318564""
","""event"",""trial"",""time""
""blur"",""16"",""207044""
""blur"",""42"",""309326""
","""event"",""trial"",""time""
""focus"",""16"",""208657""
""focus"",""42"",""318564""
","""event"",""trial"",""time""
""fullscreenenter"",""1"",""7263""
","""event"",""trial"",""time""
""fullscreenexit"",""15"",""183731""
",,null,run_exp/static/images/task_images/land.jpg,null,,,,,,,98,,,3,,,,,,,,,,,,,,
dig,103,510120,0.0-35.0-3.0,"""event"",""trial"",""time""
""fullscreenenter"",""1"",""7263""
""fullscreenexit"",""15"",""183731""
""blur"",""16"",""207044""
""focus"",""16"",""208657""
""blur"",""42"",""309326""
""focus"",""42"",""318564""
","""event"",""trial"",""time""
""blur"",""16"",""207044""
""blur"",""42"",""309326""
","""event"",""trial"",""time""
""focus"",""16"",""208657""
""focus"",""42"",""318564""
","""event"",""trial"",""time""
""fullscreenenter"",""1"",""7263""
","""event"",""trial"",""time""
""fullscreenexit"",""15"",""183731""
",,,,,,,,,,,,"[{""stimulus"":""run_exp/static/images/task_images/dig.jpg"",""time"":0.2999999523162842},{""stimulus"":""run_exp/static/images/task_images/land.jpg"",""time"":668.7999999523163},{""stimulus"":""run_exp/static/images/task_images/dig.jpg"",""time"":1336}]",[],3,,,,,,,,,,,,,,
harvest,104,511124,0.0-35.0-4.0,"""event"",""trial"",""time""
""fullscreenenter"",""1"",""7263""
""fullscreenexit"",""15"",""183731""
""blur"",""16"",""207044""
""focus"",""16"",""208657""
""blur"",""42"",""309326""
""focus"",""42"",""318564""
","""event"",""trial"",""time""
""blur"",""16"",""207044""
""blur"",""42"",""309326""
","""event"",""trial"",""time""
""focus"",""16"",""208657""
""focus"",""42"",""318564""
","""event"",""trial"",""time""
""fullscreenenter"",""1"",""7263""
","""event"",""trial"",""time""
""fullscreenexit"",""15"",""183731""
",,null,run_exp/static/images/task_images/gems/98.jpg,null,,,,,,,55,,,3,,,,,98,0.564919057,0.56122449,,,,,,,
decision,105,511611,0.0-35.0-5.0,"""event"",""trial"",""time""
""fullscreenenter"",""1"",""7263""
""fullscreenexit"",""15"",""183731""
""blur"",""16"",""207044""
""focus"",""16"",""208657""
""blur"",""42"",""309326""
""focus"",""42"",""318564""
","""event"",""trial"",""time""
""blur"",""16"",""207044""
""blur"",""42"",""309326""
","""event"",""trial"",""time""
""focus"",""16"",""208657""
""focus"",""42"",""318564""
","""event"",""trial"",""time""
""fullscreenenter"",""1"",""7263""
","""event"",""trial"",""time""
""fullscreenexit"",""15"",""183731""
",,484.3000002,run_exp/static/images/task_images/land.jpg,65,,,,,,,55,,,3,,,,,,,,86129,1,0,FALSE,,,
dig,106,514131,0.0-36.0-0.0,"""event"",""trial"",""time""
""fullscreenenter"",""1"",""7263""
""fullscreenexit"",""15"",""183731""
""blur"",""16"",""207044""
""focus"",""16"",""208657""
""blur"",""42"",""309326""
""focus"",""42"",""318564""
","""event"",""trial"",""time""
""blur"",""16"",""207044""
""blur"",""42"",""309326""
","""event"",""trial"",""time""
""focus"",""16"",""208657""
""focus"",""42"",""318564""
","""event"",""trial"",""time""
""fullscreenenter"",""1"",""7263""
","""event"",""trial"",""time""
""fullscreenexit"",""15"",""183731""
",,,,,,,,,,,,"[{""stimulus"":""run_exp/static/images/task_images/dig.jpg"",""time"":0.20000004768371582},{""stimulus"":""run_exp/static/images/task_images/land.jpg"",""time"":840.1000001430511},{""stimulus"":""run_exp/static/images/task_images/dig.jpg"",""time"":1678.7999999523163}]",[],3,,,,,,,,,,,,,,
harvest,107,515133,0.0-36.0-1.0,"""event"",""trial"",""time""
""fullscreenenter"",""1"",""7263""
""fullscreenexit"",""15"",""183731""
""blur"",""16"",""207044""
""focus"",""16"",""208657""
""blur"",""42"",""309326""
""focus"",""42"",""318564""
","""event"",""trial"",""time""
""blur"",""16"",""207044""
""blur"",""42"",""309326""
","""event"",""trial"",""time""
""focus"",""16"",""208657""
""focus"",""42"",""318564""
","""event"",""trial"",""time""
""fullscreenenter"",""1"",""7263""
","""event"",""trial"",""time""
""fullscreenexit"",""15"",""183731""
",,null,run_exp/static/images/task_images/gems/55.jpg,null,,,,,,,27,,,3,,,,,55,0.48856218,0.490909091,,,,,,,
decision,108,515750,0.0-36.0-2.0,"""event"",""trial"",""time""
""fullscreenenter"",""1"",""7263""
""fullscreenexit"",""15"",""183731""
""blur"",""16"",""207044""
""focus"",""16"",""208657""
""blur"",""42"",""309326""
""focus"",""42"",""318564""
","""event"",""trial"",""time""
""blur"",""16"",""207044""
""blur"",""42"",""309326""
","""event"",""trial"",""time""
""focus"",""16"",""208657""
""focus"",""42"",""318564""
","""event"",""trial"",""time""
""fullscreenenter"",""1"",""7263""
","""event"",""trial"",""time""
""fullscreenexit"",""15"",""183731""
",,615.0999999,run_exp/static/images/task_images/land.jpg,65,,,,,,,27,,,3,,,,,,,,90268,1,1,FALSE,,,
dig,109,518138,0.0-37.0-0.0,"""event"",""trial"",""time""
""fullscreenenter"",""1"",""7263""
""fullscreenexit"",""15"",""183731""
""blur"",""16"",""207044""
""focus"",""16"",""208657""
""blur"",""42"",""309326""
""focus"",""42"",""318564""
","""event"",""trial"",""time""
""blur"",""16"",""207044""
""blur"",""42"",""309326""
","""event"",""trial"",""time""
""focus"",""16"",""208657""
""focus"",""42"",""318564""
","""event"",""trial"",""time""
""fullscreenenter"",""1"",""7263""
","""event"",""trial"",""time""
""fullscreenexit"",""15"",""183731""
",,,,,,,,,,,,"[{""stimulus"":""run_exp/static/images/task_images/dig.jpg"",""time"":0.2999999523162842},{""stimulus"":""run_exp/static/images/task_images/land.jpg"",""time"":796.4000000953674},{""stimulus"":""run_exp/static/images/task_images/dig.jpg"",""time"":1590.2999999523163}]",[],3,,,,,,,,,,,,,,
harvest,110,519142,0.0-37.0-1.0,"""event"",""trial"",""time""
""fullscreenenter"",""1"",""7263""
""fullscreenexit"",""15"",""183731""
""blur"",""16"",""207044""
""focus"",""16"",""208657""
""blur"",""42"",""309326""
""focus"",""42"",""318564""
","""event"",""trial"",""time""
""blur"",""16"",""207044""
""blur"",""42"",""309326""
","""event"",""trial"",""time""
""focus"",""16"",""208657""
""focus"",""42"",""318564""
","""event"",""trial"",""time""
""fullscreenenter"",""1"",""7263""
","""event"",""trial"",""time""
""fullscreenexit"",""15"",""183731""
",,null,run_exp/static/images/task_images/gems/27.jpg,null,,,,,,,12,,,3,,,,,27,0.455097118,0.444444444,,,,,,,
decision,111,520094,0.0-37.0-2.0,"""event"",""trial"",""time""
""fullscreenenter"",""1"",""7263""
""fullscreenexit"",""15"",""183731""
""blur"",""16"",""207044""
""focus"",""16"",""208657""
""blur"",""42"",""309326""
""focus"",""42"",""318564""
","""event"",""trial"",""time""
""blur"",""16"",""207044""
""blur"",""42"",""309326""
","""event"",""trial"",""time""
""focus"",""16"",""208657""
""focus"",""42"",""318564""
","""event"",""trial"",""time""
""fullscreenenter"",""1"",""7263""
","""event"",""trial"",""time""
""fullscreenexit"",""15"",""183731""
",,949.5,run_exp/static/images/task_images/land.jpg,65,,,,,,,12,,,3,,,,,,,,94612,1,2,FALSE,,,
dig,112,522149,0.0-38.0-0.0,"""event"",""trial"",""time""
""fullscreenenter"",""1"",""7263""
""fullscreenexit"",""15"",""183731""
""blur"",""16"",""207044""
""focus"",""16"",""208657""
""blur"",""42"",""309326""
""focus"",""42"",""318564""
","""event"",""trial"",""time""
""blur"",""16"",""207044""
""blur"",""42"",""309326""
","""event"",""trial"",""time""
""focus"",""16"",""208657""
""focus"",""42"",""318564""
","""event"",""trial"",""time""
""fullscreenenter"",""1"",""7263""
","""event"",""trial"",""time""
""fullscreenexit"",""15"",""183731""
",,,,,,,,,,,,"[{""stimulus"":""run_exp/static/images/task_images/dig.jpg"",""time"":0.39999985694885254},{""stimulus"":""run_exp/static/images/task_images/land.jpg"",""time"":685.5999999046326},{""stimulus"":""run_exp/static/images/task_images/dig.jpg"",""time"":1368.2999999523163}]",[],3,,,,,,,,,,,,,,
harvest,113,523154,0.0-38.0-1.0,"""event"",""trial"",""time""
""fullscreenenter"",""1"",""7263""
""fullscreenexit"",""15"",""183731""
""blur"",""16"",""207044""
""focus"",""16"",""208657""
""blur"",""42"",""309326""
""focus"",""42"",""318564""
","""event"",""trial"",""time""
""blur"",""16"",""207044""
""blur"",""42"",""309326""
","""event"",""trial"",""time""
""focus"",""16"",""208657""
""focus"",""42"",""318564""
","""event"",""trial"",""time""
""fullscreenenter"",""1"",""7263""
","""event"",""trial"",""time""
""fullscreenexit"",""15"",""183731""
",,null,run_exp/static/images/task_images/gems/12.jpg,null,,,,,,,7,,,3,,,,,12,0.559931581,0.583333333,,,,,,,
decision,114,523640,0.0-38.0-2.0,"""event"",""trial"",""time""
""fullscreenenter"",""1"",""7263""
""fullscreenexit"",""15"",""183731""
""blur"",""16"",""207044""
""focus"",""16"",""208657""
""blur"",""42"",""309326""
""focus"",""42"",""318564""
","""event"",""trial"",""time""
""blur"",""16"",""207044""
""blur"",""42"",""309326""
","""event"",""trial"",""time""
""focus"",""16"",""208657""
""focus"",""42"",""318564""
","""event"",""trial"",""time""
""fullscreenenter"",""1"",""7263""
","""event"",""trial"",""time""
""fullscreenexit"",""15"",""183731""
",,483.6000001,run_exp/static/images/task_images/land.jpg,65,,,,,,,7,,,3,,,,,,,,98158,1,3,FALSE,,,
dig,115,526167,0.0-39.0-0.0,"""event"",""trial"",""time""
""fullscreenenter"",""1"",""7263""
""fullscreenexit"",""15"",""183731""
""blur"",""16"",""207044""
""focus"",""16"",""208657""
""blur"",""42"",""309326""
""focus"",""42"",""318564""
","""event"",""trial"",""time""
""blur"",""16"",""207044""
""blur"",""42"",""309326""
","""event"",""trial"",""time""
""focus"",""16"",""208657""
""focus"",""42"",""318564""
","""event"",""trial"",""time""
""fullscreenenter"",""1"",""7263""
","""event"",""trial"",""time""
""fullscreenexit"",""15"",""183731""
",,,,,,,,,,,,"[{""stimulus"":""run_exp/static/images/task_images/dig.jpg"",""time"":0.19999980926513672},{""stimulus"":""run_exp/static/images/task_images/land.jpg"",""time"":840.0999999046326},{""stimulus"":""run_exp/static/images/task_images/dig.jpg"",""time"":1677.6999998092651}]",[],3,,,,,,,,,,,,,,
harvest,116,527169,0.0-39.0-1.0,"""event"",""trial"",""time""
""fullscreenenter"",""1"",""7263""
""fullscreenexit"",""15"",""183731""
""blur"",""16"",""207044""
""focus"",""16"",""208657""
""blur"",""42"",""309326""
""focus"",""42"",""318564""
","""event"",""trial"",""time""
""blur"",""16"",""207044""
""blur"",""42"",""309326""
","""event"",""trial"",""time""
""focus"",""16"",""208657""
""focus"",""42"",""318564""
","""event"",""trial"",""time""
""fullscreenenter"",""1"",""7263""
","""event"",""trial"",""time""
""fullscreenexit"",""15"",""183731""
",,null,run_exp/static/images/task_images/gems/7.jpg,null,,,,,,,3,,,3,,,,,7,0.449528757,0.428571429,,,,,,,
decision,117,527259,0.0-39.0-2.0,"""event"",""trial"",""time""
""fullscreenenter"",""1"",""7263""
""fullscreenexit"",""15"",""183731""
""blur"",""16"",""207044""
""focus"",""16"",""208657""
""blur"",""42"",""309326""
""focus"",""42"",""318564""
","""event"",""trial"",""time""
""blur"",""16"",""207044""
""blur"",""42"",""309326""
","""event"",""trial"",""time""
""focus"",""16"",""208657""
""focus"",""42"",""318564""
","""event"",""trial"",""time""
""fullscreenenter"",""1"",""7263""
","""event"",""trial"",""time""
""fullscreenexit"",""15"",""183731""
",,88.5,run_exp/static/images/task_images/land.jpg,65,,,,,,,3,,,3,,,,,,,,101777,1,4,FALSE,,,
dig,118,530175,0.0-40.0-0.0,"""event"",""trial"",""time""
""fullscreenenter"",""1"",""7263""
""fullscreenexit"",""15"",""183731""
""blur"",""16"",""207044""
""focus"",""16"",""208657""
""blur"",""42"",""309326""
""focus"",""42"",""318564""
","""event"",""trial"",""time""
""blur"",""16"",""207044""
""blur"",""42"",""309326""
","""event"",""trial"",""time""
""focus"",""16"",""208657""
""focus"",""42"",""318564""
","""event"",""trial"",""time""
""fullscreenenter"",""1"",""7263""
","""event"",""trial"",""time""
""fullscreenexit"",""15"",""183731""
",,,,,,,,,,,,"[{""stimulus"":""run_exp/static/images/task_images/dig.jpg"",""time"":0.2999999523162842},{""stimulus"":""run_exp/static/images/task_images/land.jpg"",""time"":971.3999998569489},{""stimulus"":""run_exp/static/images/task_images/dig.jpg"",""time"":1941.6999998092651}]",[],3,,,,,,,,,,,,,,
harvest,119,531176,0.0-40.0-1.0,"""event"",""trial"",""time""
""fullscreenenter"",""1"",""7263""
""fullscreenexit"",""15"",""183731""
""blur"",""16"",""207044""
""focus"",""16"",""208657""
""blur"",""42"",""309326""
""focus"",""42"",""318564""
","""event"",""trial"",""time""
""blur"",""16"",""207044""
""blur"",""42"",""309326""
","""event"",""trial"",""time""
""focus"",""16"",""208657""
""focus"",""42"",""318564""
","""event"",""trial"",""time""
""fullscreenenter"",""1"",""7263""
","""event"",""trial"",""time""
""fullscreenexit"",""15"",""183731""
",,null,run_exp/static/images/task_images/gems/3.jpg,null,,,,,,,1,,,3,,,,,3,0.463979546,0.333333333,,,,,,,
decision,120,531547,0.0-40.0-2.0,"""event"",""trial"",""time""
""fullscreenenter"",""1"",""7263""
""fullscreenexit"",""15"",""183731""
""blur"",""16"",""207044""
""focus"",""16"",""208657""
""blur"",""42"",""309326""
""focus"",""42"",""318564""
","""event"",""trial"",""time""
""blur"",""16"",""207044""
""blur"",""42"",""309326""
","""event"",""trial"",""time""
""focus"",""16"",""208657""
""focus"",""42"",""318564""
","""event"",""trial"",""time""
""fullscreenenter"",""1"",""7263""
","""event"",""trial"",""time""
""fullscreenexit"",""15"",""183731""
",,369.9000001,run_exp/static/images/task_images/land.jpg,65,,,,,,,1,,,3,,,,,,,,106065,1,5,FALSE,,,
dig,121,534181,0.0-41.0-0.0,"""event"",""trial"",""time""
""fullscreenenter"",""1"",""7263""
""fullscreenexit"",""15"",""183731""
""blur"",""16"",""207044""
""focus"",""16"",""208657""
""blur"",""42"",""309326""
""focus"",""42"",""318564""
","""event"",""trial"",""time""
""blur"",""16"",""207044""
""blur"",""42"",""309326""
","""event"",""trial"",""time""
""focus"",""16"",""208657""
""focus"",""42"",""318564""
","""event"",""trial"",""time""
""fullscreenenter"",""1"",""7263""
","""event"",""trial"",""time""
""fullscreenexit"",""15"",""183731""
",,,,,,,,,,,,"[{""stimulus"":""run_exp/static/images/task_images/dig.jpg"",""time"":0.2999999523162842},{""stimulus"":""run_exp/static/images/task_images/land.jpg"",""time"":877.2999999523163},{""stimulus"":""run_exp/static/images/task_images/dig.jpg"",""time"":1753.7999999523163}]",[],3,,,,,,,,,,,,,,
harvest,122,535184,0.0-41.0-1.0,"""event"",""trial"",""time""
""fullscreenenter"",""1"",""7263""
""fullscreenexit"",""15"",""183731""
""blur"",""16"",""207044""
""focus"",""16"",""208657""
""blur"",""42"",""309326""
""focus"",""42"",""318564""
","""event"",""trial"",""time""
""blur"",""16"",""207044""
""blur"",""42"",""309326""
","""event"",""trial"",""time""
""focus"",""16"",""208657""
""focus"",""42"",""318564""
","""event"",""trial"",""time""
""fullscreenenter"",""1"",""7263""
","""event"",""trial"",""time""
""fullscreenexit"",""15"",""183731""
",,null,run_exp/static/images/task_images/gems/1.jpg,null,,,,,,,1,,,3,,,,,1,0.518079727,1,,,,,,,
decision,123,535712,0.0-41.0-2.0,"""event"",""trial"",""time""
""fullscreenenter"",""1"",""7263""
""fullscreenexit"",""15"",""183731""
""blur"",""16"",""207044""
""focus"",""16"",""208657""
""blur"",""42"",""309326""
""focus"",""42"",""318564""
","""event"",""trial"",""time""
""blur"",""16"",""207044""
""blur"",""42"",""309326""
","""event"",""trial"",""time""
""focus"",""16"",""208657""
""focus"",""42"",""318564""
","""event"",""trial"",""time""
""fullscreenenter"",""1"",""7263""
","""event"",""trial"",""time""
""fullscreenexit"",""15"",""183731""
",,527,run_exp/static/images/task_images/land.jpg,65,,,,,,,1,,,3,,,,,,,,110230,1,6,FALSE,,,
dig,124,538187,0.0-42.0-0.0,"""event"",""trial"",""time""
""fullscreenenter"",""1"",""7263""
""fullscreenexit"",""15"",""183731""
""blur"",""16"",""207044""
""focus"",""16"",""208657""
""blur"",""42"",""309326""
""focus"",""42"",""318564""
","""event"",""trial"",""time""
""blur"",""16"",""207044""
""blur"",""42"",""309326""
","""event"",""trial"",""time""
""focus"",""16"",""208657""
""focus"",""42"",""318564""
","""event"",""trial"",""time""
""fullscreenenter"",""1"",""7263""
","""event"",""trial"",""time""
""fullscreenexit"",""15"",""183731""
",,,,,,,,,,,,"[{""stimulus"":""run_exp/static/images/task_images/dig.jpg"",""time"":0.20000004768371582},{""stimulus"":""run_exp/static/images/task_images/land.jpg"",""time"":825.2000000476837},{""stimulus"":""run_exp/static/images/task_images/dig.jpg"",""time"":1650.3000001907349}]",[],3,,,,,,,,,,,,,,
harvest,125,539189,0.0-42.0-1.0,"""event"",""trial"",""time""
""fullscreenenter"",""1"",""7263""
""fullscreenexit"",""15"",""183731""
""blur"",""16"",""207044""
""focus"",""16"",""208657""
""blur"",""42"",""309326""
""focus"",""42"",""318564""
","""event"",""trial"",""time""
""blur"",""16"",""207044""
""blur"",""42"",""309326""
","""event"",""trial"",""time""
""focus"",""16"",""208657""
""focus"",""42"",""318564""
","""event"",""trial"",""time""
""fullscreenenter"",""1"",""7263""
","""event"",""trial"",""time""
""fullscreenexit"",""15"",""183731""
",,null,run_exp/static/images/task_images/gems/1.jpg,null,,,,,,,1,,,3,,,,,1,0.506360462,1,,,,,,,
decision,126,539608,0.0-42.0-2.0,"""event"",""trial"",""time""
""fullscreenenter"",""1"",""7263""
""fullscreenexit"",""15"",""183731""
""blur"",""16"",""207044""
""focus"",""16"",""208657""
""blur"",""42"",""309326""
""focus"",""42"",""318564""
","""event"",""trial"",""time""
""blur"",""16"",""207044""
""blur"",""42"",""309326""
","""event"",""trial"",""time""
""focus"",""16"",""208657""
""focus"",""42"",""318564""
","""event"",""trial"",""time""
""fullscreenenter"",""1"",""7263""
","""event"",""trial"",""time""
""fullscreenexit"",""15"",""183731""
",,417.8,run_exp/static/images/task_images/land.jpg,65,,,,,,,0,,,3,,,,,,,,114126,1,7,FALSE,,,
dig,127,542195,0.0-43.0-0.0,"""event"",""trial"",""time""
""fullscreenenter"",""1"",""7263""
""fullscreenexit"",""15"",""183731""
""blur"",""16"",""207044""
""focus"",""16"",""208657""
""blur"",""42"",""309326""
""focus"",""42"",""318564""
","""event"",""trial"",""time""
""blur"",""16"",""207044""
""blur"",""42"",""309326""
","""event"",""trial"",""time""
""focus"",""16"",""208657""
""focus"",""42"",""318564""
","""event"",""trial"",""time""
""fullscreenenter"",""1"",""7263""
","""event"",""trial"",""time""
""fullscreenexit"",""15"",""183731""
",,,,,,,,,,,,"[{""stimulus"":""run_exp/static/images/task_images/dig.jpg"",""time"":0.2999999523162842},{""stimulus"":""run_exp/static/images/task_images/land.jpg"",""time"":862.2999999523163},{""stimulus"":""run_exp/static/images/task_images/dig.jpg"",""time"":1722.5999999046326}]",[],3,,,,,,,,,,,,,,
harvest,128,543197,0.0-43.0-1.0,"""event"",""trial"",""time""
""fullscreenenter"",""1"",""7263""
""fullscreenexit"",""15"",""183731""
""blur"",""16"",""207044""
""focus"",""16"",""208657""
""blur"",""42"",""309326""
""focus"",""42"",""318564""
","""event"",""trial"",""time""
""blur"",""16"",""207044""
""blur"",""42"",""309326""
","""event"",""trial"",""time""
""focus"",""16"",""208657""
""focus"",""42"",""318564""
","""event"",""trial"",""time""
""fullscreenenter"",""1"",""7263""
","""event"",""trial"",""time""
""fullscreenexit"",""15"",""183731""
",,null,run_exp/static/images/task_images/gems/0.jpg,null,,,,,,,0,,,3,,,,,0,0.377340597,NaN,,,,,,,
decision,129,546199,0.0-43.0-2.0,"""event"",""trial"",""time""
""fullscreenenter"",""1"",""7263""
""fullscreenexit"",""15"",""183731""
""blur"",""16"",""207044""
""focus"",""16"",""208657""
""blur"",""42"",""309326""
""focus"",""42"",""318564""
","""event"",""trial"",""time""
""blur"",""16"",""207044""
""blur"",""42"",""309326""
","""event"",""trial"",""time""
""focus"",""16"",""208657""
""focus"",""42"",""318564""
","""event"",""trial"",""time""
""fullscreenenter"",""1"",""7263""
","""event"",""trial"",""time""
""fullscreenexit"",""15"",""183731""
",,null,run_exp/static/images/task_images/land.jpg,null,,,,,,,0,,,3,,,,,,,,120717,1,8,FALSE,,,
time_out,130,548205,0.0-44.0-0.0,"""event"",""trial"",""time""
""fullscreenenter"",""1"",""7263""
""fullscreenexit"",""15"",""183731""
""blur"",""16"",""207044""
""focus"",""16"",""208657""
""blur"",""42"",""309326""
""focus"",""42"",""318564""
","""event"",""trial"",""time""
""blur"",""16"",""207044""
""blur"",""42"",""309326""
","""event"",""trial"",""time""
""focus"",""16"",""208657""
""focus"",""42"",""318564""
","""event"",""trial"",""time""
""fullscreenenter"",""1"",""7263""
","""event"",""trial"",""time""
""fullscreenexit"",""15"",""183731""
",,null,run_exp/static/images/task_images/time_out.jpg,null,,,,,,,0,,,,,,,,,,,,,,,,,
decision,131,548977,0.0-44.0-1.0,"""event"",""trial"",""time""
""fullscreenenter"",""1"",""7263""
""fullscreenexit"",""15"",""183731""
""blur"",""16"",""207044""
""focus"",""16"",""208657""
""blur"",""42"",""309326""
""focus"",""42"",""318564""
","""event"",""trial"",""time""
""blur"",""16"",""207044""
""blur"",""42"",""309326""
","""event"",""trial"",""time""
""focus"",""16"",""208657""
""focus"",""42"",""318564""
","""event"",""trial"",""time""
""fullscreenenter"",""1"",""7263""
","""event"",""trial"",""time""
""fullscreenexit"",""15"",""183731""
",,770.6000001,run_exp/static/images/task_images/land.jpg,76,,,,,,,0,,,3,,,,,,,,123495,1,8,TRUE,,,
travel,132,558207,0.0-45.0-0.0,"""event"",""trial"",""time""
""fullscreenenter"",""1"",""7263""
""fullscreenexit"",""15"",""183731""
""blur"",""16"",""207044""
""focus"",""16"",""208657""
""blur"",""42"",""309326""
""focus"",""42"",""318564""
","""event"",""trial"",""time""
""blur"",""16"",""207044""
""blur"",""42"",""309326""
","""event"",""trial"",""time""
""focus"",""16"",""208657""
""focus"",""42"",""318564""
","""event"",""trial"",""time""
""fullscreenenter"",""1"",""7263""
","""event"",""trial"",""time""
""fullscreenexit"",""15"",""183731""
",,,,,,,,,,,,"[{""stimulus"":""run_exp/static/images/task_images/rocket-01.jpg"",""time"":0.20000004768371582},{""stimulus"":""run_exp/static/images/task_images/rocket-02.jpg"",""time"":1026.2999999523163},{""stimulus"":""run_exp/static/images/task_images/rocket-03.jpg"",""time"":2051.4000000953674},{""stimulus"":""run_exp/static/images/task_images/rocket-04.jpg"",""time"":3076.4000000953674},{""stimulus"":""run_exp/static/images/task_images/rocket-05.jpg"",""time"":4102.100000143051},{""stimulus"":""run_exp/static/images/task_images/rocket-06.jpg"",""time"":5126.200000047684},{""stimulus"":""run_exp/static/images/task_images/rocket-07.jpg"",""time"":6152.100000143051},{""stimulus"":""run_exp/static/images/task_images/rocket-08.jpg"",""time"":7180.5},{""stimulus"":""run_exp/static/images/task_images/rocket-09.jpg"",""time"":8209.799999952316}]",[],3,,,,,,,,,,,,,,
alien_welcome,133,563210,0.0-45.0-1.0,"""event"",""trial"",""time""
""fullscreenenter"",""1"",""7263""
""fullscreenexit"",""15"",""183731""
""blur"",""16"",""207044""
""focus"",""16"",""208657""
""blur"",""42"",""309326""
""focus"",""42"",""318564""
","""event"",""trial"",""time""
""blur"",""16"",""207044""
""blur"",""42"",""309326""
","""event"",""trial"",""time""
""focus"",""16"",""208657""
""focus"",""42"",""318564""
","""event"",""trial"",""time""
""fullscreenenter"",""1"",""7263""
","""event"",""trial"",""time""
""fullscreenexit"",""15"",""183731""
",,null,run_exp/static/images/task_images/aliens/old_aliens/planet/alien_planet-75.jpg,null,,,,,,,,,,,,,75,"58,9,40,75,21,28,14,44,72,50,39,79,80,18,7,53,1,17,4,49,27,12,69,6,48,60,77,13,24,32,61,23,33",,,,,,,,,,
land,134,563714,0.0-45.0-2.0,"""event"",""trial"",""time""
""fullscreenenter"",""1"",""7263""
""fullscreenexit"",""15"",""183731""
""blur"",""16"",""207044""
""focus"",""16"",""208657""
""blur"",""42"",""309326""
""focus"",""42"",""318564""
","""event"",""trial"",""time""
""blur"",""16"",""207044""
""blur"",""42"",""309326""
","""event"",""trial"",""time""
""focus"",""16"",""208657""
""focus"",""42"",""318564""
","""event"",""trial"",""time""
""fullscreenenter"",""1"",""7263""
","""event"",""trial"",""time""
""fullscreenexit"",""15"",""183731""
",,null,run_exp/static/images/task_images/land.jpg,null,,,,,,,95,,,4,,,,,,,,,,,,,,
dig,135,565721,0.0-45.0-3.0,"""event"",""trial"",""time""
""fullscreenenter"",""1"",""7263""
""fullscreenexit"",""15"",""183731""
""blur"",""16"",""207044""
""focus"",""16"",""208657""
""blur"",""42"",""309326""
""focus"",""42"",""318564""
","""event"",""trial"",""time""
""blur"",""16"",""207044""
""blur"",""42"",""309326""
","""event"",""trial"",""time""
""focus"",""16"",""208657""
""focus"",""42"",""318564""
","""event"",""trial"",""time""
""fullscreenenter"",""1"",""7263""
","""event"",""trial"",""time""
""fullscreenexit"",""15"",""183731""
",,,,,,,,,,,,"[{""stimulus"":""run_exp/static/images/task_images/dig.jpg"",""time"":0.2999999523162842},{""stimulus"":""run_exp/static/images/task_images/land.jpg"",""time"":668.6999998092651},{""stimulus"":""run_exp/static/images/task_images/dig.jpg"",""time"":1335.7999999523163}]",[],4,,,,,,,,,,,,,,
harvest,136,566726,0.0-45.0-4.0,"""event"",""trial"",""time""
""fullscreenenter"",""1"",""7263""
