trial_type,trial_index,time_elapsed,internal_node_id,interactions,blur_events,focus_events,fullscreenenter_events,fullscreenexit_events,success,rt,stimulus,key_press,prompt,subject_id,participant_id,age,gender,button_pressed,next_reward,animation_sequence,responses,planet,curr_prac_trial,n_prac_rounds,alien,aliens,reward_received,decay_rate_actual,decay_rate_exp,time_in_block,block_num,prt,last_trial_on_planet,button_html,bonus,num_failures
pavlovia,0,19,0.0-0.0,"""event"",""trial"",""time""
""fullscreenenter"",""1"",""5013""
","
","
","""event"",""trial"",""time""
""fullscreenenter"",""1"",""5013""
","
",,,,,,,,,,,,,,,,,,,,,,,,,,,,
fullscreen,1,6002,0.0-1.0,"""event"",""trial"",""time""
""fullscreenenter"",""1"",""5013""
","
","
","""event"",""trial"",""time""
""fullscreenenter"",""1"",""5013""
","
",TRUE,,,,,,,,,,,,,,,,,,,,,,,,,,,
instruc_welcome,2,15899,0.0-2.0,"""event"",""trial"",""time""
""fullscreenenter"",""1"",""5013""
","
","
","""event"",""trial"",""time""
""fullscreenenter"",""1"",""5013""
","
",,null,run_exp/static/audio/clip_1_welcome.m4a,null,"<p>Howdy! In this experiment, you’ll be an explorer traveling through space to collect space treasure.</p><p>Your mission is to collect as much treasure as possible.</p><br><br><p><img src='run_exp/static/images/task_images/opening_img-01.jpg' height='300' width='auto'></p>",9517,2981,12.07,Male,,,,,,,,,,,,,,,,,,,
audio-keyboard-response,3,32929,0.0-3.0,"""event"",""trial"",""time""
""fullscreenenter"",""1"",""5013""
","
","
","""event"",""trial"",""time""
""fullscreenenter"",""1"",""5013""
","
",,null,run_exp/static/audio/clip_2_move.m4a,null,,,,,,,,,,,,,,,,,,,,,,,,
welcome_dec,4,36331,0.0-4.0,"""event"",""trial"",""time""
""fullscreenenter"",""1"",""5013""
","
","
","""event"",""trial"",""time""
""fullscreenenter"",""1"",""5013""
","
",,3389.3,"<p>Howdy! In this experiment, you’ll be an explorer traveling through space to collect space treasure.</p><p>Your mission is to collect as much treasure as possible.</p><br><br><p><img src='run_exp/static/images/task_images/opening_img-01.jpg' height='300' width='auto'></p>",,,,,,,1,,,,,,,,,,,,,,,,,,
html-keyboard-response,5,37934,0.0-5.0,"""event"",""trial"",""time""
""fullscreenenter"",""1"",""5013""
","
","
","""event"",""trial"",""time""
""fullscreenenter"",""1"",""5013""
","
",,1596,"<p>Howdy! In this experiment, you’ll be an explorer traveling through space to collect space treasure.</p><p>Your mission is to collect as much treasure as possible.</p><br><br><p><img src='run_exp/static/images/task_images/opening_img-01.jpg' height='300' width='auto'></p><button class=""jspsych-html-btn-unchosen""><img src=""run_exp/static/images/task_images/planet-01.jpg"" height=""50""></button><button class=""jspsych-html-btn-chosen""><img src=""run_exp/static/images/task_images/planet-02.jpg"" height=""50""></button><p><b>[press the space bar to lock in your answer]<b><br></p>",32,,,,,,,,,,,,,,,,,,,,,,,,
instruc_goal,6,48425,0.0-6.0-0.0,"""event"",""trial"",""time""
""fullscreenenter"",""1"",""5013""
","
","
","""event"",""trial"",""time""
""fullscreenenter"",""1"",""5013""
","
",,null,run_exp/static/audio/clip_3_goal.m4a,null,"<p> As a space explorer, you’ll visit different planets to dig for space treasure, these pink gems.</p> <p> The more treasure you dig up, the more bonus money you’ll win! </p><br><br><p><img src='run_exp/static/images/task_images/pink_gem.jpg' height='300' width='auto'></p>",,,,,,,,,,,,,,,,,,,,,,,
instruc_goal,7,51097,0.0-6.0-1.0,"""event"",""trial"",""time""
""fullscreenenter"",""1"",""5013""
","
","
","""event"",""trial"",""time""
""fullscreenenter"",""1"",""5013""
","
",,2663.2,"<p> As a space explorer, you’ll visit different planets to dig for space treasure, these pink gems.</p> <p> The more treasure you dig up, the more bonus money you’ll win! </p><br><br><p><img src='run_exp/static/images/task_images/pink_gem.jpg' height='300' width='auto'></p>",,,,,,,1,,,,,,,,,,,,,,,,,,
html-keyboard-response,8,51716,0.0-6.0-2.0,"""event"",""trial"",""time""
""fullscreenenter"",""1"",""5013""
","
","
","""event"",""trial"",""time""
""fullscreenenter"",""1"",""5013""
","
",,613.6,"<p> As a space explorer, you’ll visit different planets to dig for space treasure, these pink gems.</p> <p> The more treasure you dig up, the more bonus money you’ll win! </p><br><br><p><img src='run_exp/static/images/task_images/pink_gem.jpg' height='300' width='auto'></p><button class=""jspsych-html-btn-unchosen""><img src=""run_exp/static/images/task_images/planet-01.jpg"" height=""50""></button><button class=""jspsych-html-btn-chosen""><img src=""run_exp/static/images/task_images/planet-02.jpg"" height=""50""></button><p><b>[press the space bar to lock in your answer]<b><br></p>",32,,,,,,,,,,,,,,,,,,,,,,,,
instruc_dig,9,68019,0.0-7.0-0.0,"""event"",""trial"",""time""
""fullscreenenter"",""1"",""5013""
","
","
","""event"",""trial"",""time""
""fullscreenenter"",""1"",""5013""
","
",,null,run_exp/static/audio/clip_4_dig.m4a,null,,,,,,,100,,,,,,,,,,,,,,,,,
instruc_dig_try,10,68309,0.0-7.0-1.0,"""event"",""trial"",""time""
""fullscreenenter"",""1"",""5013""
","
","
","""event"",""trial"",""time""
""fullscreenenter"",""1"",""5013""
","
",,282.1,"<p> When you’ve arrived at a new planet, you will dig once. </p> <p>Then, you get to decide if you want to stay on the planet and dig again or travel to a new planet and dig there.</p> <p> To stay and dig, press the letter <strong>‘A’</strong> on your keyboard. Try pressing it now! </p><p><img src='run_exp/static/images/task_images/land.jpg'  height='700' width='auto'></p>",65,"<p> When you’ve arrived at a new planet, you will dig once. </p> <p>Then, you get to decide if you want to stay on the planet and dig again or travel to a new planet and dig there.</p> <p> To stay and dig, press the letter <strong>‘A’</strong> on your keyboard. Try pressing it now! </p><p><img src='run_exp/static/images/task_images/land.jpg'  height='700' width='auto'></p>",,,,,,100,,,,,,,,,,,,,,,,,
dig_prac,11,70330,0.0-7.0-2.0,"""event"",""trial"",""time""
""fullscreenenter"",""1"",""5013""
","
","
","""event"",""trial"",""time""
""fullscreenenter"",""1"",""5013""
","
",,,,,,,,,,,,"[{""stimulus"":""run_exp/static/images/task_images/dig.jpg"",""time"":0.900000000372529},{""stimulus"":""run_exp/static/images/task_images/land.jpg"",""time"":670.1000000014901},{""stimulus"":""run_exp/static/images/task_images/dig.jpg"",""time"":1337.300000000745}]",[],,,,,,,,,,,,,,,
instruc_travel,12,106954,0.0-7.0-3.0,"""event"",""trial"",""time""
""fullscreenenter"",""1"",""5013""
","
","
","""event"",""trial"",""time""
""fullscreenenter"",""1"",""5013""
","
",,null,run_exp/static/audio/clip_5_travel.m4a,null,"<p>Every time you dig up gems, there are less gems on the planet, so the more you dig on a planet the fewer gems you’ll get with each dig.</p><p>When gems are running low, you may want to travel to a new planet. </p> <p>  Planets are very far apart in this galaxy, so it will take some time to travel between them. </p> <br><p>There are lots and lots of planets for you to visit, so you won’t be able to return to any planets you’ve seen before. </p><br><p>To leave this planet and travel to a new one, press the letter <strong>‘L’</strong> on your keyboard. Try pressing it now! </p><p><img src='run_exp/static/images/task_images/rocket-01.jpg'  height='600' width='auto'></p>",,,,,,,,,,,,,,,,,,,,,,,
instruc_travel_try,13,107117,0.0-7.0-4.0,"""event"",""trial"",""time""
""fullscreenenter"",""1"",""5013""
","
","
","""event"",""trial"",""time""
""fullscreenenter"",""1"",""5013""
","
",,159,"<p>Every time you dig up gems, there are less gems on the planet, so the more you dig on a planet the fewer gems you’ll get with each dig.</p><p>When gems are running low, you may want to travel to a new planet. </p> <p>  Planets are very far apart in this galaxy, so it will take some time to travel between them. </p> <br><p>There are lots and lots of planets for you to visit, so you won’t be able to return to any planets you’ve seen before. </p><br><p>To leave this planet and travel to a new one, press the letter <strong>‘L’</strong> on your keyboard. Try pressing it now! </p><p><img src='run_exp/static/images/task_images/rocket-01.jpg'  height='600' width='auto'></p>",76,"<p>Every time you dig up gems, there are less gems on the planet, so the more you dig on a planet the fewer gems you’ll get with each dig.</p><p>When gems are running low, you may want to travel to a new planet. </p> <p>  Planets are very far apart in this galaxy, so it will take some time to travel between them. </p> <br><p>There are lots and lots of planets for you to visit, so you won’t be able to return to any planets you’ve seen before. </p><br><p>To leave this planet and travel to a new one, press the letter <strong>‘L’</strong> on your keyboard. Try pressing it now! </p><p><img src='run_exp/static/images/task_images/rocket-01.jpg'  height='600' width='auto'></p>",,,,,,,,,,,,,,,,,,,,,,,
travel_prac,14,117123,0.0-7.0-5.0,"""event"",""trial"",""time""
""fullscreenenter"",""1"",""5013""
","
","
","""event"",""trial"",""time""
""fullscreenenter"",""1"",""5013""
","
",,,,,,,,,,,,"[{""stimulus"":""run_exp/static/images/task_images/rocket-01.jpg"",""time"":0.6999999992549419},{""stimulus"":""run_exp/static/images/task_images/rocket-02.jpg"",""time"":1114.7999999988824},{""stimulus"":""run_exp/static/images/task_images/rocket-03.jpg"",""time"":2224.5999999996275},{""stimulus"":""run_exp/static/images/task_images/rocket-04.jpg"",""time"":3335.699999999255},{""stimulus"":""run_exp/static/images/task_images/rocket-05.jpg"",""time"":4446.5999999996275},{""stimulus"":""run_exp/static/images/task_images/rocket-06.jpg"",""time"":5557.5999999996275},{""stimulus"":""run_exp/static/images/task_images/rocket-07.jpg"",""time"":6668.5999999996275},{""stimulus"":""run_exp/static/images/task_images/rocket-08.jpg"",""time"":7779.699999999255},{""stimulus"":""run_exp/static/images/task_images/rocket-09.jpg"",""time"":8890.599999999627}]",[],0,,,,,,,,,,,,,,
instruc_alien_greet,15,144558,0.0-7.0-6.0,"""event"",""trial"",""time""
""fullscreenenter"",""1"",""5013""
","
","
","""event"",""trial"",""time""
""fullscreenenter"",""1"",""5013""
","
",,null,run_exp/static/audio/clip_6_alien.m4a,null,"<p>When you arrive at a new planet, the alien who owns the treasure mine on that planet will greet you!</p><p>The better an alien takes care of their mine the easier it is to dig for gems. Some aliens take better care of their mine than others. So, you won’t get exactly the same amount of gems on each planet.</p><p>What the alien looks like does not tell you anything about how many gems there are on the planet.</p><br><p><img src=""run_exp/static/images/task_images/aliens/instructions_aliens/planet/alien_planet-1.jpg""  height=""600"" width=""auto""></p>",,,,,,,,,,,,,,,,,,,,,,,
instruc_alien_greet,16,148593,0.0-7.0-7.0,"""event"",""trial"",""time""
""fullscreenenter"",""1"",""5013""
","
","
","""event"",""trial"",""time""
""fullscreenenter"",""1"",""5013""
","
",,4028.2,"<p>When you arrive at a new planet, the alien who owns the treasure mine on that planet will greet you!</p><p>The better an alien takes care of their mine the easier it is to dig for gems. Some aliens take better care of their mine than others. So, you won’t get exactly the same amount of gems on each planet.</p><p>What the alien looks like does not tell you anything about how many gems there are on the planet.</p><br><p><img src=""run_exp/static/images/task_images/aliens/instructions_aliens/planet/alien_planet-1.jpg""  height=""600"" width=""auto""></p>",,,,,,,1,,,,,,,,,,,,,,,,,,
html-keyboard-response,17,150819,0.0-7.0-8.0,"""event"",""trial"",""time""
""fullscreenenter"",""1"",""5013""
","
","
","""event"",""trial"",""time""
""fullscreenenter"",""1"",""5013""
","
",,2221,"<p>When you arrive at a new planet, the alien who owns the treasure mine on that planet will greet you!</p><p>The better an alien takes care of their mine the easier it is to dig for gems. Some aliens take better care of their mine than others. So, you won’t get exactly the same amount of gems on each planet.</p><p>What the alien looks like does not tell you anything about how many gems there are on the planet.</p><br><p><img src=""run_exp/static/images/task_images/aliens/instructions_aliens/planet/alien_planet-1.jpg""  height=""600"" width=""auto""></p><button class=""jspsych-html-btn-unchosen""><img src=""run_exp/static/images/task_images/planet-01.jpg"" height=""50""></button><button class=""jspsych-html-btn-chosen""><img src=""run_exp/static/images/task_images/planet-02.jpg"" height=""50""></button><p><b>[press the space bar to lock in your answer]<b><br></p>",32,,,,,,,,,,,,,,,,,,,,,,,,
time_out,18,162359,0.0-8.0-0.0,"""event"",""trial"",""time""
""fullscreenenter"",""1"",""5013""
","
","
","""event"",""trial"",""time""
""fullscreenenter"",""1"",""5013""
","
",,null,run_exp/static/audio/clip_7_timeout.m4a,null,"<p>If you don't make your choice fast enough, you’ll have to wait a few seconds before you can make another one.</p><p>You can’t dig for more gems or travel to new planets. You just have to sit and wait.</p><br><p><img src='run_exp/static/images/task_images/time_out.jpg'  height='600' width='auto'></p>",,,,,,,,,,,,,,,,,,,,,,,
time_out,19,168409,0.0-8.0-1.0,"""event"",""trial"",""time""
""fullscreenenter"",""1"",""5013""
","
","
","""event"",""trial"",""time""
""fullscreenenter"",""1"",""5013""
","
",,6044.1,"<p>If you don't make your choice fast enough, you’ll have to wait a few seconds before you can make another one.</p><p>You can’t dig for more gems or travel to new planets. You just have to sit and wait.</p><br><p><img src='run_exp/static/images/task_images/time_out.jpg'  height='600' width='auto'></p>",,,,,,,1,,,,,,,,,,,,,,,,,,
html-keyboard-response,20,169867,0.0-8.0-2.0,"""event"",""trial"",""time""
""fullscreenenter"",""1"",""5013""
","
","
","""event"",""trial"",""time""
""fullscreenenter"",""1"",""5013""
","
",,1452.9,"<p>If you don't make your choice fast enough, you’ll have to wait a few seconds before you can make another one.</p><p>You can’t dig for more gems or travel to new planets. You just have to sit and wait.</p><br><p><img src='run_exp/static/images/task_images/time_out.jpg'  height='600' width='auto'></p><button class=""jspsych-html-btn-unchosen""><img src=""run_exp/static/images/task_images/planet-01.jpg"" height=""50""></button><button class=""jspsych-html-btn-chosen""><img src=""run_exp/static/images/task_images/planet-02.jpg"" height=""50""></button><p><b>[press the space bar to lock in your answer]<b><br></p>",32,,,,,,,,,,,,,,,,,,,,,,,,
instruc_break,21,185795,0.0-9.0-0.0,"""event"",""trial"",""time""
""fullscreenenter"",""1"",""5013""
","
","
","""event"",""trial"",""time""
""fullscreenenter"",""1"",""5013""
","
",,null,run_exp/static/audio/clip_8_break.m4a,null,"<p> After digging and traveling for a while, you’ll be able to take a break at home base. </p><p>The game will last 20 minutes no matter what.</p><p>You will visit home base every 5 minutes, so, you will visit home base three times during the game.</p><br><p><img src='run_exp/static/images/task_images/home_base.jpg' height='600' width='auto'></p>",,,,,,,,,,,,,,,,,,,,,,,
instruc_break,22,197134,0.0-9.0-1.0,"""event"",""trial"",""time""
""fullscreenenter"",""1"",""5013""
","
","
","""event"",""trial"",""time""
""fullscreenenter"",""1"",""5013""
","
",,11334.3,"<p> After digging and traveling for a while, you’ll be able to take a break at home base. </p><p>The game will last 20 minutes no matter what.</p><p>You will visit home base every 5 minutes, so, you will visit home base three times during the game.</p><br><p><img src='run_exp/static/images/task_images/home_base.jpg' height='600' width='auto'></p>",,,,,,,1,,,,,,,,,,,,,,,,,,
html-keyboard-response,23,197347,0.0-9.0-2.0,"""event"",""trial"",""time""
""fullscreenenter"",""1"",""5013""
","
","
","""event"",""trial"",""time""
""fullscreenenter"",""1"",""5013""
","
",,207.3,"<p> After digging and traveling for a while, you’ll be able to take a break at home base. </p><p>The game will last 20 minutes no matter what.</p><p>You will visit home base every 5 minutes, so, you will visit home base three times during the game.</p><br><p><img src='run_exp/static/images/task_images/home_base.jpg' height='600' width='auto'></p><button class=""jspsych-html-btn-unchosen""><img src=""run_exp/static/images/task_images/planet-01.jpg"" height=""50""></button><button class=""jspsych-html-btn-chosen""><img src=""run_exp/static/images/task_images/planet-02.jpg"" height=""50""></button><p><b>[press the space bar to lock in your answer]<b><br></p>",32,,,,,,,,,,,,,,,,,,,,,,,,
instruc_prac_game,24,207618,0.0-10.0-0.0,"""event"",""trial"",""time""
""fullscreenenter"",""1"",""5013""
","
","
","""event"",""trial"",""time""
""fullscreenenter"",""1"",""5013""
","
",,null,run_exp/static/audio/clip_9_practice.m4a,null,"<p> Are you ready to play a practice game? </p> <p>In this practice game, you'll be digging up barrels of gems. But, in the real game, you'll be digging up the gems themselves. </p>",,,,,,,,,,,,,,,,,,,,,,,
html-button-response,25,209756,0.0-10.0-1.0,"""event"",""trial"",""time""
""fullscreenenter"",""1"",""5013""
","
","
","""event"",""trial"",""time""
""fullscreenenter"",""1"",""5013""
","
",,2134.4,"<p> Are you ready to play a practice game? </p> <p>In this practice game, you'll be digging up barrels of gems. But, in the real game, you'll be digging up the gems themselves. </p>",,,,,,,0,,,,,,,,,,,,,,,,,,
alien_welcome_prac,26,214764,0.0-11.0-0.0,"""event"",""trial"",""time""
""fullscreenenter"",""1"",""5013""
","
","
","""event"",""trial"",""time""
""fullscreenenter"",""1"",""5013""
","
",,null,run_exp/static/images/task_images/aliens/practice_aliens/planet/alien_planet-5.jpg,null,,,,,,,,,,,,,,,,,,,,,,,,
land_prac,27,215268,0.0-11.0-1.0,"""event"",""trial"",""time""
""fullscreenenter"",""1"",""5013""
","
","
","""event"",""trial"",""time""
""fullscreenenter"",""1"",""5013""
","
",,null,run_exp/static/images/task_images/land.jpg,null,,,,,,,94,,,0,,,,,,,,,,,,,,
dig_prac,28,217276,0.0-11.0-2.0,"""event"",""trial"",""time""
""fullscreenenter"",""1"",""5013""
","
","
","""event"",""trial"",""time""
""fullscreenenter"",""1"",""5013""
","
",,,,,,,,,,,,"[{""stimulus"":""run_exp/static/images/task_images/dig.jpg"",""time"":0.8000000007450581},{""stimulus"":""run_exp/static/images/task_images/land.jpg"",""time"":670.3000000007451},{""stimulus"":""run_exp/static/images/task_images/dig.jpg"",""time"":1336.5999999996275}]",[],,,,,,,,,,,,,,,
harvest_prac,29,218284,0.0-11.0-3.0,"""event"",""trial"",""time""
""fullscreenenter"",""1"",""5013""
","
","
","""event"",""trial"",""time""
""fullscreenenter"",""1"",""5013""
","
",,null,run_exp/static/images/task_images/barrel_text.jpg,null,,,,,,,,,,,,,,,,,,,,,,,,
decision_prac,30,220680,0.0-11.0-4.0,"""event"",""trial"",""time""
""fullscreenenter"",""1"",""5013""
","
","
","""event"",""trial"",""time""
""fullscreenenter"",""1"",""5013""
","
",,2393,run_exp/static/images/task_images/land.jpg,65,,,,,,,,,,,1,,,,,,,,,,,,,
dig_prac,31,222695,0.0-12.0-0.0,"""event"",""trial"",""time""
""fullscreenenter"",""1"",""5013""
","
","
","""event"",""trial"",""time""
""fullscreenenter"",""1"",""5013""
","
",,,,,,,,,,,,"[{""stimulus"":""run_exp/static/images/task_images/dig.jpg"",""time"":0.6000000014901161},{""stimulus"":""run_exp/static/images/task_images/land.jpg"",""time"":669.5},{""stimulus"":""run_exp/static/images/task_images/dig.jpg"",""time"":1343.1000000014901}]",[],,,,,,,,,,,,,,,
harvest_prac,32,223698,0.0-12.0-1.0,"""event"",""trial"",""time""
""fullscreenenter"",""1"",""5013""
","
","
","""event"",""trial"",""time""
""fullscreenenter"",""1"",""5013""
","
",,null,run_exp/static/images/task_images/barrel_text.jpg,null,,,,,,,,,,,,,,,,,,,,,,,,
decision_prac,33,224333,0.0-12.0-2.0,"""event"",""trial"",""time""
""fullscreenenter"",""1"",""5013""
","
","
","""event"",""trial"",""time""
""fullscreenenter"",""1"",""5013""
","
",,629.3,run_exp/static/images/task_images/land.jpg,65,,,,,,,,,,,2,,,,,,,,,,,,,
dig_prac,34,226346,0.0-13.0-0.0,"""event"",""trial"",""time""
""fullscreenenter"",""1"",""5013""
","
","
","""event"",""trial"",""time""
""fullscreenenter"",""1"",""5013""
","
",,,,,,,,,,,,"[{""stimulus"":""run_exp/static/images/task_images/dig.jpg"",""time"":0.7000000011175871},{""stimulus"":""run_exp/static/images/task_images/land.jpg"",""time"":670.2000000011176},{""stimulus"":""run_exp/static/images/task_images/dig.jpg"",""time"":1336.800000000745}]",[],,,,,,,,,,,,,,,
harvest_prac,35,227352,0.0-13.0-1.0,"""event"",""trial"",""time""
""fullscreenenter"",""1"",""5013""
","
","
","""event"",""trial"",""time""
""fullscreenenter"",""1"",""5013""
","
",,null,run_exp/static/images/task_images/barrel_text.jpg,null,,,,,,,,,,,,,,,,,,,,,,,,
decision_prac,36,227771,0.0-13.0-2.0,"""event"",""trial"",""time""
""fullscreenenter"",""1"",""5013""
","
","
","""event"",""trial"",""time""
""fullscreenenter"",""1"",""5013""
","
",,411.7,run_exp/static/images/task_images/land.jpg,65,,,,,,,,,,,3,,,,,,,,,,,,,
dig_prac,37,229787,0.0-14.0-0.0,"""event"",""trial"",""time""
""fullscreenenter"",""1"",""5013""
","
","
","""event"",""trial"",""time""
""fullscreenenter"",""1"",""5013""
","
",,,,,,,,,,,,"[{""stimulus"":""run_exp/static/images/task_images/dig.jpg"",""time"":0.7000000011175871},{""stimulus"":""run_exp/static/images/task_images/land.jpg"",""time"":670.2000000011176},{""stimulus"":""run_exp/static/images/task_images/dig.jpg"",""time"":1338.5}]",[],,,,,,,,,,,,,,,
harvest_prac,38,230797,0.0-14.0-1.0,"""event"",""trial"",""time""
""fullscreenenter"",""1"",""5013""
","
","
","""event"",""trial"",""time""
""fullscreenenter"",""1"",""5013""
","
",,null,run_exp/static/images/task_images/barrel_text.jpg,null,,,,,,,,,,,,,,,,,,,,,,,,
decision_prac,39,231257,0.0-14.0-2.0,"""event"",""trial"",""time""
""fullscreenenter"",""1"",""5013""
","
","
","""event"",""trial"",""time""
""fullscreenenter"",""1"",""5013""
","
",,450.8,run_exp/static/images/task_images/land.jpg,65,,,,,,,,,,,4,,,,,,,,,,,,,
dig_prac,40,233274,0.0-15.0-0.0,"""event"",""trial"",""time""
""fullscreenenter"",""1"",""5013""
","
","
","""event"",""trial"",""time""
""fullscreenenter"",""1"",""5013""
","
",,,,,,,,,,,,"[{""stimulus"":""run_exp/static/images/task_images/dig.jpg"",""time"":0.7999999988824129},{""stimulus"":""run_exp/static/images/task_images/land.jpg"",""time"":669.8999999985099},{""stimulus"":""run_exp/static/images/task_images/dig.jpg"",""time"":1337.699999999255}]",[],,,,,,,,,,,,,,,
harvest_prac,41,234292,0.0-15.0-1.0,"""event"",""trial"",""time""
""fullscreenenter"",""1"",""5013""
","
","
","""event"",""trial"",""time""
""fullscreenenter"",""1"",""5013""
","
",,null,run_exp/static/images/task_images/barrel_text.jpg,null,,,,,,,,,,,,,,,,,,,,,,,,
decision_prac,42,234811,0.0-15.0-2.0,"""event"",""trial"",""time""
""fullscreenenter"",""1"",""5013""
","
","
","""event"",""trial"",""time""
""fullscreenenter"",""1"",""5013""
","
",,514.5,run_exp/static/images/task_images/land.jpg,65,,,,,,,,,,,,1,,,,,,,,,,,,
quiz_instruc,43,238528,0.0-16.0-0.0,"""event"",""trial"",""time""
""fullscreenenter"",""1"",""5013""
","
","
","""event"",""trial"",""time""
""fullscreenenter"",""1"",""5013""
","
",,3706.2,run_exp/static/audio/clip_10_quiz.m4a,,,,,,,0,,,,,,,,,,,,,,,,,,
instruc_repeat,44,281604,0.0-16.0-1.0,"""event"",""trial"",""time""
""fullscreenenter"",""1"",""5013""
","
","
","""event"",""trial"",""time""
""fullscreenenter"",""1"",""5013""
","
",,null,"<p> Are you ready to play a practice game? </p> <p>In this practice game, you'll be digging up barrels of gems. But, in the real game, you'll be digging up the gems themselves. </p>",null,"<p>In this game, your goal is to collect as many gems as you can. That’s how you will win bonus money. </p> <p>The entire game will last 20 minutes no matter how many gems you collect or how many planets you visit. </p><p>To stay on a planet and dig again, press the letter A on your keyboard. To leave for a new planet, press the letter L.</p><p>The more you dig on a planet, the fewer gems you’ll get with each dig which is why you might consider leaving for a new planet. </p><p>When you arrive at a new planet, you’ll be greeted by an alien. What the alien looks like does not tell you anything about how much treasure is on the planet. </p>",,,,,,,,,,,,,,,,,,,,,,,
instruc_repeat_continue,45,316036,0.0-16.0-2.0,"""event"",""trial"",""time""
""fullscreenenter"",""1"",""5013""
","
","
","""event"",""trial"",""time""
""fullscreenenter"",""1"",""5013""
","
",,34422.5,"<p> Are you ready to play a practice game? </p> <p>In this practice game, you'll be digging up barrels of gems. But, in the real game, you'll be digging up the gems themselves. </p>",,,,,,,0,,,,,,,,,,,,,,,,,,
quiz_q_1_ask,46,319708,0.0-16.0-3.0,"""event"",""trial"",""time""
""fullscreenenter"",""1"",""5013""
","
","
","""event"",""trial"",""time""
""fullscreenenter"",""1"",""5013""
","
",,3660.7,run_exp/static/audio/clip_11_q1_ask.m4a,,,,,,,2,,,,,,,,,,,,,,,,,,
quiz_q_1_fb_correct,47,323871,0.0-17.0-0.0,"""event"",""trial"",""time""
""fullscreenenter"",""1"",""5013""
","
","
","""event"",""trial"",""time""
""fullscreenenter"",""1"",""5013""
","
",,null,run_exp/static/audio/clip_12_q1_correct.m4a,null,<p>That’s correct. You win extra money by collecting more gems.</p>,,,,,,,,,,,,,,,,,,,,,,,
quiz_q_2_ask,48,325542,0.0-17.0-1.0,"""event"",""trial"",""time""
""fullscreenenter"",""1"",""5013""
","
","
","""event"",""trial"",""time""
""fullscreenenter"",""1"",""5013""
","
",,1663.1,run_exp/static/audio/clip_14_q2_ask.m4a,,,,,,,1,,,,,,,,,,,,,,,,,,
quiz_q_2_fb_correct,49,329753,0.0-18.0-0.0,"""event"",""trial"",""time""
""fullscreenenter"",""1"",""5013""
","
","
","""event"",""trial"",""time""
""fullscreenenter"",""1"",""5013""
","
",,null,run_exp/static/audio/clip_15_q2_correct.m4a,null,<p>That’s correct. The experiment is 20 minutes no matter what.</p>,,,,,,,,,,,,,,,,,,,,,,,
quiz_q_3_ask,50,331882,0.0-18.0-1.0,"""event"",""trial"",""time""
""fullscreenenter"",""1"",""5013""
","
","
","""event"",""trial"",""time""
""fullscreenenter"",""1"",""5013""
","
",,2121.3,run_exp/static/audio/clip_17_q3_ask.m4a,,,,,,,1,,,,,,,,,,,,,,,,,,
quiz_q_3_fb_correct,51,336159,0.0-19.0-0.0,"""event"",""trial"",""time""
""fullscreenenter"",""1"",""5013""
","
","
","""event"",""trial"",""time""
""fullscreenenter"",""1"",""5013""
","
",,null,run_exp/static/audio/clip_18_q3_correct.m4a,null,<p> That’s correct. You press the letter L to travel to a new planet.</p>,,,,,,,,,,,,,,,,,,,,,,,
quiz_q_4_ask,52,341932,0.0-19.0-1.0,"""event"",""trial"",""time""
""fullscreenenter"",""1"",""5013""
","
","
","""event"",""trial"",""time""
""fullscreenenter"",""1"",""5013""
","
",,5767.5,run_exp/static/audio/clip_20_q4_ask.m4a,,,,,,,0,,,,,,,,,,,,,,,,,,
quiz_q_4_fb_correct,53,347689,0.0-20.0-0.0,"""event"",""trial"",""time""
""fullscreenenter"",""1"",""5013""
","
","
","""event"",""trial"",""time""
""fullscreenenter"",""1"",""5013""
","
",,null,run_exp/static/audio/clip_21_q4_correct.m4a,null,<p> That’s correct. The more you dig on a planet the fewer gems you’ll get with each dig. </p>,,,,,,,,,,,,,,,,,,,,,,,
quiz_q_5_ask,54,349949,0.0-20.0-1.0,"""event"",""trial"",""time""
""fullscreenenter"",""1"",""5013""
","
","
","""event"",""trial"",""time""
""fullscreenenter"",""1"",""5013""
","
",,2253.2,run_exp/static/audio/clip_23_q5_ask.m4a,,,,,,,1,,,,,,,,,,,,,,,,,,
quiz_q_5_fb_correct,55,355237,0.0-21.0-0.0,"""event"",""trial"",""time""
""fullscreenenter"",""1"",""5013""
","
","
","""event"",""trial"",""time""
""fullscreenenter"",""1"",""5013""
","
",,null,run_exp/static/audio/clip_24_q5_correct.m4a,null,<p> That’s correct. The alien tells you nothing about how much treasure is on the planet.</p>,,,,,,,,,,,,,,,,,,,,,,,
quiz_correct,56,359086,0.0-22.0-0.0,"""event"",""trial"",""time""
""fullscreenenter"",""1"",""5013""
","
","
","""event"",""trial"",""time""
""fullscreenenter"",""1"",""5013""
","
",,null,run_exp/static/audio/clip_26_correct_quiz.m4a,null,,,,,,,,,,,,,,,,,,,,,,,,
quiz_correct_continue,57,360374,0.0-22.0-1.0,"""event"",""trial"",""time""
""fullscreenenter"",""1"",""5013""
","
","
","""event"",""trial"",""time""
""fullscreenenter"",""1"",""5013""
","
",,1283.5,<p>Good job! You're now ready to move on to the real game!</p>,,,,,,,0,,,,,,,,,,,,,,,,,,
audio-keyboard-response,58,370863,0.0-22.0-2.0,"""event"",""trial"",""time""
""fullscreenenter"",""1"",""5013""
","
","
","""event"",""trial"",""time""
""fullscreenenter"",""1"",""5013""
","
",,null,run_exp/static/audio/clip_28_real_game.m4a,null,,,,,,,,,,,,,,,,,,,,,,,,
instruc_begin_exp_contine,59,371929,0.0-22.0-3.0,"""event"",""trial"",""time""
""fullscreenenter"",""1"",""5013""
","
","
","""event"",""trial"",""time""
""fullscreenenter"",""1"",""5013""
","
",,1055.4,"<p>Now that you know how  to dig for space treasure and travel to new planets,you can start exploring! </p><p>Do you want to go over the instructions again or get started with the real game?</p>",,,,,,,1,,,,,,1,,,,,,,,,,,,
alien_welcome,60,376944,0.0-23.0-0.0,"""event"",""trial"",""time""
""fullscreenenter"",""1"",""5013""
","
","
","""event"",""trial"",""time""
""fullscreenenter"",""1"",""5013""
","
",,null,run_exp/static/images/task_images/aliens/old_aliens/planet/alien_planet-24.jpg,null,,,,,,,,,,,,,24,"24,59,33,69,58,60,47,7,65,37,71,43,41,79,11,63,19,21,75,40,25,67,32,20,68,45,16",,,,,,,,,,
land,61,377459,0.0-23.0-1.0,"""event"",""trial"",""time""
""fullscreenenter"",""1"",""5013""
","
","
","""event"",""trial"",""time""
""fullscreenenter"",""1"",""5013""
","
",,null,run_exp/static/images/task_images/land.jpg,null,,,,,,,92,,,1,,,,,,,,,,,,,,
dig,62,379472,0.0-23.0-2.0,"""event"",""trial"",""time""
""fullscreenenter"",""1"",""5013""
","
","
","""event"",""trial"",""time""
""fullscreenenter"",""1"",""5013""
","
",,,,,,,,,,,,"[{""stimulus"":""run_exp/static/images/task_images/dig.jpg"",""time"":0.8000000007450581},{""stimulus"":""run_exp/static/images/task_images/land.jpg"",""time"":671.9000000003725},{""stimulus"":""run_exp/static/images/task_images/dig.jpg"",""time"":1338.199999999255}]",[],1,,,,,,,,,,,,,,
harvest,63,380488,0.0-23.0-3.0,"""event"",""trial"",""time""
""fullscreenenter"",""1"",""5013""
","
","
","""event"",""trial"",""time""
""fullscreenenter"",""1"",""5013""
","
",,null,run_exp/static/images/task_images/gems/92.jpg,null,,,,,,,14,,,1,,,,,92,0.156129968,0.152173913,,,,,,,
decision,64,382929,0.0-23.0-4.0,"""event"",""trial"",""time""
""fullscreenenter"",""1"",""5013""
","
","
","""event"",""trial"",""time""
""fullscreenenter"",""1"",""5013""
","
",,2433.1,run_exp/static/images/task_images/land.jpg,65,,,,,,,14,,,1,,,,,,,,10996,1,0,FALSE,,,
dig,65,383516,0.0-24.0-0.0,"""event"",""trial"",""time""
""fullscreenenter"",""1"",""5013""
","
","
","""event"",""trial"",""time""
""fullscreenenter"",""1"",""5013""
","
",,,,,,,,,,,,"[{""stimulus"":""run_exp/static/images/task_images/dig.jpg"",""time"":0.7999999988824129},{""stimulus"":""run_exp/static/images/task_images/land.jpg"",""time"":192.7999999988824},{""stimulus"":""run_exp/static/images/task_images/dig.jpg"",""time"":380.19999999925494}]",[],1,,,,,,,,,,,,,,
harvest,66,384521,0.0-24.0-1.0,"""event"",""trial"",""time""
""fullscreenenter"",""1"",""5013""
","
","
","""event"",""trial"",""time""
""fullscreenenter"",""1"",""5013""
","
",,null,run_exp/static/images/task_images/gems/14.jpg,null,,,,,,,3,,,1,,,,,14,0.211031214,0.214285714,,,,,,,
decision,67,386808,0.0-24.0-2.0,"""event"",""trial"",""time""
""fullscreenenter"",""1"",""5013""
","
","
","""event"",""trial"",""time""
""fullscreenenter"",""1"",""5013""
","
",,2282.8,run_exp/static/images/task_images/land.jpg,65,,,,,,,3,,,1,,,,,,,,14871,1,1,FALSE,,,
dig,68,387543,0.0-25.0-0.0,"""event"",""trial"",""time""
""fullscreenenter"",""1"",""5013""
","
","
","""event"",""trial"",""time""
""fullscreenenter"",""1"",""5013""
","
",,,,,,,,,,,,"[{""stimulus"":""run_exp/static/images/task_images/dig.jpg"",""time"":0.900000000372529},{""stimulus"":""run_exp/static/images/task_images/land.jpg"",""time"":244.30000000074506},{""stimulus"":""run_exp/static/images/task_images/dig.jpg"",""time"":484}]",[],1,,,,,,,,,,,,,,
harvest,69,388550,0.0-25.0-1.0,"""event"",""trial"",""time""
""fullscreenenter"",""1"",""5013""
","
","
","""event"",""trial"",""time""
""fullscreenenter"",""1"",""5013""
","
",,null,run_exp/static/images/task_images/gems/3.jpg,null,,,,,,,0,,,1,,,,,3,0.142503797,0,,,,,,,
decision,70,390299,0.0-25.0-2.0,"""event"",""trial"",""time""
""fullscreenenter"",""1"",""5013""
","
","
","""event"",""trial"",""time""
""fullscreenenter"",""1"",""5013""
","
",,1743.2,run_exp/static/images/task_images/land.jpg,65,,,,,,,0,,,1,,,,,,,,18362,1,2,FALSE,,,
dig,71,391576,0.0-26.0-0.0,"""event"",""trial"",""time""
""fullscreenenter"",""1"",""5013""
","
","
","""event"",""trial"",""time""
""fullscreenenter"",""1"",""5013""
","
",,,,,,,,,,,,"[{""stimulus"":""run_exp/static/images/task_images/dig.jpg"",""time"":0.900000000372529},{""stimulus"":""run_exp/static/images/task_images/land.jpg"",""time"":425.59999999962747},{""stimulus"":""run_exp/static/images/task_images/dig.jpg"",""time"":841}]",[],1,,,,,,,,,,,,,,
harvest,72,392581,0.0-26.0-1.0,"""event"",""trial"",""time""
""fullscreenenter"",""1"",""5013""
","
","
","""event"",""trial"",""time""
""fullscreenenter"",""1"",""5013""
","
",,null,run_exp/static/images/task_images/gems/0.jpg,null,,,,,,,0,,,1,,,,,0,0.26868587,NaN,,,,,,,
decision,73,394294,0.0-26.0-2.0,"""event"",""trial"",""time""
""fullscreenenter"",""1"",""5013""
","
","
","""event"",""trial"",""time""
""fullscreenenter"",""1"",""5013""
","
",,1708.6,run_exp/static/images/task_images/land.jpg,76,,,,,,,0,,,1,,,,,,,,22357,1,3,TRUE,,,
travel,74,402600,0.0-27.0-0.0,"""event"",""trial"",""time""
""fullscreenenter"",""1"",""5013""
","
","
","""event"",""trial"",""time""
""fullscreenenter"",""1"",""5013""
","
",,,,,,,,,,,,"[{""stimulus"":""run_exp/static/images/task_images/rocket-01.jpg"",""time"":1},{""stimulus"":""run_exp/static/images/task_images/rocket-02.jpg"",""time"":926},{""stimulus"":""run_exp/static/images/task_images/rocket-03.jpg"",""time"":1845.699999999255},{""stimulus"":""run_exp/static/images/task_images/rocket-04.jpg"",""time"":2769.0999999996275},{""stimulus"":""run_exp/static/images/task_images/rocket-05.jpg"",""time"":3690.800000000745},{""stimulus"":""run_exp/static/images/task_images/rocket-06.jpg"",""time"":4612.4000000003725},{""stimulus"":""run_exp/static/images/task_images/rocket-07.jpg"",""time"":5532.9000000003725},{""stimulus"":""run_exp/static/images/task_images/rocket-08.jpg"",""time"":6455.699999999255},{""stimulus"":""run_exp/static/images/task_images/rocket-09.jpg"",""time"":7374.800000000745}]",[],1,,,,,,,,,,,,,,
alien_welcome,75,407608,0.0-27.0-1.0,"""event"",""trial"",""time""
""fullscreenenter"",""1"",""5013""
","
","
","""event"",""trial"",""time""
""fullscreenenter"",""1"",""5013""
","
",,null,run_exp/static/images/task_images/aliens/old_aliens/planet/alien_planet-59.jpg,null,,,,,,,,,,,,,59,"24,59,33,69,58,60,47,7,65,37,71,43,41,79,11,63,19,21,75,40,25,67,32,20,68,45,16",,,,,,,,,,
land,76,408116,0.0-27.0-2.0,"""event"",""trial"",""time""
""fullscreenenter"",""1"",""5013""
","
","
","""event"",""trial"",""time""
""fullscreenenter"",""1"",""5013""
","
",,null,run_exp/static/images/task_images/land.jpg,null,,,,,,,109,,,2,,,,,,,,,,,,,,
dig,77,410138,0.0-27.0-3.0,"""event"",""trial"",""time""
""fullscreenenter"",""1"",""5013""
","
","
","""event"",""trial"",""time""
""fullscreenenter"",""1"",""5013""
","
",,,,,,,,,,,,"[{""stimulus"":""run_exp/static/images/task_images/dig.jpg"",""time"":0.900000000372529},{""stimulus"":""run_exp/static/images/task_images/land.jpg"",""time"":673.5999999996275},{""stimulus"":""run_exp/static/images/task_images/dig.jpg"",""time"":1342}]",[],2,,,,,,,,,,,,,,
harvest,78,411147,0.0-27.0-4.0,"""event"",""trial"",""time""
""fullscreenenter"",""1"",""5013""
","
","
","""event"",""trial"",""time""
""fullscreenenter"",""1"",""5013""
","
",,null,run_exp/static/images/task_images/gems/109.jpg,null,,,,,,,23,,,2,,,,,109,0.213202006,0.211009174,,,,,,,
decision,79,412474,0.0-27.0-5.0,"""event"",""trial"",""time""
""fullscreenenter"",""1"",""5013""
","
","
","""event"",""trial"",""time""
""fullscreenenter"",""1"",""5013""
","
",,1317.3,run_exp/static/images/task_images/land.jpg,65,,,,,,,23,,,2,,,,,,,,40537,1,0,FALSE,,,
dig,80,414177,0.0-28.0-0.0,"""event"",""trial"",""time""
""fullscreenenter"",""1"",""5013""
","
","
","""event"",""trial"",""time""
""fullscreenenter"",""1"",""5013""
","
",,,,,,,,,,,,"[{""stimulus"":""run_exp/static/images/task_images/dig.jpg"",""time"":0.8000000007450581},{""stimulus"":""run_exp/static/images/task_images/land.jpg"",""time"":568},{""stimulus"":""run_exp/static/images/task_images/dig.jpg"",""time"":1125.9000000003725}]",[],2,,,,,,,,,,,,,,
harvest,81,415184,0.0-28.0-1.0,"""event"",""trial"",""time""
""fullscreenenter"",""1"",""5013""
","
","
","""event"",""trial"",""time""
""fullscreenenter"",""1"",""5013""
","
",,null,run_exp/static/images/task_images/gems/23.jpg,null,,,,,,,5,,,2,,,,,23,0.214205288,0.217391304,,,,,,,
decision,82,416534,0.0-28.0-2.0,"""event"",""trial"",""time""
""fullscreenenter"",""1"",""5013""
","
","
","""event"",""trial"",""time""
""fullscreenenter"",""1"",""5013""
","
",,1344.5,run_exp/static/images/task_images/land.jpg,65,,,,,,,5,,,2,,,,,,,,44597,1,1,FALSE,,,
dig,83,418203,0.0-29.0-0.0,"""event"",""trial"",""time""
""fullscreenenter"",""1"",""5013""
","
","
","""event"",""trial"",""time""
""fullscreenenter"",""1"",""5013""
","
",,,,,,,,,,,,"[{""stimulus"":""run_exp/static/images/task_images/dig.jpg"",""time"":1.300000000745058},{""stimulus"":""run_exp/static/images/task_images/land.jpg"",""time"":557.5},{""stimulus"":""run_exp/static/images/task_images/dig.jpg"",""time"":1108.199999999255}]",[],2,,,,,,,,,,,,,,
harvest,84,419206,0.0-29.0-1.0,"""event"",""trial"",""time""
""fullscreenenter"",""1"",""5013""
","
","
","""event"",""trial"",""time""
""fullscreenenter"",""1"",""5013""
","
",,null,run_exp/static/images/task_images/gems/5.jpg,null,,,,,,,1,,,2,,,,,5,0.227583673,0.2,,,,,,,
decision,85,419788,0.0-29.0-2.0,"""event"",""trial"",""time""
""fullscreenenter"",""1"",""5013""
","
","
","""event"",""trial"",""time""
""fullscreenenter"",""1"",""5013""
","
",,577.6,run_exp/static/images/task_images/land.jpg,65,,,,,,,1,,,2,,,,,,,,47852,1,2,FALSE,,,
dig,86,422227,0.0-30.0-0.0,"""event"",""trial"",""time""
""fullscreenenter"",""1"",""5013""
","
","
","""event"",""trial"",""time""
""fullscreenenter"",""1"",""5013""
","
",,,,,,,,,,,,"[{""stimulus"":""run_exp/static/images/task_images/dig.jpg"",""time"":0.8000000007450581},{""stimulus"":""run_exp/static/images/task_images/land.jpg"",""time"":811.5},{""stimulus"":""run_exp/static/images/task_images/dig.jpg"",""time"":1620.7000000011176}]",[],2,,,,,,,,,,,,,,
harvest,87,423231,0.0-30.0-1.0,"""event"",""trial"",""time""
""fullscreenenter"",""1"",""5013""
","
","
","""event"",""trial"",""time""
""fullscreenenter"",""1"",""5013""
","
",,null,run_exp/static/images/task_images/gems/1.jpg,null,,,,,,,0,,,2,,,,,1,0.208896998,0,,,,,,,
decision,88,423317,0.0-30.0-2.0,"""event"",""trial"",""time""
""fullscreenenter"",""1"",""5013""
","
","
","""event"",""trial"",""time""
""fullscreenenter"",""1"",""5013""
","
",,80,run_exp/static/images/task_images/land.jpg,65,,,,,,,0,,,2,,,,,,,,51380,1,3,FALSE,,,
dig,89,426294,0.0-31.0-0.0,"""event"",""trial"",""time""
""fullscreenenter"",""1"",""5013""
","
","
","""event"",""trial"",""time""
""fullscreenenter"",""1"",""5013""
","
",,,,,,,,,,,,"[{""stimulus"":""run_exp/static/images/task_images/dig.jpg"",""time"":0.7000000011175871},{""stimulus"":""run_exp/static/images/task_images/land.jpg"",""time"":977.1000000014901},{""stimulus"":""run_exp/static/images/task_images/dig.jpg"",""time"":1954}]",[],2,,,,,,,,,,,,,,
harvest,90,427300,0.0-31.0-1.0,"""event"",""trial"",""time""
""fullscreenenter"",""1"",""5013""
","
","
","""event"",""trial"",""time""
""fullscreenenter"",""1"",""5013""
","
",,null,run_exp/static/images/task_images/gems/0.jpg,null,,,,,,,0,,,2,,,,,0,0.185058016,NaN,,,,,,,
decision,91,428696,0.0-31.0-2.0,"""event"",""trial"",""time""
""fullscreenenter"",""1"",""5013""
","
","
","""event"",""trial"",""time""
""fullscreenenter"",""1"",""5013""
","
",,1386.6,run_exp/static/images/task_images/land.jpg,65,,,,,,,0,,,2,,,,,,,,56759,1,4,FALSE,,,
dig,92,430326,0.0-32.0-0.0,"""event"",""trial"",""time""
""fullscreenenter"",""1"",""5013""
","
","
","""event"",""trial"",""time""
""fullscreenenter"",""1"",""5013""
","
",,,,,,,,,,,,"[{""stimulus"":""run_exp/static/images/task_images/dig.jpg"",""time"":0.8000000007450581},{""stimulus"":""run_exp/static/images/task_images/land.jpg"",""time"":546.8000000007451},{""stimulus"":""run_exp/static/images/task_images/dig.jpg"",""time"":1078.300000000745}]",[],2,,,,,,,,,,,,,,
harvest,93,431333,0.0-32.0-1.0,"""event"",""trial"",""time""
""fullscreenenter"",""1"",""5013""
","
","
","""event"",""trial"",""time""
""fullscreenenter"",""1"",""5013""
","
",,null,run_exp/static/images/task_images/gems/0.jpg,null,,,,,,,0,,,2,,,,,0,0.143225072,NaN,,,,,,,
decision,94,431387,0.0-32.0-2.0,"""event"",""trial"",""time""
""fullscreenenter"",""1"",""5013""
","
","
","""event"",""trial"",""time""
""fullscreenenter"",""1"",""5013""
","
",,46.9,run_exp/static/images/task_images/land.jpg,76,,,,,,,0,,,2,,,,,,,,59451,1,5,TRUE,,,
travel,95,441353,0.0-33.0-0.0,"""event"",""trial"",""time""
""fullscreenenter"",""1"",""5013""
","
","
","""event"",""trial"",""time""
""fullscreenenter"",""1"",""5013""
","
",,,,,,,,,,,,"[{""stimulus"":""run_exp/static/images/task_images/rocket-01.jpg"",""time"":0.8999999985098839},{""stimulus"":""run_exp/static/images/task_images/rocket-02.jpg"",""time"":1110.5},{""stimulus"":""run_exp/static/images/task_images/rocket-03.jpg"",""time"":2218.5999999996275},{""stimulus"":""run_exp/static/images/task_images/rocket-04.jpg"",""time"":3320.39999999851},{""stimulus"":""run_exp/static/images/task_images/rocket-05.jpg"",""time"":4424.0999999996275},{""stimulus"":""run_exp/static/images/task_images/rocket-06.jpg"",""time"":5531.799999998882},{""stimulus"":""run_exp/static/images/task_images/rocket-07.jpg"",""time"":6639.0999999996275},{""stimulus"":""run_exp/static/images/task_images/rocket-08.jpg"",""time"":7740.699999999255},{""stimulus"":""run_exp/static/images/task_images/rocket-09.jpg"",""time"":8844}]",[],2,,,,,,,,,,,,,,
alien_welcome,96,446366,0.0-33.0-1.0,"""event"",""trial"",""time""
""fullscreenenter"",""1"",""5013""
","
","
","""event"",""trial"",""time""
""fullscreenenter"",""1"",""5013""
","
",,null,run_exp/static/images/task_images/aliens/old_aliens/planet/alien_planet-33.jpg,null,,,,,,,,,,,,,33,"24,59,33,69,58,60,47,7,65,37,71,43,41,79,11,63,19,21,75,40,25,67,32,20,68,45,16",,,,,,,,,,
land,97,446875,0.0-33.0-2.0,"""event"",""trial"",""time""
""fullscreenenter"",""1"",""5013""
","
","
","""event"",""trial"",""time""
""fullscreenenter"",""1"",""5013""
","
",,null,run_exp/static/images/task_images/land.jpg,null,,,,,,,108,,,3,,,,,,,,,,,,,,
dig,98,448889,0.0-33.0-3.0,"""event"",""trial"",""time""
""fullscreenenter"",""1"",""5013""
","
","
","""event"",""trial"",""time""
""fullscreenenter"",""1"",""5013""
","
",,,,,,,,,,,,"[{""stimulus"":""run_exp/static/images/task_images/dig.jpg"",""time"":1.099999999627471},{""stimulus"":""run_exp/static/images/task_images/land.jpg"",""time"":672},{""stimulus"":""run_exp/static/images/task_images/dig.jpg"",""time"":1340.5}]",[],3,,,,,,,,,,,,,,
harvest,99,449898,0.0-33.0-4.0,"""event"",""trial"",""time""
""fullscreenenter"",""1"",""5013""
","
","
","""event"",""trial"",""time""
""fullscreenenter"",""1"",""5013""
","
",,null,run_exp/static/images/task_images/gems/108.jpg,null,,,,,,,54,,,3,,,,,108,0.500861701,0.5,,,,,,,
decision,100,451016,0.0-33.0-5.0,"""event"",""trial"",""time""
""fullscreenenter"",""1"",""5013""
","
","
","""event"",""trial"",""time""
""fullscreenenter"",""1"",""5013""
","
",,1107.8,run_exp/static/images/task_images/land.jpg,65,,,,,,,54,,,3,,,,,,,,79079,1,0,FALSE,,,
dig,101,452924,0.0-34.0-0.0,"""event"",""trial"",""time""
""fullscreenenter"",""1"",""5013""
","
","
","""event"",""trial"",""time""
""fullscreenenter"",""1"",""5013""
","
",,,,,,,,,,,,"[{""stimulus"":""run_exp/static/images/task_images/dig.jpg"",""time"":0.6999999992549419},{""stimulus"":""run_exp/static/images/task_images/land.jpg"",""time"":634.4000000003725},{""stimulus"":""run_exp/static/images/task_images/dig.jpg"",""time"":1264.5999999996275}]",[],3,,,,,,,,,,,,,,
harvest,102,453932,0.0-34.0-1.0,"""event"",""trial"",""time""
""fullscreenenter"",""1"",""5013""
","
","
","""event"",""trial"",""time""
""fullscreenenter"",""1"",""5013""
","
",,null,run_exp/static/images/task_images/gems/54.jpg,null,,,,,,,23,,,3,,,,,54,0.43039191,0.425925926,,,,,,,
decision,103,455809,0.0-34.0-2.0,"""event"",""trial"",""time""
""fullscreenenter"",""1"",""5013""
","
","
","""event"",""trial"",""time""
""fullscreenenter"",""1"",""5013""
","
",,1867.7,run_exp/static/images/task_images/land.jpg,65,,,,,,,23,,,3,,,,,,,,83872,1,1,FALSE,,,
dig,104,456955,0.0-35.0-0.0,"""event"",""trial"",""time""
""fullscreenenter"",""1"",""5013""
","
","
","""event"",""trial"",""time""
""fullscreenenter"",""1"",""5013""
","
",,,,,,,,,,,,"[{""stimulus"":""run_exp/static/images/task_images/dig.jpg"",""time"":0.7000000011175871},{""stimulus"":""run_exp/static/images/task_images/land.jpg"",""time"":380.2000000011176},{""stimulus"":""run_exp/static/images/task_images/dig.jpg"",""time"":757.5}]",[],3,,,,,,,,,,,,,,
harvest,105,457960,0.0-35.0-1.0,"""event"",""trial"",""time""
""fullscreenenter"",""1"",""5013""
","
","
","""event"",""trial"",""time""
""fullscreenenter"",""1"",""5013""
","
",,null,run_exp/static/images/task_images/gems/23.jpg,null,,,,,,,11,,,3,,,,,23,0.48641531,0.47826087,,,,,,,
decision,106,458336,0.0-35.0-2.0,"""event"",""trial"",""time""
""fullscreenenter"",""1"",""5013""
","
","
","""event"",""trial"",""time""
""fullscreenenter"",""1"",""5013""
","
",,372.8,run_exp/static/images/task_images/land.jpg,65,,,,,,,11,,,3,,,,,,,,86400,1,2,FALSE,,,
dig,107,460979,0.0-36.0-0.0,"""event"",""trial"",""time""
""fullscreenenter"",""1"",""5013""
","
","
","""event"",""trial"",""time""
""fullscreenenter"",""1"",""5013""
","
",,,,,,,,,,,,"[{""stimulus"":""run_exp/static/images/task_images/dig.jpg"",""time"":0.6999999992549419},{""stimulus"":""run_exp/static/images/task_images/land.jpg"",""time"":879.2999999988824},{""stimulus"":""run_exp/static/images/task_images/dig.jpg"",""time"":1752.4000000003725}]",[],3,,,,,,,,,,,,,,
harvest,108,461987,0.0-36.0-1.0,"""event"",""trial"",""time""
""fullscreenenter"",""1"",""5013""
","
","
","""event"",""trial"",""time""
""fullscreenenter"",""1"",""5013""
","
",,null,run_exp/static/images/task_images/gems/11.jpg,null,,,,,,,5,,,3,,,,,11,0.489729695,0.454545455,,,,,,,
decision,109,462738,0.0-36.0-2.0,"""event"",""trial"",""time""
""fullscreenenter"",""1"",""5013""
","
","
","""event"",""trial"",""time""
""fullscreenenter"",""1"",""5013""
","
",,744.7,run_exp/static/images/task_images/land.jpg,65,,,,,,,5,,,3,,,,,,,,90801,1,3,FALSE,,,
dig,110,465002,0.0-37.0-0.0,"""event"",""trial"",""time""
""fullscreenenter"",""1"",""5013""
","
","
","""event"",""trial"",""time""
""fullscreenenter"",""1"",""5013""
","
",,,,,,,,,,,,"[{""stimulus"":""run_exp/static/images/task_images/dig.jpg"",""time"":0.7000000011175871},{""stimulus"":""run_exp/static/images/task_images/land.jpg"",""time"":756.3000000007451},{""stimulus"":""run_exp/static/images/task_images/dig.jpg"",""time"":1506.2000000011176}]",[],3,,,,,,,,,,,,,,
harvest,111,466008,0.0-37.0-1.0,"""event"",""trial"",""time""
""fullscreenenter"",""1"",""5013""
","
","
","""event"",""trial"",""time""
""fullscreenenter"",""1"",""5013""
","
",,null,run_exp/static/images/task_images/gems/5.jpg,null,,,,,,,2,,,3,,,,,5,0.477492715,0.4,,,,,,,
decision,112,466426,0.0-37.0-2.0,"""event"",""trial"",""time""
""fullscreenenter"",""1"",""5013""
","
","
","""event"",""trial"",""time""
""fullscreenenter"",""1"",""5013""
","
",,410.6,run_exp/static/images/task_images/land.jpg,65,,,,,,,2,,,3,,,,,,,,94489,1,4,FALSE,,,
dig,113,469030,0.0-38.0-0.0,"""event"",""trial"",""time""
""fullscreenenter"",""1"",""5013""
","
","
","""event"",""trial"",""time""
""fullscreenenter"",""1"",""5013""
","
",,,,,,,,,,,,"[{""stimulus"":""run_exp/static/images/task_images/dig.jpg"",""time"":0.6999999992549419},{""stimulus"":""run_exp/static/images/task_images/land.jpg"",""time"":867.4000000003725},{""stimulus"":""run_exp/static/images/task_images/dig.jpg"",""time"":1731.5999999996275}]",[],3,,,,,,,,,,,,,,
harvest,114,470036,0.0-38.0-1.0,"""event"",""trial"",""time""
""fullscreenenter"",""1"",""5013""
","
","
","""event"",""trial"",""time""
""fullscreenenter"",""1"",""5013""
","
",,null,run_exp/static/images/task_images/gems/2.jpg,null,,,,,,,1,,,3,,,,,2,0.46362547,0.5,,,,,,,
decision,115,470859,0.0-38.0-2.0,"""event"",""trial"",""time""
""fullscreenenter"",""1"",""5013""
","
","
","""event"",""trial"",""time""
""fullscreenenter"",""1"",""5013""
","
",,820.2,run_exp/static/images/task_images/land.jpg,65,,,,,,,1,,,3,,,,,,,,98923,1,5,FALSE,,,
dig,116,473054,0.0-39.0-0.0,"""event"",""trial"",""time""
""fullscreenenter"",""1"",""5013""
","
","
","""event"",""trial"",""time""
""fullscreenenter"",""1"",""5013""
","
",,,,,,,,,,,,"[{""stimulus"":""run_exp/static/images/task_images/dig.jpg"",""time"":1.8999999985098839},{""stimulus"":""run_exp/static/images/task_images/land.jpg"",""time"":736.5999999996275},{""stimulus"":""run_exp/static/images/task_images/dig.jpg"",""time"":1457.5}]",[],3,,,,,,,,,,,,,,
harvest,117,474060,0.0-39.0-1.0,"""event"",""trial"",""time""
""fullscreenenter"",""1"",""5013""
","
","
","""event"",""trial"",""time""
""fullscreenenter"",""1"",""5013""
","
",,null,run_exp/static/images/task_images/gems/1.jpg,null,,,,,,,0,,,3,,,,,1,0.481963055,0,,,,,,,
decision,118,474868,0.0-39.0-2.0,"""event"",""trial"",""time""
""fullscreenenter"",""1"",""5013""
","
","
","""event"",""trial"",""time""
""fullscreenenter"",""1"",""5013""
","
",,804.9,run_exp/static/images/task_images/land.jpg,65,,,,,,,0,,,3,,,,,,,,102931,1,6,FALSE,,,
dig,119,477074,0.0-40.0-0.0,"""event"",""trial"",""time""
""fullscreenenter"",""1"",""5013""
","
","
","""event"",""trial"",""time""
""fullscreenenter"",""1"",""5013""
","
",,,,,,,,,,,,"[{""stimulus"":""run_exp/static/images/task_images/dig.jpg"",""time"":0.7000000011175871},{""stimulus"":""run_exp/static/images/task_images/land.jpg"",""time"":733.9000000003725},{""stimulus"":""run_exp/static/images/task_images/dig.jpg"",""time"":1464.4000000003725}]",[],3,,,,,,,,,,,,,,
harvest,120,478080,0.0-40.0-1.0,"""event"",""trial"",""time""
""fullscreenenter"",""1"",""5013""
","
","
","""event"",""trial"",""time""
""fullscreenenter"",""1"",""5013""
","
",,null,run_exp/static/images/task_images/gems/0.jpg,null,,,,,,,0,,,3,,,,,0,0.513105759,NaN,,,,,,,
decision,121,479640,0.0-40.0-2.0,"""event"",""trial"",""time""
""fullscreenenter"",""1"",""5013""
","
","
","""event"",""trial"",""time""
""fullscreenenter"",""1"",""5013""
","
",,1553.9,run_exp/static/images/task_images/land.jpg,65,,,,,,,0,,,3,,,,,,,,107703,1,7,FALSE,,,
dig,122,481104,0.0-41.0-0.0,"""event"",""trial"",""time""
""fullscreenenter"",""1"",""5013""
","
","
","""event"",""trial"",""time""
""fullscreenenter"",""1"",""5013""
","
",,,,,,,,,,,,"[{""stimulus"":""run_exp/static/images/task_images/dig.jpg"",""time"":0.7999999988824129},{""stimulus"":""run_exp/static/images/task_images/land.jpg"",""time"":486.2999999988824},{""stimulus"":""run_exp/static/images/task_images/dig.jpg"",""time"":968.5}]",[],3,,,,,,,,,,,,,,
harvest,123,482109,0.0-41.0-1.0,"""event"",""trial"",""time""
""fullscreenenter"",""1"",""5013""
","
","
","""event"",""trial"",""time""
""fullscreenenter"",""1"",""5013""
","
",,null,run_exp/static/images/task_images/gems/0.jpg,null,,,,,,,0,,,3,,,,,0,0.506612825,NaN,,,,,,,
decision,124,483127,0.0-41.0-2.0,"""event"",""trial"",""time""
""fullscreenenter"",""1"",""5013""
","
","
","""event"",""trial"",""time""
""fullscreenenter"",""1"",""5013""
","
",,1009.1,run_exp/static/images/task_images/land.jpg,76,,,,,,,0,,,3,,,,,,,,111191,1,8,TRUE,,,
travel,125,492124,0.0-42.0-0.0,"""event"",""trial"",""time""
""fullscreenenter"",""1"",""5013""
","
","
","""event"",""trial"",""time""
""fullscreenenter"",""1"",""5013""
","
",,,,,,,,,,,,"[{""stimulus"":""run_exp/static/images/task_images/rocket-01.jpg"",""time"":0.6999999992549419},{""stimulus"":""run_exp/static/images/task_images/rocket-02.jpg"",""time"":1002},{""stimulus"":""run_exp/static/images/task_images/rocket-03.jpg"",""time"":2001},{""stimulus"":""run_exp/static/images/task_images/rocket-04.jpg"",""time"":2996.5},{""stimulus"":""run_exp/static/images/task_images/rocket-05.jpg"",""time"":3995.9000000003725},{""stimulus"":""run_exp/static/images/task_images/rocket-06.jpg"",""time"":4992.5},{""stimulus"":""run_exp/static/images/task_images/rocket-07.jpg"",""time"":5994.800000000745},{""stimulus"":""run_exp/static/images/task_images/rocket-08.jpg"",""time"":6989.300000000745},{""stimulus"":""run_exp/static/images/task_images/rocket-09.jpg"",""time"":7992.0999999996275}]",[],3,,,,,,,,,,,,,,
alien_welcome,126,497139,0.0-42.0-1.0,"""event"",""trial"",""time""
""fullscreenenter"",""1"",""5013""
","
","
","""event"",""trial"",""time""
""fullscreenenter"",""1"",""5013""
","
",,null,run_exp/static/images/task_images/aliens/old_aliens/planet/alien_planet-69.jpg,null,,,,,,,,,,,,,69,"24,59,33,69,58,60,47,7,65,37,71,43,41,79,11,63,19,21,75,40,25,67,32,20,68,45,16",,,,,,,,,,
land,127,497661,0.0-42.0-2.0,"""event"",""trial"",""time""
""fullscreenenter"",""1"",""5013""
","
","
","""event"",""trial"",""time""
""fullscreenenter"",""1"",""5013""
","
",,null,run_exp/static/images/task_images/land.jpg,null,,,,,,,108,,,4,,,,,,,,,,,,,,
dig,128,499675,0.0-42.0-3.0,"""event"",""trial"",""time""
""fullscreenenter"",""1"",""5013""
","
","
","""event"",""trial"",""time""
""fullscreenenter"",""1"",""5013""
","
",,,,,,,,,,,,"[{""stimulus"":""run_exp/static/images/task_images/dig.jpg"",""time"":0.8000000007450581},{""stimulus"":""run_exp/static/images/task_images/land.jpg"",""time"":672.9000000003725},{""stimulus"":""run_exp/static/images/task_images/dig.jpg"",""time"":1340.0999999996275}]",[],4,,,,,,,,,,,,,,
harvest,129,500680,0.0-42.0-4.0,"""event"",""trial"",""time""
""fullscreenenter"",""1"",""5013""
","
","
","""event"",""trial"",""time""
""fullscreenenter"",""1"",""5013""
","
",,null,run_exp/static/images/task_images/gems/108.jpg,null,,,,,,,50,,,4,,,,,108,0.46742065,0.462962963,,,,,,,
decision,130,501550,0.0-42.0-5.0,"""event"",""trial"",""time""
""fullscreenenter"",""1"",""5013""
","
","
","""event"",""trial"",""time""
""fullscreenenter"",""1"",""5013""
","
",,866,run_exp/static/images/task_images/land.jpg,65,,,,,,,50,,,4,,,,,,,,129613,1,0,FALSE,,,
dig,131,503707,0.0-43.0-0.0,"""event"",""trial"",""time""
""fullscreenenter"",""1"",""5013""
","
","
","""event"",""trial"",""time""
""fullscreenenter"",""1"",""5013""
","
",,,,,,,,,,,,"[{""stimulus"":""run_exp/static/images/task_images/dig.jpg"",""time"":0.6999999992549419},{""stimulus"":""run_exp/static/images/task_images/land.jpg"",""time"":714},{""stimulus"":""run_exp/static/images/task_images/dig.jpg"",""time"":1427}]",[],4,,,,,,,,,,,,,,
harvest,132,504714,0.0-43.0-1.0,"""event"",""trial"",""time""
""fullscreenenter"",""1"",""5013""
","
","
","""event"",""trial"",""time""
""fullscreenenter"",""1"",""5013""
","
",,null,run_exp/static/images/task_images/gems/50.jpg,null,,,,,,,23,,,4,,,,,50,0.463455421,0.46,,,,,,,
decision,133,505413,0.0-43.0-2.0,"""event"",""trial"",""time""
""fullscreenenter"",""1"",""5013""
","
","
","""event"",""trial"",""time""
""fullscreenenter"",""1"",""5013""
","
",,694.1,run_exp/static/images/task_images/land.jpg,65,,,,,,,23,,,4,,,,,,,,133477,1,1,FALSE,,,
dig,134,507735,0.0-44.0-0.0,"""event"",""trial"",""time""
""fullscreenenter"",""1"",""5013""
","
","
","""event"",""trial"",""time""
""fullscreenenter"",""1"",""5013""
","
",,,,,,,,,,,,"[{""stimulus"":""run_exp/static/images/task_images/dig.jpg"",""time"":2.5},{""stimulus"":""run_exp/static/images/task_images/land.jpg"",""time"":773.2999999988824},{""stimulus"":""run_exp/static/images/task_images/dig.jpg"",""time"":1542.0999999996275}]",[],4,,,,,,,,,,,,,,
harvest,135,508738,0.0-44.0-1.0,"""event"",""trial"",""time""
""fullscreenenter"",""1"",""5013""
","
","
","""event"",""trial"",""time""
""fullscreenenter"",""1"",""5013""
","
",,null,run_exp/static/images/task_images/gems/23.jpg,null,,,,,,,13,,,4,,,,,23,0.569405927,0.565217391,,,,,,,
decision,136,509741,0.0-44.0-2.0,"""event"",""trial"",""time""
""fullscreenenter"",""1"",""5013""
","
","
","""event"",""trial"",""time""
""fullscreenenter"",""1"",""5013""
","
",,998.1,run_exp/static/images/task_images/land.jpg,65,,,,,,,13,,,4,,,,,,,,137804,1,2,FALSE,,,
dig,137,511759,0.0-45.0-0.0,"""event"",""trial"",""time""
""fullscreenenter"",""1"",""5013""
","
","
","""event"",""trial"",""time""
""fullscreenenter"",""1"",""5013""
","
",,,,,,,,,,,,"[{""stimulus"":""run_exp/static/images/task_images/dig.jpg"",""time"":0.7000000011175871},{""stimulus"":""run_exp/static/images/task_images/land.jpg"",""time"":670.9000000003725},{""stimulus"":""run_exp/static/images/task_images/dig.jpg"",""time"":1346}]",[],4,,,,,,,,,,,,,,
harvest,138,512763,0.0-45.0-1.0,"""event"",""trial"",""time""
""fullscreenenter"",""1"",""5013""
","
","
","""event"",""trial"",""time""
""fullscreenenter"",""1"",""5013""
","
",,null,run_exp/static/images/task_images/gems/13.jpg,null,,,,,,,7,,,4,,,,,13,0.547657216,0.538461538,,,,,,,
decision,139,513392,0.0-45.0-2.0,"""event"",""trial"",""time""
""fullscreenenter"",""1"",""5013""
","
","
","""event"",""trial"",""time""
""fullscreenenter"",""1"",""5013""
","
",,609.1,run_exp/static/images/task_images/land.jpg,65,,,,,,,7,,,4,,,,,,,,141455,1,3,FALSE,,,
dig,140,515799,0.0-46.0-0.0,"""event"",""trial"",""time""
""fullscreenenter"",""1"",""5013""
","
","
","""event"",""trial"",""time""
""fullscreenenter"",""1"",""5013""
","
",,,,,,,,,,,,"[{""stimulus"":""run_exp/static/images/task_images/dig.jpg"",""time"":0.6999999992549419},{""stimulus"":""run_exp/static/images/task_images/land.jpg"",""time"":802.6999999992549},{""stimulus"":""run_exp/static/images/task_images/dig.jpg"",""time"":1599.300000000745}]",[],4,,,,,,,,,,,,,,
harvest,141,516808,0.0-46.0-1.0,"""event"",""trial"",""time""
""fullscreenenter"",""1"",""5013""
","
","
","""event"",""trial"",""time""
""fullscreenenter"",""1"",""5013""
","
",,null,run_exp/static/images/task_images/gems/7.jpg,null,,,,,,,3,,,4,,,,,7,0.421168414,0.428571429,,,,,,,
decision,142,517394,0.0-46.0-2.0,"""event"",""trial"",""time""
""fullscreenenter"",""1"",""5013""
","
","
","""event"",""trial"",""time""
""fullscreenenter"",""1"",""5013""
","
",,582.3,run_exp/static/images/task_images/land.jpg,65,,,,,,,3,,,4,,,,,,,,145458,1,4,FALSE,,,
dig,143,519830,0.0-47.0-0.0,"""event"",""trial"",""time""
""fullscreenenter"",""1"",""5013""
","
","
","""event"",""trial"",""time""
""fullscreenenter"",""1"",""5013""
","
",,,,,,,,,,,,"[{""stimulus"":""run_exp/static/images/task_images/dig.jpg"",""time"":0.7000000011175871},{""stimulus"":""run_exp/static/images/task_images/land.jpg"",""time"":808.3000000007451},{""stimulus"":""run_exp/static/images/task_images/dig.jpg"",""time"":1614.6000000014901}]",[],4,,,,,,,,,,,,,,
harvest,144,520835,0.0-47.0-1.0,"""event"",""trial"",""time""
""fullscreenenter"",""1"",""5013""
","
","
","""event"",""trial"",""time""
""fullscreenenter"",""1"",""5013""
","
",,null,run_exp/static/images/task_images/gems/3.jpg,null,,,,,,,1,,,4,,,,,3,0.477558751,0.333333333,,,,,,,
decision,145,522255,0.0-47.0-2.0,"""event"",""trial"",""time""
""fullscreenenter"",""1"",""5013""
","
","
","""event"",""trial"",""time""
""fullscreenenter"",""1"",""5013""
","
",,1416.5,run_exp/static/images/task_images/land.jpg,65,,,,,,,1,,,4,,,,,,,,150318,1,5,FALSE,,,
dig,146,523850,0.0-48.0-0.0,"""event"",""trial"",""time""
""fullscreenenter"",""1"",""5013""
","
","
","""event"",""trial"",""time""
""fullscreenenter"",""1"",""5013""
","
",,,,,,,,,,,,"[{""stimulus"":""run_exp/static/images/task_images/dig.jpg"",""time"":0.8000000007450581},{""stimulus"":""run_exp/static/images/task_images/land.jpg"",""time"":531.1999999992549},{""stimulus"":""run_exp/static/images/task_images/dig.jpg"",""time"":1058.199999999255}]",[],4,,,,,,,,,,,,,,
harvest,147,524857,0.0-48.0-1.0,"""event"",""trial"",""time""
""fullscreenenter"",""1"",""5013""
","
","
","""event"",""trial"",""time""
""fullscreenenter"",""1"",""5013""
","
",,null,run_exp/static/images/task_images/gems/1.jpg,null,,,,,,,1,,,4,,,,,1,0.545713522,1,,,,,,,
decision,148,525975,0.0-48.0-2.0,"""event"",""trial"",""time""
""fullscreenenter"",""1"",""5013""
","
","
","""event"",""trial"",""time""
""fullscreenenter"",""1"",""5013""
","
",,1114.3,run_exp/static/images/task_images/land.jpg,65,,,,,,,1,,,4,,,,,,,,154038,1,6,FALSE,,,
dig,149,527883,0.0-49.0-0.0,"""event"",""trial"",""time""
""fullscreenenter"",""1"",""5013""
","
","
","""event"",""trial"",""time""
""fullscreenenter"",""1"",""5013""
","
",,,,,,,,,,,,"[{""stimulus"":""run_exp/static/images/task_images/dig.jpg"",""time"":0.6999999992549419},{""stimulus"":""run_exp/static/images/task_images/land.jpg"",""time"":633.8999999985099},{""stimulus"":""run_exp/static/images/task_images/dig.jpg"",""time"":1262.7999999988824}]",[],4,,,,,,,,,,,,,,
harvest,150,528887,0.0-49.0-1.0,"""event"",""trial"",""time""
""fullscreenenter"",""1"",""5013""
","
","
","""event"",""trial"",""time""
""fullscreenenter"",""1"",""5013""
","
",,null,run_exp/static/images/task_images/gems/1.jpg,null,,,,,,,1,,,4,,,,,1,0.51541008,1,,,,,,,
decision,151,529282,0.0-49.0-2.0,"""event"",""trial"",""time""
""fullscreenenter"",""1"",""5013""
","
","
","""event"",""trial"",""time""
""fullscreenenter"",""1"",""5013""
","
",,382.9,run_exp/static/images/task_images/land.jpg,65,,,,,,,0,,,4,,,,,,,,157345,1,7,FALSE,,,
dig,152,531914,0.0-50.0-0.0,"""event"",""trial"",""time""
""fullscreenenter"",""1"",""5013""
","
","
","""event"",""trial"",""time""
""fullscreenenter"",""1"",""5013""
","
",,,,,,,,,,,,"[{""stimulus"":""run_exp/static/images/task_images/dig.jpg"",""time"":0.8000000007450581},{""stimulus"":""run_exp/static/images/task_images/land.jpg"",""time"":876.6000000014901},{""stimulus"":""run_exp/static/images/task_images/dig.jpg"",""time"":1749.5}]",[],4,,,,,,,,,,,,,,
harvest,153,532919,0.0-50.0-1.0,"""event"",""trial"",""time""
""fullscreenenter"",""1"",""5013""
","
","
","""event"",""trial"",""time""
""fullscreenenter"",""1"",""5013""
","
",,null,run_exp/static/images/task_images/gems/0.jpg,null,,,,,,,0,,,4,,,,,0,0.448194114,NaN,,,,,,,
decision,154,534467,0.0-50.0-2.0,"""event"",""trial"",""time""
""fullscreenenter"",""1"",""5013""
","
","
","""event"",""trial"",""time""
""fullscreenenter"",""1"",""5013""
","
",,1541.3,run_exp/static/images/task_images/land.jpg,76,,,,,,,0,,,4,,,,,,,,162531,1,8,TRUE,,,
travel,155,542938,0.0-51.0-0.0,"""event"",""trial"",""time""
""fullscreenenter"",""1"",""5013""
","
","
","""event"",""trial"",""time""
""fullscreenenter"",""1"",""5013""
","
",,,,,,,,,,,,"[{""stimulus"":""run_exp/static/images/task_images/rocket-01.jpg"",""time"":0.7000000011175871},{""stimulus"":""run_exp/static/images/task_images/rocket-02.jpg"",""time"":944.0999999996275},{""stimulus"":""run_exp/static/images/task_images/rocket-03.jpg"",""time"":1884.4000000003725},{""stimulus"":""run_exp/static/images/task_images/rocket-04.jpg"",""time"":2824.300000000745},{""stimulus"":""run_exp/static/images/task_images/rocket-05.jpg"",""time"":3759.300000000745},{""stimulus"":""run_exp/static/images/task_images/rocket-06.jpg"",""time"":4699.200000001118},{""stimulus"":""run_exp/static/images/task_images/rocket-07.jpg"",""time"":5637.4000000003725},{""stimulus"":""run_exp/static/images/task_images/rocket-08.jpg"",""time"":6578.4000000003725},{""stimulus"":""run_exp/static/images/task_images/rocket-09.jpg"",""time"":7517.9000000003725}]",[],4,,,,,,,,,,,,,,
alien_welcome,156,547949,0.0-51.0-1.0,"""event"",""trial"",""time""
""fullscreenenter"",""1"",""5013""
","
","
","""event"",""trial"",""time""
""fullscreenenter"",""1"",""5013""
","
",,null,run_exp/static/images/task_images/aliens/old_aliens/planet/alien_planet-58.jpg,null,,,,,,,,,,,,,58,"24,59,33,69,58,60,47,7,65,37,71,43,41,79,11,63,19,21,75,40,25,67,32,20,68,45,16",,,,,,,,,,
land,157,548459,0.0-51.0-2.0,"""event"",""trial"",""time""
""fullscreenenter"",""1"",""5013""
","
","
","""event"",""trial"",""time""
""fullscreenenter"",""1"",""5013""
","
",,null,run_exp/static/images/task_images/land.jpg,null,,,,,,,97,,,5,,,,,,,,,,,,,,
dig,158,550470,0.0-51.0-3.0,"""event"",""trial"",""time""
""fullscreenenter"",""1"",""5013""
","
","
","""event"",""trial"",""time""
""fullscreenenter"",""1"",""5013""
","
",,,,,,,,,,,,"[{""stimulus"":""run_exp/static/images/task_images/dig.jpg"",""time"":0.7999999988824129},{""stimulus"":""run_exp/static/images/task_images/land.jpg"",""time"":670.7999999988824},{""stimulus"":""run_exp/static/images/task_images/dig.jpg"",""time"":1338.0999999996275}]",[],5,,,,,,,,,,,,,,
harvest,159,551480,0.0-51.0-4.0,"""event"",""trial"",""time""
""fullscreenenter"",""1"",""5013""
","
","
","""event"",""trial"",""time""
""fullscreenenter"",""1"",""5013""
","
",,null,run_exp/static/images/task_images/gems/97.jpg,null,,,,,,,42,,,5,,,,,97,0.432994882,0.432989691,,,,,,,
decision,160,552457,0.0-51.0-5.0,"""event"",""trial"",""time""
""fullscreenenter"",""1"",""5013""
","
","
","""event"",""trial"",""time""
""fullscreenenter"",""1"",""5013""
","
",,973.2,run_exp/static/images/task_images/land.jpg,65,,,,,,,42,,,5,,,,,,,,180520,1,0,FALSE,,,
dig,161,554495,0.0-52.0-0.0,"""event"",""trial"",""time""
""fullscreenenter"",""1"",""5013""
","
","
","""event"",""trial"",""time""
""fullscreenenter"",""1"",""5013""
","
",,,,,,,,,,,,"[{""stimulus"":""run_exp/static/images/task_images/dig.jpg"",""time"":0.599999999627471},{""stimulus"":""run_exp/static/images/task_images/land.jpg"",""time"":684.2999999988824},{""stimulus"":""run_exp/static/images/task_images/dig.jpg"",""time"":1352.7999999988824}]",[],5,,,,,,,,,,,,,,
harvest,162,555501,0.0-52.0-1.0,"""event"",""trial"",""time""
""fullscreenenter"",""1"",""5013""
","
","
","""event"",""trial"",""time""
""fullscreenenter"",""1"",""5013""
","
",,null,run_exp/static/images/task_images/gems/42.jpg,null,,,,,,,19,,,5,,,,,42,0.456421262,0.452380952,,,,,,,
decision,163,558511,0.0-52.0-2.0,"""event"",""trial"",""time""
""fullscreenenter"",""1"",""5013""
","
","
","""event"",""trial"",""time""
""fullscreenenter"",""1"",""5013""
","
",,null,run_exp/static/images/task_images/land.jpg,null,,,,,,,19,,,5,,,,,,,,186575,1,1,FALSE,,,
time_out,164,560536,0.0-53.0-0.0,"""event"",""trial"",""time""
""fullscreenenter"",""1"",""5013""
","
","
","""event"",""trial"",""time""
""fullscreenenter"",""1"",""5013""
","
",,null,run_exp/static/images/task_images/time_out.jpg,null,,,,,,,19,,,,,,,,,,,,,,,,,
decision,165,560561,0.0-53.0-1.0,"""event"",""trial"",""time""
""fullscreenenter"",""1"",""5013""
","
","
","""event"",""trial"",""time""
""fullscreenenter"",""1"",""5013""
","
",,15.1,run_exp/static/images/task_images/land.jpg,65,,,,,,,19,,,5,,,,,,,,188625,1,1,FALSE,,,
dig,166,563559,0.0-54.0-0.0,"""event"",""trial"",""time""
""fullscreenenter"",""1"",""5013""
","
","
","""event"",""trial"",""time""
""fullscreenenter"",""1"",""5013""
","
",,,,,,,,,,,,"[{""stimulus"":""run_exp/static/images/task_images/dig.jpg"",""time"":0.6999999992549419},{""stimulus"":""run_exp/static/images/task_images/land.jpg"",""time"":997.1999999992549},{""stimulus"":""run_exp/static/images/task_images/dig.jpg"",""time"":1993.800000000745}]",[],5,,,,,,,,,,,,,,
harvest,167,564568,0.0-54.0-1.0,"""event"",""trial"",""time""
""fullscreenenter"",""1"",""5013""
","
","
","""event"",""trial"",""time""
""fullscreenenter"",""1"",""5013""
","
",,null,run_exp/static/images/task_images/gems/19.jpg,null,,,,,,,9,,,5,,,,,19,0.497824553,0.473684211,,,,,,,
decision,168,566516,0.0-54.0-2.0,"""event"",""trial"",""time""
""fullscreenenter"",""1"",""5013""
","
","
","""event"",""trial"",""time""
""fullscreenenter"",""1"",""5013""
","
",,1942.8,run_exp/static/images/task_images/land.jpg,65,,,,,,,9,,,5,,,,,,,,194580,1,2,FALSE,,,
dig,169,567591,0.0-55.0-0.0,"""event"",""trial"",""time""
""fullscreenenter"",""1"",""5013""
","
","
","""event"",""trial"",""time""
""fullscreenenter"",""1"",""5013""
","
",,,,,,,,,,,,"[{""stimulus"":""run_exp/static/images/task_images/dig.jpg"",""time"":0.6999999992549419},{""stimulus"":""run_exp/static/images/task_images/land.jpg"",""time"":355.09999999962747},{""stimulus"":""run_exp/static/images/task_images/dig.jpg"",""time"":707.0999999996275}]",[],5,,,,,,,,,,,,,,
harvest,170,568601,0.0-55.0-1.0,"""event"",""trial"",""time""
""fullscreenenter"",""1"",""5013""
","
","
","""event"",""trial"",""time""
""fullscreenenter"",""1"",""5013""
","
",,null,run_exp/static/images/task_images/gems/9.jpg,null,,,,,,,5,,,5,,,,,9,0.524816465,0.555555556,,,,,,,
decision,171,570211,0.0-55.0-2.0,"""event"",""trial"",""time""
""fullscreenenter"",""1"",""5013""
","
","
","""event"",""trial"",""time""
""fullscreenenter"",""1"",""5013""
","
",,1606.7,run_exp/static/images/task_images/land.jpg,76,,,,,,,5,,,5,,,,,,,,198274,1,3,TRUE,,,
travel,172,578617,0.0-56.0-0.0,"""event"",""trial"",""time""
""fullscreenenter"",""1"",""5013""
","
","
","""event"",""trial"",""time""
""fullscreenenter"",""1"",""5013""
","
",,,,,,,,,,,,"[{""stimulus"":""run_exp/static/images/task_images/rocket-01.jpg"",""time"":1},{""stimulus"":""run_exp/static/images/task_images/rocket-02.jpg"",""time"":936.5999999996275},{""stimulus"":""run_exp/static/images/task_images/rocket-03.jpg"",""time"":1868},{""stimulus"":""run_exp/static/images/task_images/rocket-04.jpg"",""time"":2800.39999999851},{""stimulus"":""run_exp/static/images/task_images/rocket-05.jpg"",""time"":3733.199999999255},{""stimulus"":""run_exp/static/images/task_images/rocket-06.jpg"",""time"":4666.199999999255},{""stimulus"":""run_exp/static/images/task_images/rocket-07.jpg"",""time"":5596.0999999996275},{""stimulus"":""run_exp/static/images/task_images/rocket-08.jpg"",""time"":6528.0999999996275},{""stimulus"":""run_exp/static/images/task_images/rocket-09.jpg"",""time"":7469.799999998882}]",[],5,,,,,,,,,,,,,,
alien_welcome,173,583628,0.0-56.0-1.0,"""event"",""trial"",""time""
""fullscreenenter"",""1"",""5013""
","
","
","""event"",""trial"",""time""
""fullscreenenter"",""1"",""5013""
","
",,null,run_exp/static/images/task_images/aliens/old_aliens/planet/alien_planet-60.jpg,null,,,,,,,,,,,,,60,"24,59,33,69,58,60,47,7,65,37,71,43,41,79,11,63,19,21,75,40,25,67,32,20,68,45,16",,,,,,,,,,
land,174,584137,0.0-56.0-2.0,"""event"",""trial"",""time""
""fullscreenenter"",""1"",""5013""
","
","
","""event"",""trial"",""time""
""fullscreenenter"",""1"",""5013""
","
",,null,run_exp/static/images/task_images/land.jpg,null,,,,,,,99,,,6,,,,,,,,,,,,,,
dig,175,586151,0.0-56.0-3.0,"""event"",""trial"",""time""
""fullscreenenter"",""1"",""5013""
","
","
","""event"",""trial"",""time""
""fullscreenenter"",""1"",""5013""
","
",,,,,,,,,,,,"[{""stimulus"":""run_exp/static/images/task_images/dig.jpg"",""time"":0.8000000007450581},{""stimulus"":""run_exp/static/images/task_images/land.jpg"",""time"":670.1999999992549},{""stimulus"":""run_exp/static/images/task_images/dig.jpg"",""time"":1341.699999999255}]",[],6,,,,,,,,,,,,,,
harvest,176,587155,0.0-56.0-4.0,"""event"",""trial"",""time""
""fullscreenenter"",""1"",""5013""
","
","
","""event"",""trial"",""time""
""fullscreenenter"",""1"",""5013""
","
",,null,run_exp/static/images/task_images/gems/99.jpg,null,,,,,,,84,,,6,,,,,99,0.85291195,0.848484848,,,,,,,
decision,177,587713,0.0-56.0-5.0,"""event"",""trial"",""time""
""fullscreenenter"",""1"",""5013""
","
","
","""event"",""trial"",""time""
""fullscreenenter"",""1"",""5013""
","
",,541.9,run_exp/static/images/task_images/land.jpg,65,,,,,,,84,,,6,,,,,,,,215777,1,0,FALSE,,,
dig,178,590190,0.0-57.0-0.0,"""event"",""trial"",""time""
""fullscreenenter"",""1"",""5013""
","
","
","""event"",""trial"",""time""
""fullscreenenter"",""1"",""5013""
","
",,,,,,,,,,,,"[{""stimulus"":""run_exp/static/images/task_images/dig.jpg"",""time"":1.599999999627471},{""stimulus"":""run_exp/static/images/task_images/land.jpg"",""time"":823.5999999996275},{""stimulus"":""run_exp/static/images/task_images/dig.jpg"",""time"":1643.3999999985099}]",[],6,,,,,,,,,,,,,,
harvest,179,591193,0.0-57.0-1.0,"""event"",""trial"",""time""
""fullscreenenter"",""1"",""5013""
","
","
","""event"",""trial"",""time""
""fullscreenenter"",""1"",""5013""
","
",,null,run_exp/static/images/task_images/gems/84.jpg,null,,,,,,,71,,,6,,,,,84,0.844378811,0.845238095,,,,,,,
decision,180,592574,0.0-57.0-2.0,"""event"",""trial"",""time""
""fullscreenenter"",""1"",""5013""
","
","
","""event"",""trial"",""time""
""fullscreenenter"",""1"",""5013""
","
",,1375.7,run_exp/static/images/task_images/land.jpg,65,,,,,,,71,,,6,,,,,,,,220637,1,1,FALSE,,,
dig,181,594217,0.0-58.0-0.0,"""event"",""trial"",""time""
""fullscreenenter"",""1"",""5013""
","
","
","""event"",""trial"",""time""
""fullscreenenter"",""1"",""5013""
","
",,,,,,,,,,,,"[{""stimulus"":""run_exp/static/images/task_images/dig.jpg"",""time"":1},{""stimulus"":""run_exp/static/images/task_images/land.jpg"",""time"":548.9000000003725},{""stimulus"":""run_exp/static/images/task_images/dig.jpg"",""time"":1089.199999999255}]",[],6,,,,,,,,,,,,,,
harvest,182,595224,0.0-58.0-1.0,"""event"",""trial"",""time""
""fullscreenenter"",""1"",""5013""
","
","
","""event"",""trial"",""time""
""fullscreenenter"",""1"",""5013""
","
",,null,run_exp/static/images/task_images/gems/71.jpg,null,,,,,,,58,,,6,,,,,71,0.819075002,0.816901408,,,,,,,
decision,183,595909,0.0-58.0-2.0,"""event"",""trial"",""time""
""fullscreenenter"",""1"",""5013""
","
","
","""event"",""trial"",""time""
""fullscreenenter"",""1"",""5013""
","
",,681.4,run_exp/static/images/task_images/land.jpg,65,,,,,,,58,,,6,,,,,,,,223973,1,2,FALSE,,,
dig,184,598243,0.0-59.0-0.0,"""event"",""trial"",""time""
""fullscreenenter"",""1"",""5013""
","
","
","""event"",""trial"",""time""
""fullscreenenter"",""1"",""5013""
","
",,,,,,,,,,,,"[{""stimulus"":""run_exp/static/images/task_images/dig.jpg"",""time"":0.599999999627471},{""stimulus"":""run_exp/static/images/task_images/land.jpg"",""time"":774.5},{""stimulus"":""run_exp/static/images/task_images/dig.jpg"",""time"":1548.2999999988824}]",[],6,,,,,,,,,,,,,,
harvest,185,599253,0.0-59.0-1.0,"""event"",""trial"",""time""
""fullscreenenter"",""1"",""5013""
","
","
","""event"",""trial"",""time""
""fullscreenenter"",""1"",""5013""
","
",,null,run_exp/static/images/task_images/gems/58.jpg,null,,,,,,,49,,,6,,,,,58,0.850853264,0.844827586,,,,,,,
decision,186,601016,0.0-59.0-2.0,"""event"",""trial"",""time""
""fullscreenenter"",""1"",""5013""
","
","
","""event"",""trial"",""time""
""fullscreenenter"",""1"",""5013""
","
",,1755.9,run_exp/static/images/task_images/land.jpg,65,,,,,,,49,,,6,,,,,,,,229080,1,3,FALSE,,,
dig,187,602274,0.0-60.0-0.0,"""event"",""trial"",""time""
""fullscreenenter"",""1"",""5013""
","
","
","""event"",""trial"",""time""
""fullscreenenter"",""1"",""5013""
","
",,,,,,,,,,,,"[{""stimulus"":""run_exp/static/images/task_images/dig.jpg"",""time"":0.6999999992549419},{""stimulus"":""run_exp/static/images/task_images/land.jpg"",""time"":417.90000000037253},{""stimulus"":""run_exp/static/images/task_images/dig.jpg"",""time"":831.1999999992549}]",[],6,,,,,,,,,,,,,,
harvest,188,603282,0.0-60.0-1.0,"""event"",""trial"",""time""
""fullscreenenter"",""1"",""5013""
","
","
","""event"",""trial"",""time""
""fullscreenenter"",""1"",""5013""
","
",,null,run_exp/static/images/task_images/gems/49.jpg,null,,,,,,,34,,,6,,,,,49,0.693201121,0.693877551,,,,,,,
decision,189,604049,0.0-60.0-2.0,"""event"",""trial"",""time""
""fullscreenenter"",""1"",""5013""
","
","
","""event"",""trial"",""time""
""fullscreenenter"",""1"",""5013""
","
",,761.1,run_exp/static/images/task_images/land.jpg,65,,,,,,,34,,,6,,,,,,,,232113,1,4,FALSE,,,
dig,190,606303,0.0-61.0-0.0,"""event"",""trial"",""time""
""fullscreenenter"",""1"",""5013""
","
","
","""event"",""trial"",""time""
""fullscreenenter"",""1"",""5013""
","
",,,,,,,,,,,,"[{""stimulus"":""run_exp/static/images/task_images/dig.jpg"",""time"":0.7000000011175871},{""stimulus"":""run_exp/static/images/task_images/land.jpg"",""time"":750.8000000007451},{""stimulus"":""run_exp/static/images/task_images/dig.jpg"",""time"":1494.9000000003725}]",[],6,,,,,,,,,,,,,,
harvest,191,607309,0.0-61.0-1.0,"""event"",""trial"",""time""
""fullscreenenter"",""1"",""5013""
","
","
","""event"",""trial"",""time""
""fullscreenenter"",""1"",""5013""
","
",,null,run_exp/static/images/task_images/gems/34.jpg,null,,,,,,,27,,,6,,,,,34,0.795995278,0.794117647,,,,,,,
decision,192,607993,0.0-61.0-2.0,"""event"",""trial"",""time""
""fullscreenenter"",""1"",""5013""
","
","
","""event"",""trial"",""time""
""fullscreenenter"",""1"",""5013""
","
",,679.2,run_exp/static/images/task_images/land.jpg,65,,,,,,,27,,,6,,,,,,,,236056,1,5,FALSE,,,
dig,193,610330,0.0-62.0-0.0,"""event"",""trial"",""time""
""fullscreenenter"",""1"",""5013""
","
","
","""event"",""trial"",""time""
""fullscreenenter"",""1"",""5013""
","
",,,,,,,,,,,,"[{""stimulus"":""run_exp/static/images/task_images/dig.jpg"",""time"":0.6999999992549419},{""stimulus"":""run_exp/static/images/task_images/land.jpg"",""time"":777.5999999996275},{""stimulus"":""run_exp/static/images/task_images/dig.jpg"",""time"":1550.5999999996275}]",[],6,,,,,,,,,,,,,,
harvest,194,611333,0.0-62.0-1.0,"""event"",""trial"",""time""
""fullscreenenter"",""1"",""5013""
","
","
","""event"",""trial"",""time""
""fullscreenenter"",""1"",""5013""
","
",,null,run_exp/static/images/task_images/gems/27.jpg,null,,,,,,,20,,,6,,,,,27,0.755509193,0.740740741,,,,,,,
decision,195,612178,0.0-62.0-2.0,"""event"",""trial"",""time""
""fullscreenenter"",""1"",""5013""
","
","
","""event"",""trial"",""time""
""fullscreenenter"",""1"",""5013""
","
",,841.5,run_exp/static/images/task_images/land.jpg,76,,,,,,,20,,,6,,,,,,,,240241,1,6,TRUE,,,
travel,196,621344,0.0-63.0-0.0,"""event"",""trial"",""time""
""fullscreenenter"",""1"",""5013""
","
","
","""event"",""trial"",""time""
""fullscreenenter"",""1"",""5013""
","
",,,,,,,,,,,,"[{""stimulus"":""run_exp/static/images/task_images/rocket-01.jpg"",""time"":0.8000000007450581},{""stimulus"":""run_exp/static/images/task_images/rocket-02.jpg"",""time"":1020},{""stimulus"":""run_exp/static/images/task_images/rocket-03.jpg"",""time"":2045.9000000003725},{""stimulus"":""run_exp/static/images/task_images/rocket-04.jpg"",""time"":3054.300000000745},{""stimulus"":""run_exp/static/images/task_images/rocket-05.jpg"",""time"":4071.300000000745},{""stimulus"":""run_exp/static/images/task_images/rocket-06.jpg"",""time"":5089.700000001118},{""stimulus"":""run_exp/static/images/task_images/rocket-07.jpg"",""time"":6105},{""stimulus"":""run_exp/static/images/task_images/rocket-08.jpg"",""time"":7122.200000001118},{""stimulus"":""run_exp/static/images/task_images/rocket-09.jpg"",""time"":8139.4000000003725}]",[],6,,,,,,,,,,,,,,
alien_welcome,197,626358,0.0-63.0-1.0,"""event"",""trial"",""time""
""fullscreenenter"",""1"",""5013""
","
","
","""event"",""trial"",""time""
""fullscreenenter"",""1"",""5013""
","
",,null,run_exp/static/images/task_images/aliens/old_aliens/planet/alien_planet-47.jpg,null,,,,,,,,,,,,,47,"24,59,33,69,58,60,47,7,65,37,71,43,41,79,11,63,19,21,75,40,25,67,32,20,68,45,16",,,,,,,,,,
land,198,626865,0.0-63.0-2.0,"""event"",""trial"",""time""
""fullscreenenter"",""1"",""5013""
","
","
","""event"",""trial"",""time""
""fullscreenenter"",""1"",""5013""
","
",,null,run_exp/static/images/task_images/land.jpg,null,,,,,,,95,,,7,,,,,,,,,,,,,,
dig,199,628883,0.0-63.0-3.0,"""event"",""trial"",""time""
""fullscreenenter"",""1"",""5013""
","
","
","""event"",""trial"",""time""
""fullscreenenter"",""1"",""5013""
","
",,,,,,,,,,,,"[{""stimulus"":""run_exp/static/images/task_images/dig.jpg"",""time"":0.6999999992549419},{""stimulus"":""run_exp/static/images/task_images/land.jpg"",""time"":670.0999999996275},{""stimulus"":""run_exp/static/images/task_images/dig.jpg"",""time"":1339.5999999996275}]",[],7,,,,,,,,,,,,,,
harvest,200,629891,0.0-63.0-4.0,"""event"",""trial"",""time""
""fullscreenenter"",""1"",""5013""
","
","
","""event"",""trial"",""time""
""fullscreenenter"",""1"",""5013""
","
",,null,run_exp/static/images/task_images/gems/95.jpg,null,,,,,,,80,,,7,,,,,95,0.839828047,0.842105263,,,,,,,
decision,201,630524,0.0-63.0-5.0,"""event"",""trial"",""time""
""fullscreenenter"",""1"",""5013""
","
","
","""event"",""trial"",""time""
""fullscreenenter"",""1"",""5013""
","
",,628.7,run_exp/static/images/task_images/land.jpg,65,,,,,,,80,,,7,,,,,,,,258587,1,0,FALSE,,,
dig,202,632914,0.0-64.0-0.0,"""event"",""trial"",""time""
""fullscreenenter"",""1"",""5013""
","
","
","""event"",""trial"",""time""
""fullscreenenter"",""1"",""5013""
","
",,,,,,,,,,,,"[{""stimulus"":""run_exp/static/images/task_images/dig.jpg"",""time"":0.7000000011175871},{""stimulus"":""run_exp/static/images/task_images/land.jpg"",""time"":793.5},{""stimulus"":""run_exp/static/images/task_images/dig.jpg"",""time"":1585}]",[],7,,,,,,,,,,,,,,
harvest,203,633922,0.0-64.0-1.0,"""event"",""trial"",""time""
""fullscreenenter"",""1"",""5013""
","
","
","""event"",""trial"",""time""
""fullscreenenter"",""1"",""5013""
","
",,null,run_exp/static/images/task_images/gems/80.jpg,null,,,,,,,70,,,7,,,,,80,0.868967817,0.875,,,,,,,
decision,204,634044,0.0-64.0-2.0,"""event"",""trial"",""time""
""fullscreenenter"",""1"",""5013""
","
","
","""event"",""trial"",""time""
""fullscreenenter"",""1"",""5013""
","
",,117.4,run_exp/static/images/task_images/land.jpg,65,,,,,,,70,,,7,,,,,,,,262108,1,1,FALSE,,,
dig,205,636938,0.0-65.0-0.0,"""event"",""trial"",""time""
""fullscreenenter"",""1"",""5013""
","
","
","""event"",""trial"",""time""
""fullscreenenter"",""1"",""5013""
","
",,,,,,,,,,,,"[{""stimulus"":""run_exp/static/images/task_images/dig.jpg"",""time"":0.7999999988824129},{""stimulus"":""run_exp/static/images/task_images/land.jpg"",""time"":962.8999999985099},{""stimulus"":""run_exp/static/images/task_images/dig.jpg"",""time"":1926.2999999988824}]",[],7,,,,,,,,,,,,,,
harvest,206,637946,0.0-65.0-1.0,"""event"",""trial"",""time""
""fullscreenenter"",""1"",""5013""
","
","
","""event"",""trial"",""time""
""fullscreenenter"",""1"",""5013""
","
",,null,run_exp/static/images/task_images/gems/70.jpg,null,,,,,,,58,,,7,,,,,70,0.827924144,0.828571429,,,,,,,
decision,207,638578,0.0-65.0-2.0,"""event"",""trial"",""time""
""fullscreenenter"",""1"",""5013""
","
","
","""event"",""trial"",""time""
""fullscreenenter"",""1"",""5013""
","
",,626.5,run_exp/static/images/task_images/land.jpg,65,,,,,,,58,,,7,,,,,,,,266642,1,2,FALSE,,,
dig,208,640970,0.0-66.0-0.0,"""event"",""trial"",""time""
""fullscreenenter"",""1"",""5013""
","
","
","""event"",""trial"",""time""
""fullscreenenter"",""1"",""5013""
","
",,,,,,,,,,,,"[{""stimulus"":""run_exp/static/images/task_images/dig.jpg"",""time"":0.8999999985098839},{""stimulus"":""run_exp/static/images/task_images/land.jpg"",""time"":802.3999999985099},{""stimulus"":""run_exp/static/images/task_images/dig.jpg"",""time"":1585.0999999996275}]",[],7,,,,,,,,,,,,,,
harvest,209,641977,0.0-66.0-1.0,"""event"",""trial"",""time""
""fullscreenenter"",""1"",""5013""
","
","
","""event"",""trial"",""time""
""fullscreenenter"",""1"",""5013""
","
",,null,run_exp/static/images/task_images/gems/58.jpg,null,,,,,,,47,,,7,,,,,58,0.807176357,0.810344828,,,,,,,
decision,210,642081,0.0-66.0-2.0,"""event"",""trial"",""time""
""fullscreenenter"",""1"",""5013""
","
","
","""event"",""trial"",""time""
""fullscreenenter"",""1"",""5013""
","
",,96.3,run_exp/static/images/task_images/land.jpg,65,,,,,,,47,,,7,,,,,,,,270145,1,3,FALSE,,,
dig,211,644999,0.0-67.0-0.0,"""event"",""trial"",""time""
""fullscreenenter"",""1"",""5013""
","
","
","""event"",""trial"",""time""
""fullscreenenter"",""1"",""5013""
","
",,,,,,,,,,,,"[{""stimulus"":""run_exp/static/images/task_images/dig.jpg"",""time"":0.7000000011175871},{""stimulus"":""run_exp/static/images/task_images/land.jpg"",""time"":969.8000000007451},{""stimulus"":""run_exp/static/images/task_images/dig.jpg"",""time"":1939}]",[],7,,,,,,,,,,,,,,
harvest,212,646009,0.0-67.0-1.0,"""event"",""trial"",""time""
""fullscreenenter"",""1"",""5013""
","
","
","""event"",""trial"",""time""
""fullscreenenter"",""1"",""5013""
","
",,null,run_exp/static/images/task_images/gems/47.jpg,null,,,,,,,36,,,7,,,,,47,0.769805645,0.765957447,,,,,,,
decision,213,647831,0.0-67.0-2.0,"""event"",""trial"",""time""
""fullscreenenter"",""1"",""5013""
","
","
","""event"",""trial"",""time""
""fullscreenenter"",""1"",""5013""
","
",,1818.1,run_exp/static/images/task_images/land.jpg,65,,,,,,,36,,,7,,,,,,,,275894,1,4,FALSE,,,
dig,214,649031,0.0-68.0-0.0,"""event"",""trial"",""time""
""fullscreenenter"",""1"",""5013""
","
","
","""event"",""trial"",""time""
""fullscreenenter"",""1"",""5013""
","
",,,,,,,,,,,,"[{""stimulus"":""run_exp/static/images/task_images/dig.jpg"",""time"":0.7999999988824129},{""stimulus"":""run_exp/static/images/task_images/land.jpg"",""time"":398.59999999962747},{""stimulus"":""run_exp/static/images/task_images/dig.jpg"",""time"":791}]",[],7,,,,,,,,,,,,,,
harvest,215,650040,0.0-68.0-1.0,"""event"",""trial"",""time""
""fullscreenenter"",""1"",""5013""
","
","
","""event"",""trial"",""time""
""fullscreenenter"",""1"",""5013""
","
",,null,run_exp/static/images/task_images/gems/36.jpg,null,,,,,,,28,,,7,,,,,36,0.786918782,0.777777778,,,,,,,
decision,216,650987,0.0-68.0-2.0,"""event"",""trial"",""time""
""fullscreenenter"",""1"",""5013""
","
","
","""event"",""trial"",""time""
""fullscreenenter"",""1"",""5013""
","
",,941.5,run_exp/static/images/task_images/land.jpg,65,,,,,,,28,,,7,,,,,,,,279050,1,5,FALSE,,,
dig,217,653062,0.0-69.0-0.0,"""event"",""trial"",""time""
""fullscreenenter"",""1"",""5013""
","
","
","""event"",""trial"",""time""
""fullscreenenter"",""1"",""5013""
","
",,,,,,,,,,,,"[{""stimulus"":""run_exp/static/images/task_images/dig.jpg"",""time"":0.900000000372529},{""stimulus"":""run_exp/static/images/task_images/land.jpg"",""time"":689.9000000003725},{""stimulus"":""run_exp/static/images/task_images/dig.jpg"",""time"":1376.300000000745}]",[],7,,,,,,,,,,,,,,
harvest,218,654067,0.0-69.0-1.0,"""event"",""trial"",""time""
""fullscreenenter"",""1"",""5013""
","
","
","""event"",""trial"",""time""
""fullscreenenter"",""1"",""5013""
","
",,null,run_exp/static/images/task_images/gems/28.jpg,null,,,,,,,24,,,7,,,,,28,0.842377614,0.857142857,,,,,,,
decision,219,654943,0.0-69.0-2.0,"""event"",""trial"",""time""
""fullscreenenter"",""1"",""5013""
","
","
","""event"",""trial"",""time""
""fullscreenenter"",""1"",""5013""
","
",,868.8,run_exp/static/images/task_images/land.jpg,65,,,,,,,24,,,7,,,,,,,,283008,1,6,FALSE,,,
dig,220,657094,0.0-70.0-0.0,"""event"",""trial"",""time""
""fullscreenenter"",""1"",""5013""
","
","
","""event"",""trial"",""time""
""fullscreenenter"",""1"",""5013""
","
",,,,,,,,,,,,"[{""stimulus"":""run_exp/static/images/task_images/dig.jpg"",""time"":0.7000000011175871},{""stimulus"":""run_exp/static/images/task_images/land.jpg"",""time"":716.4000000003725},{""stimulus"":""run_exp/static/images/task_images/dig.jpg"",""time"":1424.1000000014901}]",[],7,,,,,,,,,,,,,,
harvest,221,658099,0.0-70.0-1.0,"""event"",""trial"",""time""
""fullscreenenter"",""1"",""5013""
","
","
","""event"",""trial"",""time""
""fullscreenenter"",""1"",""5013""
","
",,null,run_exp/static/images/task_images/gems/24.jpg,null,,,,,,,20,,,7,,,,,24,0.853583516,0.833333333,,,,,,,
decision,222,661113,0.0-70.0-2.0,"""event"",""trial"",""time""
""fullscreenenter"",""1"",""5013""
","
","
","""event"",""trial"",""time""
""fullscreenenter"",""1"",""5013""
","
",,null,run_exp/static/images/task_images/land.jpg,null,,,,,,,20,,,7,,,,,,,,289177,1,7,FALSE,,,
time_out,223,663129,0.0-71.0-0.0,"""event"",""trial"",""time""
""fullscreenenter"",""1"",""5013""
","
","
","""event"",""trial"",""time""
""fullscreenenter"",""1"",""5013""
","
",,null,run_exp/static/images/task_images/time_out.jpg,null,,,,,,,20,,,,,,,,,,,,,,,,,
decision,224,663876,0.0-71.0-1.0,"""event"",""trial"",""time""
""fullscreenenter"",""1"",""5013""
","
","
","""event"",""trial"",""time""
""fullscreenenter"",""1"",""5013""
","
",,739.9,run_exp/static/images/task_images/land.jpg,65,,,,,,,20,,,7,,,,,,,,291940,1,7,FALSE,,,
dig,225,666153,0.0-72.0-0.0,"""event"",""trial"",""time""
""fullscreenenter"",""1"",""5013""
","
","
","""event"",""trial"",""time""
""fullscreenenter"",""1"",""5013""
","
",,,,,,,,,,,,"[{""stimulus"":""run_exp/static/images/task_images/dig.jpg"",""time"":0.7000000011175871},{""stimulus"":""run_exp/static/images/task_images/land.jpg"",""time"":757.6000000014901},{""stimulus"":""run_exp/static/images/task_images/dig.jpg"",""time"":1512.300000000745}]",[],7,,,,,,,,,,,,,,
harvest,226,667157,0.0-72.0-1.0,"""event"",""trial"",""time""
""fullscreenenter"",""1"",""5013""
","
","
","""event"",""trial"",""time""
""fullscreenenter"",""1"",""5013""
","
",,null,run_exp/static/images/task_images/gems/20.jpg,null,,,,,,,13,,,7,,,,,20,0.662475062,0.65,,,,,,,
decision,227,668140,0.0-72.0-2.0,"""event"",""trial"",""time""
""fullscreenenter"",""1"",""5013""
","
","
","""event"",""trial"",""time""
""fullscreenenter"",""1"",""5013""
","
",,973.2,run_exp/static/images/task_images/land.jpg,65,,,,,,,13,,,7,,,,,,,,296203,1,8,FALSE,,,
dig,228,670184,0.0-73.0-0.0,"""event"",""trial"",""time""
""fullscreenenter"",""1"",""5013""
","
","
","""event"",""trial"",""time""
""fullscreenenter"",""1"",""5013""
","
",,,,,,,,,,,,"[{""stimulus"":""run_exp/static/images/task_images/dig.jpg"",""time"":0.7999999988824129},{""stimulus"":""run_exp/static/images/task_images/land.jpg"",""time"":681.0999999996275},{""stimulus"":""run_exp/static/images/task_images/dig.jpg"",""time"":1354}]",[],7,,,,,,,,,,,,,,
harvest,229,671187,0.0-73.0-1.0,"""event"",""trial"",""time""
""fullscreenenter"",""1"",""5013""
","
","
","""event"",""trial"",""time""
""fullscreenenter"",""1"",""5013""
","
",,null,run_exp/static/images/task_images/gems/13.jpg,null,,,,,,,10,,,7,,,,,13,0.768093357,0.769230769,,,,,,,
decision,230,673574,0.0-73.0-2.0,"""event"",""trial"",""time""
""fullscreenenter"",""1"",""5013""
","
","
","""event"",""trial"",""time""
""fullscreenenter"",""1"",""5013""
","
",,2382.7,run_exp/static/images/task_images/land.jpg,65,,,,,,,10,,,7,,,,,,,,301637,1,9,TRUE,,,
end_of_block_continue,231,682595,0.0-74.0-0.0,"""event"",""trial"",""time""
""fullscreenenter"",""1"",""5013""
","
","
","""event"",""trial"",""time""
""fullscreenenter"",""1"",""5013""
","
",,null,run_exp/static/audio/clip_32_block_end.m4a,,,,,,,null,,,,,,,,,,,,,,,,,,
alien_welcome,232,687613,0.0-75.0-0.0,"""event"",""trial"",""time""
""fullscreenenter"",""1"",""5013""
","
","
","""event"",""trial"",""time""
""fullscreenenter"",""1"",""5013""
","
",,null,run_exp/static/images/task_images/aliens/old_aliens/planet/alien_planet-7.jpg,null,,,,,,,,,,,,,7,"24,59,33,69,58,60,47,7,65,37,71,43,41,79,11,63,19,21,75,40,25,67,32,20,68,45,16",,,,,,,,,,
land,233,688122,0.0-75.0-1.0,"""event"",""trial"",""time""
""fullscreenenter"",""1"",""5013""
""blur"",""234"",""692249""
""focus"",""234"",""692271""
""fullscreenexit"",""234"",""692273""
","""event"",""trial"",""time""
""blur"",""234"",""692249""
","""event"",""trial"",""time""
""focus"",""234"",""692271""
","""event"",""trial"",""time""
""fullscreenenter"",""1"",""5013""
","""event"",""trial"",""time""
""fullscreenexit"",""234"",""692273""
",,null,run_exp/static/images/task_images/land.jpg,null,,,,,,,101,,,8,,,,,,,,,,,,,,
dig,234,692305,0.0-75.0-2.0,"""event"",""trial"",""time""
""fullscreenenter"",""1"",""5013""
""blur"",""234"",""692249""
""focus"",""234"",""692271""
""fullscreenexit"",""234"",""692273""
","""event"",""trial"",""time""
""blur"",""234"",""692249""
","""event"",""trial"",""time""
""focus"",""234"",""692271""
","""event"",""trial"",""time""
""fullscreenenter"",""1"",""5013""
","""event"",""trial"",""time""
""fullscreenexit"",""234"",""692273""
",,,,,,,,,,,,"[{""stimulus"":""run_exp/static/images/task_images/dig.jpg"",""time"":0.7999999988824129},{""stimulus"":""run_exp/static/images/task_images/land.jpg"",""time"":671.6999999992549},{""stimulus"":""run_exp/static/images/task_images/dig.jpg"",""time"":1342.3999999985099}]",[],8,,,,,,,,,,,,,,
harvest,235,693308,0.0-75.0-3.0,"""event"",""trial"",""time""
""fullscreenenter"",""1"",""5013""
""blur"",""234"",""692249""
""focus"",""234"",""692271""
""fullscreenexit"",""234"",""692273""
","""event"",""trial"",""time""
""blur"",""234"",""692249""
","""event"",""trial"",""time""
""focus"",""234"",""692271""
","""event"",""trial"",""time""
""fullscreenenter"",""1"",""5013""
","""event"",""trial"",""time""
""fullscreenexit"",""234"",""692273""
",,null,run_exp/static/images/task_images/gems/101.jpg,null,,,,,,,17,,,8,,,,,101,0.165621296,0.168316832,,,,,,,
decision,236,694643,0.0-75.0-4.0,"""event"",""trial"",""time""
""fullscreenenter"",""1"",""5013""
""blur"",""234"",""692249""
""focus"",""234"",""692271""
""fullscreenexit"",""234"",""692273""
","""event"",""trial"",""time""
""blur"",""234"",""692249""
","""event"",""trial"",""time""
""focus"",""234"",""692271""
","""event"",""trial"",""time""
""fullscreenenter"",""1"",""5013""
","""event"",""trial"",""time""
""fullscreenexit"",""234"",""692273""
",,1331.1,run_exp/static/images/task_images/land.jpg,65,,,,,,,17,,,8,,,,,,,,12034,2,0,FALSE,,,
dig,237,696325,0.0-76.0-0.0,"""event"",""trial"",""time""
""fullscreenenter"",""1"",""5013""
""blur"",""234"",""692249""
""focus"",""234"",""692271""
""fullscreenexit"",""234"",""692273""
","""event"",""trial"",""time""
""blur"",""234"",""692249""
","""event"",""trial"",""time""
""focus"",""234"",""692271""
","""event"",""trial"",""time""
""fullscreenenter"",""1"",""5013""
","""event"",""trial"",""time""
""fullscreenexit"",""234"",""692273""
",,,,,,,,,,,,"[{""stimulus"":""run_exp/static/images/task_images/dig.jpg"",""time"":0.900000000372529},{""stimulus"":""run_exp/static/images/task_images/land.jpg"",""time"":559.8000000007451},{""stimulus"":""run_exp/static/images/task_images/dig.jpg"",""time"":1115.5999999996275}]",[],8,,,,,,,,,,,,,,
harvest,238,697336,0.0-76.0-1.0,"""event"",""trial"",""time""
""fullscreenenter"",""1"",""5013""
""blur"",""234"",""692249""
""focus"",""234"",""692271""
""fullscreenexit"",""234"",""692273""
","""event"",""trial"",""time""
""blur"",""234"",""692249""
","""event"",""trial"",""time""
""focus"",""234"",""692271""
","""event"",""trial"",""time""
""fullscreenenter"",""1"",""5013""
","""event"",""trial"",""time""
""fullscreenexit"",""234"",""692273""
",,null,run_exp/static/images/task_images/gems/17.jpg,null,,,,,,,3,,,8,,,,,17,0.185874013,0.176470588,,,,,,,
decision,239,698491,0.0-76.0-2.0,"""event"",""trial"",""time""
""fullscreenenter"",""1"",""5013""
""blur"",""234"",""692249""
""focus"",""234"",""692271""
""fullscreenexit"",""234"",""692273""
","""event"",""trial"",""time""
""blur"",""234"",""692249""
","""event"",""trial"",""time""
""focus"",""234"",""692271""
","""event"",""trial"",""time""
""fullscreenenter"",""1"",""5013""
","""event"",""trial"",""time""
""fullscreenexit"",""234"",""692273""
",,1149.6,run_exp/static/images/task_images/land.jpg,65,,,,,,,3,,,8,,,,,,,,15882,2,1,FALSE,,,
dig,240,700357,0.0-77.0-0.0,"""event"",""trial"",""time""
""fullscreenenter"",""1"",""5013""
""blur"",""234"",""692249""
""focus"",""234"",""692271""
""fullscreenexit"",""234"",""692273""
","""event"",""trial"",""time""
""blur"",""234"",""692249""
","""event"",""trial"",""time""
""focus"",""234"",""692271""
","""event"",""trial"",""time""
""fullscreenenter"",""1"",""5013""
","""event"",""trial"",""time""
""fullscreenexit"",""234"",""692273""
",,,,,,,,,,,,"[{""stimulus"":""run_exp/static/images/task_images/dig.jpg"",""time"":0.7000000011175871},{""stimulus"":""run_exp/static/images/task_images/land.jpg"",""time"":619.9000000003725},{""stimulus"":""run_exp/static/images/task_images/dig.jpg"",""time"":1235}]",[],8,,,,,,,,,,,,,,
harvest,241,701374,0.0-77.0-1.0,"""event"",""trial"",""time""
""fullscreenenter"",""1"",""5013""
""blur"",""234"",""692249""
""focus"",""234"",""692271""
""fullscreenexit"",""234"",""692273""
","""event"",""trial"",""time""
""blur"",""234"",""692249""
","""event"",""trial"",""time""
""focus"",""234"",""692271""
","""event"",""trial"",""time""
""fullscreenenter"",""1"",""5013""
","""event"",""trial"",""time""
""fullscreenexit"",""234"",""692273""
",,null,run_exp/static/images/task_images/gems/3.jpg,null,,,,,,,1,,,8,,,,,3,0.229077763,0.333333333,,,,,,,
decision,242,703486,0.0-77.0-2.0,"""event"",""trial"",""time""
""fullscreenenter"",""1"",""5013""
""blur"",""234"",""692249""
""focus"",""234"",""692271""
""fullscreenexit"",""234"",""692273""
","""event"",""trial"",""time""
""blur"",""234"",""692249""
","""event"",""trial"",""time""
""focus"",""234"",""692271""
","""event"",""trial"",""time""
""fullscreenenter"",""1"",""5013""
","""event"",""trial"",""time""
""fullscreenexit"",""234"",""692273""
",,2107.1,run_exp/static/images/task_images/land.jpg,65,,,,,,,1,,,8,,,,,,,,20877,2,2,FALSE,,,
dig,243,704397,0.0-78.0-0.0,"""event"",""trial"",""time""
""fullscreenenter"",""1"",""5013""
""blur"",""234"",""692249""
""focus"",""234"",""692271""
""fullscreenexit"",""234"",""692273""
","""event"",""trial"",""time""
""blur"",""234"",""692249""
","""event"",""trial"",""time""
""focus"",""234"",""692271""
","""event"",""trial"",""time""
""fullscreenenter"",""1"",""5013""
","""event"",""trial"",""time""
""fullscreenexit"",""234"",""692273""
",,,,,,,,,,,,"[{""stimulus"":""run_exp/static/images/task_images/dig.jpg"",""time"":0.8000000007450581},{""stimulus"":""run_exp/static/images/task_images/land.jpg"",""time"":301.30000000074506},{""stimulus"":""run_exp/static/images/task_images/dig.jpg"",""time"":597.4000000003725}]",[],8,,,,,,,,,,,,,,
harvest,244,705403,0.0-78.0-1.0,"""event"",""trial"",""time""
""fullscreenenter"",""1"",""5013""
""blur"",""234"",""692249""
""focus"",""234"",""692271""
""fullscreenexit"",""234"",""692273""
","""event"",""trial"",""time""
""blur"",""234"",""692249""
","""event"",""trial"",""time""
""focus"",""234"",""692271""
","""event"",""trial"",""time""
""fullscreenenter"",""1"",""5013""
","""event"",""trial"",""time""
""fullscreenexit"",""234"",""692273""
",,null,run_exp/static/images/task_images/gems/1.jpg,null,,,,,,,0,,,8,,,,,1,0.220252209,0,,,,,,,
decision,245,706720,0.0-78.0-2.0,"""event"",""trial"",""time""
""fullscreenenter"",""1"",""5013""
""blur"",""234"",""692249""
""focus"",""234"",""692271""
""fullscreenexit"",""234"",""692273""
","""event"",""trial"",""time""
""blur"",""234"",""692249""
","""event"",""trial"",""time""
""focus"",""234"",""692271""
","""event"",""trial"",""time""
""fullscreenenter"",""1"",""5013""
","""event"",""trial"",""time""
""fullscreenexit"",""234"",""692273""
",,1311.3,run_exp/static/images/task_images/land.jpg,65,,,,,,,0,,,8,,,,,,,,24111,2,3,FALSE,,,
dig,246,708430,0.0-79.0-0.0,"""event"",""trial"",""time""
""fullscreenenter"",""1"",""5013""
""blur"",""234"",""692249""
""focus"",""234"",""692271""
""fullscreenexit"",""234"",""692273""
","""event"",""trial"",""time""
""blur"",""234"",""692249""
","""event"",""trial"",""time""
""focus"",""234"",""692271""
","""event"",""trial"",""time""
""fullscreenenter"",""1"",""5013""
","""event"",""trial"",""time""
""fullscreenexit"",""234"",""692273""
