trial_type,trial_index,time_elapsed,internal_node_id,interactions,blur_events,focus_events,fullscreenenter_events,fullscreenexit_events,success,rt,stimulus,key_press,prompt,subject_id,participant_id,age,gender,button_pressed,next_reward,animation_sequence,responses,planet,curr_prac_trial,n_prac_rounds,alien,aliens,reward_received,decay_rate_actual,decay_rate_exp,time_in_block,block_num,prt,last_trial_on_planet,button_html,bonus,num_failures
pavlovia,0,4,0.0-0.0,"""event"",""trial"",""time""
""fullscreenenter"",""1"",""4326""
","
","
","""event"",""trial"",""time""
""fullscreenenter"",""1"",""4326""
","
",,,,,,,,,,,,,,,,,,,,,,,,,,,,
fullscreen,1,4399,0.0-1.0,"""event"",""trial"",""time""
""fullscreenenter"",""1"",""4326""
","
","
","""event"",""trial"",""time""
""fullscreenenter"",""1"",""4326""
","
",TRUE,,,,,,,,,,,,,,,,,,,,,,,,,,,
instruc_welcome,2,14864,0.0-2.0,"""event"",""trial"",""time""
""fullscreenenter"",""1"",""4326""
""fullscreenexit"",""3"",""20821""
""blur"",""3"",""22005""
""focus"",""3"",""23780""
","""event"",""trial"",""time""
""blur"",""3"",""22005""
","""event"",""trial"",""time""
""focus"",""3"",""23780""
","""event"",""trial"",""time""
""fullscreenenter"",""1"",""4326""
","""event"",""trial"",""time""
""fullscreenexit"",""3"",""20821""
",,null,run_exp/static/audio/clip_1_welcome.m4a,null,"<p>Howdy! In this experiment, you’ll be an explorer traveling through space to collect space treasure.</p><p>Your mission is to collect as much treasure as possible.</p><br><br><p><img src='run_exp/static/images/task_images/opening_img-01.jpg' height='300' width='auto'></p>",9219,2541,22.85,Female,,,,,,,,,,,,,,,,,,,
audio-keyboard-response,3,31695,0.0-3.0,"""event"",""trial"",""time""
""fullscreenenter"",""1"",""4326""
""fullscreenexit"",""3"",""20821""
""blur"",""3"",""22005""
""focus"",""3"",""23780""
","""event"",""trial"",""time""
""blur"",""3"",""22005""
","""event"",""trial"",""time""
""focus"",""3"",""23780""
","""event"",""trial"",""time""
""fullscreenenter"",""1"",""4326""
","""event"",""trial"",""time""
""fullscreenexit"",""3"",""20821""
",,null,run_exp/static/audio/clip_2_move.m4a,null,,,,,,,,,,,,,,,,,,,,,,,,
welcome_dec,4,41879,0.0-4.0,"""event"",""trial"",""time""
""fullscreenenter"",""1"",""4326""
""fullscreenexit"",""3"",""20821""
""blur"",""3"",""22005""
""focus"",""3"",""23780""
","""event"",""trial"",""time""
""blur"",""3"",""22005""
","""event"",""trial"",""time""
""focus"",""3"",""23780""
","""event"",""trial"",""time""
""fullscreenenter"",""1"",""4326""
","""event"",""trial"",""time""
""fullscreenexit"",""3"",""20821""
",,10175.3,"<p>Howdy! In this experiment, you’ll be an explorer traveling through space to collect space treasure.</p><p>Your mission is to collect as much treasure as possible.</p><br><br><p><img src='run_exp/static/images/task_images/opening_img-01.jpg' height='300' width='auto'></p>",,,,,,,0,,,,,,,,,,,,,,,,,,
html-keyboard-response,5,45059,0.0-5.0,"""event"",""trial"",""time""
""fullscreenenter"",""1"",""4326""
""fullscreenexit"",""3"",""20821""
""blur"",""3"",""22005""
""focus"",""3"",""23780""
","""event"",""trial"",""time""
""blur"",""3"",""22005""
","""event"",""trial"",""time""
""focus"",""3"",""23780""
","""event"",""trial"",""time""
""fullscreenenter"",""1"",""4326""
","""event"",""trial"",""time""
""fullscreenexit"",""3"",""20821""
",,3170.9,"<p>Howdy! In this experiment, you’ll be an explorer traveling through space to collect space treasure.</p><p>Your mission is to collect as much treasure as possible.</p><br><br><p><img src='run_exp/static/images/task_images/opening_img-01.jpg' height='300' width='auto'></p><button class=""jspsych-html-btn-chosen""><img src=""run_exp/static/images/task_images/planet-01.jpg"" height=""50""></button><button class=""jspsych-html-btn-unchosen""><img src=""run_exp/static/images/task_images/planet-02.jpg"" height=""50""></button><p><b>[press the space bar to lock in your answer]<b><br></p>",32,,,,,,,,,,,,,,,,,,,,,,,,
instruc_welcome,6,54970,0.0-6.0-0.0,"""event"",""trial"",""time""
""fullscreenenter"",""1"",""4326""
""fullscreenexit"",""3"",""20821""
""blur"",""3"",""22005""
""focus"",""3"",""23780""
","""event"",""trial"",""time""
""blur"",""3"",""22005""
","""event"",""trial"",""time""
""focus"",""3"",""23780""
","""event"",""trial"",""time""
""fullscreenenter"",""1"",""4326""
","""event"",""trial"",""time""
""fullscreenexit"",""3"",""20821""
",,null,run_exp/static/audio/clip_1_welcome.m4a,null,"<p>Howdy! In this experiment, you’ll be an explorer traveling through space to collect space treasure.</p><p>Your mission is to collect as much treasure as possible.</p><br><br><p><img src='run_exp/static/images/task_images/opening_img-01.jpg' height='300' width='auto'></p>",9219,2541,22,Female,,,,,,,,,,,,,,,,,,,
audio-keyboard-response,7,71760,0.0-6.0-1.0,"""event"",""trial"",""time""
""fullscreenenter"",""1"",""4326""
""fullscreenexit"",""3"",""20821""
""blur"",""3"",""22005""
""focus"",""3"",""23780""
","""event"",""trial"",""time""
""blur"",""3"",""22005""
","""event"",""trial"",""time""
""focus"",""3"",""23780""
","""event"",""trial"",""time""
""fullscreenenter"",""1"",""4326""
","""event"",""trial"",""time""
""fullscreenexit"",""3"",""20821""
",,null,run_exp/static/audio/clip_2_move.m4a,null,,,,,,,,,,,,,,,,,,,,,,,,
welcome_dec,8,72107,0.0-6.0-2.0,"""event"",""trial"",""time""
""fullscreenenter"",""1"",""4326""
""fullscreenexit"",""3"",""20821""
""blur"",""3"",""22005""
""focus"",""3"",""23780""
","""event"",""trial"",""time""
""blur"",""3"",""22005""
","""event"",""trial"",""time""
""focus"",""3"",""23780""
","""event"",""trial"",""time""
""fullscreenenter"",""1"",""4326""
","""event"",""trial"",""time""
""fullscreenexit"",""3"",""20821""
",,340.3,"<p>Howdy! In this experiment, you’ll be an explorer traveling through space to collect space treasure.</p><p>Your mission is to collect as much treasure as possible.</p><br><br><p><img src='run_exp/static/images/task_images/opening_img-01.jpg' height='300' width='auto'></p>",,,,,,,1,,,,,,,,,,,,,,,,,,
html-keyboard-response,9,73099,0.0-6.0-3.0,"""event"",""trial"",""time""
""fullscreenenter"",""1"",""4326""
""fullscreenexit"",""3"",""20821""
""blur"",""3"",""22005""
""focus"",""3"",""23780""
","""event"",""trial"",""time""
""blur"",""3"",""22005""
","""event"",""trial"",""time""
""focus"",""3"",""23780""
","""event"",""trial"",""time""
""fullscreenenter"",""1"",""4326""
","""event"",""trial"",""time""
""fullscreenexit"",""3"",""20821""
",,990.3,"<p>Howdy! In this experiment, you’ll be an explorer traveling through space to collect space treasure.</p><p>Your mission is to collect as much treasure as possible.</p><br><br><p><img src='run_exp/static/images/task_images/opening_img-01.jpg' height='300' width='auto'></p><button class=""jspsych-html-btn-unchosen""><img src=""run_exp/static/images/task_images/planet-01.jpg"" height=""50""></button><button class=""jspsych-html-btn-chosen""><img src=""run_exp/static/images/task_images/planet-02.jpg"" height=""50""></button><p><b>[press the space bar to lock in your answer]<b><br></p>",32,,,,,,,,,,,,,,,,,,,,,,,,
instruc_goal,10,83322,0.0-7.0-0.0,"""event"",""trial"",""time""
""fullscreenenter"",""1"",""4326""
""fullscreenexit"",""3"",""20821""
""blur"",""3"",""22005""
""focus"",""3"",""23780""
","""event"",""trial"",""time""
""blur"",""3"",""22005""
","""event"",""trial"",""time""
""focus"",""3"",""23780""
","""event"",""trial"",""time""
""fullscreenenter"",""1"",""4326""
","""event"",""trial"",""time""
""fullscreenexit"",""3"",""20821""
",,null,run_exp/static/audio/clip_3_goal.m4a,null,"<p> As a space explorer, you’ll visit different planets to dig for space treasure, these pink gems.</p> <p> The more treasure you dig up, the more bonus money you’ll win! </p><br><br><p><img src='run_exp/static/images/task_images/pink_gem.jpg' height='300' width='auto'></p>",,,,,,,,,,,,,,,,,,,,,,,
instruc_goal,11,84815,0.0-7.0-1.0,"""event"",""trial"",""time""
""fullscreenenter"",""1"",""4326""
""fullscreenexit"",""3"",""20821""
""blur"",""3"",""22005""
""focus"",""3"",""23780""
","""event"",""trial"",""time""
""blur"",""3"",""22005""
","""event"",""trial"",""time""
""focus"",""3"",""23780""
","""event"",""trial"",""time""
""fullscreenenter"",""1"",""4326""
","""event"",""trial"",""time""
""fullscreenexit"",""3"",""20821""
",,1490.5,"<p> As a space explorer, you’ll visit different planets to dig for space treasure, these pink gems.</p> <p> The more treasure you dig up, the more bonus money you’ll win! </p><br><br><p><img src='run_exp/static/images/task_images/pink_gem.jpg' height='300' width='auto'></p>",,,,,,,1,,,,,,,,,,,,,,,,,,
html-keyboard-response,12,85443,0.0-7.0-2.0,"""event"",""trial"",""time""
""fullscreenenter"",""1"",""4326""
""fullscreenexit"",""3"",""20821""
""blur"",""3"",""22005""
""focus"",""3"",""23780""
","""event"",""trial"",""time""
""blur"",""3"",""22005""
","""event"",""trial"",""time""
""focus"",""3"",""23780""
","""event"",""trial"",""time""
""fullscreenenter"",""1"",""4326""
","""event"",""trial"",""time""
""fullscreenexit"",""3"",""20821""
",,627.2,"<p> As a space explorer, you’ll visit different planets to dig for space treasure, these pink gems.</p> <p> The more treasure you dig up, the more bonus money you’ll win! </p><br><br><p><img src='run_exp/static/images/task_images/pink_gem.jpg' height='300' width='auto'></p><button class=""jspsych-html-btn-unchosen""><img src=""run_exp/static/images/task_images/planet-01.jpg"" height=""50""></button><button class=""jspsych-html-btn-chosen""><img src=""run_exp/static/images/task_images/planet-02.jpg"" height=""50""></button><p><b>[press the space bar to lock in your answer]<b><br></p>",32,,,,,,,,,,,,,,,,,,,,,,,,
instruc_dig,13,101648,0.0-8.0-0.0,"""event"",""trial"",""time""
""fullscreenenter"",""1"",""4326""
""fullscreenexit"",""3"",""20821""
""blur"",""3"",""22005""
""focus"",""3"",""23780""
","""event"",""trial"",""time""
""blur"",""3"",""22005""
","""event"",""trial"",""time""
""focus"",""3"",""23780""
","""event"",""trial"",""time""
""fullscreenenter"",""1"",""4326""
","""event"",""trial"",""time""
""fullscreenexit"",""3"",""20821""
",,null,run_exp/static/audio/clip_4_dig.m4a,null,,,,,,,100,,,,,,,,,,,,,,,,,
instruc_dig_try,14,101874,0.0-8.0-1.0,"""event"",""trial"",""time""
""fullscreenenter"",""1"",""4326""
""fullscreenexit"",""3"",""20821""
""blur"",""3"",""22005""
""focus"",""3"",""23780""
","""event"",""trial"",""time""
""blur"",""3"",""22005""
","""event"",""trial"",""time""
""focus"",""3"",""23780""
","""event"",""trial"",""time""
""fullscreenenter"",""1"",""4326""
","""event"",""trial"",""time""
""fullscreenexit"",""3"",""20821""
",,224.4,"<p> When you’ve arrived at a new planet, you will dig once. </p> <p>Then, you get to decide if you want to stay on the planet and dig again or travel to a new planet and dig there.</p> <p> To stay and dig, press the letter <strong>‘A’</strong> on your keyboard. Try pressing it now! </p><p><img src='run_exp/static/images/task_images/land.jpg'  height='700' width='auto'></p>",65,"<p> When you’ve arrived at a new planet, you will dig once. </p> <p>Then, you get to decide if you want to stay on the planet and dig again or travel to a new planet and dig there.</p> <p> To stay and dig, press the letter <strong>‘A’</strong> on your keyboard. Try pressing it now! </p><p><img src='run_exp/static/images/task_images/land.jpg'  height='700' width='auto'></p>",,,,,,100,,,,,,,,,,,,,,,,,
dig_prac,15,103883,0.0-8.0-2.0,"""event"",""trial"",""time""
""fullscreenenter"",""1"",""4326""
""fullscreenexit"",""3"",""20821""
""blur"",""3"",""22005""
""focus"",""3"",""23780""
","""event"",""trial"",""time""
""blur"",""3"",""22005""
","""event"",""trial"",""time""
""focus"",""3"",""23780""
","""event"",""trial"",""time""
""fullscreenenter"",""1"",""4326""
","""event"",""trial"",""time""
""fullscreenexit"",""3"",""20821""
",,,,,,,,,,,,"[{""stimulus"":""run_exp/static/images/task_images/dig.jpg"",""time"":0.20000000298023224},{""stimulus"":""run_exp/static/images/task_images/land.jpg"",""time"":676.3999999985099},{""stimulus"":""run_exp/static/images/task_images/dig.jpg"",""time"":1341.3999999985099}]",[],,,,,,,,,,,,,,,
instruc_travel,16,140289,0.0-8.0-3.0,"""event"",""trial"",""time""
""fullscreenenter"",""1"",""4326""
""fullscreenexit"",""3"",""20821""
""blur"",""3"",""22005""
""focus"",""3"",""23780""
","""event"",""trial"",""time""
""blur"",""3"",""22005""
","""event"",""trial"",""time""
""focus"",""3"",""23780""
","""event"",""trial"",""time""
""fullscreenenter"",""1"",""4326""
","""event"",""trial"",""time""
""fullscreenexit"",""3"",""20821""
",,null,run_exp/static/audio/clip_5_travel.m4a,null,"<p>Every time you dig up gems, there are less gems on the planet, so the more you dig on a planet the fewer gems you’ll get with each dig.</p><p>When gems are running low, you may want to travel to a new planet. </p> <p>  Planets are very far apart in this galaxy, so it will take some time to travel between them. </p> <br><p>There are lots and lots of planets for you to visit, so you won’t be able to return to any planets you’ve seen before. </p><br><p>To leave this planet and travel to a new one, press the letter <strong>‘L’</strong> on your keyboard. Try pressing it now! </p><p><img src='run_exp/static/images/task_images/rocket-01.jpg'  height='600' width='auto'></p>",,,,,,,,,,,,,,,,,,,,,,,
instruc_travel_try,17,141263,0.0-8.0-4.0,"""event"",""trial"",""time""
""fullscreenenter"",""1"",""4326""
""fullscreenexit"",""3"",""20821""
""blur"",""3"",""22005""
""focus"",""3"",""23780""
","""event"",""trial"",""time""
""blur"",""3"",""22005""
","""event"",""trial"",""time""
""focus"",""3"",""23780""
","""event"",""trial"",""time""
""fullscreenenter"",""1"",""4326""
","""event"",""trial"",""time""
""fullscreenexit"",""3"",""20821""
",,972.3,"<p>Every time you dig up gems, there are less gems on the planet, so the more you dig on a planet the fewer gems you’ll get with each dig.</p><p>When gems are running low, you may want to travel to a new planet. </p> <p>  Planets are very far apart in this galaxy, so it will take some time to travel between them. </p> <br><p>There are lots and lots of planets for you to visit, so you won’t be able to return to any planets you’ve seen before. </p><br><p>To leave this planet and travel to a new one, press the letter <strong>‘L’</strong> on your keyboard. Try pressing it now! </p><p><img src='run_exp/static/images/task_images/rocket-01.jpg'  height='600' width='auto'></p>",76,"<p>Every time you dig up gems, there are less gems on the planet, so the more you dig on a planet the fewer gems you’ll get with each dig.</p><p>When gems are running low, you may want to travel to a new planet. </p> <p>  Planets are very far apart in this galaxy, so it will take some time to travel between them. </p> <br><p>There are lots and lots of planets for you to visit, so you won’t be able to return to any planets you’ve seen before. </p><br><p>To leave this planet and travel to a new one, press the letter <strong>‘L’</strong> on your keyboard. Try pressing it now! </p><p><img src='run_exp/static/images/task_images/rocket-01.jpg'  height='600' width='auto'></p>",,,,,,,,,,,,,,,,,,,,,,,
travel_prac,18,151267,0.0-8.0-5.0,"""event"",""trial"",""time""
""fullscreenenter"",""1"",""4326""
""fullscreenexit"",""3"",""20821""
""blur"",""3"",""22005""
""focus"",""3"",""23780""
","""event"",""trial"",""time""
""blur"",""3"",""22005""
","""event"",""trial"",""time""
""focus"",""3"",""23780""
","""event"",""trial"",""time""
""fullscreenenter"",""1"",""4326""
","""event"",""trial"",""time""
""fullscreenexit"",""3"",""20821""
",,,,,,,,,,,,"[{""stimulus"":""run_exp/static/images/task_images/rocket-01.jpg"",""time"":0.29999999701976776},{""stimulus"":""run_exp/static/images/task_images/rocket-02.jpg"",""time"":1116},{""stimulus"":""run_exp/static/images/task_images/rocket-03.jpg"",""time"":2227.5},{""stimulus"":""run_exp/static/images/task_images/rocket-04.jpg"",""time"":3339.0999999940395},{""stimulus"":""run_exp/static/images/task_images/rocket-05.jpg"",""time"":4455.69999999553},{""stimulus"":""run_exp/static/images/task_images/rocket-06.jpg"",""time"":5568.0999999940395},{""stimulus"":""run_exp/static/images/task_images/rocket-07.jpg"",""time"":6678},{""stimulus"":""run_exp/static/images/task_images/rocket-08.jpg"",""time"":7780.29999999702},{""stimulus"":""run_exp/static/images/task_images/rocket-09.jpg"",""time"":8892.29999999702}]",[],0,,,,,,,,,,,,,,
instruc_alien_greet,19,178621,0.0-8.0-6.0,"""event"",""trial"",""time""
""fullscreenenter"",""1"",""4326""
""fullscreenexit"",""3"",""20821""
""blur"",""3"",""22005""
""focus"",""3"",""23780""
","""event"",""trial"",""time""
""blur"",""3"",""22005""
","""event"",""trial"",""time""
""focus"",""3"",""23780""
","""event"",""trial"",""time""
""fullscreenenter"",""1"",""4326""
","""event"",""trial"",""time""
""fullscreenexit"",""3"",""20821""
",,null,run_exp/static/audio/clip_6_alien.m4a,null,"<p>When you arrive at a new planet, the alien who owns the treasure mine on that planet will greet you!</p><p>The better an alien takes care of their mine the easier it is to dig for gems. Some aliens take better care of their mine than others. So, you won’t get exactly the same amount of gems on each planet.</p><p>What the alien looks like does not tell you anything about how many gems there are on the planet.</p><br><p><img src=""run_exp/static/images/task_images/aliens/instructions_aliens/planet/alien_planet-1.jpg""  height=""600"" width=""auto""></p>",,,,,,,,,,,,,,,,,,,,,,,
instruc_alien_greet,20,184170,0.0-8.0-7.0,"""event"",""trial"",""time""
""fullscreenenter"",""1"",""4326""
""fullscreenexit"",""3"",""20821""
""blur"",""3"",""22005""
""focus"",""3"",""23780""
","""event"",""trial"",""time""
""blur"",""3"",""22005""
","""event"",""trial"",""time""
""focus"",""3"",""23780""
","""event"",""trial"",""time""
""fullscreenenter"",""1"",""4326""
","""event"",""trial"",""time""
""fullscreenexit"",""3"",""20821""
",,5546.8,"<p>When you arrive at a new planet, the alien who owns the treasure mine on that planet will greet you!</p><p>The better an alien takes care of their mine the easier it is to dig for gems. Some aliens take better care of their mine than others. So, you won’t get exactly the same amount of gems on each planet.</p><p>What the alien looks like does not tell you anything about how many gems there are on the planet.</p><br><p><img src=""run_exp/static/images/task_images/aliens/instructions_aliens/planet/alien_planet-1.jpg""  height=""600"" width=""auto""></p>",,,,,,,1,,,,,,,,,,,,,,,,,,
html-keyboard-response,21,184391,0.0-8.0-8.0,"""event"",""trial"",""time""
""fullscreenenter"",""1"",""4326""
""fullscreenexit"",""3"",""20821""
""blur"",""3"",""22005""
""focus"",""3"",""23780""
","""event"",""trial"",""time""
""blur"",""3"",""22005""
","""event"",""trial"",""time""
""focus"",""3"",""23780""
","""event"",""trial"",""time""
""fullscreenenter"",""1"",""4326""
","""event"",""trial"",""time""
""fullscreenexit"",""3"",""20821""
",,220.2,"<p>When you arrive at a new planet, the alien who owns the treasure mine on that planet will greet you!</p><p>The better an alien takes care of their mine the easier it is to dig for gems. Some aliens take better care of their mine than others. So, you won’t get exactly the same amount of gems on each planet.</p><p>What the alien looks like does not tell you anything about how many gems there are on the planet.</p><br><p><img src=""run_exp/static/images/task_images/aliens/instructions_aliens/planet/alien_planet-1.jpg""  height=""600"" width=""auto""></p><button class=""jspsych-html-btn-unchosen""><img src=""run_exp/static/images/task_images/planet-01.jpg"" height=""50""></button><button class=""jspsych-html-btn-chosen""><img src=""run_exp/static/images/task_images/planet-02.jpg"" height=""50""></button><p><b>[press the space bar to lock in your answer]<b><br></p>",32,,,,,,,,,,,,,,,,,,,,,,,,
time_out,22,195666,0.0-9.0-0.0,"""event"",""trial"",""time""
""fullscreenenter"",""1"",""4326""
""fullscreenexit"",""3"",""20821""
""blur"",""3"",""22005""
""focus"",""3"",""23780""
","""event"",""trial"",""time""
""blur"",""3"",""22005""
","""event"",""trial"",""time""
""focus"",""3"",""23780""
","""event"",""trial"",""time""
""fullscreenenter"",""1"",""4326""
","""event"",""trial"",""time""
""fullscreenexit"",""3"",""20821""
",,null,run_exp/static/audio/clip_7_timeout.m4a,null,"<p>If you don't make your choice fast enough, you’ll have to wait a few seconds before you can make another one.</p><p>You can’t dig for more gems or travel to new planets. You just have to sit and wait.</p><br><p><img src='run_exp/static/images/task_images/time_out.jpg'  height='600' width='auto'></p>",,,,,,,,,,,,,,,,,,,,,,,
time_out,23,196665,0.0-9.0-1.0,"""event"",""trial"",""time""
""fullscreenenter"",""1"",""4326""
""fullscreenexit"",""3"",""20821""
""blur"",""3"",""22005""
""focus"",""3"",""23780""
","""event"",""trial"",""time""
""blur"",""3"",""22005""
","""event"",""trial"",""time""
""focus"",""3"",""23780""
","""event"",""trial"",""time""
""fullscreenenter"",""1"",""4326""
","""event"",""trial"",""time""
""fullscreenexit"",""3"",""20821""
",,998.1,"<p>If you don't make your choice fast enough, you’ll have to wait a few seconds before you can make another one.</p><p>You can’t dig for more gems or travel to new planets. You just have to sit and wait.</p><br><p><img src='run_exp/static/images/task_images/time_out.jpg'  height='600' width='auto'></p>",,,,,,,1,,,,,,,,,,,,,,,,,,
html-keyboard-response,24,196890,0.0-9.0-2.0,"""event"",""trial"",""time""
""fullscreenenter"",""1"",""4326""
""fullscreenexit"",""3"",""20821""
""blur"",""3"",""22005""
""focus"",""3"",""23780""
","""event"",""trial"",""time""
""blur"",""3"",""22005""
","""event"",""trial"",""time""
""focus"",""3"",""23780""
","""event"",""trial"",""time""
""fullscreenenter"",""1"",""4326""
","""event"",""trial"",""time""
""fullscreenexit"",""3"",""20821""
",,223.2,"<p>If you don't make your choice fast enough, you’ll have to wait a few seconds before you can make another one.</p><p>You can’t dig for more gems or travel to new planets. You just have to sit and wait.</p><br><p><img src='run_exp/static/images/task_images/time_out.jpg'  height='600' width='auto'></p><button class=""jspsych-html-btn-unchosen""><img src=""run_exp/static/images/task_images/planet-01.jpg"" height=""50""></button><button class=""jspsych-html-btn-chosen""><img src=""run_exp/static/images/task_images/planet-02.jpg"" height=""50""></button><p><b>[press the space bar to lock in your answer]<b><br></p>",32,,,,,,,,,,,,,,,,,,,,,,,,
instruc_break,25,212775,0.0-10.0-0.0,"""event"",""trial"",""time""
""fullscreenenter"",""1"",""4326""
""fullscreenexit"",""3"",""20821""
""blur"",""3"",""22005""
""focus"",""3"",""23780""
","""event"",""trial"",""time""
""blur"",""3"",""22005""
","""event"",""trial"",""time""
""focus"",""3"",""23780""
","""event"",""trial"",""time""
""fullscreenenter"",""1"",""4326""
","""event"",""trial"",""time""
""fullscreenexit"",""3"",""20821""
",,null,run_exp/static/audio/clip_8_break.m4a,null,"<p> After digging and traveling for a while, you’ll be able to take a break at home base. </p><p>The game will last 20 minutes no matter what.</p><p>You will visit home base every 5 minutes, so, you will visit home base three times during the game.</p><br><p><img src='run_exp/static/images/task_images/home_base.jpg' height='600' width='auto'></p>",,,,,,,,,,,,,,,,,,,,,,,
instruc_break,26,215931,0.0-10.0-1.0,"""event"",""trial"",""time""
""fullscreenenter"",""1"",""4326""
""fullscreenexit"",""3"",""20821""
""blur"",""3"",""22005""
""focus"",""3"",""23780""
","""event"",""trial"",""time""
""blur"",""3"",""22005""
","""event"",""trial"",""time""
""focus"",""3"",""23780""
","""event"",""trial"",""time""
""fullscreenenter"",""1"",""4326""
","""event"",""trial"",""time""
""fullscreenexit"",""3"",""20821""
",,3154.5,"<p> After digging and traveling for a while, you’ll be able to take a break at home base. </p><p>The game will last 20 minutes no matter what.</p><p>You will visit home base every 5 minutes, so, you will visit home base three times during the game.</p><br><p><img src='run_exp/static/images/task_images/home_base.jpg' height='600' width='auto'></p>",,,,,,,1,,,,,,,,,,,,,,,,,,
html-keyboard-response,27,216205,0.0-10.0-2.0,"""event"",""trial"",""time""
""fullscreenenter"",""1"",""4326""
""fullscreenexit"",""3"",""20821""
""blur"",""3"",""22005""
""focus"",""3"",""23780""
","""event"",""trial"",""time""
""blur"",""3"",""22005""
","""event"",""trial"",""time""
""focus"",""3"",""23780""
","""event"",""trial"",""time""
""fullscreenenter"",""1"",""4326""
","""event"",""trial"",""time""
""fullscreenexit"",""3"",""20821""
",,272.4,"<p> After digging and traveling for a while, you’ll be able to take a break at home base. </p><p>The game will last 20 minutes no matter what.</p><p>You will visit home base every 5 minutes, so, you will visit home base three times during the game.</p><br><p><img src='run_exp/static/images/task_images/home_base.jpg' height='600' width='auto'></p><button class=""jspsych-html-btn-unchosen""><img src=""run_exp/static/images/task_images/planet-01.jpg"" height=""50""></button><button class=""jspsych-html-btn-chosen""><img src=""run_exp/static/images/task_images/planet-02.jpg"" height=""50""></button><p><b>[press the space bar to lock in your answer]<b><br></p>",32,,,,,,,,,,,,,,,,,,,,,,,,
instruc_prac_game,28,226516,0.0-11.0-0.0,"""event"",""trial"",""time""
""fullscreenenter"",""1"",""4326""
""fullscreenexit"",""3"",""20821""
""blur"",""3"",""22005""
""focus"",""3"",""23780""
","""event"",""trial"",""time""
""blur"",""3"",""22005""
","""event"",""trial"",""time""
""focus"",""3"",""23780""
","""event"",""trial"",""time""
""fullscreenenter"",""1"",""4326""
","""event"",""trial"",""time""
""fullscreenexit"",""3"",""20821""
",,null,run_exp/static/audio/clip_9_practice.m4a,null,"<p> Are you ready to play a practice game? </p> <p>In this practice game, you'll be digging up barrels of gems. But, in the real game, you'll be digging up the gems themselves. </p>",,,,,,,,,,,,,,,,,,,,,,,
html-button-response,29,230148,0.0-11.0-1.0,"""event"",""trial"",""time""
""fullscreenenter"",""1"",""4326""
""fullscreenexit"",""3"",""20821""
""blur"",""3"",""22005""
""focus"",""3"",""23780""
","""event"",""trial"",""time""
""blur"",""3"",""22005""
","""event"",""trial"",""time""
""focus"",""3"",""23780""
","""event"",""trial"",""time""
""fullscreenenter"",""1"",""4326""
","""event"",""trial"",""time""
""fullscreenexit"",""3"",""20821""
",,3630.4,"<p> Are you ready to play a practice game? </p> <p>In this practice game, you'll be digging up barrels of gems. But, in the real game, you'll be digging up the gems themselves. </p>",,,,,,,0,,,,,,,,,,,,,,,,,,
alien_welcome_prac,30,235168,0.0-12.0-0.0,"""event"",""trial"",""time""
""fullscreenenter"",""1"",""4326""
""fullscreenexit"",""3"",""20821""
""blur"",""3"",""22005""
""focus"",""3"",""23780""
","""event"",""trial"",""time""
""blur"",""3"",""22005""
","""event"",""trial"",""time""
""focus"",""3"",""23780""
","""event"",""trial"",""time""
""fullscreenenter"",""1"",""4326""
","""event"",""trial"",""time""
""fullscreenexit"",""3"",""20821""
",,null,run_exp/static/images/task_images/aliens/practice_aliens/planet/alien_planet-5.jpg,null,,,,,,,,,,,,,,,,,,,,,,,,
land_prac,31,235698,0.0-12.0-1.0,"""event"",""trial"",""time""
""fullscreenenter"",""1"",""4326""
""fullscreenexit"",""3"",""20821""
""blur"",""3"",""22005""
""focus"",""3"",""23780""
","""event"",""trial"",""time""
""blur"",""3"",""22005""
","""event"",""trial"",""time""
""focus"",""3"",""23780""
","""event"",""trial"",""time""
""fullscreenenter"",""1"",""4326""
","""event"",""trial"",""time""
""fullscreenexit"",""3"",""20821""
",,null,run_exp/static/images/task_images/land.jpg,null,,,,,,,102,,,0,,,,,,,,,,,,,,
dig_prac,32,237714,0.0-12.0-2.0,"""event"",""trial"",""time""
""fullscreenenter"",""1"",""4326""
""fullscreenexit"",""3"",""20821""
""blur"",""3"",""22005""
""focus"",""3"",""23780""
","""event"",""trial"",""time""
""blur"",""3"",""22005""
","""event"",""trial"",""time""
""focus"",""3"",""23780""
","""event"",""trial"",""time""
""fullscreenenter"",""1"",""4326""
","""event"",""trial"",""time""
""fullscreenexit"",""3"",""20821""
",,,,,,,,,,,,"[{""stimulus"":""run_exp/static/images/task_images/dig.jpg"",""time"":0.29999999701976776},{""stimulus"":""run_exp/static/images/task_images/land.jpg"",""time"":673.3999999985099},{""stimulus"":""run_exp/static/images/task_images/dig.jpg"",""time"":1337.8999999985099}]",[],,,,,,,,,,,,,,,
harvest_prac,33,238737,0.0-12.0-3.0,"""event"",""trial"",""time""
""fullscreenenter"",""1"",""4326""
""fullscreenexit"",""3"",""20821""
""blur"",""3"",""22005""
""focus"",""3"",""23780""
","""event"",""trial"",""time""
""blur"",""3"",""22005""
","""event"",""trial"",""time""
""focus"",""3"",""23780""
","""event"",""trial"",""time""
""fullscreenenter"",""1"",""4326""
","""event"",""trial"",""time""
""fullscreenexit"",""3"",""20821""
",,null,run_exp/static/images/task_images/barrel_text.jpg,null,,,,,,,,,,,,,,,,,,,,,,,,
decision_prac,34,241194,0.0-12.0-4.0,"""event"",""trial"",""time""
""fullscreenenter"",""1"",""4326""
""fullscreenexit"",""3"",""20821""
""blur"",""3"",""22005""
""focus"",""3"",""23780""
","""event"",""trial"",""time""
""blur"",""3"",""22005""
","""event"",""trial"",""time""
""focus"",""3"",""23780""
","""event"",""trial"",""time""
""fullscreenenter"",""1"",""4326""
","""event"",""trial"",""time""
""fullscreenexit"",""3"",""20821""
",,2455.1,run_exp/static/images/task_images/land.jpg,65,,,,,,,,,,,1,,,,,,,,,,,,,
dig_prac,35,243207,0.0-13.0-0.0,"""event"",""trial"",""time""
""fullscreenenter"",""1"",""4326""
""fullscreenexit"",""3"",""20821""
""blur"",""3"",""22005""
""focus"",""3"",""23780""
","""event"",""trial"",""time""
""blur"",""3"",""22005""
","""event"",""trial"",""time""
""focus"",""3"",""23780""
","""event"",""trial"",""time""
""fullscreenenter"",""1"",""4326""
","""event"",""trial"",""time""
""fullscreenexit"",""3"",""20821""
",,,,,,,,,,,,"[{""stimulus"":""run_exp/static/images/task_images/dig.jpg"",""time"":0.20000000298023224},{""stimulus"":""run_exp/static/images/task_images/land.jpg"",""time"":678.5},{""stimulus"":""run_exp/static/images/task_images/dig.jpg"",""time"":1338.5}]",[],,,,,,,,,,,,,,,
harvest_prac,36,244235,0.0-13.0-1.0,"""event"",""trial"",""time""
""fullscreenenter"",""1"",""4326""
""fullscreenexit"",""3"",""20821""
""blur"",""3"",""22005""
""focus"",""3"",""23780""
","""event"",""trial"",""time""
""blur"",""3"",""22005""
","""event"",""trial"",""time""
""focus"",""3"",""23780""
","""event"",""trial"",""time""
""fullscreenenter"",""1"",""4326""
","""event"",""trial"",""time""
""fullscreenexit"",""3"",""20821""
",,null,run_exp/static/images/task_images/barrel_text.jpg,null,,,,,,,,,,,,,,,,,,,,,,,,
decision_prac,37,244914,0.0-13.0-2.0,"""event"",""trial"",""time""
""fullscreenenter"",""1"",""4326""
""fullscreenexit"",""3"",""20821""
""blur"",""3"",""22005""
""focus"",""3"",""23780""
","""event"",""trial"",""time""
""blur"",""3"",""22005""
","""event"",""trial"",""time""
""focus"",""3"",""23780""
","""event"",""trial"",""time""
""fullscreenenter"",""1"",""4326""
","""event"",""trial"",""time""
""fullscreenexit"",""3"",""20821""
",,678.1,run_exp/static/images/task_images/land.jpg,65,,,,,,,,,,,2,,,,,,,,,,,,,
dig_prac,38,246930,0.0-14.0-0.0,"""event"",""trial"",""time""
""fullscreenenter"",""1"",""4326""
""fullscreenexit"",""3"",""20821""
""blur"",""3"",""22005""
""focus"",""3"",""23780""
","""event"",""trial"",""time""
""blur"",""3"",""22005""
","""event"",""trial"",""time""
""focus"",""3"",""23780""
","""event"",""trial"",""time""
""fullscreenenter"",""1"",""4326""
","""event"",""trial"",""time""
""fullscreenexit"",""3"",""20821""
",,,,,,,,,,,,"[{""stimulus"":""run_exp/static/images/task_images/dig.jpg"",""time"":0.10000000149011612},{""stimulus"":""run_exp/static/images/task_images/land.jpg"",""time"":672.7000000029802},{""stimulus"":""run_exp/static/images/task_images/dig.jpg"",""time"":1338.2000000029802}]",[],,,,,,,,,,,,,,,
harvest_prac,39,247953,0.0-14.0-1.0,"""event"",""trial"",""time""
""fullscreenenter"",""1"",""4326""
""fullscreenexit"",""3"",""20821""
""blur"",""3"",""22005""
""focus"",""3"",""23780""
","""event"",""trial"",""time""
""blur"",""3"",""22005""
","""event"",""trial"",""time""
""focus"",""3"",""23780""
","""event"",""trial"",""time""
""fullscreenenter"",""1"",""4326""
","""event"",""trial"",""time""
""fullscreenexit"",""3"",""20821""
",,null,run_exp/static/images/task_images/barrel_text.jpg,null,,,,,,,,,,,,,,,,,,,,,,,,
decision_prac,40,249186,0.0-14.0-2.0,"""event"",""trial"",""time""
""fullscreenenter"",""1"",""4326""
""fullscreenexit"",""3"",""20821""
""blur"",""3"",""22005""
""focus"",""3"",""23780""
","""event"",""trial"",""time""
""blur"",""3"",""22005""
","""event"",""trial"",""time""
""focus"",""3"",""23780""
","""event"",""trial"",""time""
""fullscreenenter"",""1"",""4326""
","""event"",""trial"",""time""
""fullscreenexit"",""3"",""20821""
",,1231.8,run_exp/static/images/task_images/land.jpg,76,,,,,,,,,,,3,,,,,,,,,,,,,
travel,41,257958,0.0-15.0-0.0,"""event"",""trial"",""time""
""fullscreenenter"",""1"",""4326""
""fullscreenexit"",""3"",""20821""
""blur"",""3"",""22005""
""focus"",""3"",""23780""
","""event"",""trial"",""time""
""blur"",""3"",""22005""
","""event"",""trial"",""time""
""focus"",""3"",""23780""
","""event"",""trial"",""time""
""fullscreenenter"",""1"",""4326""
","""event"",""trial"",""time""
""fullscreenexit"",""3"",""20821""
",,,,,,,,,,,,"[{""stimulus"":""run_exp/static/images/task_images/rocket-01.jpg"",""time"":0.19999999552965164},{""stimulus"":""run_exp/static/images/task_images/rocket-02.jpg"",""time"":978.5},{""stimulus"":""run_exp/static/images/task_images/rocket-03.jpg"",""time"":1955.3999999985099},{""stimulus"":""run_exp/static/images/task_images/rocket-04.jpg"",""time"":2929},{""stimulus"":""run_exp/static/images/task_images/rocket-05.jpg"",""time"":3897.1999999955297},{""stimulus"":""run_exp/static/images/task_images/rocket-06.jpg"",""time"":4873.89999999851},{""stimulus"":""run_exp/static/images/task_images/rocket-07.jpg"",""time"":5846.29999999702},{""stimulus"":""run_exp/static/images/task_images/rocket-08.jpg"",""time"":6830.10000000149},{""stimulus"":""run_exp/static/images/task_images/rocket-09.jpg"",""time"":7796.29999999702}]",[],0,,,,,,,,,,,,,,
alien_welcome_prac,42,262991,0.0-15.0-1.0,"""event"",""trial"",""time""
""fullscreenenter"",""1"",""4326""
""fullscreenexit"",""3"",""20821""
""blur"",""3"",""22005""
""focus"",""3"",""23780""
","""event"",""trial"",""time""
""blur"",""3"",""22005""
","""event"",""trial"",""time""
""focus"",""3"",""23780""
","""event"",""trial"",""time""
""fullscreenenter"",""1"",""4326""
","""event"",""trial"",""time""
""fullscreenexit"",""3"",""20821""
",,null,run_exp/static/images/task_images/aliens/practice_aliens/planet/alien_planet-4.jpg,null,,,,,,,,,,,,,,,,,,,,,,,,
land_prac,43,263515,0.0-15.0-2.0,"""event"",""trial"",""time""
""fullscreenenter"",""1"",""4326""
""fullscreenexit"",""3"",""20821""
""blur"",""3"",""22005""
""focus"",""3"",""23780""
","""event"",""trial"",""time""
""blur"",""3"",""22005""
","""event"",""trial"",""time""
""focus"",""3"",""23780""
","""event"",""trial"",""time""
""fullscreenenter"",""1"",""4326""
","""event"",""trial"",""time""
""fullscreenexit"",""3"",""20821""
",,null,run_exp/static/images/task_images/land.jpg,null,,,,,,,106,,,0,,,,,,,,,,,,,,
dig_prac,44,265528,0.0-15.0-3.0,"""event"",""trial"",""time""
""fullscreenenter"",""1"",""4326""
""fullscreenexit"",""3"",""20821""
""blur"",""3"",""22005""
""focus"",""3"",""23780""
","""event"",""trial"",""time""
""blur"",""3"",""22005""
","""event"",""trial"",""time""
""focus"",""3"",""23780""
","""event"",""trial"",""time""
""fullscreenenter"",""1"",""4326""
","""event"",""trial"",""time""
""fullscreenexit"",""3"",""20821""
",,,,,,,,,,,,"[{""stimulus"":""run_exp/static/images/task_images/dig.jpg"",""time"":0.30000000447034836},{""stimulus"":""run_exp/static/images/task_images/land.jpg"",""time"":674.1000000014901},{""stimulus"":""run_exp/static/images/task_images/dig.jpg"",""time"":1337.8999999985099}]",[],,,,,,,,,,,,,,,
harvest_prac,45,266555,0.0-15.0-4.0,"""event"",""trial"",""time""
""fullscreenenter"",""1"",""4326""
""fullscreenexit"",""3"",""20821""
""blur"",""3"",""22005""
""focus"",""3"",""23780""
","""event"",""trial"",""time""
""blur"",""3"",""22005""
","""event"",""trial"",""time""
""focus"",""3"",""23780""
","""event"",""trial"",""time""
""fullscreenenter"",""1"",""4326""
","""event"",""trial"",""time""
""fullscreenexit"",""3"",""20821""
",,null,run_exp/static/images/task_images/barrel_text.jpg,null,,,,,,,,,,,,,,,,,,,,,,,,
decision_prac,46,267008,0.0-15.0-5.0,"""event"",""trial"",""time""
""fullscreenenter"",""1"",""4326""
""fullscreenexit"",""3"",""20821""
""blur"",""3"",""22005""
""focus"",""3"",""23780""
","""event"",""trial"",""time""
""blur"",""3"",""22005""
","""event"",""trial"",""time""
""focus"",""3"",""23780""
","""event"",""trial"",""time""
""fullscreenenter"",""1"",""4326""
","""event"",""trial"",""time""
""fullscreenexit"",""3"",""20821""
",,452.1,run_exp/static/images/task_images/land.jpg,65,,,,,,,,,,,4,,,,,,,,,,,,,
dig_prac,47,269014,0.0-16.0-0.0,"""event"",""trial"",""time""
""fullscreenenter"",""1"",""4326""
""fullscreenexit"",""3"",""20821""
""blur"",""3"",""22005""
""focus"",""3"",""23780""
","""event"",""trial"",""time""
""blur"",""3"",""22005""
","""event"",""trial"",""time""
""focus"",""3"",""23780""
","""event"",""trial"",""time""
""fullscreenenter"",""1"",""4326""
","""event"",""trial"",""time""
""fullscreenexit"",""3"",""20821""
",,,,,,,,,,,,"[{""stimulus"":""run_exp/static/images/task_images/dig.jpg"",""time"":0.10000000149011612},{""stimulus"":""run_exp/static/images/task_images/land.jpg"",""time"":708},{""stimulus"":""run_exp/static/images/task_images/dig.jpg"",""time"":1339}]",[],,,,,,,,,,,,,,,
harvest_prac,48,270046,0.0-16.0-1.0,"""event"",""trial"",""time""
""fullscreenenter"",""1"",""4326""
""fullscreenexit"",""3"",""20821""
""blur"",""3"",""22005""
""focus"",""3"",""23780""
","""event"",""trial"",""time""
""blur"",""3"",""22005""
","""event"",""trial"",""time""
""focus"",""3"",""23780""
","""event"",""trial"",""time""
""fullscreenenter"",""1"",""4326""
","""event"",""trial"",""time""
""fullscreenexit"",""3"",""20821""
",,null,run_exp/static/images/task_images/barrel_text.jpg,null,,,,,,,,,,,,,,,,,,,,,,,,
decision_prac,49,270842,0.0-16.0-2.0,"""event"",""trial"",""time""
""fullscreenenter"",""1"",""4326""
""fullscreenexit"",""3"",""20821""
""blur"",""3"",""22005""
""focus"",""3"",""23780""
","""event"",""trial"",""time""
""blur"",""3"",""22005""
","""event"",""trial"",""time""
""focus"",""3"",""23780""
","""event"",""trial"",""time""
""fullscreenenter"",""1"",""4326""
","""event"",""trial"",""time""
""fullscreenexit"",""3"",""20821""
",,794.1,run_exp/static/images/task_images/land.jpg,65,,,,,,,,,,,,1,,,,,,,,,,,,
quiz_instruc,50,278198,0.0-17.0-0.0,"""event"",""trial"",""time""
""fullscreenenter"",""1"",""4326""
""fullscreenexit"",""3"",""20821""
""blur"",""3"",""22005""
""focus"",""3"",""23780""
","""event"",""trial"",""time""
""blur"",""3"",""22005""
","""event"",""trial"",""time""
""focus"",""3"",""23780""
","""event"",""trial"",""time""
""fullscreenenter"",""1"",""4326""
","""event"",""trial"",""time""
""fullscreenexit"",""3"",""20821""
",,7353.5,run_exp/static/audio/clip_10_quiz.m4a,,,,,,,0,,,,,,,,,,,,,,,,,,
instruc_repeat,51,318171,0.0-17.0-1.0,"""event"",""trial"",""time""
""fullscreenenter"",""1"",""4326""
""fullscreenexit"",""3"",""20821""
""blur"",""3"",""22005""
""focus"",""3"",""23780""
","""event"",""trial"",""time""
""blur"",""3"",""22005""
","""event"",""trial"",""time""
""focus"",""3"",""23780""
","""event"",""trial"",""time""
""fullscreenenter"",""1"",""4326""
","""event"",""trial"",""time""
""fullscreenexit"",""3"",""20821""
",,null,"<p> Are you ready to play a practice game? </p> <p>In this practice game, you'll be digging up barrels of gems. But, in the real game, you'll be digging up the gems themselves. </p>",null,"<p>In this game, your goal is to collect as many gems as you can. That’s how you will win bonus money. </p> <p>The entire game will last 20 minutes no matter how many gems you collect or how many planets you visit. </p><p>To stay on a planet and dig again, press the letter A on your keyboard. To leave for a new planet, press the letter L.</p><p>The more you dig on a planet, the fewer gems you’ll get with each dig which is why you might consider leaving for a new planet. </p><p>When you arrive at a new planet, you’ll be greeted by an alien. What the alien looks like does not tell you anything about how much treasure is on the planet. </p>",,,,,,,,,,,,,,,,,,,,,,,
instruc_repeat_continue,52,320184,0.0-17.0-2.0,"""event"",""trial"",""time""
""fullscreenenter"",""1"",""4326""
""fullscreenexit"",""3"",""20821""
""blur"",""3"",""22005""
""focus"",""3"",""23780""
","""event"",""trial"",""time""
""blur"",""3"",""22005""
","""event"",""trial"",""time""
""focus"",""3"",""23780""
","""event"",""trial"",""time""
""fullscreenenter"",""1"",""4326""
","""event"",""trial"",""time""
""fullscreenexit"",""3"",""20821""
",,2011.6,"<p> Are you ready to play a practice game? </p> <p>In this practice game, you'll be digging up barrels of gems. But, in the real game, you'll be digging up the gems themselves. </p>",,,,,,,0,,,,,,,,,,,,,,,,,,
quiz_q_1_ask,53,324180,0.0-17.0-3.0,"""event"",""trial"",""time""
""fullscreenenter"",""1"",""4326""
""fullscreenexit"",""3"",""20821""
""blur"",""3"",""22005""
""focus"",""3"",""23780""
","""event"",""trial"",""time""
""blur"",""3"",""22005""
","""event"",""trial"",""time""
""focus"",""3"",""23780""
","""event"",""trial"",""time""
""fullscreenenter"",""1"",""4326""
","""event"",""trial"",""time""
""fullscreenexit"",""3"",""20821""
",,3994.4,run_exp/static/audio/clip_11_q1_ask.m4a,,,,,,,2,,,,,,,,,,,,,,,,,,
quiz_q_1_fb_correct,54,328191,0.0-18.0-0.0,"""event"",""trial"",""time""
""fullscreenenter"",""1"",""4326""
""fullscreenexit"",""3"",""20821""
""blur"",""3"",""22005""
""focus"",""3"",""23780""
","""event"",""trial"",""time""
""blur"",""3"",""22005""
","""event"",""trial"",""time""
""focus"",""3"",""23780""
","""event"",""trial"",""time""
""fullscreenenter"",""1"",""4326""
","""event"",""trial"",""time""
""fullscreenexit"",""3"",""20821""
",,null,run_exp/static/audio/clip_12_q1_correct.m4a,null,<p>That’s correct. You win extra money by collecting more gems.</p>,,,,,,,,,,,,,,,,,,,,,,,
quiz_q_2_ask,55,330632,0.0-18.0-1.0,"""event"",""trial"",""time""
""fullscreenenter"",""1"",""4326""
""fullscreenexit"",""3"",""20821""
""blur"",""3"",""22005""
""focus"",""3"",""23780""
","""event"",""trial"",""time""
""blur"",""3"",""22005""
","""event"",""trial"",""time""
""focus"",""3"",""23780""
","""event"",""trial"",""time""
""fullscreenenter"",""1"",""4326""
","""event"",""trial"",""time""
""fullscreenexit"",""3"",""20821""
",,2439.4,run_exp/static/audio/clip_14_q2_ask.m4a,,,,,,,1,,,,,,,,,,,,,,,,,,
quiz_q_2_fb_correct,56,334826,0.0-19.0-0.0,"""event"",""trial"",""time""
""fullscreenenter"",""1"",""4326""
""fullscreenexit"",""3"",""20821""
""blur"",""3"",""22005""
""focus"",""3"",""23780""
","""event"",""trial"",""time""
""blur"",""3"",""22005""
","""event"",""trial"",""time""
""focus"",""3"",""23780""
","""event"",""trial"",""time""
""fullscreenenter"",""1"",""4326""
","""event"",""trial"",""time""
""fullscreenexit"",""3"",""20821""
",,null,run_exp/static/audio/clip_15_q2_correct.m4a,null,<p>That’s correct. The experiment is 20 minutes no matter what.</p>,,,,,,,,,,,,,,,,,,,,,,,
quiz_q_3_ask,57,339134,0.0-19.0-1.0,"""event"",""trial"",""time""
""fullscreenenter"",""1"",""4326""
""fullscreenexit"",""3"",""20821""
""blur"",""3"",""22005""
""focus"",""3"",""23780""
","""event"",""trial"",""time""
""blur"",""3"",""22005""
","""event"",""trial"",""time""
""focus"",""3"",""23780""
","""event"",""trial"",""time""
""fullscreenenter"",""1"",""4326""
","""event"",""trial"",""time""
""fullscreenexit"",""3"",""20821""
",,4306.2,run_exp/static/audio/clip_17_q3_ask.m4a,,,,,,,1,,,,,,,,,,,,,,,,,,
quiz_q_3_fb_correct,58,343295,0.0-20.0-0.0,"""event"",""trial"",""time""
""fullscreenenter"",""1"",""4326""
""fullscreenexit"",""3"",""20821""
""blur"",""3"",""22005""
""focus"",""3"",""23780""
","""event"",""trial"",""time""
""blur"",""3"",""22005""
","""event"",""trial"",""time""
""focus"",""3"",""23780""
","""event"",""trial"",""time""
""fullscreenenter"",""1"",""4326""
","""event"",""trial"",""time""
""fullscreenexit"",""3"",""20821""
",,null,run_exp/static/audio/clip_18_q3_correct.m4a,null,<p> That’s correct. You press the letter L to travel to a new planet.</p>,,,,,,,,,,,,,,,,,,,,,,,
quiz_q_4_ask,59,346214,0.0-20.0-1.0,"""event"",""trial"",""time""
""fullscreenenter"",""1"",""4326""
""fullscreenexit"",""3"",""20821""
""blur"",""3"",""22005""
""focus"",""3"",""23780""
","""event"",""trial"",""time""
""blur"",""3"",""22005""
","""event"",""trial"",""time""
""focus"",""3"",""23780""
","""event"",""trial"",""time""
""fullscreenenter"",""1"",""4326""
","""event"",""trial"",""time""
""fullscreenexit"",""3"",""20821""
",,2916.8,run_exp/static/audio/clip_20_q4_ask.m4a,,,,,,,0,,,,,,,,,,,,,,,,,,
quiz_q_4_fb_correct,60,351700,0.0-21.0-0.0,"""event"",""trial"",""time""
""fullscreenenter"",""1"",""4326""
""fullscreenexit"",""3"",""20821""
""blur"",""3"",""22005""
""focus"",""3"",""23780""
","""event"",""trial"",""time""
""blur"",""3"",""22005""
","""event"",""trial"",""time""
""focus"",""3"",""23780""
","""event"",""trial"",""time""
""fullscreenenter"",""1"",""4326""
","""event"",""trial"",""time""
""fullscreenexit"",""3"",""20821""
",,null,run_exp/static/audio/clip_21_q4_correct.m4a,null,<p> That’s correct. The more you dig on a planet the fewer gems you’ll get with each dig. </p>,,,,,,,,,,,,,,,,,,,,,,,
quiz_q_5_ask,61,354548,0.0-21.0-1.0,"""event"",""trial"",""time""
""fullscreenenter"",""1"",""4326""
""fullscreenexit"",""3"",""20821""
""blur"",""3"",""22005""
""focus"",""3"",""23780""
","""event"",""trial"",""time""
""blur"",""3"",""22005""
","""event"",""trial"",""time""
""focus"",""3"",""23780""
","""event"",""trial"",""time""
""fullscreenenter"",""1"",""4326""
","""event"",""trial"",""time""
""fullscreenexit"",""3"",""20821""
",,2846.2,run_exp/static/audio/clip_23_q5_ask.m4a,,,,,,,1,,,,,,,,,,,,,,,,,,
quiz_q_5_fb_correct,62,359722,0.0-22.0-0.0,"""event"",""trial"",""time""
""fullscreenenter"",""1"",""4326""
""fullscreenexit"",""3"",""20821""
""blur"",""3"",""22005""
""focus"",""3"",""23780""
","""event"",""trial"",""time""
""blur"",""3"",""22005""
","""event"",""trial"",""time""
""focus"",""3"",""23780""
","""event"",""trial"",""time""
""fullscreenenter"",""1"",""4326""
","""event"",""trial"",""time""
""fullscreenexit"",""3"",""20821""
",,null,run_exp/static/audio/clip_24_q5_correct.m4a,null,<p> That’s correct. The alien tells you nothing about how much treasure is on the planet.</p>,,,,,,,,,,,,,,,,,,,,,,,
quiz_correct,63,363349,0.0-23.0-0.0,"""event"",""trial"",""time""
""fullscreenenter"",""1"",""4326""
""fullscreenexit"",""3"",""20821""
""blur"",""3"",""22005""
""focus"",""3"",""23780""
","""event"",""trial"",""time""
""blur"",""3"",""22005""
","""event"",""trial"",""time""
""focus"",""3"",""23780""
","""event"",""trial"",""time""
""fullscreenenter"",""1"",""4326""
","""event"",""trial"",""time""
""fullscreenexit"",""3"",""20821""
",,null,run_exp/static/audio/clip_26_correct_quiz.m4a,null,,,,,,,,,,,,,,,,,,,,,,,,
quiz_correct_continue,64,364667,0.0-23.0-1.0,"""event"",""trial"",""time""
""fullscreenenter"",""1"",""4326""
""fullscreenexit"",""3"",""20821""
""blur"",""3"",""22005""
""focus"",""3"",""23780""
","""event"",""trial"",""time""
""blur"",""3"",""22005""
","""event"",""trial"",""time""
""focus"",""3"",""23780""
","""event"",""trial"",""time""
""fullscreenenter"",""1"",""4326""
","""event"",""trial"",""time""
""fullscreenexit"",""3"",""20821""
",,1317.5,<p>Good job! You're now ready to move on to the real game!</p>,,,,,,,0,,,,,,,,,,,,,,,,,,
audio-keyboard-response,65,374975,0.0-23.0-2.0,"""event"",""trial"",""time""
""fullscreenenter"",""1"",""4326""
""fullscreenexit"",""3"",""20821""
""blur"",""3"",""22005""
""focus"",""3"",""23780""
","""event"",""trial"",""time""
""blur"",""3"",""22005""
","""event"",""trial"",""time""
""focus"",""3"",""23780""
","""event"",""trial"",""time""
""fullscreenenter"",""1"",""4326""
","""event"",""trial"",""time""
""fullscreenexit"",""3"",""20821""
",,null,run_exp/static/audio/clip_28_real_game.m4a,null,,,,,,,,,,,,,,,,,,,,,,,,
instruc_begin_exp_contine,66,375990,0.0-23.0-3.0,"""event"",""trial"",""time""
""fullscreenenter"",""1"",""4326""
""fullscreenexit"",""3"",""20821""
""blur"",""3"",""22005""
""focus"",""3"",""23780""
","""event"",""trial"",""time""
""blur"",""3"",""22005""
","""event"",""trial"",""time""
""focus"",""3"",""23780""
","""event"",""trial"",""time""
""fullscreenenter"",""1"",""4326""
","""event"",""trial"",""time""
""fullscreenexit"",""3"",""20821""
",,1013.7,"<p>Now that you know how  to dig for space treasure and travel to new planets,you can start exploring! </p><p>Do you want to go over the instructions again or get started with the real game?</p>",,,,,,,1,,,,,,1,,,,,,,,,,,,
alien_welcome,67,381024,0.0-24.0-0.0,"""event"",""trial"",""time""
""fullscreenenter"",""1"",""4326""
""fullscreenexit"",""3"",""20821""
""blur"",""3"",""22005""
""focus"",""3"",""23780""
","""event"",""trial"",""time""
""blur"",""3"",""22005""
","""event"",""trial"",""time""
""focus"",""3"",""23780""
","""event"",""trial"",""time""
""fullscreenenter"",""1"",""4326""
","""event"",""trial"",""time""
""fullscreenexit"",""3"",""20821""
",,null,run_exp/static/images/task_images/aliens/old_aliens/planet/alien_planet-32.jpg,null,,,,,,,,,,,,,32,"32,11,52,56,54,33,66,76,15,24,13,26,57,29,61,55,43,14,18,51,19,69,31,74,40,36,72,45,28,17,37,3,67,48,49,21,2,16,78,44,80,20,60,75,12,4,47,9,53,42,27,62,41,70,22,8,77,6,38,1",,,,,,,,,,
land,68,381529,0.0-24.0-1.0,"""event"",""trial"",""time""
""fullscreenenter"",""1"",""4326""
""fullscreenexit"",""3"",""20821""
""blur"",""3"",""22005""
""focus"",""3"",""23780""
","""event"",""trial"",""time""
""blur"",""3"",""22005""
","""event"",""trial"",""time""
""focus"",""3"",""23780""
","""event"",""trial"",""time""
""fullscreenenter"",""1"",""4326""
","""event"",""trial"",""time""
""fullscreenexit"",""3"",""20821""
",,null,run_exp/static/images/task_images/land.jpg,null,,,,,,,91,,,1,,,,,,,,,,,,,,
dig,69,383540,0.0-24.0-2.0,"""event"",""trial"",""time""
""fullscreenenter"",""1"",""4326""
""fullscreenexit"",""3"",""20821""
""blur"",""3"",""22005""
""focus"",""3"",""23780""
","""event"",""trial"",""time""
""blur"",""3"",""22005""
","""event"",""trial"",""time""
""focus"",""3"",""23780""
","""event"",""trial"",""time""
""fullscreenenter"",""1"",""4326""
","""event"",""trial"",""time""
""fullscreenexit"",""3"",""20821""
",,,,,,,,,,,,"[{""stimulus"":""run_exp/static/images/task_images/dig.jpg"",""time"":0.19999999552965164},{""stimulus"":""run_exp/static/images/task_images/land.jpg"",""time"":674.5999999940395},{""stimulus"":""run_exp/static/images/task_images/dig.jpg"",""time"":1339}]",[],1,,,,,,,,,,,,,,
harvest,70,384565,0.0-24.0-3.0,"""event"",""trial"",""time""
""fullscreenenter"",""1"",""4326""
""fullscreenexit"",""3"",""20821""
""blur"",""3"",""22005""
""focus"",""3"",""23780""
","""event"",""trial"",""time""
""blur"",""3"",""22005""
","""event"",""trial"",""time""
""focus"",""3"",""23780""
","""event"",""trial"",""time""
""fullscreenenter"",""1"",""4326""
","""event"",""trial"",""time""
""fullscreenexit"",""3"",""20821""
",,null,run_exp/static/images/task_images/gems/91.jpg,null,,,,,,,14,,,1,,,,,91,0.158287618,0.153846154,,,,,,,
decision,71,386014,0.0-24.0-4.0,"""event"",""trial"",""time""
""fullscreenenter"",""1"",""4326""
""fullscreenexit"",""3"",""20821""
""blur"",""3"",""22005""
""focus"",""3"",""23780""
","""event"",""trial"",""time""
""blur"",""3"",""22005""
","""event"",""trial"",""time""
""focus"",""3"",""23780""
","""event"",""trial"",""time""
""fullscreenenter"",""1"",""4326""
","""event"",""trial"",""time""
""fullscreenexit"",""3"",""20821""
",,1447.3,run_exp/static/images/task_images/land.jpg,65,,,,,,,14,,,1,,,,,,,,10022,1,0,FALSE,,,
dig,72,387575,0.0-25.0-0.0,"""event"",""trial"",""time""
""fullscreenenter"",""1"",""4326""
""fullscreenexit"",""3"",""20821""
""blur"",""3"",""22005""
""focus"",""3"",""23780""
","""event"",""trial"",""time""
""blur"",""3"",""22005""
","""event"",""trial"",""time""
""focus"",""3"",""23780""
","""event"",""trial"",""time""
""fullscreenenter"",""1"",""4326""
","""event"",""trial"",""time""
""fullscreenexit"",""3"",""20821""
",,,,,,,,,,,,"[{""stimulus"":""run_exp/static/images/task_images/dig.jpg"",""time"":0.09999999403953552},{""stimulus"":""run_exp/static/images/task_images/land.jpg"",""time"":522.5999999940395},{""stimulus"":""run_exp/static/images/task_images/dig.jpg"",""time"":1040.6999999955297}]",[],1,,,,,,,,,,,,,,
harvest,73,388609,0.0-25.0-1.0,"""event"",""trial"",""time""
""fullscreenenter"",""1"",""4326""
""fullscreenexit"",""3"",""20821""
""blur"",""3"",""22005""
""focus"",""3"",""23780""
","""event"",""trial"",""time""
""blur"",""3"",""22005""
","""event"",""trial"",""time""
""focus"",""3"",""23780""
","""event"",""trial"",""time""
""fullscreenenter"",""1"",""4326""
","""event"",""trial"",""time""
""fullscreenexit"",""3"",""20821""
",,null,run_exp/static/images/task_images/gems/14.jpg,null,,,,,,,4,,,1,,,,,14,0.29951855,0.285714286,,,,,,,
decision,74,389879,0.0-25.0-2.0,"""event"",""trial"",""time""
""fullscreenenter"",""1"",""4326""
""fullscreenexit"",""3"",""20821""
""blur"",""3"",""22005""
""focus"",""3"",""23780""
","""event"",""trial"",""time""
""blur"",""3"",""22005""
","""event"",""trial"",""time""
""focus"",""3"",""23780""
","""event"",""trial"",""time""
""fullscreenenter"",""1"",""4326""
","""event"",""trial"",""time""
""fullscreenexit"",""3"",""20821""
",,1268.5,run_exp/static/images/task_images/land.jpg,65,,,,,,,4,,,1,,,,,,,,13887,1,1,FALSE,,,
dig,75,391616,0.0-26.0-0.0,"""event"",""trial"",""time""
""fullscreenenter"",""1"",""4326""
""fullscreenexit"",""3"",""20821""
""blur"",""3"",""22005""
""focus"",""3"",""23780""
","""event"",""trial"",""time""
""blur"",""3"",""22005""
","""event"",""trial"",""time""
""focus"",""3"",""23780""
","""event"",""trial"",""time""
""fullscreenenter"",""1"",""4326""
","""event"",""trial"",""time""
""fullscreenexit"",""3"",""20821""
",,,,,,,,,,,,"[{""stimulus"":""run_exp/static/images/task_images/dig.jpg"",""time"":0.10000000149011612},{""stimulus"":""run_exp/static/images/task_images/land.jpg"",""time"":586.3999999985099},{""stimulus"":""run_exp/static/images/task_images/dig.jpg"",""time"":1159.2999999970198}]",[],1,,,,,,,,,,,,,,
harvest,76,392623,0.0-26.0-1.0,"""event"",""trial"",""time""
""fullscreenenter"",""1"",""4326""
""fullscreenexit"",""3"",""20821""
""blur"",""3"",""22005""
""focus"",""3"",""23780""
","""event"",""trial"",""time""
""blur"",""3"",""22005""
","""event"",""trial"",""time""
""focus"",""3"",""23780""
","""event"",""trial"",""time""
""fullscreenenter"",""1"",""4326""
","""event"",""trial"",""time""
""fullscreenexit"",""3"",""20821""
",,null,run_exp/static/images/task_images/gems/4.jpg,null,,,,,,,1,,,1,,,,,4,0.192247107,0.25,,,,,,,
decision,77,395469,0.0-26.0-2.0,"""event"",""trial"",""time""
""fullscreenenter"",""1"",""4326""
""fullscreenexit"",""3"",""20821""
""blur"",""3"",""22005""
""focus"",""3"",""23780""
","""event"",""trial"",""time""
""blur"",""3"",""22005""
","""event"",""trial"",""time""
""focus"",""3"",""23780""
","""event"",""trial"",""time""
""fullscreenenter"",""1"",""4326""
","""event"",""trial"",""time""
""fullscreenexit"",""3"",""20821""
",,2845.4,run_exp/static/images/task_images/land.jpg,76,,,,,,,1,,,1,,,,,,,,19477,1,2,TRUE,,,
travel,78,402623,0.0-27.0-0.0,"""event"",""trial"",""time""
""fullscreenenter"",""1"",""4326""
""fullscreenexit"",""3"",""20821""
""blur"",""3"",""22005""
""focus"",""3"",""23780""
","""event"",""trial"",""time""
""blur"",""3"",""22005""
","""event"",""trial"",""time""
""focus"",""3"",""23780""
","""event"",""trial"",""time""
""fullscreenenter"",""1"",""4326""
","""event"",""trial"",""time""
""fullscreenexit"",""3"",""20821""
",,,,,,,,,,,,"[{""stimulus"":""run_exp/static/images/task_images/rocket-01.jpg"",""time"":0},{""stimulus"":""run_exp/static/images/task_images/rocket-02.jpg"",""time"":800.3000000044703},{""stimulus"":""run_exp/static/images/task_images/rocket-03.jpg"",""time"":1593.3999999985099},{""stimulus"":""run_exp/static/images/task_images/rocket-04.jpg"",""time"":2384.89999999851},{""stimulus"":""run_exp/static/images/task_images/rocket-05.jpg"",""time"":3184.2000000029802},{""stimulus"":""run_exp/static/images/task_images/rocket-06.jpg"",""time"":3976.7000000029802},{""stimulus"":""run_exp/static/images/task_images/rocket-07.jpg"",""time"":4773.39999999851},{""stimulus"":""run_exp/static/images/task_images/rocket-08.jpg"",""time"":5562.89999999851},{""stimulus"":""run_exp/static/images/task_images/rocket-09.jpg"",""time"":6362.70000000298}]",[],1,,,,,,,,,,,,,,
alien_welcome,79,407659,0.0-27.0-1.0,"""event"",""trial"",""time""
""fullscreenenter"",""1"",""4326""
""fullscreenexit"",""3"",""20821""
""blur"",""3"",""22005""
""focus"",""3"",""23780""
","""event"",""trial"",""time""
""blur"",""3"",""22005""
","""event"",""trial"",""time""
""focus"",""3"",""23780""
","""event"",""trial"",""time""
""fullscreenenter"",""1"",""4326""
","""event"",""trial"",""time""
""fullscreenexit"",""3"",""20821""
",,null,run_exp/static/images/task_images/aliens/old_aliens/planet/alien_planet-11.jpg,null,,,,,,,,,,,,,11,"32,11,52,56,54,33,66,76,15,24,13,26,57,29,61,55,43,14,18,51,19,69,31,74,40,36,72,45,28,17,37,3,67,48,49,21,2,16,78,44,80,20,60,75,12,4,47,9,53,42,27,62,41,70,22,8,77,6,38,1",,,,,,,,,,
land,80,408191,0.0-27.0-2.0,"""event"",""trial"",""time""
""fullscreenenter"",""1"",""4326""
""fullscreenexit"",""3"",""20821""
""blur"",""3"",""22005""
""focus"",""3"",""23780""
","""event"",""trial"",""time""
""blur"",""3"",""22005""
","""event"",""trial"",""time""
""focus"",""3"",""23780""
","""event"",""trial"",""time""
""fullscreenenter"",""1"",""4326""
","""event"",""trial"",""time""
""fullscreenexit"",""3"",""20821""
",,null,run_exp/static/images/task_images/land.jpg,null,,,,,,,101,,,2,,,,,,,,,,,,,,
dig,81,410201,0.0-27.0-3.0,"""event"",""trial"",""time""
""fullscreenenter"",""1"",""4326""
""fullscreenexit"",""3"",""20821""
""blur"",""3"",""22005""
""focus"",""3"",""23780""
","""event"",""trial"",""time""
""blur"",""3"",""22005""
","""event"",""trial"",""time""
""focus"",""3"",""23780""
","""event"",""trial"",""time""
""fullscreenenter"",""1"",""4326""
","""event"",""trial"",""time""
""fullscreenexit"",""3"",""20821""
",,,,,,,,,,,,"[{""stimulus"":""run_exp/static/images/task_images/dig.jpg"",""time"":0.19999999552965164},{""stimulus"":""run_exp/static/images/task_images/land.jpg"",""time"":672.1999999955297},{""stimulus"":""run_exp/static/images/task_images/dig.jpg"",""time"":1348.2999999970198}]",[],2,,,,,,,,,,,,,,
harvest,82,411231,0.0-27.0-4.0,"""event"",""trial"",""time""
""fullscreenenter"",""1"",""4326""
""fullscreenexit"",""3"",""20821""
""blur"",""3"",""22005""
""focus"",""3"",""23780""
","""event"",""trial"",""time""
""blur"",""3"",""22005""
","""event"",""trial"",""time""
""focus"",""3"",""23780""
","""event"",""trial"",""time""
""fullscreenenter"",""1"",""4326""
","""event"",""trial"",""time""
""fullscreenexit"",""3"",""20821""
",,null,run_exp/static/images/task_images/gems/101.jpg,null,,,,,,,17,,,2,,,,,101,0.166773882,0.168316832,,,,,,,
decision,83,411994,0.0-27.0-5.0,"""event"",""trial"",""time""
""fullscreenenter"",""1"",""4326""
""fullscreenexit"",""3"",""20821""
""blur"",""3"",""22005""
""focus"",""3"",""23780""
","""event"",""trial"",""time""
""blur"",""3"",""22005""
","""event"",""trial"",""time""
""focus"",""3"",""23780""
","""event"",""trial"",""time""
""fullscreenenter"",""1"",""4326""
","""event"",""trial"",""time""
""fullscreenexit"",""3"",""20821""
",,762.4,run_exp/static/images/task_images/land.jpg,65,,,,,,,17,,,2,,,,,,,,36003,1,0,FALSE,,,
dig,84,414244,0.0-28.0-0.0,"""event"",""trial"",""time""
""fullscreenenter"",""1"",""4326""
""fullscreenexit"",""3"",""20821""
""blur"",""3"",""22005""
""focus"",""3"",""23780""
","""event"",""trial"",""time""
""blur"",""3"",""22005""
","""event"",""trial"",""time""
""focus"",""3"",""23780""
","""event"",""trial"",""time""
""fullscreenenter"",""1"",""4326""
","""event"",""trial"",""time""
""fullscreenexit"",""3"",""20821""
",,,,,,,,,,,,"[{""stimulus"":""run_exp/static/images/task_images/dig.jpg"",""time"":0.19999999552965164},{""stimulus"":""run_exp/static/images/task_images/land.jpg"",""time"":750.1999999955297},{""stimulus"":""run_exp/static/images/task_images/dig.jpg"",""time"":1495.7999999970198}]",[],2,,,,,,,,,,,,,,
harvest,85,415270,0.0-28.0-1.0,"""event"",""trial"",""time""
""fullscreenenter"",""1"",""4326""
""fullscreenexit"",""3"",""20821""
""blur"",""3"",""22005""
""focus"",""3"",""23780""
","""event"",""trial"",""time""
""blur"",""3"",""22005""
","""event"",""trial"",""time""
""focus"",""3"",""23780""
","""event"",""trial"",""time""
""fullscreenenter"",""1"",""4326""
","""event"",""trial"",""time""
""fullscreenexit"",""3"",""20821""
",,null,run_exp/static/images/task_images/gems/17.jpg,null,,,,,,,3,,,2,,,,,17,0.180527993,0.176470588,,,,,,,
decision,86,416330,0.0-28.0-2.0,"""event"",""trial"",""time""
""fullscreenenter"",""1"",""4326""
""fullscreenexit"",""3"",""20821""
""blur"",""3"",""22005""
""focus"",""3"",""23780""
","""event"",""trial"",""time""
""blur"",""3"",""22005""
","""event"",""trial"",""time""
""focus"",""3"",""23780""
","""event"",""trial"",""time""
""fullscreenenter"",""1"",""4326""
","""event"",""trial"",""time""
""fullscreenexit"",""3"",""20821""
",,1058.9,run_exp/static/images/task_images/land.jpg,76,,,,,,,3,,,2,,,,,,,,40338,1,1,TRUE,,,
travel,87,425274,0.0-29.0-0.0,"""event"",""trial"",""time""
""fullscreenenter"",""1"",""4326""
""fullscreenexit"",""3"",""20821""
""blur"",""3"",""22005""
""focus"",""3"",""23780""
","""event"",""trial"",""time""
""blur"",""3"",""22005""
","""event"",""trial"",""time""
""focus"",""3"",""23780""
","""event"",""trial"",""time""
""fullscreenenter"",""1"",""4326""
","""event"",""trial"",""time""
""fullscreenexit"",""3"",""20821""
",,,,,,,,,,,,"[{""stimulus"":""run_exp/static/images/task_images/rocket-01.jpg"",""time"":0},{""stimulus"":""run_exp/static/images/task_images/rocket-02.jpg"",""time"":999},{""stimulus"":""run_exp/static/images/task_images/rocket-03.jpg"",""time"":1994.1000000014901},{""stimulus"":""run_exp/static/images/task_images/rocket-04.jpg"",""time"":2981.60000000149},{""stimulus"":""run_exp/static/images/task_images/rocket-05.jpg"",""time"":3985.10000000149},{""stimulus"":""run_exp/static/images/task_images/rocket-06.jpg"",""time"":4977.39999999851},{""stimulus"":""run_exp/static/images/task_images/rocket-07.jpg"",""time"":5964.70000000298},{""stimulus"":""run_exp/static/images/task_images/rocket-08.jpg"",""time"":6960},{""stimulus"":""run_exp/static/images/task_images/rocket-09.jpg"",""time"":7948.60000000149}]",[],2,,,,,,,,,,,,,,
alien_welcome,88,430304,0.0-29.0-1.0,"""event"",""trial"",""time""
""fullscreenenter"",""1"",""4326""
""fullscreenexit"",""3"",""20821""
""blur"",""3"",""22005""
""focus"",""3"",""23780""
","""event"",""trial"",""time""
""blur"",""3"",""22005""
","""event"",""trial"",""time""
""focus"",""3"",""23780""
","""event"",""trial"",""time""
""fullscreenenter"",""1"",""4326""
","""event"",""trial"",""time""
""fullscreenexit"",""3"",""20821""
",,null,run_exp/static/images/task_images/aliens/old_aliens/planet/alien_planet-52.jpg,null,,,,,,,,,,,,,52,"32,11,52,56,54,33,66,76,15,24,13,26,57,29,61,55,43,14,18,51,19,69,31,74,40,36,72,45,28,17,37,3,67,48,49,21,2,16,78,44,80,20,60,75,12,4,47,9,53,42,27,62,41,70,22,8,77,6,38,1",,,,,,,,,,
land,89,430830,0.0-29.0-2.0,"""event"",""trial"",""time""
""fullscreenenter"",""1"",""4326""
""fullscreenexit"",""3"",""20821""
""blur"",""3"",""22005""
""focus"",""3"",""23780""
","""event"",""trial"",""time""
""blur"",""3"",""22005""
","""event"",""trial"",""time""
""focus"",""3"",""23780""
","""event"",""trial"",""time""
""fullscreenenter"",""1"",""4326""
","""event"",""trial"",""time""
""fullscreenexit"",""3"",""20821""
",,null,run_exp/static/images/task_images/land.jpg,null,,,,,,,97,,,3,,,,,,,,,,,,,,
dig,90,432843,0.0-29.0-3.0,"""event"",""trial"",""time""
""fullscreenenter"",""1"",""4326""
""fullscreenexit"",""3"",""20821""
""blur"",""3"",""22005""
""focus"",""3"",""23780""
","""event"",""trial"",""time""
""blur"",""3"",""22005""
","""event"",""trial"",""time""
""focus"",""3"",""23780""
","""event"",""trial"",""time""
""fullscreenenter"",""1"",""4326""
","""event"",""trial"",""time""
""fullscreenexit"",""3"",""20821""
",,,,,,,,,,,,"[{""stimulus"":""run_exp/static/images/task_images/dig.jpg"",""time"":0.5},{""stimulus"":""run_exp/static/images/task_images/land.jpg"",""time"":678.2999999970198},{""stimulus"":""run_exp/static/images/task_images/dig.jpg"",""time"":1339.6000000014901}]",[],3,,,,,,,,,,,,,,
harvest,91,433869,0.0-29.0-4.0,"""event"",""trial"",""time""
""fullscreenenter"",""1"",""4326""
""fullscreenexit"",""3"",""20821""
""blur"",""3"",""22005""
""focus"",""3"",""23780""
","""event"",""trial"",""time""
""blur"",""3"",""22005""
","""event"",""trial"",""time""
""focus"",""3"",""23780""
","""event"",""trial"",""time""
""fullscreenenter"",""1"",""4326""
","""event"",""trial"",""time""
""fullscreenexit"",""3"",""20821""
",,null,run_exp/static/images/task_images/gems/97.jpg,null,,,,,,,45,,,3,,,,,97,0.463727504,0.463917526,,,,,,,
decision,92,434472,0.0-29.0-5.0,"""event"",""trial"",""time""
""fullscreenenter"",""1"",""4326""
""fullscreenexit"",""3"",""20821""
""blur"",""3"",""22005""
""focus"",""3"",""23780""
","""event"",""trial"",""time""
""blur"",""3"",""22005""
","""event"",""trial"",""time""
""focus"",""3"",""23780""
","""event"",""trial"",""time""
""fullscreenenter"",""1"",""4326""
","""event"",""trial"",""time""
""fullscreenexit"",""3"",""20821""
",,601.7,run_exp/static/images/task_images/land.jpg,65,,,,,,,45,,,3,,,,,,,,58480,1,0,FALSE,,,
dig,93,436875,0.0-30.0-0.0,"""event"",""trial"",""time""
""fullscreenenter"",""1"",""4326""
""fullscreenexit"",""3"",""20821""
""blur"",""3"",""22005""
""focus"",""3"",""23780""
","""event"",""trial"",""time""
""blur"",""3"",""22005""
","""event"",""trial"",""time""
""focus"",""3"",""23780""
","""event"",""trial"",""time""
""fullscreenenter"",""1"",""4326""
","""event"",""trial"",""time""
""fullscreenexit"",""3"",""20821""
",,,,,,,,,,,,"[{""stimulus"":""run_exp/static/images/task_images/dig.jpg"",""time"":0.29999999701976776},{""stimulus"":""run_exp/static/images/task_images/land.jpg"",""time"":811.6999999955297},{""stimulus"":""run_exp/static/images/task_images/dig.jpg"",""time"":1611.6999999955297}]",[],3,,,,,,,,,,,,,,
harvest,94,437902,0.0-30.0-1.0,"""event"",""trial"",""time""
""fullscreenenter"",""1"",""4326""
""fullscreenexit"",""3"",""20821""
""blur"",""3"",""22005""
""focus"",""3"",""23780""
","""event"",""trial"",""time""
""blur"",""3"",""22005""
","""event"",""trial"",""time""
""focus"",""3"",""23780""
","""event"",""trial"",""time""
""fullscreenenter"",""1"",""4326""
","""event"",""trial"",""time""
""fullscreenexit"",""3"",""20821""
",,null,run_exp/static/images/task_images/gems/45.jpg,null,,,,,,,23,,,3,,,,,45,0.511259815,0.511111111,,,,,,,
decision,95,438474,0.0-30.0-2.0,"""event"",""trial"",""time""
""fullscreenenter"",""1"",""4326""
""fullscreenexit"",""3"",""20821""
""blur"",""3"",""22005""
""focus"",""3"",""23780""
","""event"",""trial"",""time""
""blur"",""3"",""22005""
","""event"",""trial"",""time""
""focus"",""3"",""23780""
","""event"",""trial"",""time""
""fullscreenenter"",""1"",""4326""
","""event"",""trial"",""time""
""fullscreenexit"",""3"",""20821""
",,570.7,run_exp/static/images/task_images/land.jpg,76,,,,,,,23,,,3,,,,,,,,62482,1,1,TRUE,,,
travel,96,447909,0.0-31.0-0.0,"""event"",""trial"",""time""
""fullscreenenter"",""1"",""4326""
""fullscreenexit"",""3"",""20821""
""blur"",""3"",""22005""
""focus"",""3"",""23780""
","""event"",""trial"",""time""
""blur"",""3"",""22005""
","""event"",""trial"",""time""
""focus"",""3"",""23780""
","""event"",""trial"",""time""
""fullscreenenter"",""1"",""4326""
","""event"",""trial"",""time""
""fullscreenexit"",""3"",""20821""
",,,,,,,,,,,,"[{""stimulus"":""run_exp/static/images/task_images/rocket-01.jpg"",""time"":0.10000000149011612},{""stimulus"":""run_exp/static/images/task_images/rocket-02.jpg"",""time"":1054.6000000014901},{""stimulus"":""run_exp/static/images/task_images/rocket-03.jpg"",""time"":2100.5},{""stimulus"":""run_exp/static/images/task_images/rocket-04.jpg"",""time"":3148.2999999970198},{""stimulus"":""run_exp/static/images/task_images/rocket-05.jpg"",""time"":4201.29999999702},{""stimulus"":""run_exp/static/images/task_images/rocket-06.jpg"",""time"":5236.60000000149},{""stimulus"":""run_exp/static/images/task_images/rocket-07.jpg"",""time"":6289.29999999702},{""stimulus"":""run_exp/static/images/task_images/rocket-08.jpg"",""time"":7337.29999999702},{""stimulus"":""run_exp/static/images/task_images/rocket-09.jpg"",""time"":8384.20000000298}]",[],3,,,,,,,,,,,,,,
alien_welcome,97,452912,0.0-31.0-1.0,"""event"",""trial"",""time""
""fullscreenenter"",""1"",""4326""
""fullscreenexit"",""3"",""20821""
""blur"",""3"",""22005""
""focus"",""3"",""23780""
","""event"",""trial"",""time""
""blur"",""3"",""22005""
","""event"",""trial"",""time""
""focus"",""3"",""23780""
","""event"",""trial"",""time""
""fullscreenenter"",""1"",""4326""
","""event"",""trial"",""time""
""fullscreenexit"",""3"",""20821""
",,null,run_exp/static/images/task_images/aliens/old_aliens/planet/alien_planet-56.jpg,null,,,,,,,,,,,,,56,"32,11,52,56,54,33,66,76,15,24,13,26,57,29,61,55,43,14,18,51,19,69,31,74,40,36,72,45,28,17,37,3,67,48,49,21,2,16,78,44,80,20,60,75,12,4,47,9,53,42,27,62,41,70,22,8,77,6,38,1",,,,,,,,,,
land,98,453424,0.0-31.0-2.0,"""event"",""trial"",""time""
""fullscreenenter"",""1"",""4326""
""fullscreenexit"",""3"",""20821""
""blur"",""3"",""22005""
""focus"",""3"",""23780""
","""event"",""trial"",""time""
""blur"",""3"",""22005""
","""event"",""trial"",""time""
""focus"",""3"",""23780""
","""event"",""trial"",""time""
""fullscreenenter"",""1"",""4326""
","""event"",""trial"",""time""
""fullscreenexit"",""3"",""20821""
",,null,run_exp/static/images/task_images/land.jpg,null,,,,,,,100,,,4,,,,,,,,,,,,,,
dig,99,455435,0.0-31.0-3.0,"""event"",""trial"",""time""
""fullscreenenter"",""1"",""4326""
""fullscreenexit"",""3"",""20821""
""blur"",""3"",""22005""
""focus"",""3"",""23780""
","""event"",""trial"",""time""
""blur"",""3"",""22005""
","""event"",""trial"",""time""
""focus"",""3"",""23780""
","""event"",""trial"",""time""
""fullscreenenter"",""1"",""4326""
","""event"",""trial"",""time""
""fullscreenexit"",""3"",""20821""
",,,,,,,,,,,,"[{""stimulus"":""run_exp/static/images/task_images/dig.jpg"",""time"":0.10000000149011612},{""stimulus"":""run_exp/static/images/task_images/land.jpg"",""time"":676.4000000059605},{""stimulus"":""run_exp/static/images/task_images/dig.jpg"",""time"":1337.9000000059605}]",[],4,,,,,,,,,,,,,,
harvest,100,456461,0.0-31.0-4.0,"""event"",""trial"",""time""
""fullscreenenter"",""1"",""4326""
""fullscreenexit"",""3"",""20821""
""blur"",""3"",""22005""
""focus"",""3"",""23780""
","""event"",""trial"",""time""
""blur"",""3"",""22005""
","""event"",""trial"",""time""
""focus"",""3"",""23780""
","""event"",""trial"",""time""
""fullscreenenter"",""1"",""4326""
","""event"",""trial"",""time""
""fullscreenexit"",""3"",""20821""
",,null,run_exp/static/images/task_images/gems/100.jpg,null,,,,,,,51,,,4,,,,,100,0.508004307,0.51,,,,,,,
decision,101,457236,0.0-31.0-5.0,"""event"",""trial"",""time""
""fullscreenenter"",""1"",""4326""
""fullscreenexit"",""3"",""20821""
""blur"",""3"",""22005""
""focus"",""3"",""23780""
","""event"",""trial"",""time""
""blur"",""3"",""22005""
","""event"",""trial"",""time""
""focus"",""3"",""23780""
","""event"",""trial"",""time""
""fullscreenenter"",""1"",""4326""
","""event"",""trial"",""time""
""fullscreenexit"",""3"",""20821""
",,774.1,run_exp/static/images/task_images/land.jpg,65,,,,,,,51,,,4,,,,,,,,81244,1,0,FALSE,,,
dig,102,459467,0.0-32.0-0.0,"""event"",""trial"",""time""
""fullscreenenter"",""1"",""4326""
""fullscreenexit"",""3"",""20821""
""blur"",""3"",""22005""
""focus"",""3"",""23780""
","""event"",""trial"",""time""
""blur"",""3"",""22005""
","""event"",""trial"",""time""
""focus"",""3"",""23780""
","""event"",""trial"",""time""
""fullscreenenter"",""1"",""4326""
","""event"",""trial"",""time""
""fullscreenexit"",""3"",""20821""
",,,,,,,,,,,,"[{""stimulus"":""run_exp/static/images/task_images/dig.jpg"",""time"":0.10000000149011612},{""stimulus"":""run_exp/static/images/task_images/land.jpg"",""time"":746},{""stimulus"":""run_exp/static/images/task_images/dig.jpg"",""time"":1492.5}]",[],4,,,,,,,,,,,,,,
harvest,103,460498,0.0-32.0-1.0,"""event"",""trial"",""time""
""fullscreenenter"",""1"",""4326""
""fullscreenexit"",""3"",""20821""
""blur"",""3"",""22005""
""focus"",""3"",""23780""
","""event"",""trial"",""time""
""blur"",""3"",""22005""
","""event"",""trial"",""time""
""focus"",""3"",""23780""
","""event"",""trial"",""time""
""fullscreenenter"",""1"",""4326""
","""event"",""trial"",""time""
""fullscreenexit"",""3"",""20821""
",,null,run_exp/static/images/task_images/gems/51.jpg,null,,,,,,,22,,,4,,,,,51,0.430979992,0.431372549,,,,,,,
decision,104,462150,0.0-32.0-2.0,"""event"",""trial"",""time""
""fullscreenenter"",""1"",""4326""
""fullscreenexit"",""3"",""20821""
""blur"",""3"",""22005""
""focus"",""3"",""23780""
","""event"",""trial"",""time""
""blur"",""3"",""22005""
","""event"",""trial"",""time""
""focus"",""3"",""23780""
","""event"",""trial"",""time""
""fullscreenenter"",""1"",""4326""
","""event"",""trial"",""time""
""fullscreenexit"",""3"",""20821""
",,1650.5,run_exp/static/images/task_images/land.jpg,76,,,,,,,22,,,4,,,,,,,,86158,1,1,TRUE,,,
travel,105,470501,0.0-33.0-0.0,"""event"",""trial"",""time""
""fullscreenenter"",""1"",""4326""
""fullscreenexit"",""3"",""20821""
""blur"",""3"",""22005""
""focus"",""3"",""23780""
","""event"",""trial"",""time""
""blur"",""3"",""22005""
","""event"",""trial"",""time""
""focus"",""3"",""23780""
","""event"",""trial"",""time""
""fullscreenenter"",""1"",""4326""
","""event"",""trial"",""time""
""fullscreenexit"",""3"",""20821""
",,,,,,,,,,,,"[{""stimulus"":""run_exp/static/images/task_images/rocket-01.jpg"",""time"":0.10000000149011612},{""stimulus"":""run_exp/static/images/task_images/rocket-02.jpg"",""time"":931.3999999985099},{""stimulus"":""run_exp/static/images/task_images/rocket-03.jpg"",""time"":1861.6000000014901},{""stimulus"":""run_exp/static/images/task_images/rocket-04.jpg"",""time"":2787.2000000029802},{""stimulus"":""run_exp/static/images/task_images/rocket-05.jpg"",""time"":3715.5},{""stimulus"":""run_exp/static/images/task_images/rocket-06.jpg"",""time"":4643.80000000447},{""stimulus"":""run_exp/static/images/task_images/rocket-07.jpg"",""time"":5571.5},{""stimulus"":""run_exp/static/images/task_images/rocket-08.jpg"",""time"":6499.39999999851},{""stimulus"":""run_exp/static/images/task_images/rocket-09.jpg"",""time"":7427}]",[],4,,,,,,,,,,,,,,
alien_welcome,106,475530,0.0-33.0-1.0,"""event"",""trial"",""time""
""fullscreenenter"",""1"",""4326""
""fullscreenexit"",""3"",""20821""
""blur"",""3"",""22005""
""focus"",""3"",""23780""
","""event"",""trial"",""time""
""blur"",""3"",""22005""
","""event"",""trial"",""time""
""focus"",""3"",""23780""
","""event"",""trial"",""time""
""fullscreenenter"",""1"",""4326""
","""event"",""trial"",""time""
""fullscreenexit"",""3"",""20821""
",,null,run_exp/static/images/task_images/aliens/old_aliens/planet/alien_planet-54.jpg,null,,,,,,,,,,,,,54,"32,11,52,56,54,33,66,76,15,24,13,26,57,29,61,55,43,14,18,51,19,69,31,74,40,36,72,45,28,17,37,3,67,48,49,21,2,16,78,44,80,20,60,75,12,4,47,9,53,42,27,62,41,70,22,8,77,6,38,1",,,,,,,,,,
land,107,476042,0.0-33.0-2.0,"""event"",""trial"",""time""
""fullscreenenter"",""1"",""4326""
""fullscreenexit"",""3"",""20821""
""blur"",""3"",""22005""
""focus"",""3"",""23780""
","""event"",""trial"",""time""
""blur"",""3"",""22005""
","""event"",""trial"",""time""
""focus"",""3"",""23780""
","""event"",""trial"",""time""
""fullscreenenter"",""1"",""4326""
","""event"",""trial"",""time""
""fullscreenexit"",""3"",""20821""
",,null,run_exp/static/images/task_images/land.jpg,null,,,,,,,106,,,5,,,,,,,,,,,,,,
dig,108,478049,0.0-33.0-3.0,"""event"",""trial"",""time""
""fullscreenenter"",""1"",""4326""
""fullscreenexit"",""3"",""20821""
""blur"",""3"",""22005""
""focus"",""3"",""23780""
","""event"",""trial"",""time""
""blur"",""3"",""22005""
","""event"",""trial"",""time""
""focus"",""3"",""23780""
","""event"",""trial"",""time""
""fullscreenenter"",""1"",""4326""
","""event"",""trial"",""time""
""fullscreenexit"",""3"",""20821""
",,,,,,,,,,,,"[{""stimulus"":""run_exp/static/images/task_images/dig.jpg"",""time"":0.20000000298023224},{""stimulus"":""run_exp/static/images/task_images/land.jpg"",""time"":672.7999999970198},{""stimulus"":""run_exp/static/images/task_images/dig.jpg"",""time"":1344.8999999985099}]",[],5,,,,,,,,,,,,,,
harvest,109,479079,0.0-33.0-4.0,"""event"",""trial"",""time""
""fullscreenenter"",""1"",""4326""
""fullscreenexit"",""3"",""20821""
""blur"",""3"",""22005""
""focus"",""3"",""23780""
","""event"",""trial"",""time""
""blur"",""3"",""22005""
","""event"",""trial"",""time""
""focus"",""3"",""23780""
","""event"",""trial"",""time""
""fullscreenenter"",""1"",""4326""
","""event"",""trial"",""time""
""fullscreenexit"",""3"",""20821""
",,null,run_exp/static/images/task_images/gems/106.jpg,null,,,,,,,54,,,5,,,,,106,0.512244416,0.509433962,,,,,,,
decision,110,479950,0.0-33.0-5.0,"""event"",""trial"",""time""
""fullscreenenter"",""1"",""4326""
""fullscreenexit"",""3"",""20821""
""blur"",""3"",""22005""
""focus"",""3"",""23780""
","""event"",""trial"",""time""
""blur"",""3"",""22005""
","""event"",""trial"",""time""
""focus"",""3"",""23780""
","""event"",""trial"",""time""
""fullscreenenter"",""1"",""4326""
","""event"",""trial"",""time""
""fullscreenexit"",""3"",""20821""
",,870.2,run_exp/static/images/task_images/land.jpg,65,,,,,,,54,,,5,,,,,,,,103958,1,0,FALSE,,,
dig,111,482081,0.0-34.0-0.0,"""event"",""trial"",""time""
""fullscreenenter"",""1"",""4326""
""fullscreenexit"",""3"",""20821""
""blur"",""3"",""22005""
""focus"",""3"",""23780""
","""event"",""trial"",""time""
""blur"",""3"",""22005""
","""event"",""trial"",""time""
""focus"",""3"",""23780""
","""event"",""trial"",""time""
""fullscreenenter"",""1"",""4326""
","""event"",""trial"",""time""
""fullscreenexit"",""3"",""20821""
",,,,,,,,,,,,"[{""stimulus"":""run_exp/static/images/task_images/dig.jpg"",""time"":0.10000000149011612},{""stimulus"":""run_exp/static/images/task_images/land.jpg"",""time"":713.3999999985099},{""stimulus"":""run_exp/static/images/task_images/dig.jpg"",""time"":1428.7999999970198}]",[],5,,,,,,,,,,,,,,
harvest,112,483111,0.0-34.0-1.0,"""event"",""trial"",""time""
""fullscreenenter"",""1"",""4326""
""fullscreenexit"",""3"",""20821""
""blur"",""3"",""22005""
""focus"",""3"",""23780""
","""event"",""trial"",""time""
""blur"",""3"",""22005""
","""event"",""trial"",""time""
""focus"",""3"",""23780""
","""event"",""trial"",""time""
""fullscreenenter"",""1"",""4326""
","""event"",""trial"",""time""
""fullscreenexit"",""3"",""20821""
",,null,run_exp/static/images/task_images/gems/54.jpg,null,,,,,,,29,,,5,,,,,54,0.53472146,0.537037037,,,,,,,
decision,113,483411,0.0-34.0-2.0,"""event"",""trial"",""time""
""fullscreenenter"",""1"",""4326""
""fullscreenexit"",""3"",""20821""
""blur"",""3"",""22005""
""focus"",""3"",""23780""
","""event"",""trial"",""time""
""blur"",""3"",""22005""
","""event"",""trial"",""time""
""focus"",""3"",""23780""
","""event"",""trial"",""time""
""fullscreenenter"",""1"",""4326""
","""event"",""trial"",""time""
""fullscreenexit"",""3"",""20821""
",,299.1,run_exp/static/images/task_images/land.jpg,76,,,,,,,29,,,5,,,,,,,,107419,1,1,TRUE,,,
travel,114,493118,0.0-35.0-0.0,"""event"",""trial"",""time""
""fullscreenenter"",""1"",""4326""
""fullscreenexit"",""3"",""20821""
""blur"",""3"",""22005""
""focus"",""3"",""23780""
","""event"",""trial"",""time""
""blur"",""3"",""22005""
","""event"",""trial"",""time""
""focus"",""3"",""23780""
","""event"",""trial"",""time""
""fullscreenenter"",""1"",""4326""
","""event"",""trial"",""time""
""fullscreenexit"",""3"",""20821""
",,,,,,,,,,,,"[{""stimulus"":""run_exp/static/images/task_images/rocket-01.jpg"",""time"":0.29999999701976776},{""stimulus"":""run_exp/static/images/task_images/rocket-02.jpg"",""time"":1088.6999999955297},{""stimulus"":""run_exp/static/images/task_images/rocket-03.jpg"",""time"":2160.5},{""stimulus"":""run_exp/static/images/task_images/rocket-04.jpg"",""time"":3235.60000000149},{""stimulus"":""run_exp/static/images/task_images/rocket-05.jpg"",""time"":4317.19999999553},{""stimulus"":""run_exp/static/images/task_images/rocket-06.jpg"",""time"":5388.89999999851},{""stimulus"":""run_exp/static/images/task_images/rocket-07.jpg"",""time"":6471.29999999702},{""stimulus"":""run_exp/static/images/task_images/rocket-08.jpg"",""time"":7552.10000000149},{""stimulus"":""run_exp/static/images/task_images/rocket-09.jpg"",""time"":8620.10000000149}]",[],5,,,,,,,,,,,,,,
alien_welcome,115,498145,0.0-35.0-1.0,"""event"",""trial"",""time""
""fullscreenenter"",""1"",""4326""
""fullscreenexit"",""3"",""20821""
""blur"",""3"",""22005""
""focus"",""3"",""23780""
","""event"",""trial"",""time""
""blur"",""3"",""22005""
","""event"",""trial"",""time""
""focus"",""3"",""23780""
","""event"",""trial"",""time""
""fullscreenenter"",""1"",""4326""
","""event"",""trial"",""time""
""fullscreenexit"",""3"",""20821""
",,null,run_exp/static/images/task_images/aliens/old_aliens/planet/alien_planet-33.jpg,null,,,,,,,,,,,,,33,"32,11,52,56,54,33,66,76,15,24,13,26,57,29,61,55,43,14,18,51,19,69,31,74,40,36,72,45,28,17,37,3,67,48,49,21,2,16,78,44,80,20,60,75,12,4,47,9,53,42,27,62,41,70,22,8,77,6,38,1",,,,,,,,,,
land,116,498657,0.0-35.0-2.0,"""event"",""trial"",""time""
""fullscreenenter"",""1"",""4326""
""fullscreenexit"",""3"",""20821""
""blur"",""3"",""22005""
""focus"",""3"",""23780""
","""event"",""trial"",""time""
""blur"",""3"",""22005""
","""event"",""trial"",""time""
""focus"",""3"",""23780""
","""event"",""trial"",""time""
""fullscreenenter"",""1"",""4326""
","""event"",""trial"",""time""
""fullscreenexit"",""3"",""20821""
",,null,run_exp/static/images/task_images/land.jpg,null,,,,,,,95,,,6,,,,,,,,,,,,,,
dig,117,500670,0.0-35.0-3.0,"""event"",""trial"",""time""
""fullscreenenter"",""1"",""4326""
""fullscreenexit"",""3"",""20821""
""blur"",""3"",""22005""
""focus"",""3"",""23780""
","""event"",""trial"",""time""
""blur"",""3"",""22005""
","""event"",""trial"",""time""
""focus"",""3"",""23780""
","""event"",""trial"",""time""
""fullscreenenter"",""1"",""4326""
","""event"",""trial"",""time""
""fullscreenexit"",""3"",""20821""
",,,,,,,,,,,,"[{""stimulus"":""run_exp/static/images/task_images/dig.jpg"",""time"":0.20000000298023224},{""stimulus"":""run_exp/static/images/task_images/land.jpg"",""time"":671.8999999985099},{""stimulus"":""run_exp/static/images/task_images/dig.jpg"",""time"":1336.8999999985099}]",[],6,,,,,,,,,,,,,,
harvest,118,501694,0.0-35.0-4.0,"""event"",""trial"",""time""
""fullscreenenter"",""1"",""4326""
""fullscreenexit"",""3"",""20821""
""blur"",""3"",""22005""
""focus"",""3"",""23780""
","""event"",""trial"",""time""
""blur"",""3"",""22005""
","""event"",""trial"",""time""
""focus"",""3"",""23780""
","""event"",""trial"",""time""
""fullscreenenter"",""1"",""4326""
","""event"",""trial"",""time""
""fullscreenexit"",""3"",""20821""
",,null,run_exp/static/images/task_images/gems/95.jpg,null,,,,,,,81,,,6,,,,,95,0.857765526,0.852631579,,,,,,,
decision,119,502088,0.0-35.0-5.0,"""event"",""trial"",""time""
""fullscreenenter"",""1"",""4326""
""fullscreenexit"",""3"",""20821""
""blur"",""3"",""22005""
""focus"",""3"",""23780""
","""event"",""trial"",""time""
""blur"",""3"",""22005""
","""event"",""trial"",""time""
""focus"",""3"",""23780""
","""event"",""trial"",""time""
""fullscreenenter"",""1"",""4326""
","""event"",""trial"",""time""
""fullscreenexit"",""3"",""20821""
",,392.8,run_exp/static/images/task_images/land.jpg,76,,,,,,,81,,,6,,,,,,,,126096,1,0,TRUE,,,
travel,120,511694,0.0-36.0-0.0,"""event"",""trial"",""time""
""fullscreenenter"",""1"",""4326""
""fullscreenexit"",""3"",""20821""
""blur"",""3"",""22005""
""focus"",""3"",""23780""
","""event"",""trial"",""time""
""blur"",""3"",""22005""
","""event"",""trial"",""time""
""focus"",""3"",""23780""
","""event"",""trial"",""time""
""fullscreenenter"",""1"",""4326""
","""event"",""trial"",""time""
""fullscreenexit"",""3"",""20821""
",,,,,,,,,,,,"[{""stimulus"":""run_exp/static/images/task_images/rocket-01.jpg"",""time"":0.09999999403953552},{""stimulus"":""run_exp/static/images/task_images/rocket-02.jpg"",""time"":1073.1999999955297},{""stimulus"":""run_exp/static/images/task_images/rocket-03.jpg"",""time"":2137.2999999970198},{""stimulus"":""run_exp/static/images/task_images/rocket-04.jpg"",""time"":3211},{""stimulus"":""run_exp/static/images/task_images/rocket-05.jpg"",""time"":4272.5},{""stimulus"":""run_exp/static/images/task_images/rocket-06.jpg"",""time"":5346.29999999702},{""stimulus"":""run_exp/static/images/task_images/rocket-07.jpg"",""time"":6408.79999999702},{""stimulus"":""run_exp/static/images/task_images/rocket-08.jpg"",""time"":7475},{""stimulus"":""run_exp/static/images/task_images/rocket-09.jpg"",""time"":8546}]",[],6,,,,,,,,,,,,,,
alien_welcome,121,516720,0.0-36.0-1.0,"""event"",""trial"",""time""
""fullscreenenter"",""1"",""4326""
""fullscreenexit"",""3"",""20821""
""blur"",""3"",""22005""
""focus"",""3"",""23780""
","""event"",""trial"",""time""
""blur"",""3"",""22005""
","""event"",""trial"",""time""
""focus"",""3"",""23780""
","""event"",""trial"",""time""
""fullscreenenter"",""1"",""4326""
","""event"",""trial"",""time""
""fullscreenexit"",""3"",""20821""
",,null,run_exp/static/images/task_images/aliens/old_aliens/planet/alien_planet-66.jpg,null,,,,,,,,,,,,,66,"32,11,52,56,54,33,66,76,15,24,13,26,57,29,61,55,43,14,18,51,19,69,31,74,40,36,72,45,28,17,37,3,67,48,49,21,2,16,78,44,80,20,60,75,12,4,47,9,53,42,27,62,41,70,22,8,77,6,38,1",,,,,,,,,,
land,122,517256,0.0-36.0-2.0,"""event"",""trial"",""time""
""fullscreenenter"",""1"",""4326""
""fullscreenexit"",""3"",""20821""
""blur"",""3"",""22005""
""focus"",""3"",""23780""
","""event"",""trial"",""time""
""blur"",""3"",""22005""
","""event"",""trial"",""time""
""focus"",""3"",""23780""
","""event"",""trial"",""time""
""fullscreenenter"",""1"",""4326""
","""event"",""trial"",""time""
""fullscreenexit"",""3"",""20821""
",,null,run_exp/static/images/task_images/land.jpg,null,,,,,,,107,,,7,,,,,,,,,,,,,,
dig,123,519266,0.0-36.0-3.0,"""event"",""trial"",""time""
""fullscreenenter"",""1"",""4326""
""fullscreenexit"",""3"",""20821""
""blur"",""3"",""22005""
""focus"",""3"",""23780""
","""event"",""trial"",""time""
""blur"",""3"",""22005""
","""event"",""trial"",""time""
""focus"",""3"",""23780""
","""event"",""trial"",""time""
""fullscreenenter"",""1"",""4326""
","""event"",""trial"",""time""
""fullscreenexit"",""3"",""20821""
",,,,,,,,,,,,"[{""stimulus"":""run_exp/static/images/task_images/dig.jpg"",""time"":0.20000000298023224},{""stimulus"":""run_exp/static/images/task_images/land.jpg"",""time"":674.1000000014901},{""stimulus"":""run_exp/static/images/task_images/dig.jpg"",""time"":1342}]",[],7,,,,,,,,,,,,,,
harvest,124,520302,0.0-36.0-4.0,"""event"",""trial"",""time""
""fullscreenenter"",""1"",""4326""
""fullscreenexit"",""3"",""20821""
""blur"",""3"",""22005""
""focus"",""3"",""23780""
","""event"",""trial"",""time""
""blur"",""3"",""22005""
","""event"",""trial"",""time""
""focus"",""3"",""23780""
","""event"",""trial"",""time""
""fullscreenenter"",""1"",""4326""
","""event"",""trial"",""time""
""fullscreenexit"",""3"",""20821""
",,null,run_exp/static/images/task_images/gems/107.jpg,null,,,,,,,88,,,7,,,,,107,0.824983282,0.822429907,,,,,,,
decision,125,520719,0.0-36.0-5.0,"""event"",""trial"",""time""
""fullscreenenter"",""1"",""4326""
""fullscreenexit"",""3"",""20821""
""blur"",""3"",""22005""
""focus"",""3"",""23780""
","""event"",""trial"",""time""
""blur"",""3"",""22005""
","""event"",""trial"",""time""
""focus"",""3"",""23780""
","""event"",""trial"",""time""
""fullscreenenter"",""1"",""4326""
","""event"",""trial"",""time""
""fullscreenexit"",""3"",""20821""
",,416.1,run_exp/static/images/task_images/land.jpg,65,,,,,,,88,,,7,,,,,,,,144727,1,0,FALSE,,,
dig,126,523308,0.0-37.0-0.0,"""event"",""trial"",""time""
""fullscreenenter"",""1"",""4326""
""fullscreenexit"",""3"",""20821""
""blur"",""3"",""22005""
""focus"",""3"",""23780""
","""event"",""trial"",""time""
""blur"",""3"",""22005""
","""event"",""trial"",""time""
""focus"",""3"",""23780""
","""event"",""trial"",""time""
""fullscreenenter"",""1"",""4326""
","""event"",""trial"",""time""
""fullscreenexit"",""3"",""20821""
",,,,,,,,,,,,"[{""stimulus"":""run_exp/static/images/task_images/dig.jpg"",""time"":0.19999999552965164},{""stimulus"":""run_exp/static/images/task_images/land.jpg"",""time"":865.3999999985099},{""stimulus"":""run_exp/static/images/task_images/dig.jpg"",""time"":1734.3999999985099}]",[],7,,,,,,,,,,,,,,
harvest,127,524323,0.0-37.0-1.0,"""event"",""trial"",""time""
""fullscreenenter"",""1"",""4326""
""fullscreenexit"",""3"",""20821""
""blur"",""3"",""22005""
""focus"",""3"",""23780""
","""event"",""trial"",""time""
""blur"",""3"",""22005""
","""event"",""trial"",""time""
""focus"",""3"",""23780""
","""event"",""trial"",""time""
""fullscreenenter"",""1"",""4326""
","""event"",""trial"",""time""
""fullscreenexit"",""3"",""20821""
",,null,run_exp/static/images/task_images/gems/88.jpg,null,,,,,,,73,,,7,,,,,88,0.828365123,0.829545455,,,,,,,
decision,128,525328,0.0-37.0-2.0,"""event"",""trial"",""time""
""fullscreenenter"",""1"",""4326""
""fullscreenexit"",""3"",""20821""
""blur"",""3"",""22005""
""focus"",""3"",""23780""
","""event"",""trial"",""time""
""blur"",""3"",""22005""
","""event"",""trial"",""time""
""focus"",""3"",""23780""
","""event"",""trial"",""time""
""fullscreenenter"",""1"",""4326""
","""event"",""trial"",""time""
""fullscreenexit"",""3"",""20821""
",,1004.3,run_exp/static/images/task_images/land.jpg,65,,,,,,,73,,,7,,,,,,,,149336,1,1,FALSE,,,
dig,129,527330,0.0-38.0-0.0,"""event"",""trial"",""time""
""fullscreenenter"",""1"",""4326""
""fullscreenexit"",""3"",""20821""
""blur"",""3"",""22005""
""focus"",""3"",""23780""
","""event"",""trial"",""time""
""blur"",""3"",""22005""
","""event"",""trial"",""time""
""focus"",""3"",""23780""
","""event"",""trial"",""time""
""fullscreenenter"",""1"",""4326""
","""event"",""trial"",""time""
""fullscreenexit"",""3"",""20821""
",,,,,,,,,,,,"[{""stimulus"":""run_exp/static/images/task_images/dig.jpg"",""time"":0.10000000149011612},{""stimulus"":""run_exp/static/images/task_images/land.jpg"",""time"":674.3999999985099},{""stimulus"":""run_exp/static/images/task_images/dig.jpg"",""time"":1338.5}]",[],7,,,,,,,,,,,,,,
harvest,130,528341,0.0-38.0-1.0,"""event"",""trial"",""time""
""fullscreenenter"",""1"",""4326""
""fullscreenexit"",""3"",""20821""
""blur"",""3"",""22005""
""focus"",""3"",""23780""
","""event"",""trial"",""time""
""blur"",""3"",""22005""
","""event"",""trial"",""time""
""focus"",""3"",""23780""
","""event"",""trial"",""time""
""fullscreenenter"",""1"",""4326""
","""event"",""trial"",""time""
""fullscreenexit"",""3"",""20821""
",,null,run_exp/static/images/task_images/gems/73.jpg,null,,,,,,,63,,,7,,,,,73,0.85850686,0.863013699,,,,,,,
decision,131,529226,0.0-38.0-2.0,"""event"",""trial"",""time""
""fullscreenenter"",""1"",""4326""
""fullscreenexit"",""3"",""20821""
""blur"",""3"",""22005""
""focus"",""3"",""23780""
","""event"",""trial"",""time""
""blur"",""3"",""22005""
","""event"",""trial"",""time""
""focus"",""3"",""23780""
","""event"",""trial"",""time""
""fullscreenenter"",""1"",""4326""
","""event"",""trial"",""time""
""fullscreenexit"",""3"",""20821""
",,884.7,run_exp/static/images/task_images/land.jpg,65,,,,,,,63,,,7,,,,,,,,153234,1,2,FALSE,,,
dig,132,531347,0.0-39.0-0.0,"""event"",""trial"",""time""
""fullscreenenter"",""1"",""4326""
""fullscreenexit"",""3"",""20821""
""blur"",""3"",""22005""
""focus"",""3"",""23780""
","""event"",""trial"",""time""
""blur"",""3"",""22005""
","""event"",""trial"",""time""
""focus"",""3"",""23780""
","""event"",""trial"",""time""
""fullscreenenter"",""1"",""4326""
","""event"",""trial"",""time""
""fullscreenexit"",""3"",""20821""
",,,,,,,,,,,,"[{""stimulus"":""run_exp/static/images/task_images/dig.jpg"",""time"":0.20000000298023224},{""stimulus"":""run_exp/static/images/task_images/land.jpg"",""time"":710.8999999985099},{""stimulus"":""run_exp/static/images/task_images/dig.jpg"",""time"":1418.8999999985099}]",[],7,,,,,,,,,,,,,,
harvest,133,532374,0.0-39.0-1.0,"""event"",""trial"",""time""
""fullscreenenter"",""1"",""4326""
""fullscreenexit"",""3"",""20821""
""blur"",""3"",""22005""
""focus"",""3"",""23780""
","""event"",""trial"",""time""
""blur"",""3"",""22005""
","""event"",""trial"",""time""
""focus"",""3"",""23780""
","""event"",""trial"",""time""
""fullscreenenter"",""1"",""4326""
","""event"",""trial"",""time""
""fullscreenexit"",""3"",""20821""
",,null,run_exp/static/images/task_images/gems/63.jpg,null,,,,,,,52,,,7,,,,,63,0.831341233,0.825396825,,,,,,,
decision,134,532907,0.0-39.0-2.0,"""event"",""trial"",""time""
""fullscreenenter"",""1"",""4326""
""fullscreenexit"",""3"",""20821""
""blur"",""3"",""22005""
""focus"",""3"",""23780""
","""event"",""trial"",""time""
""blur"",""3"",""22005""
","""event"",""trial"",""time""
""focus"",""3"",""23780""
","""event"",""trial"",""time""
""fullscreenenter"",""1"",""4326""
","""event"",""trial"",""time""
""fullscreenexit"",""3"",""20821""
",,532.5,run_exp/static/images/task_images/land.jpg,65,,,,,,,52,,,7,,,,,,,,156915,1,3,FALSE,,,
dig,135,535383,0.0-40.0-0.0,"""event"",""trial"",""time""
""fullscreenenter"",""1"",""4326""
""fullscreenexit"",""3"",""20821""
""blur"",""3"",""22005""
""focus"",""3"",""23780""
","""event"",""trial"",""time""
""blur"",""3"",""22005""
","""event"",""trial"",""time""
""focus"",""3"",""23780""
","""event"",""trial"",""time""
""fullscreenenter"",""1"",""4326""
","""event"",""trial"",""time""
""fullscreenexit"",""3"",""20821""
",,,,,,,,,,,,"[{""stimulus"":""run_exp/static/images/task_images/dig.jpg"",""time"":0.20000000298023224},{""stimulus"":""run_exp/static/images/task_images/land.jpg"",""time"":830.8000000044703},{""stimulus"":""run_exp/static/images/task_images/dig.jpg"",""time"":1653.1000000014901}]",[],7,,,,,,,,,,,,,,
harvest,136,536407,0.0-40.0-1.0,"""event"",""trial"",""time""
""fullscreenenter"",""1"",""4326""
""fullscreenexit"",""3"",""20821""
""blur"",""3"",""22005""
""focus"",""3"",""23780""
","""event"",""trial"",""time""
""blur"",""3"",""22005""
","""event"",""trial"",""time""
""focus"",""3"",""23780""
","""event"",""trial"",""time""
""fullscreenenter"",""1"",""4326""
","""event"",""trial"",""time""
""fullscreenexit"",""3"",""20821""
",,null,run_exp/static/images/task_images/gems/52.jpg,null,,,,,,,42,,,7,,,,,52,0.804261211,0.807692308,,,,,,,
decision,137,536845,0.0-40.0-2.0,"""event"",""trial"",""time""
""fullscreenenter"",""1"",""4326""
""fullscreenexit"",""3"",""20821""
""blur"",""3"",""22005""
""focus"",""3"",""23780""
","""event"",""trial"",""time""
""blur"",""3"",""22005""
","""event"",""trial"",""time""
""focus"",""3"",""23780""
","""event"",""trial"",""time""
""fullscreenenter"",""1"",""4326""
","""event"",""trial"",""time""
""fullscreenexit"",""3"",""20821""
",,436.3,run_exp/static/images/task_images/land.jpg,76,,,,,,,42,,,7,,,,,,,,160853,1,4,TRUE,,,
travel,138,546412,0.0-41.0-0.0,"""event"",""trial"",""time""
""fullscreenenter"",""1"",""4326""
""fullscreenexit"",""3"",""20821""
""blur"",""3"",""22005""
""focus"",""3"",""23780""
","""event"",""trial"",""time""
""blur"",""3"",""22005""
","""event"",""trial"",""time""
""focus"",""3"",""23780""
","""event"",""trial"",""time""
""fullscreenenter"",""1"",""4326""
","""event"",""trial"",""time""
""fullscreenexit"",""3"",""20821""
",,,,,,,,,,,,"[{""stimulus"":""run_exp/static/images/task_images/rocket-01.jpg"",""time"":0.10000000149011612},{""stimulus"":""run_exp/static/images/task_images/rocket-02.jpg"",""time"":1068.6000000014901},{""stimulus"":""run_exp/static/images/task_images/rocket-03.jpg"",""time"":2132.10000000149},{""stimulus"":""run_exp/static/images/task_images/rocket-04.jpg"",""time"":3187.2999999970198},{""stimulus"":""run_exp/static/images/task_images/rocket-05.jpg"",""time"":4254.10000000149},{""stimulus"":""run_exp/static/images/task_images/rocket-06.jpg"",""time"":5320.29999999702},{""stimulus"":""run_exp/static/images/task_images/rocket-07.jpg"",""time"":6375.20000000298},{""stimulus"":""run_exp/static/images/task_images/rocket-08.jpg"",""time"":7436.39999999851},{""stimulus"":""run_exp/static/images/task_images/rocket-09.jpg"",""time"":8499.39999999851}]",[],7,,,,,,,,,,,,,,
alien_welcome,139,551444,0.0-41.0-1.0,"""event"",""trial"",""time""
""fullscreenenter"",""1"",""4326""
""fullscreenexit"",""3"",""20821""
""blur"",""3"",""22005""
""focus"",""3"",""23780""
","""event"",""trial"",""time""
""blur"",""3"",""22005""
","""event"",""trial"",""time""
""focus"",""3"",""23780""
","""event"",""trial"",""time""
""fullscreenenter"",""1"",""4326""
","""event"",""trial"",""time""
""fullscreenexit"",""3"",""20821""
",,null,run_exp/static/images/task_images/aliens/old_aliens/planet/alien_planet-76.jpg,null,,,,,,,,,,,,,76,"32,11,52,56,54,33,66,76,15,24,13,26,57,29,61,55,43,14,18,51,19,69,31,74,40,36,72,45,28,17,37,3,67,48,49,21,2,16,78,44,80,20,60,75,12,4,47,9,53,42,27,62,41,70,22,8,77,6,38,1",,,,,,,,,,
land,140,551956,0.0-41.0-2.0,"""event"",""trial"",""time""
""fullscreenenter"",""1"",""4326""
""fullscreenexit"",""3"",""20821""
""blur"",""3"",""22005""
""focus"",""3"",""23780""
","""event"",""trial"",""time""
""blur"",""3"",""22005""
","""event"",""trial"",""time""
""focus"",""3"",""23780""
","""event"",""trial"",""time""
""fullscreenenter"",""1"",""4326""
","""event"",""trial"",""time""
""fullscreenexit"",""3"",""20821""
",,null,run_exp/static/images/task_images/land.jpg,null,,,,,,,95,,,8,,,,,,,,,,,,,,
dig,141,553966,0.0-41.0-3.0,"""event"",""trial"",""time""
""fullscreenenter"",""1"",""4326""
""fullscreenexit"",""3"",""20821""
""blur"",""3"",""22005""
""focus"",""3"",""23780""
","""event"",""trial"",""time""
""blur"",""3"",""22005""
","""event"",""trial"",""time""
""focus"",""3"",""23780""
","""event"",""trial"",""time""
""fullscreenenter"",""1"",""4326""
","""event"",""trial"",""time""
""fullscreenexit"",""3"",""20821""
",,,,,,,,,,,,"[{""stimulus"":""run_exp/static/images/task_images/dig.jpg"",""time"":0.20000000298023224},{""stimulus"":""run_exp/static/images/task_images/land.jpg"",""time"":672.1000000014901},{""stimulus"":""run_exp/static/images/task_images/dig.jpg"",""time"":1336.1000000014901}]",[],8,,,,,,,,,,,,,,
harvest,142,554996,0.0-41.0-4.0,"""event"",""trial"",""time""
""fullscreenenter"",""1"",""4326""
""fullscreenexit"",""3"",""20821""
""blur"",""3"",""22005""
""focus"",""3"",""23780""
","""event"",""trial"",""time""
""blur"",""3"",""22005""
","""event"",""trial"",""time""
""focus"",""3"",""23780""
","""event"",""trial"",""time""
