trial_type,trial_index,time_elapsed,internal_node_id,interactions,blur_events,focus_events,fullscreenenter_events,fullscreenexit_events,success,rt,stimulus,key_press,prompt,subject_id,participant_id,age,gender,button_pressed,next_reward,animation_sequence,responses,planet,curr_prac_trial,n_prac_rounds,alien,aliens,reward_received,decay_rate_actual,decay_rate_exp,time_in_block,block_num,prt,last_trial_on_planet,button_html,bonus,num_failures
pavlovia,0,1,0.0-0.0,"""event"",""trial"",""time""
""fullscreenenter"",""1"",""1897""
","
","
","""event"",""trial"",""time""
""fullscreenenter"",""1"",""1897""
","
",,,,,,,,,,,,,,,,,,,,,,,,,,,,
fullscreen,1,2884,0.0-1.0,"""event"",""trial"",""time""
""fullscreenenter"",""1"",""1897""
","
","
","""event"",""trial"",""time""
""fullscreenenter"",""1"",""1897""
","
",TRUE,,,,,,,,,,,,,,,,,,,,,,,,,,,
instruc_welcome,2,13236,0.0-2.0,"""event"",""trial"",""time""
""fullscreenenter"",""1"",""1897""
","
","
","""event"",""trial"",""time""
""fullscreenenter"",""1"",""1897""
","
",,null,run_exp/static/audio/clip_1_welcome.m4a,null,"<p>Howdy! In this experiment, you’ll be an explorer traveling through space to collect space treasure.</p><p>Your mission is to collect as much treasure as possible.</p><br><br><p><img src='run_exp/static/images/task_images/opening_img-01.jpg' height='300' width='auto'></p>",12631,5371,18.89,Female,,,,,,,,,,,,,,,,,,,
audio-keyboard-response,3,29945,0.0-3.0,"""event"",""trial"",""time""
""fullscreenenter"",""1"",""1897""
","
","
","""event"",""trial"",""time""
""fullscreenenter"",""1"",""1897""
","
",,null,run_exp/static/audio/clip_2_move.m4a,null,,,,,,,,,,,,,,,,,,,,,,,,
welcome_dec,4,30951,0.0-4.0,"""event"",""trial"",""time""
""fullscreenenter"",""1"",""1897""
","
","
","""event"",""trial"",""time""
""fullscreenenter"",""1"",""1897""
","
",,1003.9,"<p>Howdy! In this experiment, you’ll be an explorer traveling through space to collect space treasure.</p><p>Your mission is to collect as much treasure as possible.</p><br><br><p><img src='run_exp/static/images/task_images/opening_img-01.jpg' height='300' width='auto'></p>",,,,,,,1,,,,,,,,,,,,,,,,,,
html-keyboard-response,5,31149,0.0-5.0,"""event"",""trial"",""time""
""fullscreenenter"",""1"",""1897""
","
","
","""event"",""trial"",""time""
""fullscreenenter"",""1"",""1897""
","
",,194.7,"<p>Howdy! In this experiment, you’ll be an explorer traveling through space to collect space treasure.</p><p>Your mission is to collect as much treasure as possible.</p><br><br><p><img src='run_exp/static/images/task_images/opening_img-01.jpg' height='300' width='auto'></p><button class=""jspsych-html-btn-unchosen""><img src=""run_exp/static/images/task_images/planet-01.jpg"" height=""50""></button><button class=""jspsych-html-btn-chosen""><img src=""run_exp/static/images/task_images/planet-02.jpg"" height=""50""></button><p><b>[press the space bar to lock in your answer]<b><br></p>",32,,,,,,,,,,,,,,,,,,,,,,,,
instruc_goal,6,41375,0.0-6.0-0.0,"""event"",""trial"",""time""
""fullscreenenter"",""1"",""1897""
","
","
","""event"",""trial"",""time""
""fullscreenenter"",""1"",""1897""
","
",,null,run_exp/static/audio/clip_3_goal.m4a,null,"<p> As a space explorer, you’ll visit different planets to dig for space treasure, these pink gems.</p> <p> The more treasure you dig up, the more bonus money you’ll win! </p><br><br><p><img src='run_exp/static/images/task_images/pink_gem.jpg' height='300' width='auto'></p>",,,,,,,,,,,,,,,,,,,,,,,
instruc_goal,7,43216,0.0-6.0-1.0,"""event"",""trial"",""time""
""fullscreenenter"",""1"",""1897""
","
","
","""event"",""trial"",""time""
""fullscreenenter"",""1"",""1897""
","
",,1836.9,"<p> As a space explorer, you’ll visit different planets to dig for space treasure, these pink gems.</p> <p> The more treasure you dig up, the more bonus money you’ll win! </p><br><br><p><img src='run_exp/static/images/task_images/pink_gem.jpg' height='300' width='auto'></p>",,,,,,,1,,,,,,,,,,,,,,,,,,
html-keyboard-response,8,43649,0.0-6.0-2.0,"""event"",""trial"",""time""
""fullscreenenter"",""1"",""1897""
","
","
","""event"",""trial"",""time""
""fullscreenenter"",""1"",""1897""
","
",,431.8,"<p> As a space explorer, you’ll visit different planets to dig for space treasure, these pink gems.</p> <p> The more treasure you dig up, the more bonus money you’ll win! </p><br><br><p><img src='run_exp/static/images/task_images/pink_gem.jpg' height='300' width='auto'></p><button class=""jspsych-html-btn-unchosen""><img src=""run_exp/static/images/task_images/planet-01.jpg"" height=""50""></button><button class=""jspsych-html-btn-chosen""><img src=""run_exp/static/images/task_images/planet-02.jpg"" height=""50""></button><p><b>[press the space bar to lock in your answer]<b><br></p>",32,,,,,,,,,,,,,,,,,,,,,,,,
instruc_dig,9,59824,0.0-7.0-0.0,"""event"",""trial"",""time""
""fullscreenenter"",""1"",""1897""
","
","
","""event"",""trial"",""time""
""fullscreenenter"",""1"",""1897""
","
",,null,run_exp/static/audio/clip_4_dig.m4a,null,,,,,,,100,,,,,,,,,,,,,,,,,
instruc_dig_try,10,60244,0.0-7.0-1.0,"""event"",""trial"",""time""
""fullscreenenter"",""1"",""1897""
","
","
","""event"",""trial"",""time""
""fullscreenenter"",""1"",""1897""
","
",,418.3,"<p> When you’ve arrived at a new planet, you will dig once. </p> <p>Then, you get to decide if you want to stay on the planet and dig again or travel to a new planet and dig there.</p> <p> To stay and dig, press the letter <strong>‘A’</strong> on your keyboard. Try pressing it now! </p><p><img src='run_exp/static/images/task_images/land.jpg'  height='700' width='auto'></p>",65,"<p> When you’ve arrived at a new planet, you will dig once. </p> <p>Then, you get to decide if you want to stay on the planet and dig again or travel to a new planet and dig there.</p> <p> To stay and dig, press the letter <strong>‘A’</strong> on your keyboard. Try pressing it now! </p><p><img src='run_exp/static/images/task_images/land.jpg'  height='700' width='auto'></p>",,,,,,100,,,,,,,,,,,,,,,,,
dig_prac,11,62256,0.0-7.0-2.0,"""event"",""trial"",""time""
""fullscreenenter"",""1"",""1897""
","
","
","""event"",""trial"",""time""
""fullscreenenter"",""1"",""1897""
","
",,,,,,,,,,,,"[{""stimulus"":""run_exp/static/images/task_images/dig.jpg"",""time"":0.7000000178813934},{""stimulus"":""run_exp/static/images/task_images/land.jpg"",""time"":674.3000000119209},{""stimulus"":""run_exp/static/images/task_images/dig.jpg"",""time"":1341.4000000059605}]",[],,,,,,,,,,,,,,,
instruc_travel,12,98653,0.0-7.0-3.0,"""event"",""trial"",""time""
""fullscreenenter"",""1"",""1897""
","
","
","""event"",""trial"",""time""
""fullscreenenter"",""1"",""1897""
","
",,null,run_exp/static/audio/clip_5_travel.m4a,null,"<p>Every time you dig up gems, there are less gems on the planet, so the more you dig on a planet the fewer gems you’ll get with each dig.</p><p>When gems are running low, you may want to travel to a new planet. </p> <p>  Planets are very far apart in this galaxy, so it will take some time to travel between them. </p> <br><p>There are lots and lots of planets for you to visit, so you won’t be able to return to any planets you’ve seen before. </p><br><p>To leave this planet and travel to a new one, press the letter <strong>‘L’</strong> on your keyboard. Try pressing it now! </p><p><img src='run_exp/static/images/task_images/rocket-01.jpg'  height='600' width='auto'></p>",,,,,,,,,,,,,,,,,,,,,,,
instruc_travel_try,13,99138,0.0-7.0-4.0,"""event"",""trial"",""time""
""fullscreenenter"",""1"",""1897""
","
","
","""event"",""trial"",""time""
""fullscreenenter"",""1"",""1897""
","
",,482.3,"<p>Every time you dig up gems, there are less gems on the planet, so the more you dig on a planet the fewer gems you’ll get with each dig.</p><p>When gems are running low, you may want to travel to a new planet. </p> <p>  Planets are very far apart in this galaxy, so it will take some time to travel between them. </p> <br><p>There are lots and lots of planets for you to visit, so you won’t be able to return to any planets you’ve seen before. </p><br><p>To leave this planet and travel to a new one, press the letter <strong>‘L’</strong> on your keyboard. Try pressing it now! </p><p><img src='run_exp/static/images/task_images/rocket-01.jpg'  height='600' width='auto'></p>",76,"<p>Every time you dig up gems, there are less gems on the planet, so the more you dig on a planet the fewer gems you’ll get with each dig.</p><p>When gems are running low, you may want to travel to a new planet. </p> <p>  Planets are very far apart in this galaxy, so it will take some time to travel between them. </p> <br><p>There are lots and lots of planets for you to visit, so you won’t be able to return to any planets you’ve seen before. </p><br><p>To leave this planet and travel to a new one, press the letter <strong>‘L’</strong> on your keyboard. Try pressing it now! </p><p><img src='run_exp/static/images/task_images/rocket-01.jpg'  height='600' width='auto'></p>",,,,,,,,,,,,,,,,,,,,,,,
travel_prac,14,109145,0.0-7.0-5.0,"""event"",""trial"",""time""
""fullscreenenter"",""1"",""1897""
","
","
","""event"",""trial"",""time""
""fullscreenenter"",""1"",""1897""
","
",,,,,,,,,,,,"[{""stimulus"":""run_exp/static/images/task_images/rocket-01.jpg"",""time"":0.4000000059604645},{""stimulus"":""run_exp/static/images/task_images/rocket-02.jpg"",""time"":1117.800000011921},{""stimulus"":""run_exp/static/images/task_images/rocket-03.jpg"",""time"":2229.5},{""stimulus"":""run_exp/static/images/task_images/rocket-04.jpg"",""time"":3338.5999999940395},{""stimulus"":""run_exp/static/images/task_images/rocket-05.jpg"",""time"":4447.4000000059605},{""stimulus"":""run_exp/static/images/task_images/rocket-06.jpg"",""time"":5561.699999988079},{""stimulus"":""run_exp/static/images/task_images/rocket-07.jpg"",""time"":6671.5},{""stimulus"":""run_exp/static/images/task_images/rocket-08.jpg"",""time"":7783.199999988079},{""stimulus"":""run_exp/static/images/task_images/rocket-09.jpg"",""time"":8891}]",[],0,,,,,,,,,,,,,,
instruc_alien_greet,15,136481,0.0-7.0-6.0,"""event"",""trial"",""time""
""fullscreenenter"",""1"",""1897""
","
","
","""event"",""trial"",""time""
""fullscreenenter"",""1"",""1897""
","
",,null,run_exp/static/audio/clip_6_alien.m4a,null,"<p>When you arrive at a new planet, the alien who owns the treasure mine on that planet will greet you!</p><p>The better an alien takes care of their mine the easier it is to dig for gems. Some aliens take better care of their mine than others. So, you won’t get exactly the same amount of gems on each planet.</p><p>What the alien looks like does not tell you anything about how many gems there are on the planet.</p><br><p><img src=""run_exp/static/images/task_images/aliens/instructions_aliens/planet/alien_planet-1.jpg""  height=""600"" width=""auto""></p>",,,,,,,,,,,,,,,,,,,,,,,
instruc_alien_greet,16,138817,0.0-7.0-7.0,"""event"",""trial"",""time""
""fullscreenenter"",""1"",""1897""
","
","
","""event"",""trial"",""time""
""fullscreenenter"",""1"",""1897""
","
",,2331.4,"<p>When you arrive at a new planet, the alien who owns the treasure mine on that planet will greet you!</p><p>The better an alien takes care of their mine the easier it is to dig for gems. Some aliens take better care of their mine than others. So, you won’t get exactly the same amount of gems on each planet.</p><p>What the alien looks like does not tell you anything about how many gems there are on the planet.</p><br><p><img src=""run_exp/static/images/task_images/aliens/instructions_aliens/planet/alien_planet-1.jpg""  height=""600"" width=""auto""></p>",,,,,,,1,,,,,,,,,,,,,,,,,,
html-keyboard-response,17,139363,0.0-7.0-8.0,"""event"",""trial"",""time""
""fullscreenenter"",""1"",""1897""
","
","
","""event"",""trial"",""time""
""fullscreenenter"",""1"",""1897""
","
",,544.4,"<p>When you arrive at a new planet, the alien who owns the treasure mine on that planet will greet you!</p><p>The better an alien takes care of their mine the easier it is to dig for gems. Some aliens take better care of their mine than others. So, you won’t get exactly the same amount of gems on each planet.</p><p>What the alien looks like does not tell you anything about how many gems there are on the planet.</p><br><p><img src=""run_exp/static/images/task_images/aliens/instructions_aliens/planet/alien_planet-1.jpg""  height=""600"" width=""auto""></p><button class=""jspsych-html-btn-unchosen""><img src=""run_exp/static/images/task_images/planet-01.jpg"" height=""50""></button><button class=""jspsych-html-btn-chosen""><img src=""run_exp/static/images/task_images/planet-02.jpg"" height=""50""></button><p><b>[press the space bar to lock in your answer]<b><br></p>",32,,,,,,,,,,,,,,,,,,,,,,,,
time_out,18,150611,0.0-8.0-0.0,"""event"",""trial"",""time""
""fullscreenenter"",""1"",""1897""
","
","
","""event"",""trial"",""time""
""fullscreenenter"",""1"",""1897""
","
",,null,run_exp/static/audio/clip_7_timeout.m4a,null,"<p>If you don't make your choice fast enough, you’ll have to wait a few seconds before you can make another one.</p><p>You can’t dig for more gems or travel to new planets. You just have to sit and wait.</p><br><p><img src='run_exp/static/images/task_images/time_out.jpg'  height='600' width='auto'></p>",,,,,,,,,,,,,,,,,,,,,,,
time_out,19,151748,0.0-8.0-1.0,"""event"",""trial"",""time""
""fullscreenenter"",""1"",""1897""
","
","
","""event"",""trial"",""time""
""fullscreenenter"",""1"",""1897""
","
",,1134.8,"<p>If you don't make your choice fast enough, you’ll have to wait a few seconds before you can make another one.</p><p>You can’t dig for more gems or travel to new planets. You just have to sit and wait.</p><br><p><img src='run_exp/static/images/task_images/time_out.jpg'  height='600' width='auto'></p>",,,,,,,1,,,,,,,,,,,,,,,,,,
html-keyboard-response,20,151929,0.0-8.0-2.0,"""event"",""trial"",""time""
""fullscreenenter"",""1"",""1897""
","
","
","""event"",""trial"",""time""
""fullscreenenter"",""1"",""1897""
","
",,178.8,"<p>If you don't make your choice fast enough, you’ll have to wait a few seconds before you can make another one.</p><p>You can’t dig for more gems or travel to new planets. You just have to sit and wait.</p><br><p><img src='run_exp/static/images/task_images/time_out.jpg'  height='600' width='auto'></p><button class=""jspsych-html-btn-unchosen""><img src=""run_exp/static/images/task_images/planet-01.jpg"" height=""50""></button><button class=""jspsych-html-btn-chosen""><img src=""run_exp/static/images/task_images/planet-02.jpg"" height=""50""></button><p><b>[press the space bar to lock in your answer]<b><br></p>",32,,,,,,,,,,,,,,,,,,,,,,,,
instruc_break,21,167740,0.0-9.0-0.0,"""event"",""trial"",""time""
""fullscreenenter"",""1"",""1897""
","
","
","""event"",""trial"",""time""
""fullscreenenter"",""1"",""1897""
","
",,null,run_exp/static/audio/clip_8_break.m4a,null,"<p> After digging and traveling for a while, you’ll be able to take a break at home base. </p><p>The game will last 20 minutes no matter what.</p><p>You will visit home base every 5 minutes, so, you will visit home base three times during the game.</p><br><p><img src='run_exp/static/images/task_images/home_base.jpg' height='600' width='auto'></p>",,,,,,,,,,,,,,,,,,,,,,,
instruc_break,22,169163,0.0-9.0-1.0,"""event"",""trial"",""time""
""fullscreenenter"",""1"",""1897""
","
","
","""event"",""trial"",""time""
""fullscreenenter"",""1"",""1897""
","
",,1420.2,"<p> After digging and traveling for a while, you’ll be able to take a break at home base. </p><p>The game will last 20 minutes no matter what.</p><p>You will visit home base every 5 minutes, so, you will visit home base three times during the game.</p><br><p><img src='run_exp/static/images/task_images/home_base.jpg' height='600' width='auto'></p>",,,,,,,1,,,,,,,,,,,,,,,,,,
html-keyboard-response,23,169718,0.0-9.0-2.0,"""event"",""trial"",""time""
""fullscreenenter"",""1"",""1897""
","
","
","""event"",""trial"",""time""
""fullscreenenter"",""1"",""1897""
","
",,553.5,"<p> After digging and traveling for a while, you’ll be able to take a break at home base. </p><p>The game will last 20 minutes no matter what.</p><p>You will visit home base every 5 minutes, so, you will visit home base three times during the game.</p><br><p><img src='run_exp/static/images/task_images/home_base.jpg' height='600' width='auto'></p><button class=""jspsych-html-btn-unchosen""><img src=""run_exp/static/images/task_images/planet-01.jpg"" height=""50""></button><button class=""jspsych-html-btn-chosen""><img src=""run_exp/static/images/task_images/planet-02.jpg"" height=""50""></button><p><b>[press the space bar to lock in your answer]<b><br></p>",32,,,,,,,,,,,,,,,,,,,,,,,,
instruc_prac_game,24,180000,0.0-10.0-0.0,"""event"",""trial"",""time""
""fullscreenenter"",""1"",""1897""
","
","
","""event"",""trial"",""time""
""fullscreenenter"",""1"",""1897""
","
",,null,run_exp/static/audio/clip_9_practice.m4a,null,"<p> Are you ready to play a practice game? </p> <p>In this practice game, you'll be digging up barrels of gems. But, in the real game, you'll be digging up the gems themselves. </p>",,,,,,,,,,,,,,,,,,,,,,,
html-button-response,25,181433,0.0-10.0-1.0,"""event"",""trial"",""time""
""fullscreenenter"",""1"",""1897""
","
","
","""event"",""trial"",""time""
""fullscreenenter"",""1"",""1897""
","
",,1431.3,"<p> Are you ready to play a practice game? </p> <p>In this practice game, you'll be digging up barrels of gems. But, in the real game, you'll be digging up the gems themselves. </p>",,,,,,,0,,,,,,,,,,,,,,,,,,
alien_welcome_prac,26,186439,0.0-11.0-0.0,"""event"",""trial"",""time""
""fullscreenenter"",""1"",""1897""
","
","
","""event"",""trial"",""time""
""fullscreenenter"",""1"",""1897""
","
",,null,run_exp/static/images/task_images/aliens/practice_aliens/planet/alien_planet-5.jpg,null,,,,,,,,,,,,,,,,,,,,,,,,
land_prac,27,186947,0.0-11.0-1.0,"""event"",""trial"",""time""
""fullscreenenter"",""1"",""1897""
","
","
","""event"",""trial"",""time""
""fullscreenenter"",""1"",""1897""
","
",,null,run_exp/static/images/task_images/land.jpg,null,,,,,,,99,,,0,,,,,,,,,,,,,,
dig_prac,28,188958,0.0-11.0-2.0,"""event"",""trial"",""time""
""fullscreenenter"",""1"",""1897""
","
","
","""event"",""trial"",""time""
""fullscreenenter"",""1"",""1897""
","
",,,,,,,,,,,,"[{""stimulus"":""run_exp/static/images/task_images/dig.jpg"",""time"":0.5999999940395355},{""stimulus"":""run_exp/static/images/task_images/land.jpg"",""time"":674.2999999821186},{""stimulus"":""run_exp/static/images/task_images/dig.jpg"",""time"":1339.2999999821186}]",[],,,,,,,,,,,,,,,
harvest_prac,29,189966,0.0-11.0-3.0,"""event"",""trial"",""time""
""fullscreenenter"",""1"",""1897""
","
","
","""event"",""trial"",""time""
""fullscreenenter"",""1"",""1897""
","
",,null,run_exp/static/images/task_images/barrel_text.jpg,null,,,,,,,,,,,,,,,,,,,,,,,,
decision_prac,30,192968,0.0-11.0-4.0,"""event"",""trial"",""time""
""fullscreenenter"",""1"",""1897""
","
","
","""event"",""trial"",""time""
""fullscreenenter"",""1"",""1897""
","
",,null,run_exp/static/images/task_images/land.jpg,null,,,,,,,,,,,1,,,,,,,,,,,,,
time_out,31,194975,0.0-12.0-0.0,"""event"",""trial"",""time""
""fullscreenenter"",""1"",""1897""
","
","
","""event"",""trial"",""time""
""fullscreenenter"",""1"",""1897""
","
",,null,run_exp/static/images/task_images/time_out.jpg,null,,,,,,,,,,,,,,,,,,,,,,,,
decision_prac,32,196010,0.0-12.0-1.0,"""event"",""trial"",""time""
""fullscreenenter"",""1"",""1897""
","
","
","""event"",""trial"",""time""
""fullscreenenter"",""1"",""1897""
","
",,1032.2,run_exp/static/images/task_images/land.jpg,65,,,,,,,,,,,2,,,,,,,,,,,,,
dig_prac,33,198018,0.0-13.0-0.0,"""event"",""trial"",""time""
""fullscreenenter"",""1"",""1897""
","
","
","""event"",""trial"",""time""
""fullscreenenter"",""1"",""1897""
","
",,,,,,,,,,,,"[{""stimulus"":""run_exp/static/images/task_images/dig.jpg"",""time"":0.09999999403953552},{""stimulus"":""run_exp/static/images/task_images/land.jpg"",""time"":673.7999999821186},{""stimulus"":""run_exp/static/images/task_images/dig.jpg"",""time"":1336.4000000059605}]",[],,,,,,,,,,,,,,,
harvest_prac,34,199025,0.0-13.0-1.0,"""event"",""trial"",""time""
""fullscreenenter"",""1"",""1897""
","
","
","""event"",""trial"",""time""
""fullscreenenter"",""1"",""1897""
","
",,null,run_exp/static/images/task_images/barrel_text.jpg,null,,,,,,,,,,,,,,,,,,,,,,,,
decision_prac,35,199826,0.0-13.0-2.0,"""event"",""trial"",""time""
""fullscreenenter"",""1"",""1897""
","
","
","""event"",""trial"",""time""
""fullscreenenter"",""1"",""1897""
","
",,799.5,run_exp/static/images/task_images/land.jpg,76,,,,,,,,,,,3,,,,,,,,,,,,,
travel,36,209035,0.0-14.0-0.0,"""event"",""trial"",""time""
""fullscreenenter"",""1"",""1897""
","
","
","""event"",""trial"",""time""
""fullscreenenter"",""1"",""1897""
","
",,,,,,,,,,,,"[{""stimulus"":""run_exp/static/images/task_images/rocket-01.jpg"",""time"":0.19999998807907104},{""stimulus"":""run_exp/static/images/task_images/rocket-02.jpg"",""time"":1025.5},{""stimulus"":""run_exp/static/images/task_images/rocket-03.jpg"",""time"":2048.300000011921},{""stimulus"":""run_exp/static/images/task_images/rocket-04.jpg"",""time"":3067.9000000059605},{""stimulus"":""run_exp/static/images/task_images/rocket-05.jpg"",""time"":4095},{""stimulus"":""run_exp/static/images/task_images/rocket-06.jpg"",""time"":5116.5},{""stimulus"":""run_exp/static/images/task_images/rocket-07.jpg"",""time"":6139},{""stimulus"":""run_exp/static/images/task_images/rocket-08.jpg"",""time"":7159.699999988079},{""stimulus"":""run_exp/static/images/task_images/rocket-09.jpg"",""time"":8182.5}]",[],0,,,,,,,,,,,,,,
alien_welcome_prac,37,214043,0.0-14.0-1.0,"""event"",""trial"",""time""
""fullscreenenter"",""1"",""1897""
","
","
","""event"",""trial"",""time""
""fullscreenenter"",""1"",""1897""
","
",,null,run_exp/static/images/task_images/aliens/practice_aliens/planet/alien_planet-4.jpg,null,,,,,,,,,,,,,,,,,,,,,,,,
land_prac,38,214551,0.0-14.0-2.0,"""event"",""trial"",""time""
""fullscreenenter"",""1"",""1897""
","
","
","""event"",""trial"",""time""
""fullscreenenter"",""1"",""1897""
","
",,null,run_exp/static/images/task_images/land.jpg,null,,,,,,,94,,,0,,,,,,,,,,,,,,
dig_prac,39,216561,0.0-14.0-3.0,"""event"",""trial"",""time""
""fullscreenenter"",""1"",""1897""
","
","
","""event"",""trial"",""time""
""fullscreenenter"",""1"",""1897""
","
",,,,,,,,,,,,"[{""stimulus"":""run_exp/static/images/task_images/dig.jpg"",""time"":0.4000000059604645},{""stimulus"":""run_exp/static/images/task_images/land.jpg"",""time"":673.8000000119209},{""stimulus"":""run_exp/static/images/task_images/dig.jpg"",""time"":1337.800000011921}]",[],,,,,,,,,,,,,,,
harvest_prac,40,217569,0.0-14.0-4.0,"""event"",""trial"",""time""
""fullscreenenter"",""1"",""1897""
","
","
","""event"",""trial"",""time""
""fullscreenenter"",""1"",""1897""
","
",,null,run_exp/static/images/task_images/barrel_text.jpg,null,,,,,,,,,,,,,,,,,,,,,,,,
decision_prac,41,218192,0.0-14.0-5.0,"""event"",""trial"",""time""
""fullscreenenter"",""1"",""1897""
","
","
","""event"",""trial"",""time""
""fullscreenenter"",""1"",""1897""
","
",,621.1,run_exp/static/images/task_images/land.jpg,65,,,,,,,,,,,4,,,,,,,,,,,,,
dig_prac,42,220205,0.0-15.0-0.0,"""event"",""trial"",""time""
""fullscreenenter"",""1"",""1897""
","
","
","""event"",""trial"",""time""
""fullscreenenter"",""1"",""1897""
","
",,,,,,,,,,,,"[{""stimulus"":""run_exp/static/images/task_images/dig.jpg"",""time"":0.10000002384185791},{""stimulus"":""run_exp/static/images/task_images/land.jpg"",""time"":669},{""stimulus"":""run_exp/static/images/task_images/dig.jpg"",""time"":1336.800000011921}]",[],,,,,,,,,,,,,,,
harvest_prac,43,221213,0.0-15.0-1.0,"""event"",""trial"",""time""
""fullscreenenter"",""1"",""1897""
","
","
","""event"",""trial"",""time""
""fullscreenenter"",""1"",""1897""
","
",,null,run_exp/static/images/task_images/barrel_text.jpg,null,,,,,,,,,,,,,,,,,,,,,,,,
decision_prac,44,222620,0.0-15.0-2.0,"""event"",""trial"",""time""
""fullscreenenter"",""1"",""1897""
","
","
","""event"",""trial"",""time""
""fullscreenenter"",""1"",""1897""
","
",,1405.6,run_exp/static/images/task_images/land.jpg,65,,,,,,,,,,,,1,,,,,,,,,,,,
quiz_instruc,45,225650,0.0-16.0-0.0,"""event"",""trial"",""time""
""fullscreenenter"",""1"",""1897""
","
","
","""event"",""trial"",""time""
""fullscreenenter"",""1"",""1897""
","
",,3025.1,run_exp/static/audio/clip_10_quiz.m4a,,,,,,,0,,,,,,,,,,,,,,,,,,
instruc_repeat,46,268576,0.0-16.0-1.0,"""event"",""trial"",""time""
""fullscreenenter"",""1"",""1897""
","
","
","""event"",""trial"",""time""
""fullscreenenter"",""1"",""1897""
","
",,null,"<p> Are you ready to play a practice game? </p> <p>In this practice game, you'll be digging up barrels of gems. But, in the real game, you'll be digging up the gems themselves. </p>",null,"<p>In this game, your goal is to collect as many gems as you can. That’s how you will win bonus money. </p> <p>The entire game will last 20 minutes no matter how many gems you collect or how many planets you visit. </p><p>To stay on a planet and dig again, press the letter A on your keyboard. To leave for a new planet, press the letter L.</p><p>The more you dig on a planet, the fewer gems you’ll get with each dig which is why you might consider leaving for a new planet. </p><p>When you arrive at a new planet, you’ll be greeted by an alien. What the alien looks like does not tell you anything about how much treasure is on the planet. </p>",,,,,,,,,,,,,,,,,,,,,,,
instruc_repeat_continue,47,269846,0.0-16.0-2.0,"""event"",""trial"",""time""
""fullscreenenter"",""1"",""1897""
","
","
","""event"",""trial"",""time""
""fullscreenenter"",""1"",""1897""
","
",,1267.4,"<p> Are you ready to play a practice game? </p> <p>In this practice game, you'll be digging up barrels of gems. But, in the real game, you'll be digging up the gems themselves. </p>",,,,,,,0,,,,,,,,,,,,,,,,,,
quiz_q_1_ask,48,273266,0.0-16.0-3.0,"""event"",""trial"",""time""
""fullscreenenter"",""1"",""1897""
","
","
","""event"",""trial"",""time""
""fullscreenenter"",""1"",""1897""
","
",,3417.7,run_exp/static/audio/clip_11_q1_ask.m4a,,,,,,,2,,,,,,,,,,,,,,,,,,
quiz_q_1_fb_correct,49,277236,0.0-17.0-0.0,"""event"",""trial"",""time""
""fullscreenenter"",""1"",""1897""
","
","
","""event"",""trial"",""time""
""fullscreenenter"",""1"",""1897""
","
",,null,run_exp/static/audio/clip_12_q1_correct.m4a,null,<p>That’s correct. You win extra money by collecting more gems.</p>,,,,,,,,,,,,,,,,,,,,,,,
quiz_q_2_ask,50,280315,0.0-17.0-1.0,"""event"",""trial"",""time""
""fullscreenenter"",""1"",""1897""
","
","
","""event"",""trial"",""time""
""fullscreenenter"",""1"",""1897""
","
",,3075.8,run_exp/static/audio/clip_14_q2_ask.m4a,,,,,,,1,,,,,,,,,,,,,,,,,,
quiz_q_2_fb_correct,51,284446,0.0-18.0-0.0,"""event"",""trial"",""time""
""fullscreenenter"",""1"",""1897""
","
","
","""event"",""trial"",""time""
""fullscreenenter"",""1"",""1897""
","
",,null,run_exp/static/audio/clip_15_q2_correct.m4a,null,<p>That’s correct. The experiment is 20 minutes no matter what.</p>,,,,,,,,,,,,,,,,,,,,,,,
quiz_q_3_ask,52,287368,0.0-18.0-1.0,"""event"",""trial"",""time""
""fullscreenenter"",""1"",""1897""
","
","
","""event"",""trial"",""time""
""fullscreenenter"",""1"",""1897""
","
",,2920,run_exp/static/audio/clip_17_q3_ask.m4a,,,,,,,1,,,,,,,,,,,,,,,,,,
quiz_q_3_fb_correct,53,291465,0.0-19.0-0.0,"""event"",""trial"",""time""
""fullscreenenter"",""1"",""1897""
","
","
","""event"",""trial"",""time""
""fullscreenenter"",""1"",""1897""
","
",,null,run_exp/static/audio/clip_18_q3_correct.m4a,null,<p> That’s correct. You press the letter L to travel to a new planet.</p>,,,,,,,,,,,,,,,,,,,,,,,
quiz_q_4_ask,54,294998,0.0-19.0-1.0,"""event"",""trial"",""time""
""fullscreenenter"",""1"",""1897""
","
","
","""event"",""trial"",""time""
""fullscreenenter"",""1"",""1897""
","
",,3530.2,run_exp/static/audio/clip_20_q4_ask.m4a,,,,,,,0,,,,,,,,,,,,,,,,,,
quiz_q_4_fb_correct,55,300445,0.0-20.0-0.0,"""event"",""trial"",""time""
""fullscreenenter"",""1"",""1897""
","
","
","""event"",""trial"",""time""
""fullscreenenter"",""1"",""1897""
","
",,null,run_exp/static/audio/clip_21_q4_correct.m4a,null,<p> That’s correct. The more you dig on a planet the fewer gems you’ll get with each dig. </p>,,,,,,,,,,,,,,,,,,,,,,,
quiz_q_5_ask,56,303015,0.0-20.0-1.0,"""event"",""trial"",""time""
""fullscreenenter"",""1"",""1897""
","
","
","""event"",""trial"",""time""
""fullscreenenter"",""1"",""1897""
","
",,2567,run_exp/static/audio/clip_23_q5_ask.m4a,,,,,,,1,,,,,,,,,,,,,,,,,,
quiz_q_5_fb_correct,57,308145,0.0-21.0-0.0,"""event"",""trial"",""time""
""fullscreenenter"",""1"",""1897""
","
","
","""event"",""trial"",""time""
""fullscreenenter"",""1"",""1897""
","
",,null,run_exp/static/audio/clip_24_q5_correct.m4a,null,<p> That’s correct. The alien tells you nothing about how much treasure is on the planet.</p>,,,,,,,,,,,,,,,,,,,,,,,
quiz_correct,58,311725,0.0-22.0-0.0,"""event"",""trial"",""time""
""fullscreenenter"",""1"",""1897""
","
","
","""event"",""trial"",""time""
""fullscreenenter"",""1"",""1897""
","
",,null,run_exp/static/audio/clip_26_correct_quiz.m4a,null,,,,,,,,,,,,,,,,,,,,,,,,
quiz_correct_continue,59,312582,0.0-22.0-1.0,"""event"",""trial"",""time""
""fullscreenenter"",""1"",""1897""
","
","
","""event"",""trial"",""time""
""fullscreenenter"",""1"",""1897""
","
",,855,<p>Good job! You're now ready to move on to the real game!</p>,,,,,,,0,,,,,,,,,,,,,,,,,,
audio-keyboard-response,60,322824,0.0-22.0-2.0,"""event"",""trial"",""time""
""fullscreenenter"",""1"",""1897""
","
","
","""event"",""trial"",""time""
""fullscreenenter"",""1"",""1897""
","
",,null,run_exp/static/audio/clip_28_real_game.m4a,null,,,,,,,,,,,,,,,,,,,,,,,,
instruc_begin_exp_contine,61,324031,0.0-22.0-3.0,"""event"",""trial"",""time""
""fullscreenenter"",""1"",""1897""
","
","
","""event"",""trial"",""time""
""fullscreenenter"",""1"",""1897""
","
",,1203.6,"<p>Now that you know how  to dig for space treasure and travel to new planets,you can start exploring! </p><p>Do you want to go over the instructions again or get started with the real game?</p>",,,,,,,1,,,,,,1,,,,,,,,,,,,
alien_welcome,62,329041,0.0-23.0-0.0,"""event"",""trial"",""time""
""fullscreenenter"",""1"",""1897""
","
","
","""event"",""trial"",""time""
""fullscreenenter"",""1"",""1897""
","
",,null,run_exp/static/images/task_images/aliens/old_aliens/planet/alien_planet-34.jpg,null,,,,,,,,,,,,,34,"34,16,45,58,39,44,4,64,60,18,29,13,17,57,72,65,49,33,6,74,20,36,62,35,68,11,56,38,37,54,21,53,2,66,28,67,70,9,5",,,,,,,,,,
land,63,329548,0.0-23.0-1.0,"""event"",""trial"",""time""
""fullscreenenter"",""1"",""1897""
","
","
","""event"",""trial"",""time""
""fullscreenenter"",""1"",""1897""
","
",,null,run_exp/static/images/task_images/land.jpg,null,,,,,,,105,,,1,,,,,,,,,,,,,,
dig,64,331559,0.0-23.0-2.0,"""event"",""trial"",""time""
""fullscreenenter"",""1"",""1897""
","
","
","""event"",""trial"",""time""
""fullscreenenter"",""1"",""1897""
","
",,,,,,,,,,,,"[{""stimulus"":""run_exp/static/images/task_images/dig.jpg"",""time"":0.5},{""stimulus"":""run_exp/static/images/task_images/land.jpg"",""time"":674.0999999940395},{""stimulus"":""run_exp/static/images/task_images/dig.jpg"",""time"":1341.5}]",[],1,,,,,,,,,,,,,,
harvest,65,332568,0.0-23.0-3.0,"""event"",""trial"",""time""
""fullscreenenter"",""1"",""1897""
","
","
","""event"",""trial"",""time""
""fullscreenenter"",""1"",""1897""
","
",,null,run_exp/static/images/task_images/gems/105.jpg,null,,,,,,,23,,,1,,,,,105,0.219905225,0.219047619,,,,,,,
decision,66,332961,0.0-23.0-4.0,"""event"",""trial"",""time""
""fullscreenenter"",""1"",""1897""
","
","
","""event"",""trial"",""time""
""fullscreenenter"",""1"",""1897""
","
",,389.7,run_exp/static/images/task_images/land.jpg,65,,,,,,,23,,,1,,,,,,,,8928,1,0,FALSE,,,
dig,67,335582,0.0-24.0-0.0,"""event"",""trial"",""time""
""fullscreenenter"",""1"",""1897""
","
","
","""event"",""trial"",""time""
""fullscreenenter"",""1"",""1897""
","
",,,,,,,,,,,,"[{""stimulus"":""run_exp/static/images/task_images/dig.jpg"",""time"":0.09999999403953552},{""stimulus"":""run_exp/static/images/task_images/land.jpg"",""time"":876.6999999880791},{""stimulus"":""run_exp/static/images/task_images/dig.jpg"",""time"":1744.300000011921}]",[],1,,,,,,,,,,,,,,
harvest,68,336590,0.0-24.0-1.0,"""event"",""trial"",""time""
""fullscreenenter"",""1"",""1897""
","
","
","""event"",""trial"",""time""
""fullscreenenter"",""1"",""1897""
","
",,null,run_exp/static/images/task_images/gems/23.jpg,null,,,,,,,5,,,1,,,,,23,0.226081453,0.217391304,,,,,,,
decision,69,336963,0.0-24.0-2.0,"""event"",""trial"",""time""
""fullscreenenter"",""1"",""1897""
","
","
","""event"",""trial"",""time""
""fullscreenenter"",""1"",""1897""
","
",,371.1,run_exp/static/images/task_images/land.jpg,65,,,,,,,5,,,1,,,,,,,,12929,1,1,FALSE,,,
dig,70,339601,0.0-25.0-0.0,"""event"",""trial"",""time""
""fullscreenenter"",""1"",""1897""
","
","
","""event"",""trial"",""time""
""fullscreenenter"",""1"",""1897""
","
",,,,,,,,,,,,"[{""stimulus"":""run_exp/static/images/task_images/dig.jpg"",""time"":0.30000001192092896},{""stimulus"":""run_exp/static/images/task_images/land.jpg"",""time"":879.1999999880791},{""stimulus"":""run_exp/static/images/task_images/dig.jpg"",""time"":1757}]",[],1,,,,,,,,,,,,,,
harvest,71,340610,0.0-25.0-1.0,"""event"",""trial"",""time""
""fullscreenenter"",""1"",""1897""
","
","
","""event"",""trial"",""time""
""fullscreenenter"",""1"",""1897""
","
",,null,run_exp/static/images/task_images/gems/5.jpg,null,,,,,,,1,,,1,,,,,5,0.229954999,0.2,,,,,,,
decision,72,340880,0.0-25.0-2.0,"""event"",""trial"",""time""
""fullscreenenter"",""1"",""1897""
","
","
","""event"",""trial"",""time""
""fullscreenenter"",""1"",""1897""
","
",,267.6,run_exp/static/images/task_images/land.jpg,76,,,,,,,1,,,1,,,,,,,,16846,1,2,TRUE,,,
travel,73,350615,0.0-26.0-0.0,"""event"",""trial"",""time""
""fullscreenenter"",""1"",""1897""
","
","
","""event"",""trial"",""time""
""fullscreenenter"",""1"",""1897""
","
",,,,,,,,,,,,"[{""stimulus"":""run_exp/static/images/task_images/rocket-01.jpg"",""time"":0.3999999761581421},{""stimulus"":""run_exp/static/images/task_images/rocket-02.jpg"",""time"":1085.0999999940395},{""stimulus"":""run_exp/static/images/task_images/rocket-03.jpg"",""time"":2168.699999988079},{""stimulus"":""run_exp/static/images/task_images/rocket-04.jpg"",""time"":3248.7999999821186},{""stimulus"":""run_exp/static/images/task_images/rocket-05.jpg"",""time"":4331.699999988079},{""stimulus"":""run_exp/static/images/task_images/rocket-06.jpg"",""time"":5409.799999982119},{""stimulus"":""run_exp/static/images/task_images/rocket-07.jpg"",""time"":6489.299999982119},{""stimulus"":""run_exp/static/images/task_images/rocket-08.jpg"",""time"":7574.199999988079},{""stimulus"":""run_exp/static/images/task_images/rocket-09.jpg"",""time"":8651.299999982119}]",[],1,,,,,,,,,,,,,,
alien_welcome,74,355623,0.0-26.0-1.0,"""event"",""trial"",""time""
""fullscreenenter"",""1"",""1897""
","
","
","""event"",""trial"",""time""
""fullscreenenter"",""1"",""1897""
","
",,null,run_exp/static/images/task_images/aliens/old_aliens/planet/alien_planet-16.jpg,null,,,,,,,,,,,,,16,"34,16,45,58,39,44,4,64,60,18,29,13,17,57,72,65,49,33,6,74,20,36,62,35,68,11,56,38,37,54,21,53,2,66,28,67,70,9,5",,,,,,,,,,
land,75,356127,0.0-26.0-2.0,"""event"",""trial"",""time""
""fullscreenenter"",""1"",""1897""
","
","
","""event"",""trial"",""time""
""fullscreenenter"",""1"",""1897""
","
",,null,run_exp/static/images/task_images/land.jpg,null,,,,,,,102,,,2,,,,,,,,,,,,,,
dig,76,358133,0.0-26.0-3.0,"""event"",""trial"",""time""
""fullscreenenter"",""1"",""1897""
","
","
","""event"",""trial"",""time""
""fullscreenenter"",""1"",""1897""
","
",,,,,,,,,,,,"[{""stimulus"":""run_exp/static/images/task_images/dig.jpg"",""time"":0.4000000059604645},{""stimulus"":""run_exp/static/images/task_images/land.jpg"",""time"":668.6999999880791},{""stimulus"":""run_exp/static/images/task_images/dig.jpg"",""time"":1338.9000000059605}]",[],2,,,,,,,,,,,,,,
harvest,77,359140,0.0-26.0-4.0,"""event"",""trial"",""time""
""fullscreenenter"",""1"",""1897""
","
","
","""event"",""trial"",""time""
""fullscreenenter"",""1"",""1897""
","
",,null,run_exp/static/images/task_images/gems/102.jpg,null,,,,,,,19,,,2,,,,,102,0.190216893,0.18627451,,,,,,,
decision,78,359806,0.0-26.0-5.0,"""event"",""trial"",""time""
""fullscreenenter"",""1"",""1897""
","
","
","""event"",""trial"",""time""
""fullscreenenter"",""1"",""1897""
","
",,664.1,run_exp/static/images/task_images/land.jpg,65,,,,,,,19,,,2,,,,,,,,35773,1,0,FALSE,,,
dig,79,362151,0.0-27.0-0.0,"""event"",""trial"",""time""
""fullscreenenter"",""1"",""1897""
","
","
","""event"",""trial"",""time""
""fullscreenenter"",""1"",""1897""
","
",,,,,,,,,,,,"[{""stimulus"":""run_exp/static/images/task_images/dig.jpg"",""time"":0.4000000059604645},{""stimulus"":""run_exp/static/images/task_images/land.jpg"",""time"":784.9000000059605},{""stimulus"":""run_exp/static/images/task_images/dig.jpg"",""time"":1562.5}]",[],2,,,,,,,,,,,,,,
harvest,80,363155,0.0-27.0-1.0,"""event"",""trial"",""time""
""fullscreenenter"",""1"",""1897""
","
","
","""event"",""trial"",""time""
""fullscreenenter"",""1"",""1897""
","
",,null,run_exp/static/images/task_images/gems/19.jpg,null,,,,,,,4,,,2,,,,,19,0.222934285,0.210526316,,,,,,,
decision,81,363501,0.0-27.0-2.0,"""event"",""trial"",""time""
""fullscreenenter"",""1"",""1897""
","
","
","""event"",""trial"",""time""
""fullscreenenter"",""1"",""1897""
","
",,345,run_exp/static/images/task_images/land.jpg,65,,,,,,,4,,,2,,,,,,,,39468,1,1,FALSE,,,
dig,82,366167,0.0-28.0-0.0,"""event"",""trial"",""time""
""fullscreenenter"",""1"",""1897""
","
","
","""event"",""trial"",""time""
""fullscreenenter"",""1"",""1897""
","
",,,,,,,,,,,,"[{""stimulus"":""run_exp/static/images/task_images/dig.jpg"",""time"":0.4000000059604645},{""stimulus"":""run_exp/static/images/task_images/land.jpg"",""time"":887.4000000059605},{""stimulus"":""run_exp/static/images/task_images/dig.jpg"",""time"":1776.5999999940395}]",[],2,,,,,,,,,,,,,,
harvest,83,367175,0.0-28.0-1.0,"""event"",""trial"",""time""
""fullscreenenter"",""1"",""1897""
","
","
","""event"",""trial"",""time""
""fullscreenenter"",""1"",""1897""
","
",,null,run_exp/static/images/task_images/gems/4.jpg,null,,,,,,,1,,,2,,,,,4,0.243800311,0.25,,,,,,,
decision,84,367442,0.0-28.0-2.0,"""event"",""trial"",""time""
""fullscreenenter"",""1"",""1897""
","
","
","""event"",""trial"",""time""
""fullscreenenter"",""1"",""1897""
","
",,264.3,run_exp/static/images/task_images/land.jpg,76,,,,,,,1,,,2,,,,,,,,43408,1,2,TRUE,,,
travel,85,377180,0.0-29.0-0.0,"""event"",""trial"",""time""
""fullscreenenter"",""1"",""1897""
","
","
","""event"",""trial"",""time""
""fullscreenenter"",""1"",""1897""
","
",,,,,,,,,,,,"[{""stimulus"":""run_exp/static/images/task_images/rocket-01.jpg"",""time"":0.19999998807907104},{""stimulus"":""run_exp/static/images/task_images/rocket-02.jpg"",""time"":1084.4000000059605},{""stimulus"":""run_exp/static/images/task_images/rocket-03.jpg"",""time"":2168.199999988079},{""stimulus"":""run_exp/static/images/task_images/rocket-04.jpg"",""time"":3246.9000000059605},{""stimulus"":""run_exp/static/images/task_images/rocket-05.jpg"",""time"":4330.5},{""stimulus"":""run_exp/static/images/task_images/rocket-06.jpg"",""time"":5406.9000000059605},{""stimulus"":""run_exp/static/images/task_images/rocket-07.jpg"",""time"":6492.0999999940395},{""stimulus"":""run_exp/static/images/task_images/rocket-08.jpg"",""time"":7573.9000000059605},{""stimulus"":""run_exp/static/images/task_images/rocket-09.jpg"",""time"":8655.09999999404}]",[],2,,,,,,,,,,,,,,
alien_welcome,86,382190,0.0-29.0-1.0,"""event"",""trial"",""time""
""fullscreenenter"",""1"",""1897""
","
","
","""event"",""trial"",""time""
""fullscreenenter"",""1"",""1897""
","
",,null,run_exp/static/images/task_images/aliens/old_aliens/planet/alien_planet-45.jpg,null,,,,,,,,,,,,,45,"34,16,45,58,39,44,4,64,60,18,29,13,17,57,72,65,49,33,6,74,20,36,62,35,68,11,56,38,37,54,21,53,2,66,28,67,70,9,5",,,,,,,,,,
land,87,382699,0.0-29.0-2.0,"""event"",""trial"",""time""
""fullscreenenter"",""1"",""1897""
","
","
","""event"",""trial"",""time""
""fullscreenenter"",""1"",""1897""
","
",,null,run_exp/static/images/task_images/land.jpg,null,,,,,,,94,,,3,,,,,,,,,,,,,,
dig,88,384709,0.0-29.0-3.0,"""event"",""trial"",""time""
""fullscreenenter"",""1"",""1897""
","
","
","""event"",""trial"",""time""
""fullscreenenter"",""1"",""1897""
","
",,,,,,,,,,,,"[{""stimulus"":""run_exp/static/images/task_images/dig.jpg"",""time"":0.5},{""stimulus"":""run_exp/static/images/task_images/land.jpg"",""time"":674},{""stimulus"":""run_exp/static/images/task_images/dig.jpg"",""time"":1336.7999999821186}]",[],3,,,,,,,,,,,,,,
harvest,89,385712,0.0-29.0-4.0,"""event"",""trial"",""time""
""fullscreenenter"",""1"",""1897""
","
","
","""event"",""trial"",""time""
""fullscreenenter"",""1"",""1897""
","
",,null,run_exp/static/images/task_images/gems/94.jpg,null,,,,,,,50,,,3,,,,,94,0.528220413,0.531914894,,,,,,,
decision,90,386084,0.0-29.0-5.0,"""event"",""trial"",""time""
""fullscreenenter"",""1"",""1897""
","
","
","""event"",""trial"",""time""
""fullscreenenter"",""1"",""1897""
","
",,370.1,run_exp/static/images/task_images/land.jpg,65,,,,,,,50,,,3,,,,,,,,62051,1,0,FALSE,,,
dig,91,388722,0.0-30.0-0.0,"""event"",""trial"",""time""
""fullscreenenter"",""1"",""1897""
","
","
","""event"",""trial"",""time""
""fullscreenenter"",""1"",""1897""
","
",,,,,,,,,,,,"[{""stimulus"":""run_exp/static/images/task_images/dig.jpg"",""time"":0.09999999403953552},{""stimulus"":""run_exp/static/images/task_images/land.jpg"",""time"":882.3000000119209},{""stimulus"":""run_exp/static/images/task_images/dig.jpg"",""time"":1754.4000000059605}]",[],3,,,,,,,,,,,,,,
harvest,92,389730,0.0-30.0-1.0,"""event"",""trial"",""time""
""fullscreenenter"",""1"",""1897""
","
","
","""event"",""trial"",""time""
""fullscreenenter"",""1"",""1897""
","
",,null,run_exp/static/images/task_images/gems/50.jpg,null,,,,,,,23,,,3,,,,,50,0.465926831,0.46,,,,,,,
decision,93,390147,0.0-30.0-2.0,"""event"",""trial"",""time""
""fullscreenenter"",""1"",""1897""
","
","
","""event"",""trial"",""time""
""fullscreenenter"",""1"",""1897""
","
",,415,run_exp/static/images/task_images/land.jpg,65,,,,,,,23,,,3,,,,,,,,66113,1,1,FALSE,,,
dig,94,392741,0.0-31.0-0.0,"""event"",""trial"",""time""
""fullscreenenter"",""1"",""1897""
","
","
","""event"",""trial"",""time""
""fullscreenenter"",""1"",""1897""
","
",,,,,,,,,,,,"[{""stimulus"":""run_exp/static/images/task_images/dig.jpg"",""time"":0.30000001192092896},{""stimulus"":""run_exp/static/images/task_images/land.jpg"",""time"":867.5999999940395},{""stimulus"":""run_exp/static/images/task_images/dig.jpg"",""time"":1727.7000000178814}]",[],3,,,,,,,,,,,,,,
harvest,95,393749,0.0-31.0-1.0,"""event"",""trial"",""time""
""fullscreenenter"",""1"",""1897""
","
","
","""event"",""trial"",""time""
""fullscreenenter"",""1"",""1897""
","
",,null,run_exp/static/images/task_images/gems/23.jpg,null,,,,,,,12,,,3,,,,,23,0.537295222,0.52173913,,,,,,,
decision,96,394030,0.0-31.0-2.0,"""event"",""trial"",""time""
""fullscreenenter"",""1"",""1897""
","
","
","""event"",""trial"",""time""
""fullscreenenter"",""1"",""1897""
","
",,278.2,run_exp/static/images/task_images/land.jpg,76,,,,,,,12,,,3,,,,,,,,69996,1,2,TRUE,,,
travel,97,403760,0.0-32.0-0.0,"""event"",""trial"",""time""
""fullscreenenter"",""1"",""1897""
","
","
","""event"",""trial"",""time""
""fullscreenenter"",""1"",""1897""
","
",,,,,,,,,,,,"[{""stimulus"":""run_exp/static/images/task_images/rocket-01.jpg"",""time"":0.29999998211860657},{""stimulus"":""run_exp/static/images/task_images/rocket-02.jpg"",""time"":1087.199999988079},{""stimulus"":""run_exp/static/images/task_images/rocket-03.jpg"",""time"":2166.699999988079},{""stimulus"":""run_exp/static/images/task_images/rocket-04.jpg"",""time"":3246.5},{""stimulus"":""run_exp/static/images/task_images/rocket-05.jpg"",""time"":4326.799999982119},{""stimulus"":""run_exp/static/images/task_images/rocket-06.jpg"",""time"":5407.0999999940395},{""stimulus"":""run_exp/static/images/task_images/rocket-07.jpg"",""time"":6487.0999999940395},{""stimulus"":""run_exp/static/images/task_images/rocket-08.jpg"",""time"":7566.5999999940395},{""stimulus"":""run_exp/static/images/task_images/rocket-09.jpg"",""time"":8647.299999982119}]",[],3,,,,,,,,,,,,,,
alien_welcome,98,408769,0.0-32.0-1.0,"""event"",""trial"",""time""
""fullscreenenter"",""1"",""1897""
","
","
","""event"",""trial"",""time""
""fullscreenenter"",""1"",""1897""
","
",,null,run_exp/static/images/task_images/aliens/old_aliens/planet/alien_planet-58.jpg,null,,,,,,,,,,,,,58,"34,16,45,58,39,44,4,64,60,18,29,13,17,57,72,65,49,33,6,74,20,36,62,35,68,11,56,38,37,54,21,53,2,66,28,67,70,9,5",,,,,,,,,,
land,99,409274,0.0-32.0-2.0,"""event"",""trial"",""time""
""fullscreenenter"",""1"",""1897""
","
","
","""event"",""trial"",""time""
""fullscreenenter"",""1"",""1897""
","
",,null,run_exp/static/images/task_images/land.jpg,null,,,,,,,102,,,4,,,,,,,,,,,,,,
dig,100,411281,0.0-32.0-3.0,"""event"",""trial"",""time""
""fullscreenenter"",""1"",""1897""
","
","
","""event"",""trial"",""time""
""fullscreenenter"",""1"",""1897""
","
",,,,,,,,,,,,"[{""stimulus"":""run_exp/static/images/task_images/dig.jpg"",""time"":0.4000000059604645},{""stimulus"":""run_exp/static/images/task_images/land.jpg"",""time"":674.2000000178814},{""stimulus"":""run_exp/static/images/task_images/dig.jpg"",""time"":1336.0999999940395}]",[],4,,,,,,,,,,,,,,
harvest,101,412289,0.0-32.0-4.0,"""event"",""trial"",""time""
""fullscreenenter"",""1"",""1897""
","
","
","""event"",""trial"",""time""
""fullscreenenter"",""1"",""1897""
","
",,null,run_exp/static/images/task_images/gems/102.jpg,null,,,,,,,55,,,4,,,,,102,0.534464427,0.539215686,,,,,,,
decision,102,412426,0.0-32.0-5.0,"""event"",""trial"",""time""
""fullscreenenter"",""1"",""1897""
","
","
","""event"",""trial"",""time""
""fullscreenenter"",""1"",""1897""
","
",,134.9,run_exp/static/images/task_images/land.jpg,65,,,,,,,55,,,4,,,,,,,,88393,1,0,FALSE,,,
dig,103,415302,0.0-33.0-0.0,"""event"",""trial"",""time""
""fullscreenenter"",""1"",""1897""
","
","
","""event"",""trial"",""time""
""fullscreenenter"",""1"",""1897""
","
",,,,,,,,,,,,"[{""stimulus"":""run_exp/static/images/task_images/dig.jpg"",""time"":0.19999998807907104},{""stimulus"":""run_exp/static/images/task_images/land.jpg"",""time"":960.4000000059605},{""stimulus"":""run_exp/static/images/task_images/dig.jpg"",""time"":1916.199999988079}]",[],4,,,,,,,,,,,,,,
harvest,104,416305,0.0-33.0-1.0,"""event"",""trial"",""time""
""fullscreenenter"",""1"",""1897""
","
","
","""event"",""trial"",""time""
""fullscreenenter"",""1"",""1897""
","
",,null,run_exp/static/images/task_images/gems/55.jpg,null,,,,,,,31,,,4,,,,,55,0.558473472,0.563636364,,,,,,,
decision,105,416875,0.0-33.0-2.0,"""event"",""trial"",""time""
""fullscreenenter"",""1"",""1897""
","
","
","""event"",""trial"",""time""
""fullscreenenter"",""1"",""1897""
","
",,568.9,run_exp/static/images/task_images/land.jpg,65,,,,,,,31,,,4,,,,,,,,92841,1,1,FALSE,,,
dig,106,419317,0.0-34.0-0.0,"""event"",""trial"",""time""
""fullscreenenter"",""1"",""1897""
","
","
","""event"",""trial"",""time""
""fullscreenenter"",""1"",""1897""
","
",,,,,,,,,,,,"[{""stimulus"":""run_exp/static/images/task_images/dig.jpg"",""time"":0.29999998211860657},{""stimulus"":""run_exp/static/images/task_images/land.jpg"",""time"":812.7999999821186},{""stimulus"":""run_exp/static/images/task_images/dig.jpg"",""time"":1627}]",[],4,,,,,,,,,,,,,,
harvest,107,420325,0.0-34.0-1.0,"""event"",""trial"",""time""
""fullscreenenter"",""1"",""1897""
","
","
","""event"",""trial"",""time""
""fullscreenenter"",""1"",""1897""
","
",,null,run_exp/static/images/task_images/gems/31.jpg,null,,,,,,,16,,,4,,,,,31,0.531598585,0.516129032,,,,,,,
decision,108,420701,0.0-34.0-2.0,"""event"",""trial"",""time""
""fullscreenenter"",""1"",""1897""
","
","
","""event"",""trial"",""time""
""fullscreenenter"",""1"",""1897""
","
",,375.3,run_exp/static/images/task_images/land.jpg,65,,,,,,,16,,,4,,,,,,,,96667,1,2,FALSE,,,
dig,109,423331,0.0-35.0-0.0,"""event"",""trial"",""time""
""fullscreenenter"",""1"",""1897""
","
","
","""event"",""trial"",""time""
""fullscreenenter"",""1"",""1897""
","
",,,,,,,,,,,,"[{""stimulus"":""run_exp/static/images/task_images/dig.jpg"",""time"":0.29999998211860657},{""stimulus"":""run_exp/static/images/task_images/land.jpg"",""time"":877.5},{""stimulus"":""run_exp/static/images/task_images/dig.jpg"",""time"":1755}]",[],4,,,,,,,,,,,,,,
harvest,110,424338,0.0-35.0-1.0,"""event"",""trial"",""time""
""fullscreenenter"",""1"",""1897""
","
","
","""event"",""trial"",""time""
""fullscreenenter"",""1"",""1897""
","
",,null,run_exp/static/images/task_images/gems/16.jpg,null,,,,,,,8,,,4,,,,,16,0.512076654,0.5,,,,,,,
decision,111,424521,0.0-35.0-2.0,"""event"",""trial"",""time""
""fullscreenenter"",""1"",""1897""
","
","
","""event"",""trial"",""time""
""fullscreenenter"",""1"",""1897""
","
",,181.4,run_exp/static/images/task_images/land.jpg,76,,,,,,,8,,,4,,,,,,,,100487,1,3,TRUE,,,
travel,112,434340,0.0-36.0-0.0,"""event"",""trial"",""time""
""fullscreenenter"",""1"",""1897""
","
","
","""event"",""trial"",""time""
""fullscreenenter"",""1"",""1897""
","
",,,,,,,,,,,,"[{""stimulus"":""run_exp/static/images/task_images/rocket-01.jpg"",""time"":0.30000001192092896},{""stimulus"":""run_exp/static/images/task_images/rocket-02.jpg"",""time"":1095.2000000178814},{""stimulus"":""run_exp/static/images/task_images/rocket-03.jpg"",""time"":2187.2000000178814},{""stimulus"":""run_exp/static/images/task_images/rocket-04.jpg"",""time"":3275.5999999940395},{""stimulus"":""run_exp/static/images/task_images/rocket-05.jpg"",""time"":4367.0999999940395},{""stimulus"":""run_exp/static/images/task_images/rocket-06.jpg"",""time"":5455.300000011921},{""stimulus"":""run_exp/static/images/task_images/rocket-07.jpg"",""time"":6542.300000011921},{""stimulus"":""run_exp/static/images/task_images/rocket-08.jpg"",""time"":7632.300000011921},{""stimulus"":""run_exp/static/images/task_images/rocket-09.jpg"",""time"":8727.09999999404}]",[],4,,,,,,,,,,,,,,
alien_welcome,113,439350,0.0-36.0-1.0,"""event"",""trial"",""time""
""fullscreenenter"",""1"",""1897""
","
","
","""event"",""trial"",""time""
""fullscreenenter"",""1"",""1897""
","
",,null,run_exp/static/images/task_images/aliens/old_aliens/planet/alien_planet-39.jpg,null,,,,,,,,,,,,,39,"34,16,45,58,39,44,4,64,60,18,29,13,17,57,72,65,49,33,6,74,20,36,62,35,68,11,56,38,37,54,21,53,2,66,28,67,70,9,5",,,,,,,,,,
land,114,439855,0.0-36.0-2.0,"""event"",""trial"",""time""
""fullscreenenter"",""1"",""1897""
","
","
","""event"",""trial"",""time""
""fullscreenenter"",""1"",""1897""
","
",,null,run_exp/static/images/task_images/land.jpg,null,,,,,,,101,,,5,,,,,,,,,,,,,,
dig,115,441860,0.0-36.0-3.0,"""event"",""trial"",""time""
""fullscreenenter"",""1"",""1897""
","
","
","""event"",""trial"",""time""
""fullscreenenter"",""1"",""1897""
","
",,,,,,,,,,,,"[{""stimulus"":""run_exp/static/images/task_images/dig.jpg"",""time"":0.5999999940395355},{""stimulus"":""run_exp/static/images/task_images/land.jpg"",""time"":672.1999999880791},{""stimulus"":""run_exp/static/images/task_images/dig.jpg"",""time"":1336.9000000059605}]",[],5,,,,,,,,,,,,,,
harvest,116,442864,0.0-36.0-4.0,"""event"",""trial"",""time""
""fullscreenenter"",""1"",""1897""
","
","
","""event"",""trial"",""time""
""fullscreenenter"",""1"",""1897""
","
",,null,run_exp/static/images/task_images/gems/101.jpg,null,,,,,,,50,,,5,,,,,101,0.497798737,0.495049505,,,,,,,
decision,117,443324,0.0-36.0-5.0,"""event"",""trial"",""time""
""fullscreenenter"",""1"",""1897""
","
","
","""event"",""trial"",""time""
""fullscreenenter"",""1"",""1897""
","
",,458.1,run_exp/static/images/task_images/land.jpg,65,,,,,,,50,,,5,,,,,,,,119290,1,0,FALSE,,,
dig,118,445874,0.0-37.0-0.0,"""event"",""trial"",""time""
""fullscreenenter"",""1"",""1897""
","
","
","""event"",""trial"",""time""
""fullscreenenter"",""1"",""1897""
","
",,,,,,,,,,,,"[{""stimulus"":""run_exp/static/images/task_images/dig.jpg"",""time"":0.20000001788139343},{""stimulus"":""run_exp/static/images/task_images/land.jpg"",""time"":850.8000000119209},{""stimulus"":""run_exp/static/images/task_images/dig.jpg"",""time"":1700.9000000059605}]",[],5,,,,,,,,,,,,,,
harvest,119,446881,0.0-37.0-1.0,"""event"",""trial"",""time""
""fullscreenenter"",""1"",""1897""
","
","
","""event"",""trial"",""time""
""fullscreenenter"",""1"",""1897""
","
",,null,run_exp/static/images/task_images/gems/50.jpg,null,,,,,,,22,,,5,,,,,50,0.437347331,0.44,,,,,,,
decision,120,447132,0.0-37.0-2.0,"""event"",""trial"",""time""
""fullscreenenter"",""1"",""1897""
","
","
","""event"",""trial"",""time""
""fullscreenenter"",""1"",""1897""
","
",,248.5,run_exp/static/images/task_images/land.jpg,65,,,,,,,22,,,5,,,,,,,,123098,1,1,FALSE,,,
dig,121,449889,0.0-38.0-0.0,"""event"",""trial"",""time""
""fullscreenenter"",""1"",""1897""
","
","
","""event"",""trial"",""time""
""fullscreenenter"",""1"",""1897""
","
",,,,,,,,,,,,"[{""stimulus"":""run_exp/static/images/task_images/dig.jpg"",""time"":0.20000001788139343},{""stimulus"":""run_exp/static/images/task_images/land.jpg"",""time"":920.5},{""stimulus"":""run_exp/static/images/task_images/dig.jpg"",""time"":1840.4000000059605}]",[],5,,,,,,,,,,,,,,
harvest,122,450897,0.0-38.0-1.0,"""event"",""trial"",""time""
""fullscreenenter"",""1"",""1897""
","
","
","""event"",""trial"",""time""
""fullscreenenter"",""1"",""1897""
","
",,null,run_exp/static/images/task_images/gems/22.jpg,null,,,,,,,12,,,5,,,,,22,0.540918456,0.545454545,,,,,,,
decision,123,452085,0.0-38.0-2.0,"""event"",""trial"",""time""
""fullscreenenter"",""1"",""1897""
","
","
","""event"",""trial"",""time""
""fullscreenenter"",""1"",""1897""
","
",,1184.8,run_exp/static/images/task_images/land.jpg,65,,,,,,,12,,,5,,,,,,,,128051,1,2,FALSE,,,
dig,124,453910,0.0-39.0-0.0,"""event"",""trial"",""time""
""fullscreenenter"",""1"",""1897""
","
","
","""event"",""trial"",""time""
""fullscreenenter"",""1"",""1897""
","
",,,,,,,,,,,,"[{""stimulus"":""run_exp/static/images/task_images/dig.jpg"",""time"":0.20000001788139343},{""stimulus"":""run_exp/static/images/task_images/land.jpg"",""time"":611.5999999940395},{""stimulus"":""run_exp/static/images/task_images/dig.jpg"",""time"":1211.7000000178814}]",[],5,,,,,,,,,,,,,,
harvest,125,454918,0.0-39.0-1.0,"""event"",""trial"",""time""
""fullscreenenter"",""1"",""1897""
","
","
","""event"",""trial"",""time""
""fullscreenenter"",""1"",""1897""
","
",,null,run_exp/static/images/task_images/gems/12.jpg,null,,,,,,,6,,,5,,,,,12,0.507822506,0.5,,,,,,,
decision,126,454992,0.0-39.0-2.0,"""event"",""trial"",""time""
""fullscreenenter"",""1"",""1897""
","
","
","""event"",""trial"",""time""
""fullscreenenter"",""1"",""1897""
","
",,71.60000002,run_exp/static/images/task_images/land.jpg,76,,,,,,,6,,,5,,,,,,,,130959,1,3,TRUE,,,
travel,127,464930,0.0-40.0-0.0,"""event"",""trial"",""time""
""fullscreenenter"",""1"",""1897""
","
","
","""event"",""trial"",""time""
""fullscreenenter"",""1"",""1897""
","
",,,,,,,,,,,,"[{""stimulus"":""run_exp/static/images/task_images/rocket-01.jpg"",""time"":0.20000001788139343},{""stimulus"":""run_exp/static/images/task_images/rocket-02.jpg"",""time"":1109.7000000178814},{""stimulus"":""run_exp/static/images/task_images/rocket-03.jpg"",""time"":2212.5},{""stimulus"":""run_exp/static/images/task_images/rocket-04.jpg"",""time"":3315.100000023842},{""stimulus"":""run_exp/static/images/task_images/rocket-05.jpg"",""time"":4417.300000011921},{""stimulus"":""run_exp/static/images/task_images/rocket-06.jpg"",""time"":5521.200000017881},{""stimulus"":""run_exp/static/images/task_images/rocket-07.jpg"",""time"":6624.600000023842},{""stimulus"":""run_exp/static/images/task_images/rocket-08.jpg"",""time"":7726.5},{""stimulus"":""run_exp/static/images/task_images/rocket-09.jpg"",""time"":8831}]",[],5,,,,,,,,,,,,,,
alien_welcome,128,469939,0.0-40.0-1.0,"""event"",""trial"",""time""
""fullscreenenter"",""1"",""1897""
","
","
","""event"",""trial"",""time""
""fullscreenenter"",""1"",""1897""
","
",,null,run_exp/static/images/task_images/aliens/old_aliens/planet/alien_planet-44.jpg,null,,,,,,,,,,,,,44,"34,16,45,58,39,44,4,64,60,18,29,13,17,57,72,65,49,33,6,74,20,36,62,35,68,11,56,38,37,54,21,53,2,66,28,67,70,9,5",,,,,,,,,,
land,129,470444,0.0-40.0-2.0,"""event"",""trial"",""time""
""fullscreenenter"",""1"",""1897""
","
","
","""event"",""trial"",""time""
""fullscreenenter"",""1"",""1897""
","
",,null,run_exp/static/images/task_images/land.jpg,null,,,,,,,111,,,6,,,,,,,,,,,,,,
dig,130,472455,0.0-40.0-3.0,"""event"",""trial"",""time""
""fullscreenenter"",""1"",""1897""
","
","
","""event"",""trial"",""time""
""fullscreenenter"",""1"",""1897""
","
",,,,,,,,,,,,"[{""stimulus"":""run_exp/static/images/task_images/dig.jpg"",""time"":0.5},{""stimulus"":""run_exp/static/images/task_images/land.jpg"",""time"":673.9000000059605},{""stimulus"":""run_exp/static/images/task_images/dig.jpg"",""time"":1336.300000011921}]",[],6,,,,,,,,,,,,,,
harvest,131,473459,0.0-40.0-4.0,"""event"",""trial"",""time""
""fullscreenenter"",""1"",""1897""
","
","
","""event"",""trial"",""time""
""fullscreenenter"",""1"",""1897""
","
",,null,run_exp/static/images/task_images/gems/111.jpg,null,,,,,,,91,,,6,,,,,111,0.821698378,0.81981982,,,,,,,
decision,132,473754,0.0-40.0-5.0,"""event"",""trial"",""time""
""fullscreenenter"",""1"",""1897""
","
","
","""event"",""trial"",""time""
""fullscreenenter"",""1"",""1897""
","
",,292.4,run_exp/static/images/task_images/land.jpg,65,,,,,,,91,,,6,,,,,,,,149720,1,0,FALSE,,,
dig,133,476472,0.0-41.0-0.0,"""event"",""trial"",""time""
""fullscreenenter"",""1"",""1897""
","
","
","""event"",""trial"",""time""
""fullscreenenter"",""1"",""1897""
","
",,,,,,,,,,,,"[{""stimulus"":""run_exp/static/images/task_images/dig.jpg"",""time"":0.30000001192092896},{""stimulus"":""run_exp/static/images/task_images/land.jpg"",""time"":906.3000000119209},{""stimulus"":""run_exp/static/images/task_images/dig.jpg"",""time"":1806.9000000059605}]",[],6,,,,,,,,,,,,,,
harvest,134,477480,0.0-41.0-1.0,"""event"",""trial"",""time""
""fullscreenenter"",""1"",""1897""
","
","
","""event"",""trial"",""time""
""fullscreenenter"",""1"",""1897""
","
",,null,run_exp/static/images/task_images/gems/91.jpg,null,,,,,,,81,,,6,,,,,91,0.886980319,0.89010989,,,,,,,
decision,135,477722,0.0-41.0-2.0,"""event"",""trial"",""time""
""fullscreenenter"",""1"",""1897""
","
","
","""event"",""trial"",""time""
""fullscreenenter"",""1"",""1897""
","
",,240.5,run_exp/static/images/task_images/land.jpg,65,,,,,,,81,,,6,,,,,,,,153689,1,1,FALSE,,,
dig,136,480488,0.0-42.0-0.0,"""event"",""trial"",""time""
""fullscreenenter"",""1"",""1897""
","
","
","""event"",""trial"",""time""
""fullscreenenter"",""1"",""1897""
","
",,,,,,,,,,,,"[{""stimulus"":""run_exp/static/images/task_images/dig.jpg"",""time"":0.09999999403953552},{""stimulus"":""run_exp/static/images/task_images/land.jpg"",""time"":925.6999999880791},{""stimulus"":""run_exp/static/images/task_images/dig.jpg"",""time"":1843}]",[],6,,,,,,,,,,,,,,
harvest,137,481496,0.0-42.0-1.0,"""event"",""trial"",""time""
""fullscreenenter"",""1"",""1897""
","
","
","""event"",""trial"",""time""
""fullscreenenter"",""1"",""1897""
","
",,null,run_exp/static/images/task_images/gems/81.jpg,null,,,,,,,65,,,6,,,,,81,0.808042333,0.802469136,,,,,,,
decision,138,481738,0.0-42.0-2.0,"""event"",""trial"",""time""
""fullscreenenter"",""1"",""1897""
","
","
","""event"",""trial"",""time""
""fullscreenenter"",""1"",""1897""
","
",,239.8,run_exp/static/images/task_images/land.jpg,65,,,,,,,65,,,6,,,,,,,,157704,1,2,FALSE,,,
dig,139,484508,0.0-43.0-0.0,"""event"",""trial"",""time""
""fullscreenenter"",""1"",""1897""
","
","
","""event"",""trial"",""time""
""fullscreenenter"",""1"",""1897""
","
",,,,,,,,,,,,"[{""stimulus"":""run_exp/static/images/task_images/dig.jpg"",""time"":0.09999999403953552},{""stimulus"":""run_exp/static/images/task_images/land.jpg"",""time"":923.3000000119209},{""stimulus"":""run_exp/static/images/task_images/dig.jpg"",""time"":1847}]",[],6,,,,,,,,,,,,,,
harvest,140,485517,0.0-43.0-1.0,"""event"",""trial"",""time""
""fullscreenenter"",""1"",""1897""
","
","
","""event"",""trial"",""time""
""fullscreenenter"",""1"",""1897""
","
",,null,run_exp/static/images/task_images/gems/65.jpg,null,,,,,,,56,,,6,,,,,65,0.86858955,0.861538462,,,,,,,
decision,141,485725,0.0-43.0-2.0,"""event"",""trial"",""time""
""fullscreenenter"",""1"",""1897""
","
","
","""event"",""trial"",""time""
""fullscreenenter"",""1"",""1897""
","
",,205.7,run_exp/static/images/task_images/land.jpg,65,,,,,,,56,,,6,,,,,,,,161691,1,3,FALSE,,,
dig,142,488527,0.0-44.0-0.0,"""event"",""trial"",""time""
""fullscreenenter"",""1"",""1897""
","
","
","""event"",""trial"",""time""
""fullscreenenter"",""1"",""1897""
","
",,,,,,,,,,,,"[{""stimulus"":""run_exp/static/images/task_images/dig.jpg"",""time"":0.29999998211860657},{""stimulus"":""run_exp/static/images/task_images/land.jpg"",""time"":936.1999999880791},{""stimulus"":""run_exp/static/images/task_images/dig.jpg"",""time"":1868.7999999821186}]",[],6,,,,,,,,,,,,,,
harvest,143,489536,0.0-44.0-1.0,"""event"",""trial"",""time""
""fullscreenenter"",""1"",""1897""
","
","
","""event"",""trial"",""time""
""fullscreenenter"",""1"",""1897""
","
",,null,run_exp/static/images/task_images/gems/56.jpg,null,,,,,,,49,,,6,,,,,56,0.871029684,0.875,,,,,,,
decision,144,489770,0.0-44.0-2.0,"""event"",""trial"",""time""
""fullscreenenter"",""1"",""1897""
","
","
","""event"",""trial"",""time""
""fullscreenenter"",""1"",""1897""
","
",,231.9,run_exp/static/images/task_images/land.jpg,65,,,,,,,49,,,6,,,,,,,,165736,1,4,FALSE,,,
dig,145,492546,0.0-45.0-0.0,"""event"",""trial"",""time""
""fullscreenenter"",""1"",""1897""
","
","
","""event"",""trial"",""time""
""fullscreenenter"",""1"",""1897""
","
",,,,,,,,,,,,"[{""stimulus"":""run_exp/static/images/task_images/dig.jpg"",""time"":0.09999999403953552},{""stimulus"":""run_exp/static/images/task_images/land.jpg"",""time"":928.5999999940395},{""stimulus"":""run_exp/static/images/task_images/dig.jpg"",""time"":1846.5999999940395}]",[],6,,,,,,,,,,,,,,
harvest,146,493554,0.0-45.0-1.0,"""event"",""trial"",""time""
""fullscreenenter"",""1"",""1897""
","
","
","""event"",""trial"",""time""
""fullscreenenter"",""1"",""1897""
","
",,null,run_exp/static/images/task_images/gems/49.jpg,null,,,,,,,42,,,6,,,,,49,0.859940864,0.857142857,,,,,,,
decision,147,494206,0.0-45.0-2.0,"""event"",""trial"",""time""
""fullscreenenter"",""1"",""1897""
","
","
","""event"",""trial"",""time""
""fullscreenenter"",""1"",""1897""
","
",,649.8,run_exp/static/images/task_images/land.jpg,65,,,,,,,42,,,6,,,,,,,,170172,1,5,FALSE,,,
dig,148,496566,0.0-46.0-0.0,"""event"",""trial"",""time""
""fullscreenenter"",""1"",""1897""
","
","
","""event"",""trial"",""time""
""fullscreenenter"",""1"",""1897""
","
",,,,,,,,,,,,"[{""stimulus"":""run_exp/static/images/task_images/dig.jpg"",""time"":0.10000002384185791},{""stimulus"":""run_exp/static/images/task_images/land.jpg"",""time"":785.9000000059605},{""stimulus"":""run_exp/static/images/task_images/dig.jpg"",""time"":1572.300000011921}]",[],6,,,,,,,,,,,,,,
harvest,149,497575,0.0-46.0-1.0,"""event"",""trial"",""time""
""fullscreenenter"",""1"",""1897""
","
","
","""event"",""trial"",""time""
""fullscreenenter"",""1"",""1897""
","
",,null,run_exp/static/images/task_images/gems/42.jpg,null,,,,,,,38,,,6,,,,,42,0.905943679,0.904761905,,,,,,,
decision,150,497823,0.0-46.0-2.0,"""event"",""trial"",""time""
""fullscreenenter"",""1"",""1897""
","
","
","""event"",""trial"",""time""
""fullscreenenter"",""1"",""1897""
","
",,245.6,run_exp/static/images/task_images/land.jpg,65,,,,,,,38,,,6,,,,,,,,173789,1,6,FALSE,,,
dig,151,500587,0.0-47.0-0.0,"""event"",""trial"",""time""
""fullscreenenter"",""1"",""1897""
","
","
","""event"",""trial"",""time""
""fullscreenenter"",""1"",""1897""
","
",,,,,,,,,,,,"[{""stimulus"":""run_exp/static/images/task_images/dig.jpg"",""time"":0.19999998807907104},{""stimulus"":""run_exp/static/images/task_images/land.jpg"",""time"":924.5999999940395},{""stimulus"":""run_exp/static/images/task_images/dig.jpg"",""time"":1842.5}]",[],6,,,,,,,,,,,,,,
harvest,152,501596,0.0-47.0-1.0,"""event"",""trial"",""time""
""fullscreenenter"",""1"",""1897""
","
","
","""event"",""trial"",""time""
""fullscreenenter"",""1"",""1897""
","
",,null,run_exp/static/images/task_images/gems/38.jpg,null,,,,,,,29,,,6,,,,,38,0.756987726,0.763157895,,,,,,,
decision,153,501930,0.0-47.0-2.0,"""event"",""trial"",""time""
""fullscreenenter"",""1"",""1897""
","
","
","""event"",""trial"",""time""
""fullscreenenter"",""1"",""1897""
","
",,331.9,run_exp/static/images/task_images/land.jpg,65,,,,,,,29,,,6,,,,,,,,177897,1,7,FALSE,,,
dig,154,504607,0.0-48.0-0.0,"""event"",""trial"",""time""
""fullscreenenter"",""1"",""1897""
","
","
","""event"",""trial"",""time""
""fullscreenenter"",""1"",""1897""
","
",,,,,,,,,,,,"[{""stimulus"":""run_exp/static/images/task_images/dig.jpg"",""time"":0.09999999403953552},{""stimulus"":""run_exp/static/images/task_images/land.jpg"",""time"":894.1999999880791},{""stimulus"":""run_exp/static/images/task_images/dig.jpg"",""time"":1783.4000000059605}]",[],6,,,,,,,,,,,,,,
harvest,155,505616,0.0-48.0-1.0,"""event"",""trial"",""time""
""fullscreenenter"",""1"",""1897""
","
","
","""event"",""trial"",""time""
""fullscreenenter"",""1"",""1897""
","
",,null,run_exp/static/images/task_images/gems/29.jpg,null,,,,,,,25,,,6,,,,,29,0.865104772,0.862068966,,,,,,,
decision,156,505861,0.0-48.0-2.0,"""event"",""trial"",""time""
""fullscreenenter"",""1"",""1897""
","
","
","""event"",""trial"",""time""
""fullscreenenter"",""1"",""1897""
","
",,242.8,run_exp/static/images/task_images/land.jpg,65,,,,,,,25,,,6,,,,,,,,181827,1,8,FALSE,,,
dig,157,508627,0.0-49.0-0.0,"""event"",""trial"",""time""
""fullscreenenter"",""1"",""1897""
","
","
","""event"",""trial"",""time""
""fullscreenenter"",""1"",""1897""
","
",,,,,,,,,,,,"[{""stimulus"":""run_exp/static/images/task_images/dig.jpg"",""time"":0.30000001192092896},{""stimulus"":""run_exp/static/images/task_images/land.jpg"",""time"":924.9000000059605},{""stimulus"":""run_exp/static/images/task_images/dig.jpg"",""time"":1844.4000000059605}]",[],6,,,,,,,,,,,,,,
harvest,158,509633,0.0-49.0-1.0,"""event"",""trial"",""time""
""fullscreenenter"",""1"",""1897""
","
","
","""event"",""trial"",""time""
""fullscreenenter"",""1"",""1897""
","
",,null,run_exp/static/images/task_images/gems/25.jpg,null,,,,,,,21,,,6,,,,,25,0.845370056,0.84,,,,,,,
decision,159,509807,0.0-49.0-2.0,"""event"",""trial"",""time""
""fullscreenenter"",""1"",""1897""
","
","
","""event"",""trial"",""time""
""fullscreenenter"",""1"",""1897""
","
",,171.3,run_exp/static/images/task_images/land.jpg,76,,,,,,,21,,,6,,,,,,,,185773,1,9,TRUE,,,
travel,160,519646,0.0-50.0-0.0,"""event"",""trial"",""time""
""fullscreenenter"",""1"",""1897""
","
","
","""event"",""trial"",""time""
""fullscreenenter"",""1"",""1897""
","
",,,,,,,,,,,,"[{""stimulus"":""run_exp/static/images/task_images/rocket-01.jpg"",""time"":0.30000001192092896},{""stimulus"":""run_exp/static/images/task_images/rocket-02.jpg"",""time"":1099.300000011921},{""stimulus"":""run_exp/static/images/task_images/rocket-03.jpg"",""time"":2188.600000023842},{""stimulus"":""run_exp/static/images/task_images/rocket-04.jpg"",""time"":3279},{""stimulus"":""run_exp/static/images/task_images/rocket-05.jpg"",""time"":4375.100000023842},{""stimulus"":""run_exp/static/images/task_images/rocket-06.jpg"",""time"":5466.600000023842},{""stimulus"":""run_exp/static/images/task_images/rocket-07.jpg"",""time"":6555.600000023842},{""stimulus"":""run_exp/static/images/task_images/rocket-08.jpg"",""time"":7651.300000011921},{""stimulus"":""run_exp/static/images/task_images/rocket-09.jpg"",""time"":8738.40000000596}]",[],6,,,,,,,,,,,,,,
alien_welcome,161,524655,0.0-50.0-1.0,"""event"",""trial"",""time""
""fullscreenenter"",""1"",""1897""
","
","
","""event"",""trial"",""time""
""fullscreenenter"",""1"",""1897""
","
",,null,run_exp/static/images/task_images/aliens/old_aliens/planet/alien_planet-4.jpg,null,,,,,,,,,,,,,4,"34,16,45,58,39,44,4,64,60,18,29,13,17,57,72,65,49,33,6,74,20,36,62,35,68,11,56,38,37,54,21,53,2,66,28,67,70,9,5",,,,,,,,,,
land,162,525158,0.0-50.0-2.0,"""event"",""trial"",""time""
""fullscreenenter"",""1"",""1897""
","
","
","""event"",""trial"",""time""
""fullscreenenter"",""1"",""1897""
","
",,null,run_exp/static/images/task_images/land.jpg,null,,,,,,,97,,,7,,,,,,,,,,,,,,
dig,163,527167,0.0-50.0-3.0,"""event"",""trial"",""time""
""fullscreenenter"",""1"",""1897""
","
","
","""event"",""trial"",""time""
""fullscreenenter"",""1"",""1897""
","
",,,,,,,,,,,,"[{""stimulus"":""run_exp/static/images/task_images/dig.jpg"",""time"":0.5999999940395355},{""stimulus"":""run_exp/static/images/task_images/land.jpg"",""time"":673.4000000059605},{""stimulus"":""run_exp/static/images/task_images/dig.jpg"",""time"":1336.9000000059605}]",[],7,,,,,,,,,,,,,,
harvest,164,528175,0.0-50.0-4.0,"""event"",""trial"",""time""
""fullscreenenter"",""1"",""1897""
","
","
","""event"",""trial"",""time""
""fullscreenenter"",""1"",""1897""
","
",,null,run_exp/static/images/task_images/gems/97.jpg,null,,,,,,,81,,,7,,,,,97,0.835297885,0.835051546,,,,,,,
decision,165,528384,0.0-50.0-5.0,"""event"",""trial"",""time""
""fullscreenenter"",""1"",""1897""
","
","
","""event"",""trial"",""time""
""fullscreenenter"",""1"",""1897""
","
",,207.3,run_exp/static/images/task_images/land.jpg,65,,,,,,,81,,,7,,,,,,,,204351,1,0,FALSE,,,
dig,166,531185,0.0-51.0-0.0,"""event"",""trial"",""time""
""fullscreenenter"",""1"",""1897""
","
","
","""event"",""trial"",""time""
""fullscreenenter"",""1"",""1897""
","
",,,,,,,,,,,,"[{""stimulus"":""run_exp/static/images/task_images/dig.jpg"",""time"":0.09999999403953552},{""stimulus"":""run_exp/static/images/task_images/land.jpg"",""time"":936.5999999940395},{""stimulus"":""run_exp/static/images/task_images/dig.jpg"",""time"":1867.0999999940395}]",[],7,,,,,,,,,,,,,,
harvest,167,532189,0.0-51.0-1.0,"""event"",""trial"",""time""
""fullscreenenter"",""1"",""1897""
","
","
","""event"",""trial"",""time""
""fullscreenenter"",""1"",""1897""
","
",,null,run_exp/static/images/task_images/gems/81.jpg,null,,,,,,,70,,,7,,,,,81,0.860584673,0.864197531,,,,,,,
decision,168,532295,0.0-51.0-2.0,"""event"",""trial"",""time""
""fullscreenenter"",""1"",""1897""
","
","
","""event"",""trial"",""time""
""fullscreenenter"",""1"",""1897""
","
",,103.3,run_exp/static/images/task_images/land.jpg,65,,,,,,,70,,,7,,,,,,,,208261,1,1,FALSE,,,
dig,169,535196,0.0-52.0-0.0,"""event"",""trial"",""time""
""fullscreenenter"",""1"",""1897""
","
","
","""event"",""trial"",""time""
""fullscreenenter"",""1"",""1897""
","
",,,,,,,,,,,,"[{""stimulus"":""run_exp/static/images/task_images/dig.jpg"",""time"":0.19999998807907104},{""stimulus"":""run_exp/static/images/task_images/land.jpg"",""time"":967.5999999940395},{""stimulus"":""run_exp/static/images/task_images/dig.jpg"",""time"":1937.199999988079}]",[],7,,,,,,,,,,,,,,
harvest,170,536206,0.0-52.0-1.0,"""event"",""trial"",""time""
""fullscreenenter"",""1"",""1897""
","
","
","""event"",""trial"",""time""
""fullscreenenter"",""1"",""1897""
","
",,null,run_exp/static/images/task_images/gems/70.jpg,null,,,,,,,55,,,7,,,,,70,0.784661372,0.785714286,,,,,,,
decision,171,536454,0.0-52.0-2.0,"""event"",""trial"",""time""
""fullscreenenter"",""1"",""1897""
","
","
","""event"",""trial"",""time""
""fullscreenenter"",""1"",""1897""
","
",,246.1,run_exp/static/images/task_images/land.jpg,65,,,,,,,55,,,7,,,,,,,,212421,1,2,FALSE,,,
dig,172,539214,0.0-53.0-0.0,"""event"",""trial"",""time""
""fullscreenenter"",""1"",""1897""
","
","
","""event"",""trial"",""time""
""fullscreenenter"",""1"",""1897""
","
",,,,,,,,,,,,"[{""stimulus"":""run_exp/static/images/task_images/dig.jpg"",""time"":0.20000001788139343},{""stimulus"":""run_exp/static/images/task_images/land.jpg"",""time"":923.3000000119209},{""stimulus"":""run_exp/static/images/task_images/dig.jpg"",""time"":1837.2000000178814}]",[],7,,,,,,,,,,,,,,
harvest,173,540220,0.0-53.0-1.0,"""event"",""trial"",""time""
""fullscreenenter"",""1"",""1897""
","
","
","""event"",""trial"",""time""
""fullscreenenter"",""1"",""1897""
","
",,null,run_exp/static/images/task_images/gems/55.jpg,null,,,,,,,47,,,7,,,,,55,0.847496085,0.854545455,,,,,,,
decision,174,540358,0.0-53.0-2.0,"""event"",""trial"",""time""
""fullscreenenter"",""1"",""1897""
","
","
","""event"",""trial"",""time""
""fullscreenenter"",""1"",""1897""
","
",,135.6,run_exp/static/images/task_images/land.jpg,65,,,,,,,47,,,7,,,,,,,,216324,1,3,FALSE,,,
dig,175,543228,0.0-54.0-0.0,"""event"",""trial"",""time""
""fullscreenenter"",""1"",""1897""
","
","
","""event"",""trial"",""time""
""fullscreenenter"",""1"",""1897""
","
",,,,,,,,,,,,"[{""stimulus"":""run_exp/static/images/task_images/dig.jpg"",""time"":0.19999998807907104},{""stimulus"":""run_exp/static/images/task_images/land.jpg"",""time"":959.4000000059605},{""stimulus"":""run_exp/static/images/task_images/dig.jpg"",""time"":1914.699999988079}]",[],7,,,,,,,,,,,,,,
harvest,176,544236,0.0-54.0-1.0,"""event"",""trial"",""time""
""fullscreenenter"",""1"",""1897""
","
","
","""event"",""trial"",""time""
""fullscreenenter"",""1"",""1897""
","
",,null,run_exp/static/images/task_images/gems/47.jpg,null,,,,,,,33,,,7,,,,,47,0.692023008,0.70212766,,,,,,,
decision,177,544478,0.0-54.0-2.0,"""event"",""trial"",""time""
""fullscreenenter"",""1"",""1897""
","
","
","""event"",""trial"",""time""
""fullscreenenter"",""1"",""1897""
","
",,239.1,run_exp/static/images/task_images/land.jpg,65,,,,,,,33,,,7,,,,,,,,220445,1,4,FALSE,,,
dig,178,547246,0.0-55.0-0.0,"""event"",""trial"",""time""
""fullscreenenter"",""1"",""1897""
","
","
","""event"",""trial"",""time""
""fullscreenenter"",""1"",""1897""
","
",,,,,,,,,,,,"[{""stimulus"":""run_exp/static/images/task_images/dig.jpg"",""time"":0.19999998807907104},{""stimulus"":""run_exp/static/images/task_images/land.jpg"",""time"":927.0999999940395},{""stimulus"":""run_exp/static/images/task_images/dig.jpg"",""time"":1842.5999999940395}]",[],7,,,,,,,,,,,,,,
harvest,179,548254,0.0-55.0-1.0,"""event"",""trial"",""time""
""fullscreenenter"",""1"",""1897""
","
","
","""event"",""trial"",""time""
""fullscreenenter"",""1"",""1897""
","
",,null,run_exp/static/images/task_images/gems/33.jpg,null,,,,,,,28,,,7,,,,,33,0.860415329,0.848484848,,,,,,,
decision,180,548507,0.0-55.0-2.0,"""event"",""trial"",""time""
""fullscreenenter"",""1"",""1897""
","
","
","""event"",""trial"",""time""
""fullscreenenter"",""1"",""1897""
","
",,250.2,run_exp/static/images/task_images/land.jpg,65,,,,,,,28,,,7,,,,,,,,224473,1,5,FALSE,,,
dig,181,551266,0.0-56.0-0.0,"""event"",""trial"",""time""
""fullscreenenter"",""1"",""1897""
","
","
","""event"",""trial"",""time""
""fullscreenenter"",""1"",""1897""
","
",,,,,,,,,,,,"[{""stimulus"":""run_exp/static/images/task_images/dig.jpg"",""time"":0.20000001788139343},{""stimulus"":""run_exp/static/images/task_images/land.jpg"",""time"":922.5},{""stimulus"":""run_exp/static/images/task_images/dig.jpg"",""time"":1838.800000011921}]",[],7,,,,,,,,,,,,,,
harvest,182,552270,0.0-56.0-1.0,"""event"",""trial"",""time""
""fullscreenenter"",""1"",""1897""
","
","
","""event"",""trial"",""time""
""fullscreenenter"",""1"",""1897""
","
",,null,run_exp/static/images/task_images/gems/28.jpg,null,,,,,,,24,,,7,,,,,28,0.853681938,0.857142857,,,,,,,
decision,183,552573,0.0-56.0-2.0,"""event"",""trial"",""time""
""fullscreenenter"",""1"",""1897""
","
","
","""event"",""trial"",""time""
""fullscreenenter"",""1"",""1897""
","
",,300.1,run_exp/static/images/task_images/land.jpg,76,,,,,,,24,,,7,,,,,,,,228539,1,6,TRUE,,,
travel,184,562273,0.0-57.0-0.0,"""event"",""trial"",""time""
""fullscreenenter"",""1"",""1897""
","
","
","""event"",""trial"",""time""
""fullscreenenter"",""1"",""1897""
","
",,,,,,,,,,,,"[{""stimulus"":""run_exp/static/images/task_images/rocket-01.jpg"",""time"":0.09999999403953552},{""stimulus"":""run_exp/static/images/task_images/rocket-02.jpg"",""time"":1080.699999988079},{""stimulus"":""run_exp/static/images/task_images/rocket-03.jpg"",""time"":2158.9000000059605},{""stimulus"":""run_exp/static/images/task_images/rocket-04.jpg"",""time"":3234},{""stimulus"":""run_exp/static/images/task_images/rocket-05.jpg"",""time"":4314.699999988079},{""stimulus"":""run_exp/static/images/task_images/rocket-06.jpg"",""time"":5389},{""stimulus"":""run_exp/static/images/task_images/rocket-07.jpg"",""time"":6469.0999999940395},{""stimulus"":""run_exp/static/images/task_images/rocket-08.jpg"",""time"":7543.0999999940395},{""stimulus"":""run_exp/static/images/task_images/rocket-09.jpg"",""time"":8618.90000000596}]",[],7,,,,,,,,,,,,,,
alien_welcome,185,567282,0.0-57.0-1.0,"""event"",""trial"",""time""
""fullscreenenter"",""1"",""1897""
","
","
","""event"",""trial"",""time""
""fullscreenenter"",""1"",""1897""
","
",,null,run_exp/static/images/task_images/aliens/old_aliens/planet/alien_planet-64.jpg,null,,,,,,,,,,,,,64,"34,16,45,58,39,44,4,64,60,18,29,13,17,57,72,65,49,33,6,74,20,36,62,35,68,11,56,38,37,54,21,53,2,66,28,67,70,9,5",,,,,,,,,,
land,186,567788,0.0-57.0-2.0,"""event"",""trial"",""time""
""fullscreenenter"",""1"",""1897""
","
","
","""event"",""trial"",""time""
""fullscreenenter"",""1"",""1897""
","
",,null,run_exp/static/images/task_images/land.jpg,null,,,,,,,104,,,8,,,,,,,,,,,,,,
dig,187,569797,0.0-57.0-3.0,"""event"",""trial"",""time""
""fullscreenenter"",""1"",""1897""
","
","
","""event"",""trial"",""time""
""fullscreenenter"",""1"",""1897""
","
",,,,,,,,,,,,"[{""stimulus"":""run_exp/static/images/task_images/dig.jpg"",""time"":0.5999999940395355},{""stimulus"":""run_exp/static/images/task_images/land.jpg"",""time"":670.5},{""stimulus"":""run_exp/static/images/task_images/dig.jpg"",""time"":1337.5999999940395}]",[],8,,,,,,,,,,,,,,
harvest,188,570804,0.0-57.0-4.0,"""event"",""trial"",""time""
""fullscreenenter"",""1"",""1897""
","
","
","""event"",""trial"",""time""
""fullscreenenter"",""1"",""1897""
","
",,null,run_exp/static/images/task_images/gems/104.jpg,null,,,,,,,89,,,8,,,,,104,0.857483702,0.855769231,,,,,,,
decision,189,571041,0.0-57.0-5.0,"""event"",""trial"",""time""
""fullscreenenter"",""1"",""1897""
","
","
","""event"",""trial"",""time""
""fullscreenenter"",""1"",""1897""
","
",,234.8,run_exp/static/images/task_images/land.jpg,65,,,,,,,89,,,8,,,,,,,,247008,1,0,FALSE,,,
dig,190,573815,0.0-58.0-0.0,"""event"",""trial"",""time""
""fullscreenenter"",""1"",""1897""
","
","
","""event"",""trial"",""time""
""fullscreenenter"",""1"",""1897""
","
",,,,,,,,,,,,"[{""stimulus"":""run_exp/static/images/task_images/dig.jpg"",""time"":0.19999998807907104},{""stimulus"":""run_exp/static/images/task_images/land.jpg"",""time"":927.9000000059605},{""stimulus"":""run_exp/static/images/task_images/dig.jpg"",""time"":1847.9000000059605}]",[],8,,,,,,,,,,,,,,
harvest,191,574822,0.0-58.0-1.0,"""event"",""trial"",""time""
""fullscreenenter"",""1"",""1897""
","
","
","""event"",""trial"",""time""
""fullscreenenter"",""1"",""1897""
","
",,null,run_exp/static/images/task_images/gems/89.jpg,null,,,,,,,62,,,8,,,,,89,0.694566679,0.696629213,,,,,,,
decision,192,574976,0.0-58.0-2.0,"""event"",""trial"",""time""
""fullscreenenter"",""1"",""1897""
","
","
","""event"",""trial"",""time""
""fullscreenenter"",""1"",""1897""
","
",,151.6,run_exp/static/images/task_images/land.jpg,65,,,,,,,62,,,8,,,,,,,,250942,1,1,FALSE,,,
dig,193,577833,0.0-59.0-0.0,"""event"",""trial"",""time""
""fullscreenenter"",""1"",""1897""
","
","
","""event"",""trial"",""time""
""fullscreenenter"",""1"",""1897""
","
",,,,,,,,,,,,"[{""stimulus"":""run_exp/static/images/task_images/dig.jpg"",""time"":0.19999998807907104},{""stimulus"":""run_exp/static/images/task_images/land.jpg"",""time"":955.4000000059605},{""stimulus"":""run_exp/static/images/task_images/dig.jpg"",""time"":1905.0999999940395}]",[],8,,,,,,,,,,,,,,
harvest,194,578836,0.0-59.0-1.0,"""event"",""trial"",""time""
""fullscreenenter"",""1"",""1897""
","
","
","""event"",""trial"",""time""
""fullscreenenter"",""1"",""1897""
","
",,null,run_exp/static/images/task_images/gems/62.jpg,null,,,,,,,50,,,8,,,,,62,0.806987065,0.806451613,,,,,,,
decision,195,579032,0.0-59.0-2.0,"""event"",""trial"",""time""
""fullscreenenter"",""1"",""1897""
","
","
","""event"",""trial"",""time""
""fullscreenenter"",""1"",""1897""
","
",,192.7,run_exp/static/images/task_images/land.jpg,65,,,,,,,50,,,8,,,,,,,,254998,1,2,FALSE,,,
dig,196,581845,0.0-60.0-0.0,"""event"",""trial"",""time""
""fullscreenenter"",""1"",""1897""
","
","
","""event"",""trial"",""time""
""fullscreenenter"",""1"",""1897""
","
",,,,,,,,,,,,"[{""stimulus"":""run_exp/static/images/task_images/dig.jpg"",""time"":0.4000000059604645},{""stimulus"":""run_exp/static/images/task_images/land.jpg"",""time"":942.5},{""stimulus"":""run_exp/static/images/task_images/dig.jpg"",""time"":1876.9000000059605}]",[],8,,,,,,,,,,,,,,
harvest,197,582851,0.0-60.0-1.0,"""event"",""trial"",""time""
""fullscreenenter"",""1"",""1897""
","
","
","""event"",""trial"",""time""
""fullscreenenter"",""1"",""1897""
","
",,null,run_exp/static/images/task_images/gems/50.jpg,null,,,,,,,39,,,8,,,,,50,0.771065338,0.78,,,,,,,
decision,198,583007,0.0-60.0-2.0,"""event"",""trial"",""time""
""fullscreenenter"",""1"",""1897""
","
","
","""event"",""trial"",""time""
""fullscreenenter"",""1"",""1897""
","
",,153.5,run_exp/static/images/task_images/land.jpg,65,,,,,,,39,,,8,,,,,,,,258973,1,3,FALSE,,,
dig,199,585858,0.0-61.0-0.0,"""event"",""trial"",""time""
""fullscreenenter"",""1"",""1897""
","
","
","""event"",""trial"",""time""
""fullscreenenter"",""1"",""1897""
","
",,,,,,,,,,,,"[{""stimulus"":""run_exp/static/images/task_images/dig.jpg"",""time"":0.19999998807907104},{""stimulus"":""run_exp/static/images/task_images/land.jpg"",""time"":955.1999999880791},{""stimulus"":""run_exp/static/images/task_images/dig.jpg"",""time"":1902.3999999761581}]",[],8,,,,,,,,,,,,,,
harvest,200,586863,0.0-61.0-1.0,"""event"",""trial"",""time""
""fullscreenenter"",""1"",""1897""
","
","
","""event"",""trial"",""time""
""fullscreenenter"",""1"",""1897""
","
",,null,run_exp/static/images/task_images/gems/39.jpg,null,,,,,,,34,,,8,,,,,39,0.871498914,0.871794872,,,,,,,
decision,201,587067,0.0-61.0-2.0,"""event"",""trial"",""time""
""fullscreenenter"",""1"",""1897""
","
","
","""event"",""trial"",""time""
""fullscreenenter"",""1"",""1897""
","
",,202,run_exp/static/images/task_images/land.jpg,65,,,,,,,34,,,8,,,,,,,,263033,1,4,FALSE,,,
dig,202,589873,0.0-62.0-0.0,"""event"",""trial"",""time""
""fullscreenenter"",""1"",""1897""
","
","
","""event"",""trial"",""time""
""fullscreenenter"",""1"",""1897""
","
",,,,,,,,,,,,"[{""stimulus"":""run_exp/static/images/task_images/dig.jpg"",""time"":0.19999998807907104},{""stimulus"":""run_exp/static/images/task_images/land.jpg"",""time"":938.6999999880791},{""stimulus"":""run_exp/static/images/task_images/dig.jpg"",""time"":1871}]",[],8,,,,,,,,,,,,,,
harvest,203,590882,0.0-62.0-1.0,"""event"",""trial"",""time""
""fullscreenenter"",""1"",""1897""
","
","
","""event"",""trial"",""time""
""fullscreenenter"",""1"",""1897""
","
",,null,run_exp/static/images/task_images/gems/34.jpg,null,,,,,,,28,,,8,,,,,34,0.832314541,0.823529412,,,,,,,
decision,204,591142,0.0-62.0-2.0,"""event"",""trial"",""time""
""fullscreenenter"",""1"",""1897""
","
","
","""event"",""trial"",""time""
""fullscreenenter"",""1"",""1897""
","
",,257.8,run_exp/static/images/task_images/land.jpg,65,,,,,,,28,,,8,,,,,,,,267108,1,5,FALSE,,,
dig,205,593895,0.0-63.0-0.0,"""event"",""trial"",""time""
""fullscreenenter"",""1"",""1897""
","
","
","""event"",""trial"",""time""
""fullscreenenter"",""1"",""1897""
","
",,,,,,,,,,,,"[{""stimulus"":""run_exp/static/images/task_images/dig.jpg"",""time"":0.09999999403953552},{""stimulus"":""run_exp/static/images/task_images/land.jpg"",""time"":920.5},{""stimulus"":""run_exp/static/images/task_images/dig.jpg"",""time"":1834.699999988079}]",[],8,,,,,,,,,,,,,,
harvest,206,594899,0.0-63.0-1.0,"""event"",""trial"",""time""
""fullscreenenter"",""1"",""1897""
","
","
","""event"",""trial"",""time""
""fullscreenenter"",""1"",""1897""
","
",,null,run_exp/static/images/task_images/gems/28.jpg,null,,,,,,,24,,,8,,,,,28,0.844725835,0.857142857,,,,,,,
decision,207,594968,0.0-63.0-2.0,"""event"",""trial"",""time""
""fullscreenenter"",""1"",""1897""
","
","
","""event"",""trial"",""time""
""fullscreenenter"",""1"",""1897""
","
",,67.20000002,run_exp/static/images/task_images/land.jpg,76,,,,,,,24,,,8,,,,,,,,270934,1,6,TRUE,,,
travel,208,604906,0.0-64.0-0.0,"""event"",""trial"",""time""
""fullscreenenter"",""1"",""1897""
","
","
","""event"",""trial"",""time""
""fullscreenenter"",""1"",""1897""
","
",,,,,,,,,,,,"[{""stimulus"":""run_exp/static/images/task_images/rocket-01.jpg"",""time"":0.10000002384185791},{""stimulus"":""run_exp/static/images/task_images/rocket-02.jpg"",""time"":1107.4000000059605},{""stimulus"":""run_exp/static/images/task_images/rocket-03.jpg"",""time"":2211.4000000059605},{""stimulus"":""run_exp/static/images/task_images/rocket-04.jpg"",""time"":3314.300000011921},{""stimulus"":""run_exp/static/images/task_images/rocket-05.jpg"",""time"":4418.9000000059605},{""stimulus"":""run_exp/static/images/task_images/rocket-06.jpg"",""time"":5521.300000011921},{""stimulus"":""run_exp/static/images/task_images/rocket-07.jpg"",""time"":6622.300000011921},{""stimulus"":""run_exp/static/images/task_images/rocket-08.jpg"",""time"":7724.5},{""stimulus"":""run_exp/static/images/task_images/rocket-09.jpg"",""time"":8830.5}]",[],8,,,,,,,,,,,,,,
alien_welcome,209,609914,0.0-64.0-1.0,"""event"",""trial"",""time""
""fullscreenenter"",""1"",""1897""
","
","
","""event"",""trial"",""time""
""fullscreenenter"",""1"",""1897""
","
",,null,run_exp/static/images/task_images/aliens/old_aliens/planet/alien_planet-60.jpg,null,,,,,,,,,,,,,60,"34,16,45,58,39,44,4,64,60,18,29,13,17,57,72,65,49,33,6,74,20,36,62,35,68,11,56,38,37,54,21,53,2,66,28,67,70,9,5",,,,,,,,,,
land,210,610417,0.0-64.0-2.0,"""event"",""trial"",""time""
""fullscreenenter"",""1"",""1897""
","
","
","""event"",""trial"",""time""
""fullscreenenter"",""1"",""1897""
","
",,null,run_exp/static/images/task_images/land.jpg,null,,,,,,,96,,,9,,,,,,,,,,,,,,
dig,211,612422,0.0-64.0-3.0,"""event"",""trial"",""time""
""fullscreenenter"",""1"",""1897""
","
","
","""event"",""trial"",""time""
""fullscreenenter"",""1"",""1897""
","
",,,,,,,,,,,,"[{""stimulus"":""run_exp/static/images/task_images/dig.jpg"",""time"":0.5},{""stimulus"":""run_exp/static/images/task_images/land.jpg"",""time"":674.5},{""stimulus"":""run_exp/static/images/task_images/dig.jpg"",""time"":1340.800000011921}]",[],9,,,,,,,,,,,,,,
harvest,212,613428,0.0-64.0-4.0,"""event"",""trial"",""time""
""fullscreenenter"",""1"",""1897""
","
","
","""event"",""trial"",""time""
""fullscreenenter"",""1"",""1897""
","
",,null,run_exp/static/images/task_images/gems/96.jpg,null,,,,,,,19,,,9,,,,,96,0.200237121,0.197916667,,,,,,,
decision,213,613626,0.0-64.0-5.0,"""event"",""trial"",""time""
""fullscreenenter"",""1"",""1897""
","
","
","""event"",""trial"",""time""
""fullscreenenter"",""1"",""1897""
","
",,195,run_exp/static/images/task_images/land.jpg,65,,,,,,,19,,,9,,,,,,,,289592,1,0,FALSE,,,
dig,214,616438,0.0-65.0-0.0,"""event"",""trial"",""time""
""fullscreenenter"",""1"",""1897""
","
","
","""event"",""trial"",""time""
""fullscreenenter"",""1"",""1897""
","
",,,,,,,,,,,,"[{""stimulus"":""run_exp/static/images/task_images/dig.jpg"",""time"":0.10000002384185791},{""stimulus"":""run_exp/static/images/task_images/land.jpg"",""time"":941.7000000178814},{""stimulus"":""run_exp/static/images/task_images/dig.jpg"",""time"":1877.2000000178814}]",[],9,,,,,,,,,,,,,,
harvest,215,617447,0.0-65.0-1.0,"""event"",""trial"",""time""
""fullscreenenter"",""1"",""1897""
","
","
","""event"",""trial"",""time""
""fullscreenenter"",""1"",""1897""
","
",,null,run_exp/static/images/task_images/gems/19.jpg,null,,,,,,,3,,,9,,,,,19,0.158426603,0.157894737,,,,,,,
decision,216,617648,0.0-65.0-2.0,"""event"",""trial"",""time""
""fullscreenenter"",""1"",""1897""
","
","
","""event"",""trial"",""time""
""fullscreenenter"",""1"",""1897""
","
",,198.2,run_exp/static/images/task_images/land.jpg,76,,,,,,,3,,,9,,,,,,,,293614,1,1,TRUE,,,
travel,217,627460,0.0-66.0-0.0,"""event"",""trial"",""time""
""fullscreenenter"",""1"",""1897""
","
","
","""event"",""trial"",""time""
""fullscreenenter"",""1"",""1897""
","
",,,,,,,,,,,,"[{""stimulus"":""run_exp/static/images/task_images/rocket-01.jpg"",""time"":0.29999998211860657},{""stimulus"":""run_exp/static/images/task_images/rocket-02.jpg"",""time"":1095.199999988079},{""stimulus"":""run_exp/static/images/task_images/rocket-03.jpg"",""time"":2180.399999976158},{""stimulus"":""run_exp/static/images/task_images/rocket-04.jpg"",""time"":3272.2999999821186},{""stimulus"":""run_exp/static/images/task_images/rocket-05.jpg"",""time"":4363.0999999940395},{""stimulus"":""run_exp/static/images/task_images/rocket-06.jpg"",""time"":5447.399999976158},{""stimulus"":""run_exp/static/images/task_images/rocket-07.jpg"",""time"":6540.5999999940395},{""stimulus"":""run_exp/static/images/task_images/rocket-08.jpg"",""time"":7630.199999988079},{""stimulus"":""run_exp/static/images/task_images/rocket-09.jpg"",""time"":8716.899999976158}]",[],9,,,,,,,,,,,,,,
alien_welcome,218,632468,0.0-66.0-1.0,"""event"",""trial"",""time""
""fullscreenenter"",""1"",""1897""
","
","
","""event"",""trial"",""time""
""fullscreenenter"",""1"",""1897""
","
",,null,run_exp/static/images/task_images/aliens/old_aliens/planet/alien_planet-18.jpg,null,,,,,,,,,,,,,18,"34,16,45,58,39,44,4,64,60,18,29,13,17,57,72,65,49,33,6,74,20,36,62,35,68,11,56,38,37,54,21,53,2,66,28,67,70,9,5",,,,,,,,,,
land,219,632974,0.0-66.0-2.0,"""event"",""trial"",""time""
""fullscreenenter"",""1"",""1897""
","
","
","""event"",""trial"",""time""
""fullscreenenter"",""1"",""1897""
","
",,null,run_exp/static/images/task_images/land.jpg,null,,,,,,,105,,,10,,,,,,,,,,,,,,
dig,220,634985,0.0-66.0-3.0,"""event"",""trial"",""time""
""fullscreenenter"",""1"",""1897""
","
","
","""event"",""trial"",""time""
""fullscreenenter"",""1"",""1897""
","
",,,,,,,,,,,,"[{""stimulus"":""run_exp/static/images/task_images/dig.jpg"",""time"":0.5999999940395355},{""stimulus"":""run_exp/static/images/task_images/land.jpg"",""time"":674},{""stimulus"":""run_exp/static/images/task_images/dig.jpg"",""time"":1338.5}]",[],10,,,,,,,,,,,,,,
harvest,221,635989,0.0-66.0-4.0,"""event"",""trial"",""time""
""fullscreenenter"",""1"",""1897""
","
","
","""event"",""trial"",""time""
""fullscreenenter"",""1"",""1897""
","
",,null,run_exp/static/images/task_images/gems/105.jpg,null,,,,,,,18,,,10,,,,,105,0.172725322,0.171428571,,,,,,,
decision,222,636277,0.0-66.0-5.0,"""event"",""trial"",""time""
""fullscreenenter"",""1"",""1897""
","
","
","""event"",""trial"",""time""
""fullscreenenter"",""1"",""1897""
","
",,286.1,run_exp/static/images/task_images/land.jpg,65,,,,,,,18,,,10,,,,,,,,312243,1,0,TRUE,,,
end_of_block_continue,223,640547,0.0-67.0-0.0,"""event"",""trial"",""time""
""fullscreenenter"",""1"",""1897""
","
","
","""event"",""trial"",""time""
""fullscreenenter"",""1"",""1897""
","
",,4264.2,run_exp/static/audio/clip_32_block_end.m4a,,,,,,,0,,,,,,,,,,,,,,,,,,
alien_welcome,224,645552,0.0-68.0-0.0,"""event"",""trial"",""time""
""fullscreenenter"",""1"",""1897""
","
","
","""event"",""trial"",""time""
""fullscreenenter"",""1"",""1897""
","
",,null,run_exp/static/images/task_images/aliens/old_aliens/planet/alien_planet-29.jpg,null,,,,,,,,,,,,,29,"34,16,45,58,39,44,4,64,60,18,29,13,17,57,72,65,49,33,6,74,20,36,62,35,68,11,56,38,37,54,21,53,2,66,28,67,70,9,5",,,,,,,,,,
land,225,646057,0.0-68.0-1.0,"""event"",""trial"",""time""
""fullscreenenter"",""1"",""1897""
","
","
","""event"",""trial"",""time""
""fullscreenenter"",""1"",""1897""
","
",,null,run_exp/static/images/task_images/land.jpg,null,,,,,,,101,,,11,,,,,,,,,,,,,,
dig,226,648064,0.0-68.0-2.0,"""event"",""trial"",""time""
""fullscreenenter"",""1"",""1897""
","
","
","""event"",""trial"",""time""
""fullscreenenter"",""1"",""1897""
","
",,,,,,,,,,,,"[{""stimulus"":""run_exp/static/images/task_images/dig.jpg"",""time"":0.5},{""stimulus"":""run_exp/static/images/task_images/land.jpg"",""time"":673.7000000178814},{""stimulus"":""run_exp/static/images/task_images/dig.jpg"",""time"":1339.7000000178814}]",[],11,,,,,,,,,,,,,,
harvest,227,649072,0.0-68.0-3.0,"""event"",""trial"",""time""
""fullscreenenter"",""1"",""1897""
","
","
","""event"",""trial"",""time""
""fullscreenenter"",""1"",""1897""
","
",,null,run_exp/static/images/task_images/gems/101.jpg,null,,,,,,,27,,,11,,,,,101,0.268601273,0.267326733,,,,,,,
decision,228,649333,0.0-68.0-4.0,"""event"",""trial"",""time""
""fullscreenenter"",""1"",""1897""
","
","
","""event"",""trial"",""time""
""fullscreenenter"",""1"",""1897""
","
",,258,run_exp/static/images/task_images/land.jpg,65,,,,,,,27,,,11,,,,,,,,8783,2,0,FALSE,,,
dig,229,652082,0.0-69.0-0.0,"""event"",""trial"",""time""
""fullscreenenter"",""1"",""1897""
","
","
","""event"",""trial"",""time""
""fullscreenenter"",""1"",""1897""
","
",,,,,,,,,,,,"[{""stimulus"":""run_exp/static/images/task_images/dig.jpg"",""time"":0.09999999403953552},{""stimulus"":""run_exp/static/images/task_images/land.jpg"",""time"":920.8999999761581},{""stimulus"":""run_exp/static/images/task_images/dig.jpg"",""time"":1834.8999999761581}]",[],11,,,,,,,,,,,,,,
harvest,230,653090,0.0-69.0-1.0,"""event"",""trial"",""time""
""fullscreenenter"",""1"",""1897""
","
","
","""event"",""trial"",""time""
""fullscreenenter"",""1"",""1897""
","
",,null,run_exp/static/images/task_images/gems/27.jpg,null,,,,,,,8,,,11,,,,,27,0.306001745,0.296296296,,,,,,,
decision,231,653268,0.0-69.0-2.0,"""event"",""trial"",""time""
""fullscreenenter"",""1"",""1897""
","
","
","""event"",""trial"",""time""
""fullscreenenter"",""1"",""1897""
","
",,175.6,run_exp/static/images/task_images/land.jpg,76,,,,,,,8,,,11,,,,,,,,12718,2,1,TRUE,,,
travel,232,663097,0.0-70.0-0.0,"""event"",""trial"",""time""
""fullscreenenter"",""1"",""1897""
","
","
","""event"",""trial"",""time""
""fullscreenenter"",""1"",""1897""
","
",,,,,,,,,,,,"[{""stimulus"":""run_exp/static/images/task_images/rocket-01.jpg"",""time"":0.20000001788139343},{""stimulus"":""run_exp/static/images/task_images/rocket-02.jpg"",""time"":1097.9000000059605},{""stimulus"":""run_exp/static/images/task_images/rocket-03.jpg"",""time"":2188.800000011921},{""stimulus"":""run_exp/static/images/task_images/rocket-04.jpg"",""time"":3279.4000000059605},{""stimulus"":""run_exp/static/images/task_images/rocket-05.jpg"",""time"":4370.5999999940395},{""stimulus"":""run_exp/static/images/task_images/rocket-06.jpg"",""time"":5460.300000011921},{""stimulus"":""run_exp/static/images/task_images/rocket-07.jpg"",""time"":6552.700000017881},{""stimulus"":""run_exp/static/images/task_images/rocket-08.jpg"",""time"":7643.5999999940395},{""stimulus"":""run_exp/static/images/task_images/rocket-09.jpg"",""time"":8732.59999999404}]",[],11,,,,,,,,,,,,,,
alien_welcome,233,668107,0.0-70.0-1.0,"""event"",""trial"",""time""
""fullscreenenter"",""1"",""1897""
","
","
","""event"",""trial"",""time""
""fullscreenenter"",""1"",""1897""
","
",,null,run_exp/static/images/task_images/aliens/old_aliens/planet/alien_planet-13.jpg,null,,,,,,,,,,,,,13,"34,16,45,58,39,44,4,64,60,18,29,13,17,57,72,65,49,33,6,74,20,36,62,35,68,11,56,38,37,54,21,53,2,66,28,67,70,9,5",,,,,,,,,,
land,234,668612,0.0-70.0-2.0,"""event"",""trial"",""time""
""fullscreenenter"",""1"",""1897""
","
","
","""event"",""trial"",""time""
""fullscreenenter"",""1"",""1897""
","
",,null,run_exp/static/images/task_images/land.jpg,null,,,,,,,104,,,12,,,,,,,,,,,,,,
dig,235,670622,0.0-70.0-3.0,"""event"",""trial"",""time""
""fullscreenenter"",""1"",""1897""
","
","
","""event"",""trial"",""time""
""fullscreenenter"",""1"",""1897""
","
",,,,,,,,,,,,"[{""stimulus"":""run_exp/static/images/task_images/dig.jpg"",""time"":0.5},{""stimulus"":""run_exp/static/images/task_images/land.jpg"",""time"":674.5999999940395},{""stimulus"":""run_exp/static/images/task_images/dig.jpg"",""time"":1338.7000000178814}]",[],12,,,,,,,,,,,,,,
harvest,236,671630,0.0-70.0-4.0,"""event"",""trial"",""time""
""fullscreenenter"",""1"",""1897""
","
","
","""event"",""trial"",""time""
""fullscreenenter"",""1"",""1897""
","
",,null,run_exp/static/images/task_images/gems/104.jpg,null,,,,,,,19,,,12,,,,,104,0.18539578,0.182692308,,,,,,,
decision,237,671985,0.0-70.0-5.0,"""event"",""trial"",""time""
""fullscreenenter"",""1"",""1897""
","
","
","""event"",""trial"",""time""
""fullscreenenter"",""1"",""1897""
","
",,352.7,run_exp/static/images/task_images/land.jpg,65,,,,,,,19,,,12,,,,,,,,31435,2,0,FALSE,,,
dig,238,674641,0.0-71.0-0.0,"""event"",""trial"",""time""
""fullscreenenter"",""1"",""1897""
","
","
","""event"",""trial"",""time""
""fullscreenenter"",""1"",""1897""
","
",,,,,,,,,,,,"[{""stimulus"":""run_exp/static/images/task_images/dig.jpg"",""time"":0},{""stimulus"":""run_exp/static/images/task_images/land.jpg"",""time"":884.1999999880791},{""stimulus"":""run_exp/static/images/task_images/dig.jpg"",""time"":1770.199999988079}]",[],12,,,,,,,,,,,,,,
harvest,239,675649,0.0-71.0-1.0,"""event"",""trial"",""time""
""fullscreenenter"",""1"",""1897""
","
","
","""event"",""trial"",""time""
""fullscreenenter"",""1"",""1897""
","
",,null,run_exp/static/images/task_images/gems/19.jpg,null,,,,,,,5,,,12,,,,,19,0.250603577,0.263157895,,,,,,,
decision,240,675799,0.0-71.0-2.0,"""event"",""trial"",""time""
""fullscreenenter"",""1"",""1897""
","
","
","""event"",""trial"",""time""
""fullscreenenter"",""1"",""1897""
","
",,146.9,run_exp/static/images/task_images/land.jpg,76,,,,,,,5,,,12,,,,,,,,35249,2,1,TRUE,,,
travel,241,685655,0.0-72.0-0.0,"""event"",""trial"",""time""
""fullscreenenter"",""1"",""1897""
","
","
","""event"",""trial"",""time""
""fullscreenenter"",""1"",""1897""
","
",,,,,,,,,,,,"[{""stimulus"":""run_exp/static/images/task_images/rocket-01.jpg"",""time"":0.20000001788139343},{""stimulus"":""run_exp/static/images/task_images/rocket-02.jpg"",""time"":1100.5},{""stimulus"":""run_exp/static/images/task_images/rocket-03.jpg"",""time"":2194.7000000178814},{""stimulus"":""run_exp/static/images/task_images/rocket-04.jpg"",""time"":3284.9000000059605},{""stimulus"":""run_exp/static/images/task_images/rocket-05.jpg"",""time"":4383.300000011921},{""stimulus"":""run_exp/static/images/task_images/rocket-06.jpg"",""time"":5477},{""stimulus"":""run_exp/static/images/task_images/rocket-07.jpg"",""time"":6568.600000023842},{""stimulus"":""run_exp/static/images/task_images/rocket-08.jpg"",""time"":7665.100000023842},{""stimulus"":""run_exp/static/images/task_images/rocket-09.jpg"",""time"":8759}]",[],12,,,,,,,,,,,,,,
alien_welcome,242,690661,0.0-72.0-1.0,"""event"",""trial"",""time""
""fullscreenenter"",""1"",""1897""
","
","
","""event"",""trial"",""time""
""fullscreenenter"",""1"",""1897""
","
",,null,run_exp/static/images/task_images/aliens/old_aliens/planet/alien_planet-17.jpg,null,,,,,,,,,,,,,17,"34,16,45,58,39,44,4,64,60,18,29,13,17,57,72,65,49,33,6,74,20,36,62,35,68,11,56,38,37,54,21,53,2,66,28,67,70,9,5",,,,,,,,,,
land,243,691169,0.0-72.0-2.0,"""event"",""trial"",""time""
""fullscreenenter"",""1"",""1897""
","
","
","""event"",""trial"",""time""
""fullscreenenter"",""1"",""1897""
","
",,null,run_exp/static/images/task_images/land.jpg,null,,,,,,,88,,,13,,,,,,,,,,,,,,
dig,244,693179,0.0-72.0-3.0,"""event"",""trial"",""time""
""fullscreenenter"",""1"",""1897""
","
","
","""event"",""trial"",""time""
