trial_type,trial_index,time_elapsed,internal_node_id,interactions,blur_events,focus_events,fullscreenenter_events,fullscreenexit_events,success,rt,stimulus,key_press,prompt,subject_id,participant_id,age,gender,button_pressed,next_reward,animation_sequence,responses,planet,curr_prac_trial,n_prac_rounds,alien,aliens,reward_received,decay_rate_actual,decay_rate_exp,time_in_block,block_num,prt,last_trial_on_planet,button_html,bonus,num_failures
pavlovia,0,4,0.0-0.0,"""event"",""trial"",""time""
""fullscreenenter"",""1"",""2897""
","
","
","""event"",""trial"",""time""
""fullscreenenter"",""1"",""2897""
","
",,,,,,,,,,,,,,,,,,,,,,,,,,,,
fullscreen,1,3882,0.0-1.0,"""event"",""trial"",""time""
""fullscreenenter"",""1"",""2897""
","
","
","""event"",""trial"",""time""
""fullscreenenter"",""1"",""2897""
","
",TRUE,,,,,,,,,,,,,,,,,,,,,,,,,,,
instruc_welcome,2,13694,0.0-2.0,"""event"",""trial"",""time""
""fullscreenenter"",""1"",""2897""
","
","
","""event"",""trial"",""time""
""fullscreenenter"",""1"",""2897""
","
",,null,run_exp/static/audio/clip_1_welcome.m4a,null,"<p>Howdy! In this experiment, you’ll be an explorer traveling through space to collect space treasure.</p><p>Your mission is to collect as much treasure as possible.</p><br><br><p><img src='run_exp/static/images/task_images/opening_img-01.jpg' height='300' width='auto'></p>",8538,458,22.95,Female,,,,,,,,,,,,,,,,,,,
audio-keyboard-response,3,30267,0.0-3.0,"""event"",""trial"",""time""
""fullscreenenter"",""1"",""2897""
","
","
","""event"",""trial"",""time""
""fullscreenenter"",""1"",""2897""
","
",,null,run_exp/static/audio/clip_2_move.m4a,null,,,,,,,,,,,,,,,,,,,,,,,,
welcome_dec,4,36337,0.0-4.0,"""event"",""trial"",""time""
""fullscreenenter"",""1"",""2897""
","
","
","""event"",""trial"",""time""
""fullscreenenter"",""1"",""2897""
","
",,6067,"<p>Howdy! In this experiment, you’ll be an explorer traveling through space to collect space treasure.</p><p>Your mission is to collect as much treasure as possible.</p><br><br><p><img src='run_exp/static/images/task_images/opening_img-01.jpg' height='300' width='auto'></p>",,,,,,,1,,,,,,,,,,,,,,,,,,
html-keyboard-response,5,38238,0.0-5.0,"""event"",""trial"",""time""
""fullscreenenter"",""1"",""2897""
","
","
","""event"",""trial"",""time""
""fullscreenenter"",""1"",""2897""
","
",,1898.2,"<p>Howdy! In this experiment, you’ll be an explorer traveling through space to collect space treasure.</p><p>Your mission is to collect as much treasure as possible.</p><br><br><p><img src='run_exp/static/images/task_images/opening_img-01.jpg' height='300' width='auto'></p><button class=""jspsych-html-btn-unchosen""><img src=""run_exp/static/images/task_images/planet-01.jpg"" height=""50""></button><button class=""jspsych-html-btn-chosen""><img src=""run_exp/static/images/task_images/planet-02.jpg"" height=""50""></button><p><b>[press the space bar to lock in your answer]<b><br></p>",32,,,,,,,,,,,,,,,,,,,,,,,,
instruc_goal,6,48293,0.0-6.0-0.0,"""event"",""trial"",""time""
""fullscreenenter"",""1"",""2897""
","
","
","""event"",""trial"",""time""
""fullscreenenter"",""1"",""2897""
","
",,null,run_exp/static/audio/clip_3_goal.m4a,null,"<p> As a space explorer, you’ll visit different planets to dig for space treasure, these pink gems.</p> <p> The more treasure you dig up, the more bonus money you’ll win! </p><br><br><p><img src='run_exp/static/images/task_images/pink_gem.jpg' height='300' width='auto'></p>",,,,,,,,,,,,,,,,,,,,,,,
instruc_goal,7,52658,0.0-6.0-1.0,"""event"",""trial"",""time""
""fullscreenenter"",""1"",""2897""
","
","
","""event"",""trial"",""time""
""fullscreenenter"",""1"",""2897""
","
",,4362.4,"<p> As a space explorer, you’ll visit different planets to dig for space treasure, these pink gems.</p> <p> The more treasure you dig up, the more bonus money you’ll win! </p><br><br><p><img src='run_exp/static/images/task_images/pink_gem.jpg' height='300' width='auto'></p>",,,,,,,1,,,,,,,,,,,,,,,,,,
html-keyboard-response,8,56225,0.0-6.0-2.0,"""event"",""trial"",""time""
""fullscreenenter"",""1"",""2897""
","
","
","""event"",""trial"",""time""
""fullscreenenter"",""1"",""2897""
","
",,3564.6,"<p> As a space explorer, you’ll visit different planets to dig for space treasure, these pink gems.</p> <p> The more treasure you dig up, the more bonus money you’ll win! </p><br><br><p><img src='run_exp/static/images/task_images/pink_gem.jpg' height='300' width='auto'></p><button class=""jspsych-html-btn-unchosen""><img src=""run_exp/static/images/task_images/planet-01.jpg"" height=""50""></button><button class=""jspsych-html-btn-chosen""><img src=""run_exp/static/images/task_images/planet-02.jpg"" height=""50""></button><p><b>[press the space bar to lock in your answer]<b><br></p>",32,,,,,,,,,,,,,,,,,,,,,,,,
instruc_dig,9,72228,0.0-7.0-0.0,"""event"",""trial"",""time""
""fullscreenenter"",""1"",""2897""
","
","
","""event"",""trial"",""time""
""fullscreenenter"",""1"",""2897""
","
",,null,run_exp/static/audio/clip_4_dig.m4a,null,,,,,,,100,,,,,,,,,,,,,,,,,
instruc_dig_try,10,72651,0.0-7.0-1.0,"""event"",""trial"",""time""
""fullscreenenter"",""1"",""2897""
","
","
","""event"",""trial"",""time""
""fullscreenenter"",""1"",""2897""
","
",,420.5,"<p> When you’ve arrived at a new planet, you will dig once. </p> <p>Then, you get to decide if you want to stay on the planet and dig again or travel to a new planet and dig there.</p> <p> To stay and dig, press the letter <strong>‘A’</strong> on your keyboard. Try pressing it now! </p><p><img src='run_exp/static/images/task_images/land.jpg'  height='700' width='auto'></p>",65,"<p> When you’ve arrived at a new planet, you will dig once. </p> <p>Then, you get to decide if you want to stay on the planet and dig again or travel to a new planet and dig there.</p> <p> To stay and dig, press the letter <strong>‘A’</strong> on your keyboard. Try pressing it now! </p><p><img src='run_exp/static/images/task_images/land.jpg'  height='700' width='auto'></p>",,,,,,100,,,,,,,,,,,,,,,,,
dig_prac,11,74681,0.0-7.0-2.0,"""event"",""trial"",""time""
""fullscreenenter"",""1"",""2897""
","
","
","""event"",""trial"",""time""
""fullscreenenter"",""1"",""2897""
","
",,,,,,,,,,,,"[{""stimulus"":""run_exp/static/images/task_images/dig.jpg"",""time"":0.29999999701976776},{""stimulus"":""run_exp/static/images/task_images/land.jpg"",""time"":673.8999999985099},{""stimulus"":""run_exp/static/images/task_images/dig.jpg"",""time"":1336.8999999985099}]",[],,,,,,,,,,,,,,,
instruc_travel,12,110904,0.0-7.0-3.0,"""event"",""trial"",""time""
""fullscreenenter"",""1"",""2897""
","
","
","""event"",""trial"",""time""
""fullscreenenter"",""1"",""2897""
","
",,null,run_exp/static/audio/clip_5_travel.m4a,null,"<p>Every time you dig up gems, there are less gems on the planet, so the more you dig on a planet the fewer gems you’ll get with each dig.</p><p>When gems are running low, you may want to travel to a new planet. </p> <p>  Planets are very far apart in this galaxy, so it will take some time to travel between them. </p> <br><p>There are lots and lots of planets for you to visit, so you won’t be able to return to any planets you’ve seen before. </p><br><p>To leave this planet and travel to a new one, press the letter <strong>‘L’</strong> on your keyboard. Try pressing it now! </p><p><img src='run_exp/static/images/task_images/rocket-01.jpg'  height='600' width='auto'></p>",,,,,,,,,,,,,,,,,,,,,,,
instruc_travel_try,13,111312,0.0-7.0-4.0,"""event"",""trial"",""time""
""fullscreenenter"",""1"",""2897""
","
","
","""event"",""trial"",""time""
""fullscreenenter"",""1"",""2897""
","
",,405.9,"<p>Every time you dig up gems, there are less gems on the planet, so the more you dig on a planet the fewer gems you’ll get with each dig.</p><p>When gems are running low, you may want to travel to a new planet. </p> <p>  Planets are very far apart in this galaxy, so it will take some time to travel between them. </p> <br><p>There are lots and lots of planets for you to visit, so you won’t be able to return to any planets you’ve seen before. </p><br><p>To leave this planet and travel to a new one, press the letter <strong>‘L’</strong> on your keyboard. Try pressing it now! </p><p><img src='run_exp/static/images/task_images/rocket-01.jpg'  height='600' width='auto'></p>",76,"<p>Every time you dig up gems, there are less gems on the planet, so the more you dig on a planet the fewer gems you’ll get with each dig.</p><p>When gems are running low, you may want to travel to a new planet. </p> <p>  Planets are very far apart in this galaxy, so it will take some time to travel between them. </p> <br><p>There are lots and lots of planets for you to visit, so you won’t be able to return to any planets you’ve seen before. </p><br><p>To leave this planet and travel to a new one, press the letter <strong>‘L’</strong> on your keyboard. Try pressing it now! </p><p><img src='run_exp/static/images/task_images/rocket-01.jpg'  height='600' width='auto'></p>",,,,,,,,,,,,,,,,,,,,,,,
travel_prac,14,121320,0.0-7.0-5.0,"""event"",""trial"",""time""
""fullscreenenter"",""1"",""2897""
","
","
","""event"",""trial"",""time""
""fullscreenenter"",""1"",""2897""
","
",,,,,,,,,,,,"[{""stimulus"":""run_exp/static/images/task_images/rocket-01.jpg"",""time"":0.30000000447034836},{""stimulus"":""run_exp/static/images/task_images/rocket-02.jpg"",""time"":1120.4000000059605},{""stimulus"":""run_exp/static/images/task_images/rocket-03.jpg"",""time"":2233.3000000044703},{""stimulus"":""run_exp/static/images/task_images/rocket-04.jpg"",""time"":3334.9000000059605},{""stimulus"":""run_exp/static/images/task_images/rocket-05.jpg"",""time"":4451.4000000059605},{""stimulus"":""run_exp/static/images/task_images/rocket-06.jpg"",""time"":5563.60000000149},{""stimulus"":""run_exp/static/images/task_images/rocket-07.jpg"",""time"":6670.4000000059605},{""stimulus"":""run_exp/static/images/task_images/rocket-08.jpg"",""time"":7782.70000000298},{""stimulus"":""run_exp/static/images/task_images/rocket-09.jpg"",""time"":8899.5}]",[],0,,,,,,,,,,,,,,
instruc_alien_greet,15,148513,0.0-7.0-6.0,"""event"",""trial"",""time""
""fullscreenenter"",""1"",""2897""
","
","
","""event"",""trial"",""time""
""fullscreenenter"",""1"",""2897""
","
",,null,run_exp/static/audio/clip_6_alien.m4a,null,"<p>When you arrive at a new planet, the alien who owns the treasure mine on that planet will greet you!</p><p>The better an alien takes care of their mine the easier it is to dig for gems. Some aliens take better care of their mine than others. So, you won’t get exactly the same amount of gems on each planet.</p><p>What the alien looks like does not tell you anything about how many gems there are on the planet.</p><br><p><img src=""run_exp/static/images/task_images/aliens/instructions_aliens/planet/alien_planet-1.jpg""  height=""600"" width=""auto""></p>",,,,,,,,,,,,,,,,,,,,,,,
instruc_alien_greet,16,150099,0.0-7.0-7.0,"""event"",""trial"",""time""
""fullscreenenter"",""1"",""2897""
","
","
","""event"",""trial"",""time""
""fullscreenenter"",""1"",""2897""
","
",,1582.8,"<p>When you arrive at a new planet, the alien who owns the treasure mine on that planet will greet you!</p><p>The better an alien takes care of their mine the easier it is to dig for gems. Some aliens take better care of their mine than others. So, you won’t get exactly the same amount of gems on each planet.</p><p>What the alien looks like does not tell you anything about how many gems there are on the planet.</p><br><p><img src=""run_exp/static/images/task_images/aliens/instructions_aliens/planet/alien_planet-1.jpg""  height=""600"" width=""auto""></p>",,,,,,,1,,,,,,,,,,,,,,,,,,
html-keyboard-response,17,150451,0.0-7.0-8.0,"""event"",""trial"",""time""
""fullscreenenter"",""1"",""2897""
","
","
","""event"",""trial"",""time""
""fullscreenenter"",""1"",""2897""
","
",,350.7,"<p>When you arrive at a new planet, the alien who owns the treasure mine on that planet will greet you!</p><p>The better an alien takes care of their mine the easier it is to dig for gems. Some aliens take better care of their mine than others. So, you won’t get exactly the same amount of gems on each planet.</p><p>What the alien looks like does not tell you anything about how many gems there are on the planet.</p><br><p><img src=""run_exp/static/images/task_images/aliens/instructions_aliens/planet/alien_planet-1.jpg""  height=""600"" width=""auto""></p><button class=""jspsych-html-btn-unchosen""><img src=""run_exp/static/images/task_images/planet-01.jpg"" height=""50""></button><button class=""jspsych-html-btn-chosen""><img src=""run_exp/static/images/task_images/planet-02.jpg"" height=""50""></button><p><b>[press the space bar to lock in your answer]<b><br></p>",32,,,,,,,,,,,,,,,,,,,,,,,,
time_out,18,161526,0.0-8.0-0.0,"""event"",""trial"",""time""
""fullscreenenter"",""1"",""2897""
","
","
","""event"",""trial"",""time""
""fullscreenenter"",""1"",""2897""
","
",,null,run_exp/static/audio/clip_7_timeout.m4a,null,"<p>If you don't make your choice fast enough, you’ll have to wait a few seconds before you can make another one.</p><p>You can’t dig for more gems or travel to new planets. You just have to sit and wait.</p><br><p><img src='run_exp/static/images/task_images/time_out.jpg'  height='600' width='auto'></p>",,,,,,,,,,,,,,,,,,,,,,,
time_out,19,165634,0.0-8.0-1.0,"""event"",""trial"",""time""
""fullscreenenter"",""1"",""2897""
","
","
","""event"",""trial"",""time""
""fullscreenenter"",""1"",""2897""
","
",,4105.2,"<p>If you don't make your choice fast enough, you’ll have to wait a few seconds before you can make another one.</p><p>You can’t dig for more gems or travel to new planets. You just have to sit and wait.</p><br><p><img src='run_exp/static/images/task_images/time_out.jpg'  height='600' width='auto'></p>",,,,,,,1,,,,,,,,,,,,,,,,,,
html-keyboard-response,20,166230,0.0-8.0-2.0,"""event"",""trial"",""time""
""fullscreenenter"",""1"",""2897""
","
","
","""event"",""trial"",""time""
""fullscreenenter"",""1"",""2897""
","
",,594.4,"<p>If you don't make your choice fast enough, you’ll have to wait a few seconds before you can make another one.</p><p>You can’t dig for more gems or travel to new planets. You just have to sit and wait.</p><br><p><img src='run_exp/static/images/task_images/time_out.jpg'  height='600' width='auto'></p><button class=""jspsych-html-btn-unchosen""><img src=""run_exp/static/images/task_images/planet-01.jpg"" height=""50""></button><button class=""jspsych-html-btn-chosen""><img src=""run_exp/static/images/task_images/planet-02.jpg"" height=""50""></button><p><b>[press the space bar to lock in your answer]<b><br></p>",32,,,,,,,,,,,,,,,,,,,,,,,,
instruc_break,21,181898,0.0-9.0-0.0,"""event"",""trial"",""time""
""fullscreenenter"",""1"",""2897""
","
","
","""event"",""trial"",""time""
""fullscreenenter"",""1"",""2897""
","
",,null,run_exp/static/audio/clip_8_break.m4a,null,"<p> After digging and traveling for a while, you’ll be able to take a break at home base. </p><p>The game will last 20 minutes no matter what.</p><p>You will visit home base every 5 minutes, so, you will visit home base three times during the game.</p><br><p><img src='run_exp/static/images/task_images/home_base.jpg' height='600' width='auto'></p>",,,,,,,,,,,,,,,,,,,,,,,
instruc_break,22,183164,0.0-9.0-1.0,"""event"",""trial"",""time""
""fullscreenenter"",""1"",""2897""
","
","
","""event"",""trial"",""time""
""fullscreenenter"",""1"",""2897""
","
",,1263.5,"<p> After digging and traveling for a while, you’ll be able to take a break at home base. </p><p>The game will last 20 minutes no matter what.</p><p>You will visit home base every 5 minutes, so, you will visit home base three times during the game.</p><br><p><img src='run_exp/static/images/task_images/home_base.jpg' height='600' width='auto'></p>",,,,,,,1,,,,,,,,,,,,,,,,,,
html-keyboard-response,23,183447,0.0-9.0-2.0,"""event"",""trial"",""time""
""fullscreenenter"",""1"",""2897""
","
","
","""event"",""trial"",""time""
""fullscreenenter"",""1"",""2897""
","
",,280.8,"<p> After digging and traveling for a while, you’ll be able to take a break at home base. </p><p>The game will last 20 minutes no matter what.</p><p>You will visit home base every 5 minutes, so, you will visit home base three times during the game.</p><br><p><img src='run_exp/static/images/task_images/home_base.jpg' height='600' width='auto'></p><button class=""jspsych-html-btn-unchosen""><img src=""run_exp/static/images/task_images/planet-01.jpg"" height=""50""></button><button class=""jspsych-html-btn-chosen""><img src=""run_exp/static/images/task_images/planet-02.jpg"" height=""50""></button><p><b>[press the space bar to lock in your answer]<b><br></p>",32,,,,,,,,,,,,,,,,,,,,,,,,
instruc_prac_game,24,193568,0.0-10.0-0.0,"""event"",""trial"",""time""
""fullscreenenter"",""1"",""2897""
","
","
","""event"",""trial"",""time""
""fullscreenenter"",""1"",""2897""
","
",,null,run_exp/static/audio/clip_9_practice.m4a,null,"<p> Are you ready to play a practice game? </p> <p>In this practice game, you'll be digging up barrels of gems. But, in the real game, you'll be digging up the gems themselves. </p>",,,,,,,,,,,,,,,,,,,,,,,
html-button-response,25,195107,0.0-10.0-1.0,"""event"",""trial"",""time""
""fullscreenenter"",""1"",""2897""
","
","
","""event"",""trial"",""time""
""fullscreenenter"",""1"",""2897""
","
",,1537.7,"<p> Are you ready to play a practice game? </p> <p>In this practice game, you'll be digging up barrels of gems. But, in the real game, you'll be digging up the gems themselves. </p>",,,,,,,0,,,,,,,,,,,,,,,,,,
alien_welcome_prac,26,200115,0.0-11.0-0.0,"""event"",""trial"",""time""
""fullscreenenter"",""1"",""2897""
","
","
","""event"",""trial"",""time""
""fullscreenenter"",""1"",""2897""
","
",,null,run_exp/static/images/task_images/aliens/practice_aliens/planet/alien_planet-5.jpg,null,,,,,,,,,,,,,,,,,,,,,,,,
land_prac,27,200627,0.0-11.0-1.0,"""event"",""trial"",""time""
""fullscreenenter"",""1"",""2897""
","
","
","""event"",""trial"",""time""
""fullscreenenter"",""1"",""2897""
","
",,null,run_exp/static/images/task_images/land.jpg,null,,,,,,,97,,,0,,,,,,,,,,,,,,
dig_prac,28,202643,0.0-11.0-2.0,"""event"",""trial"",""time""
""fullscreenenter"",""1"",""2897""
","
","
","""event"",""trial"",""time""
""fullscreenenter"",""1"",""2897""
","
",,,,,,,,,,,,"[{""stimulus"":""run_exp/static/images/task_images/dig.jpg"",""time"":0.29999999701976776},{""stimulus"":""run_exp/static/images/task_images/land.jpg"",""time"":675.1999999955297},{""stimulus"":""run_exp/static/images/task_images/dig.jpg"",""time"":1338.6000000014901}]",[],,,,,,,,,,,,,,,
harvest_prac,29,203646,0.0-11.0-3.0,"""event"",""trial"",""time""
""fullscreenenter"",""1"",""2897""
","
","
","""event"",""trial"",""time""
""fullscreenenter"",""1"",""2897""
","
",,null,run_exp/static/images/task_images/barrel_text.jpg,null,,,,,,,,,,,,,,,,,,,,,,,,
decision_prac,30,205070,0.0-11.0-4.0,"""event"",""trial"",""time""
""fullscreenenter"",""1"",""2897""
","
","
","""event"",""trial"",""time""
""fullscreenenter"",""1"",""2897""
","
",,1422.8,run_exp/static/images/task_images/land.jpg,65,,,,,,,,,,,1,,,,,,,,,,,,,
dig_prac,31,207083,0.0-12.0-0.0,"""event"",""trial"",""time""
""fullscreenenter"",""1"",""2897""
","
","
","""event"",""trial"",""time""
""fullscreenenter"",""1"",""2897""
","
",,,,,,,,,,,,"[{""stimulus"":""run_exp/static/images/task_images/dig.jpg"",""time"":0.19999999552965164},{""stimulus"":""run_exp/static/images/task_images/land.jpg"",""time"":674.1999999955297},{""stimulus"":""run_exp/static/images/task_images/dig.jpg"",""time"":1342}]",[],,,,,,,,,,,,,,,
harvest_prac,32,208091,0.0-12.0-1.0,"""event"",""trial"",""time""
""fullscreenenter"",""1"",""2897""
","
","
","""event"",""trial"",""time""
""fullscreenenter"",""1"",""2897""
","
",,null,run_exp/static/images/task_images/barrel_text.jpg,null,,,,,,,,,,,,,,,,,,,,,,,,
decision_prac,33,209831,0.0-12.0-2.0,"""event"",""trial"",""time""
""fullscreenenter"",""1"",""2897""
","
","
","""event"",""trial"",""time""
""fullscreenenter"",""1"",""2897""
","
",,1739.1,run_exp/static/images/task_images/land.jpg,65,,,,,,,,,,,2,,,,,,,,,,,,,
dig_prac,34,211843,0.0-13.0-0.0,"""event"",""trial"",""time""
""fullscreenenter"",""1"",""2897""
","
","
","""event"",""trial"",""time""
""fullscreenenter"",""1"",""2897""
","
",,,,,,,,,,,,"[{""stimulus"":""run_exp/static/images/task_images/dig.jpg"",""time"":0.20000000298023224},{""stimulus"":""run_exp/static/images/task_images/land.jpg"",""time"":677},{""stimulus"":""run_exp/static/images/task_images/dig.jpg"",""time"":1341}]",[],,,,,,,,,,,,,,,
harvest_prac,35,212851,0.0-13.0-1.0,"""event"",""trial"",""time""
""fullscreenenter"",""1"",""2897""
","
","
","""event"",""trial"",""time""
""fullscreenenter"",""1"",""2897""
","
",,null,run_exp/static/images/task_images/barrel_text.jpg,null,,,,,,,,,,,,,,,,,,,,,,,,
decision_prac,36,212914,0.0-13.0-2.0,"""event"",""trial"",""time""
""fullscreenenter"",""1"",""2897""
","
","
","""event"",""trial"",""time""
""fullscreenenter"",""1"",""2897""
","
",,61.9,run_exp/static/images/task_images/land.jpg,65,,,,,,,,,,,3,,,,,,,,,,,,,
dig_prac,37,214931,0.0-14.0-0.0,"""event"",""trial"",""time""
""fullscreenenter"",""1"",""2897""
","
","
","""event"",""trial"",""time""
""fullscreenenter"",""1"",""2897""
","
",,,,,,,,,,,,"[{""stimulus"":""run_exp/static/images/task_images/dig.jpg"",""time"":0.20000000298023224},{""stimulus"":""run_exp/static/images/task_images/land.jpg"",""time"":676.8000000044703},{""stimulus"":""run_exp/static/images/task_images/dig.jpg"",""time"":1338}]",[],,,,,,,,,,,,,,,
harvest_prac,38,215937,0.0-14.0-1.0,"""event"",""trial"",""time""
""fullscreenenter"",""1"",""2897""
","
","
","""event"",""trial"",""time""
""fullscreenenter"",""1"",""2897""
","
",,null,run_exp/static/images/task_images/barrel_text.jpg,null,,,,,,,,,,,,,,,,,,,,,,,,
decision_prac,39,216265,0.0-14.0-2.0,"""event"",""trial"",""time""
""fullscreenenter"",""1"",""2897""
","
","
","""event"",""trial"",""time""
""fullscreenenter"",""1"",""2897""
","
",,326.9,run_exp/static/images/task_images/land.jpg,65,,,,,,,,,,,4,,,,,,,,,,,,,
dig_prac,40,218270,0.0-15.0-0.0,"""event"",""trial"",""time""
""fullscreenenter"",""1"",""2897""
","
","
","""event"",""trial"",""time""
""fullscreenenter"",""1"",""2897""
","
",,,,,,,,,,,,"[{""stimulus"":""run_exp/static/images/task_images/dig.jpg"",""time"":0.10000000149011612},{""stimulus"":""run_exp/static/images/task_images/land.jpg"",""time"":678.1000000014901},{""stimulus"":""run_exp/static/images/task_images/dig.jpg"",""time"":1339.8999999985099}]",[],,,,,,,,,,,,,,,
harvest_prac,41,219283,0.0-15.0-1.0,"""event"",""trial"",""time""
""fullscreenenter"",""1"",""2897""
","
","
","""event"",""trial"",""time""
""fullscreenenter"",""1"",""2897""
","
",,null,run_exp/static/images/task_images/barrel_text.jpg,null,,,,,,,,,,,,,,,,,,,,,,,,
decision_prac,42,219396,0.0-15.0-2.0,"""event"",""trial"",""time""
""fullscreenenter"",""1"",""2897""
","
","
","""event"",""trial"",""time""
""fullscreenenter"",""1"",""2897""
","
",,111.7,run_exp/static/images/task_images/land.jpg,65,,,,,,,,,,,,1,,,,,,,,,,,,
quiz_instruc,43,230447,0.0-16.0-0.0,"""event"",""trial"",""time""
""fullscreenenter"",""1"",""2897""
","
","
","""event"",""trial"",""time""
""fullscreenenter"",""1"",""2897""
","
",,11047.8,run_exp/static/audio/clip_10_quiz.m4a,,,,,,,0,,,,,,,,,,,,,,,,,,
instruc_repeat,44,273201,0.0-16.0-1.0,"""event"",""trial"",""time""
""fullscreenenter"",""1"",""2897""
","
","
","""event"",""trial"",""time""
""fullscreenenter"",""1"",""2897""
","
",,null,"<p> Are you ready to play a practice game? </p> <p>In this practice game, you'll be digging up barrels of gems. But, in the real game, you'll be digging up the gems themselves. </p>",null,"<p>In this game, your goal is to collect as many gems as you can. That’s how you will win bonus money. </p> <p>The entire game will last 20 minutes no matter how many gems you collect or how many planets you visit. </p><p>To stay on a planet and dig again, press the letter A on your keyboard. To leave for a new planet, press the letter L.</p><p>The more you dig on a planet, the fewer gems you’ll get with each dig which is why you might consider leaving for a new planet. </p><p>When you arrive at a new planet, you’ll be greeted by an alien. What the alien looks like does not tell you anything about how much treasure is on the planet. </p>",,,,,,,,,,,,,,,,,,,,,,,
instruc_repeat_continue,45,275639,0.0-16.0-2.0,"""event"",""trial"",""time""
""fullscreenenter"",""1"",""2897""
","
","
","""event"",""trial"",""time""
""fullscreenenter"",""1"",""2897""
","
",,2436.1,"<p> Are you ready to play a practice game? </p> <p>In this practice game, you'll be digging up barrels of gems. But, in the real game, you'll be digging up the gems themselves. </p>",,,,,,,0,,,,,,,,,,,,,,,,,,
quiz_q_1_ask,46,285838,0.0-16.0-3.0,"""event"",""trial"",""time""
""fullscreenenter"",""1"",""2897""
","
","
","""event"",""trial"",""time""
""fullscreenenter"",""1"",""2897""
","
",,10196.4,run_exp/static/audio/clip_11_q1_ask.m4a,,,,,,,2,,,,,,,,,,,,,,,,,,
quiz_q_1_fb_correct,47,289670,0.0-17.0-0.0,"""event"",""trial"",""time""
""fullscreenenter"",""1"",""2897""
","
","
","""event"",""trial"",""time""
""fullscreenenter"",""1"",""2897""
","
",,null,run_exp/static/audio/clip_12_q1_correct.m4a,null,<p>That’s correct. You win extra money by collecting more gems.</p>,,,,,,,,,,,,,,,,,,,,,,,
quiz_q_2_ask,48,293865,0.0-17.0-1.0,"""event"",""trial"",""time""
""fullscreenenter"",""1"",""2897""
","
","
","""event"",""trial"",""time""
""fullscreenenter"",""1"",""2897""
","
",,4192.2,run_exp/static/audio/clip_14_q2_ask.m4a,,,,,,,1,,,,,,,,,,,,,,,,,,
quiz_q_2_fb_correct,49,297862,0.0-18.0-0.0,"""event"",""trial"",""time""
""fullscreenenter"",""1"",""2897""
","
","
","""event"",""trial"",""time""
""fullscreenenter"",""1"",""2897""
","
",,null,run_exp/static/audio/clip_15_q2_correct.m4a,null,<p>That’s correct. The experiment is 20 minutes no matter what.</p>,,,,,,,,,,,,,,,,,,,,,,,
quiz_q_3_ask,50,302495,0.0-18.0-1.0,"""event"",""trial"",""time""
""fullscreenenter"",""1"",""2897""
","
","
","""event"",""trial"",""time""
""fullscreenenter"",""1"",""2897""
","
",,4630.2,run_exp/static/audio/clip_17_q3_ask.m4a,,,,,,,1,,,,,,,,,,,,,,,,,,
quiz_q_3_fb_correct,51,306459,0.0-19.0-0.0,"""event"",""trial"",""time""
""fullscreenenter"",""1"",""2897""
","
","
","""event"",""trial"",""time""
""fullscreenenter"",""1"",""2897""
","
",,null,run_exp/static/audio/clip_18_q3_correct.m4a,null,<p> That’s correct. You press the letter L to travel to a new planet.</p>,,,,,,,,,,,,,,,,,,,,,,,
quiz_q_4_ask,52,313898,0.0-19.0-1.0,"""event"",""trial"",""time""
""fullscreenenter"",""1"",""2897""
","
","
","""event"",""trial"",""time""
""fullscreenenter"",""1"",""2897""
","
",,7437.6,run_exp/static/audio/clip_20_q4_ask.m4a,,,,,,,0,,,,,,,,,,,,,,,,,,
quiz_q_4_fb_correct,53,319215,0.0-20.0-0.0,"""event"",""trial"",""time""
""fullscreenenter"",""1"",""2897""
","
","
","""event"",""trial"",""time""
""fullscreenenter"",""1"",""2897""
","
",,null,run_exp/static/audio/clip_21_q4_correct.m4a,null,<p> That’s correct. The more you dig on a planet the fewer gems you’ll get with each dig. </p>,,,,,,,,,,,,,,,,,,,,,,,
quiz_q_5_ask,54,323931,0.0-20.0-1.0,"""event"",""trial"",""time""
""fullscreenenter"",""1"",""2897""
","
","
","""event"",""trial"",""time""
""fullscreenenter"",""1"",""2897""
","
",,4713.5,run_exp/static/audio/clip_23_q5_ask.m4a,,,,,,,1,,,,,,,,,,,,,,,,,,
quiz_q_5_fb_correct,55,328922,0.0-21.0-0.0,"""event"",""trial"",""time""
""fullscreenenter"",""1"",""2897""
","
","
","""event"",""trial"",""time""
""fullscreenenter"",""1"",""2897""
","
",,null,run_exp/static/audio/clip_24_q5_correct.m4a,null,<p> That’s correct. The alien tells you nothing about how much treasure is on the planet.</p>,,,,,,,,,,,,,,,,,,,,,,,
quiz_correct,56,332378,0.0-22.0-0.0,"""event"",""trial"",""time""
""fullscreenenter"",""1"",""2897""
","
","
","""event"",""trial"",""time""
""fullscreenenter"",""1"",""2897""
","
",,null,run_exp/static/audio/clip_26_correct_quiz.m4a,null,,,,,,,,,,,,,,,,,,,,,,,,
quiz_correct_continue,57,333550,0.0-22.0-1.0,"""event"",""trial"",""time""
""fullscreenenter"",""1"",""2897""
","
","
","""event"",""trial"",""time""
""fullscreenenter"",""1"",""2897""
","
",,1170.7,<p>Good job! You're now ready to move on to the real game!</p>,,,,,,,0,,,,,,,,,,,,,,,,,,
audio-keyboard-response,58,343663,0.0-22.0-2.0,"""event"",""trial"",""time""
""fullscreenenter"",""1"",""2897""
","
","
","""event"",""trial"",""time""
""fullscreenenter"",""1"",""2897""
","
",,null,run_exp/static/audio/clip_28_real_game.m4a,null,,,,,,,,,,,,,,,,,,,,,,,,
instruc_begin_exp_contine,59,344724,0.0-22.0-3.0,"""event"",""trial"",""time""
""fullscreenenter"",""1"",""2897""
","
","
","""event"",""trial"",""time""
""fullscreenenter"",""1"",""2897""
","
",,1059.1,"<p>Now that you know how  to dig for space treasure and travel to new planets,you can start exploring! </p><p>Do you want to go over the instructions again or get started with the real game?</p>",,,,,,,1,,,,,,1,,,,,,,,,,,,
alien_welcome,60,349737,0.0-23.0-0.0,"""event"",""trial"",""time""
""fullscreenenter"",""1"",""2897""
","
","
","""event"",""trial"",""time""
""fullscreenenter"",""1"",""2897""
","
",,null,run_exp/static/images/task_images/aliens/old_aliens/planet/alien_planet-55.jpg,null,,,,,,,,,,,,,55,"55,53,12,17,16,59,76,11,30,7,34,36,64,71,28,3,9,43,73,6,5,69,50,4,60,61,57,14,62,37,68,49,67,78,58,44",,,,,,,,,,
land,61,350246,0.0-23.0-1.0,"""event"",""trial"",""time""
""fullscreenenter"",""1"",""2897""
","
","
","""event"",""trial"",""time""
""fullscreenenter"",""1"",""2897""
","
",,null,run_exp/static/images/task_images/land.jpg,null,,,,,,,114,,,1,,,,,,,,,,,,,,
dig,62,352257,0.0-23.0-2.0,"""event"",""trial"",""time""
""fullscreenenter"",""1"",""2897""
","
","
","""event"",""trial"",""time""
""fullscreenenter"",""1"",""2897""
","
",,,,,,,,,,,,"[{""stimulus"":""run_exp/static/images/task_images/dig.jpg"",""time"":0.20000000298023224},{""stimulus"":""run_exp/static/images/task_images/land.jpg"",""time"":680.4000000059605},{""stimulus"":""run_exp/static/images/task_images/dig.jpg"",""time"":1341.2000000029802}]",[],1,,,,,,,,,,,,,,
harvest,63,353262,0.0-23.0-3.0,"""event"",""trial"",""time""
""fullscreenenter"",""1"",""2897""
","
","
","""event"",""trial"",""time""
""fullscreenenter"",""1"",""2897""
","
",,null,run_exp/static/images/task_images/gems/114.jpg,null,,,,,,,29,,,1,,,,,114,0.251383387,0.254385965,,,,,,,
decision,64,353380,0.0-23.0-4.0,"""event"",""trial"",""time""
""fullscreenenter"",""1"",""2897""
","
","
","""event"",""trial"",""time""
""fullscreenenter"",""1"",""2897""
","
",,116.2,run_exp/static/images/task_images/land.jpg,65,,,,,,,29,,,1,,,,,,,,8654,1,0,FALSE,,,
dig,65,356270,0.0-24.0-0.0,"""event"",""trial"",""time""
""fullscreenenter"",""1"",""2897""
","
","
","""event"",""trial"",""time""
""fullscreenenter"",""1"",""2897""
","
",,,,,,,,,,,,"[{""stimulus"":""run_exp/static/images/task_images/dig.jpg"",""time"":0.10000000149011612},{""stimulus"":""run_exp/static/images/task_images/land.jpg"",""time"":968.3999999985099},{""stimulus"":""run_exp/static/images/task_images/dig.jpg"",""time"":1926.7999999970198}]",[],1,,,,,,,,,,,,,,
harvest,66,357280,0.0-24.0-1.0,"""event"",""trial"",""time""
""fullscreenenter"",""1"",""2897""
","
","
","""event"",""trial"",""time""
""fullscreenenter"",""1"",""2897""
","
",,null,run_exp/static/images/task_images/gems/29.jpg,null,,,,,,,3,,,1,,,,,29,0.110589191,0.103448276,,,,,,,
decision,67,358100,0.0-24.0-2.0,"""event"",""trial"",""time""
""fullscreenenter"",""1"",""2897""
","
","
","""event"",""trial"",""time""
""fullscreenenter"",""1"",""2897""
","
",,817.5,run_exp/static/images/task_images/land.jpg,65,,,,,,,3,,,1,,,,,,,,13374,1,1,FALSE,,,
dig,68,360292,0.0-25.0-0.0,"""event"",""trial"",""time""
""fullscreenenter"",""1"",""2897""
","
","
","""event"",""trial"",""time""
""fullscreenenter"",""1"",""2897""
","
",,,,,,,,,,,,"[{""stimulus"":""run_exp/static/images/task_images/dig.jpg"",""time"":0.19999999552965164},{""stimulus"":""run_exp/static/images/task_images/land.jpg"",""time"":733.5999999940395},{""stimulus"":""run_exp/static/images/task_images/dig.jpg"",""time"":1461.5999999940395}]",[],1,,,,,,,,,,,,,,
harvest,69,361301,0.0-25.0-1.0,"""event"",""trial"",""time""
""fullscreenenter"",""1"",""2897""
","
","
","""event"",""trial"",""time""
""fullscreenenter"",""1"",""2897""
","
",,null,run_exp/static/images/task_images/gems/3.jpg,null,,,,,,,1,,,1,,,,,3,0.302294344,0.333333333,,,,,,,
decision,70,362135,0.0-25.0-2.0,"""event"",""trial"",""time""
""fullscreenenter"",""1"",""2897""
","
","
","""event"",""trial"",""time""
""fullscreenenter"",""1"",""2897""
","
",,832.8,run_exp/static/images/task_images/land.jpg,76,,,,,,,1,,,1,,,,,,,,17409,1,2,TRUE,,,
travel,71,371309,0.0-26.0-0.0,"""event"",""trial"",""time""
""fullscreenenter"",""1"",""2897""
","
","
","""event"",""trial"",""time""
""fullscreenenter"",""1"",""2897""
","
",,,,,,,,,,,,"[{""stimulus"":""run_exp/static/images/task_images/rocket-01.jpg"",""time"":0.20000000298023224},{""stimulus"":""run_exp/static/images/task_images/rocket-02.jpg"",""time"":1027.7000000029802},{""stimulus"":""run_exp/static/images/task_images/rocket-03.jpg"",""time"":2045.2000000029802},{""stimulus"":""run_exp/static/images/task_images/rocket-04.jpg"",""time"":3057.7000000029802},{""stimulus"":""run_exp/static/images/task_images/rocket-05.jpg"",""time"":4073.39999999851},{""stimulus"":""run_exp/static/images/task_images/rocket-06.jpg"",""time"":5102.10000000149},{""stimulus"":""run_exp/static/images/task_images/rocket-07.jpg"",""time"":6118.20000000298},{""stimulus"":""run_exp/static/images/task_images/rocket-08.jpg"",""time"":7130.20000000298},{""stimulus"":""run_exp/static/images/task_images/rocket-09.jpg"",""time"":8147.10000000149}]",[],1,,,,,,,,,,,,,,
alien_welcome,72,376320,0.0-26.0-1.0,"""event"",""trial"",""time""
""fullscreenenter"",""1"",""2897""
","
","
","""event"",""trial"",""time""
""fullscreenenter"",""1"",""2897""
","
",,null,run_exp/static/images/task_images/aliens/old_aliens/planet/alien_planet-53.jpg,null,,,,,,,,,,,,,53,"55,53,12,17,16,59,76,11,30,7,34,36,64,71,28,3,9,43,73,6,5,69,50,4,60,61,57,14,62,37,68,49,67,78,58,44",,,,,,,,,,
land,73,376828,0.0-26.0-2.0,"""event"",""trial"",""time""
""fullscreenenter"",""1"",""2897""
","
","
","""event"",""trial"",""time""
""fullscreenenter"",""1"",""2897""
","
",,null,run_exp/static/images/task_images/land.jpg,null,,,,,,,96,,,2,,,,,,,,,,,,,,
dig,74,378838,0.0-26.0-3.0,"""event"",""trial"",""time""
""fullscreenenter"",""1"",""2897""
","
","
","""event"",""trial"",""time""
""fullscreenenter"",""1"",""2897""
","
",,,,,,,,,,,,"[{""stimulus"":""run_exp/static/images/task_images/dig.jpg"",""time"":0.09999999403953552},{""stimulus"":""run_exp/static/images/task_images/land.jpg"",""time"":672.5},{""stimulus"":""run_exp/static/images/task_images/dig.jpg"",""time"":1339.5}]",[],2,,,,,,,,,,,,,,
harvest,75,379848,0.0-26.0-4.0,"""event"",""trial"",""time""
""fullscreenenter"",""1"",""2897""
","
","
","""event"",""trial"",""time""
""fullscreenenter"",""1"",""2897""
","
",,null,run_exp/static/images/task_images/gems/96.jpg,null,,,,,,,21,,,2,,,,,96,0.215118458,0.21875,,,,,,,
decision,76,380625,0.0-26.0-5.0,"""event"",""trial"",""time""
""fullscreenenter"",""1"",""2897""
","
","
","""event"",""trial"",""time""
""fullscreenenter"",""1"",""2897""
","
",,775.5,run_exp/static/images/task_images/land.jpg,65,,,,,,,21,,,2,,,,,,,,35899,1,0,FALSE,,,
dig,77,382864,0.0-27.0-0.0,"""event"",""trial"",""time""
""fullscreenenter"",""1"",""2897""
","
","
","""event"",""trial"",""time""
""fullscreenenter"",""1"",""2897""
","
",,,,,,,,,,,,"[{""stimulus"":""run_exp/static/images/task_images/dig.jpg"",""time"":0.20000000298023224},{""stimulus"":""run_exp/static/images/task_images/land.jpg"",""time"":744.2999999970198},{""stimulus"":""run_exp/static/images/task_images/dig.jpg"",""time"":1491.6000000014901}]",[],2,,,,,,,,,,,,,,
harvest,78,383872,0.0-27.0-1.0,"""event"",""trial"",""time""
""fullscreenenter"",""1"",""2897""
","
","
","""event"",""trial"",""time""
""fullscreenenter"",""1"",""2897""
","
",,null,run_exp/static/images/task_images/gems/21.jpg,null,,,,,,,5,,,2,,,,,21,0.241922892,0.238095238,,,,,,,
decision,79,384190,0.0-27.0-2.0,"""event"",""trial"",""time""
""fullscreenenter"",""1"",""2897""
","
","
","""event"",""trial"",""time""
""fullscreenenter"",""1"",""2897""
","
",,316.6,run_exp/static/images/task_images/land.jpg,65,,,,,,,5,,,2,,,,,,,,39464,1,1,FALSE,,,
dig,80,386888,0.0-28.0-0.0,"""event"",""trial"",""time""
""fullscreenenter"",""1"",""2897""
","
","
","""event"",""trial"",""time""
""fullscreenenter"",""1"",""2897""
","
",,,,,,,,,,,,"[{""stimulus"":""run_exp/static/images/task_images/dig.jpg"",""time"":0.19999999552965164},{""stimulus"":""run_exp/static/images/task_images/land.jpg"",""time"":895.6999999955297},{""stimulus"":""run_exp/static/images/task_images/dig.jpg"",""time"":1799}]",[],2,,,,,,,,,,,,,,
harvest,81,387891,0.0-28.0-1.0,"""event"",""trial"",""time""
""fullscreenenter"",""1"",""2897""
","
","
","""event"",""trial"",""time""
""fullscreenenter"",""1"",""2897""
","
",,null,run_exp/static/images/task_images/gems/5.jpg,null,,,,,,,1,,,2,,,,,5,0.184740556,0.2,,,,,,,
decision,82,387914,0.0-28.0-2.0,"""event"",""trial"",""time""
""fullscreenenter"",""1"",""2897""
","
","
","""event"",""trial"",""time""
""fullscreenenter"",""1"",""2897""
","
",,20.7,run_exp/static/images/task_images/land.jpg,76,,,,,,,1,,,2,,,,,,,,43188,1,2,TRUE,,,
travel,83,397896,0.0-29.0-0.0,"""event"",""trial"",""time""
""fullscreenenter"",""1"",""2897""
","
","
","""event"",""trial"",""time""
""fullscreenenter"",""1"",""2897""
","
",,,,,,,,,,,,"[{""stimulus"":""run_exp/static/images/task_images/rocket-01.jpg"",""time"":0.09999999403953552},{""stimulus"":""run_exp/static/images/task_images/rocket-02.jpg"",""time"":1110.3999999985099},{""stimulus"":""run_exp/static/images/task_images/rocket-03.jpg"",""time"":2223},{""stimulus"":""run_exp/static/images/task_images/rocket-04.jpg"",""time"":3331},{""stimulus"":""run_exp/static/images/task_images/rocket-05.jpg"",""time"":4443},{""stimulus"":""run_exp/static/images/task_images/rocket-06.jpg"",""time"":5545.0999999940395},{""stimulus"":""run_exp/static/images/task_images/rocket-07.jpg"",""time"":6649.5},{""stimulus"":""run_exp/static/images/task_images/rocket-08.jpg"",""time"":7763},{""stimulus"":""run_exp/static/images/task_images/rocket-09.jpg"",""time"":8875.09999999404}]",[],2,,,,,,,,,,,,,,
alien_welcome,84,402901,0.0-29.0-1.0,"""event"",""trial"",""time""
""fullscreenenter"",""1"",""2897""
","
","
","""event"",""trial"",""time""
""fullscreenenter"",""1"",""2897""
","
",,null,run_exp/static/images/task_images/aliens/old_aliens/planet/alien_planet-12.jpg,null,,,,,,,,,,,,,12,"55,53,12,17,16,59,76,11,30,7,34,36,64,71,28,3,9,43,73,6,5,69,50,4,60,61,57,14,62,37,68,49,67,78,58,44",,,,,,,,,,
land,85,403408,0.0-29.0-2.0,"""event"",""trial"",""time""
""fullscreenenter"",""1"",""2897""
","
","
","""event"",""trial"",""time""
""fullscreenenter"",""1"",""2897""
","
",,null,run_exp/static/images/task_images/land.jpg,null,,,,,,,102,,,3,,,,,,,,,,,,,,
dig,86,405413,0.0-29.0-3.0,"""event"",""trial"",""time""
""fullscreenenter"",""1"",""2897""
","
","
","""event"",""trial"",""time""
""fullscreenenter"",""1"",""2897""
","
",,,,,,,,,,,,"[{""stimulus"":""run_exp/static/images/task_images/dig.jpg"",""time"":0.09999999403953552},{""stimulus"":""run_exp/static/images/task_images/land.jpg"",""time"":677},{""stimulus"":""run_exp/static/images/task_images/dig.jpg"",""time"":1334.7999999970198}]",[],3,,,,,,,,,,,,,,
harvest,87,406423,0.0-29.0-4.0,"""event"",""trial"",""time""
""fullscreenenter"",""1"",""2897""
","
","
","""event"",""trial"",""time""
""fullscreenenter"",""1"",""2897""
","
",,null,run_exp/static/images/task_images/gems/102.jpg,null,,,,,,,51,,,3,,,,,102,0.499791727,0.5,,,,,,,
decision,88,406713,0.0-29.0-5.0,"""event"",""trial"",""time""
""fullscreenenter"",""1"",""2897""
","
","
","""event"",""trial"",""time""
""fullscreenenter"",""1"",""2897""
","
",,289.1,run_exp/static/images/task_images/land.jpg,65,,,,,,,51,,,3,,,,,,,,61988,1,0,FALSE,,,
dig,89,409430,0.0-30.0-0.0,"""event"",""trial"",""time""
""fullscreenenter"",""1"",""2897""
","
","
","""event"",""trial"",""time""
""fullscreenenter"",""1"",""2897""
","
",,,,,,,,,,,,"[{""stimulus"":""run_exp/static/images/task_images/dig.jpg"",""time"":0.10000000149011612},{""stimulus"":""run_exp/static/images/task_images/land.jpg"",""time"":916.7999999970198},{""stimulus"":""run_exp/static/images/task_images/dig.jpg"",""time"":1812.7999999970198}]",[],3,,,,,,,,,,,,,,
harvest,90,410440,0.0-30.0-1.0,"""event"",""trial"",""time""
""fullscreenenter"",""1"",""2897""
","
","
","""event"",""trial"",""time""
""fullscreenenter"",""1"",""2897""
","
",,null,run_exp/static/images/task_images/gems/51.jpg,null,,,,,,,28,,,3,,,,,51,0.553737449,0.549019608,,,,,,,
decision,91,410855,0.0-30.0-2.0,"""event"",""trial"",""time""
""fullscreenenter"",""1"",""2897""
","
","
","""event"",""trial"",""time""
""fullscreenenter"",""1"",""2897""
","
",,413.7,run_exp/static/images/task_images/land.jpg,65,,,,,,,28,,,3,,,,,,,,66129,1,1,FALSE,,,
dig,92,413456,0.0-31.0-0.0,"""event"",""trial"",""time""
""fullscreenenter"",""1"",""2897""
","
","
","""event"",""trial"",""time""
""fullscreenenter"",""1"",""2897""
","
",,,,,,,,,,,,"[{""stimulus"":""run_exp/static/images/task_images/dig.jpg"",""time"":0.19999999552965164},{""stimulus"":""run_exp/static/images/task_images/land.jpg"",""time"":869.6000000014901},{""stimulus"":""run_exp/static/images/task_images/dig.jpg"",""time"":1729.6999999955297}]",[],3,,,,,,,,,,,,,,
harvest,93,414463,0.0-31.0-1.0,"""event"",""trial"",""time""
""fullscreenenter"",""1"",""2897""
","
","
","""event"",""trial"",""time""
""fullscreenenter"",""1"",""2897""
","
",,null,run_exp/static/images/task_images/gems/28.jpg,null,,,,,,,14,,,3,,,,,28,0.509840162,0.5,,,,,,,
decision,94,414853,0.0-31.0-2.0,"""event"",""trial"",""time""
""fullscreenenter"",""1"",""2897""
","
","
","""event"",""trial"",""time""
""fullscreenenter"",""1"",""2897""
","
",,389.4,run_exp/static/images/task_images/land.jpg,65,,,,,,,14,,,3,,,,,,,,70127,1,2,FALSE,,,
dig,95,417475,0.0-32.0-0.0,"""event"",""trial"",""time""
""fullscreenenter"",""1"",""2897""
","
","
","""event"",""trial"",""time""
""fullscreenenter"",""1"",""2897""
","
",,,,,,,,,,,,"[{""stimulus"":""run_exp/static/images/task_images/dig.jpg"",""time"":0.30000000447034836},{""stimulus"":""run_exp/static/images/task_images/land.jpg"",""time"":878.5},{""stimulus"":""run_exp/static/images/task_images/dig.jpg"",""time"":1745.8000000044703}]",[],3,,,,,,,,,,,,,,
harvest,96,418484,0.0-32.0-1.0,"""event"",""trial"",""time""
""fullscreenenter"",""1"",""2897""
","
","
","""event"",""trial"",""time""
""fullscreenenter"",""1"",""2897""
","
",,null,run_exp/static/images/task_images/gems/14.jpg,null,,,,,,,7,,,3,,,,,14,0.471339499,0.5,,,,,,,
decision,97,418823,0.0-32.0-2.0,"""event"",""trial"",""time""
""fullscreenenter"",""1"",""2897""
","
","
","""event"",""trial"",""time""
""fullscreenenter"",""1"",""2897""
","
",,337.7,run_exp/static/images/task_images/land.jpg,65,,,,,,,7,,,3,,,,,,,,74098,1,3,FALSE,,,
dig,98,421495,0.0-33.0-0.0,"""event"",""trial"",""time""
""fullscreenenter"",""1"",""2897""
","
","
","""event"",""trial"",""time""
""fullscreenenter"",""1"",""2897""
","
",,,,,,,,,,,,"[{""stimulus"":""run_exp/static/images/task_images/dig.jpg"",""time"":0.10000000149011612},{""stimulus"":""run_exp/static/images/task_images/land.jpg"",""time"":896.7999999970198},{""stimulus"":""run_exp/static/images/task_images/dig.jpg"",""time"":1780.6000000014901}]",[],3,,,,,,,,,,,,,,
harvest,99,422500,0.0-33.0-1.0,"""event"",""trial"",""time""
""fullscreenenter"",""1"",""2897""
","
","
","""event"",""trial"",""time""
""fullscreenenter"",""1"",""2897""
","
",,null,run_exp/static/images/task_images/gems/7.jpg,null,,,,,,,3,,,3,,,,,7,0.46757147,0.428571429,,,,,,,
decision,100,422643,0.0-33.0-2.0,"""event"",""trial"",""time""
""fullscreenenter"",""1"",""2897""
","
","
","""event"",""trial"",""time""
""fullscreenenter"",""1"",""2897""
","
",,142.1,run_exp/static/images/task_images/land.jpg,76,,,,,,,3,,,3,,,,,,,,77917,1,4,TRUE,,,
travel,101,432510,0.0-34.0-0.0,"""event"",""trial"",""time""
""fullscreenenter"",""1"",""2897""
","
","
","""event"",""trial"",""time""
""fullscreenenter"",""1"",""2897""
","
",,,,,,,,,,,,"[{""stimulus"":""run_exp/static/images/task_images/rocket-01.jpg"",""time"":0.29999999701976776},{""stimulus"":""run_exp/static/images/task_images/rocket-02.jpg"",""time"":1103},{""stimulus"":""run_exp/static/images/task_images/rocket-03.jpg"",""time"":2195.7000000029802},{""stimulus"":""run_exp/static/images/task_images/rocket-04.jpg"",""time"":3295.7000000029802},{""stimulus"":""run_exp/static/images/task_images/rocket-05.jpg"",""time"":4391.39999999851},{""stimulus"":""run_exp/static/images/task_images/rocket-06.jpg"",""time"":5488.79999999702},{""stimulus"":""run_exp/static/images/task_images/rocket-07.jpg"",""time"":6572.60000000149},{""stimulus"":""run_exp/static/images/task_images/rocket-08.jpg"",""time"":7668.60000000149},{""stimulus"":""run_exp/static/images/task_images/rocket-09.jpg"",""time"":8764.89999999851}]",[],3,,,,,,,,,,,,,,
alien_welcome,102,437519,0.0-34.0-1.0,"""event"",""trial"",""time""
""fullscreenenter"",""1"",""2897""
","
","
","""event"",""trial"",""time""
""fullscreenenter"",""1"",""2897""
","
",,null,run_exp/static/images/task_images/aliens/old_aliens/planet/alien_planet-17.jpg,null,,,,,,,,,,,,,17,"55,53,12,17,16,59,76,11,30,7,34,36,64,71,28,3,9,43,73,6,5,69,50,4,60,61,57,14,62,37,68,49,67,78,58,44",,,,,,,,,,
land,103,438029,0.0-34.0-2.0,"""event"",""trial"",""time""
""fullscreenenter"",""1"",""2897""
","
","
","""event"",""trial"",""time""
""fullscreenenter"",""1"",""2897""
","
",,null,run_exp/static/images/task_images/land.jpg,null,,,,,,,90,,,4,,,,,,,,,,,,,,
dig,104,440039,0.0-34.0-3.0,"""event"",""trial"",""time""
""fullscreenenter"",""1"",""2897""
","
","
","""event"",""trial"",""time""
""fullscreenenter"",""1"",""2897""
","
",,,,,,,,,,,,"[{""stimulus"":""run_exp/static/images/task_images/dig.jpg"",""time"":0.10000000149011612},{""stimulus"":""run_exp/static/images/task_images/land.jpg"",""time"":669.6000000014901},{""stimulus"":""run_exp/static/images/task_images/dig.jpg"",""time"":1341.2000000029802}]",[],4,,,,,,,,,,,,,,
harvest,105,441044,0.0-34.0-4.0,"""event"",""trial"",""time""
""fullscreenenter"",""1"",""2897""
","
","
","""event"",""trial"",""time""
""fullscreenenter"",""1"",""2897""
","
",,null,run_exp/static/images/task_images/gems/90.jpg,null,,,,,,,48,,,4,,,,,90,0.532711381,0.533333333,,,,,,,
decision,106,441306,0.0-34.0-5.0,"""event"",""trial"",""time""
""fullscreenenter"",""1"",""2897""
","
","
","""event"",""trial"",""time""
""fullscreenenter"",""1"",""2897""
","
",,260.6,run_exp/static/images/task_images/land.jpg,65,,,,,,,48,,,4,,,,,,,,96580,1,0,FALSE,,,
dig,107,444050,0.0-35.0-0.0,"""event"",""trial"",""time""
""fullscreenenter"",""1"",""2897""
","
","
","""event"",""trial"",""time""
""fullscreenenter"",""1"",""2897""
","
",,,,,,,,,,,,"[{""stimulus"":""run_exp/static/images/task_images/dig.jpg"",""time"":0.10000000149011612},{""stimulus"":""run_exp/static/images/task_images/land.jpg"",""time"":923.2999999970198},{""stimulus"":""run_exp/static/images/task_images/dig.jpg"",""time"":1835.2999999970198}]",[],4,,,,,,,,,,,,,,
harvest,108,445053,0.0-35.0-1.0,"""event"",""trial"",""time""
""fullscreenenter"",""1"",""2897""
","
","
","""event"",""trial"",""time""
""fullscreenenter"",""1"",""2897""
","
",,null,run_exp/static/images/task_images/gems/48.jpg,null,,,,,,,22,,,4,,,,,48,0.454923305,0.458333333,,,,,,,
decision,109,445374,0.0-35.0-2.0,"""event"",""trial"",""time""
""fullscreenenter"",""1"",""2897""
","
","
","""event"",""trial"",""time""
""fullscreenenter"",""1"",""2897""
","
",,319.3,run_exp/static/images/task_images/land.jpg,65,,,,,,,22,,,4,,,,,,,,100648,1,1,FALSE,,,
dig,110,448063,0.0-36.0-0.0,"""event"",""trial"",""time""
""fullscreenenter"",""1"",""2897""
","
","
","""event"",""trial"",""time""
""fullscreenenter"",""1"",""2897""
","
",,,,,,,,,,,,"[{""stimulus"":""run_exp/static/images/task_images/dig.jpg"",""time"":0.19999999552965164},{""stimulus"":""run_exp/static/images/task_images/land.jpg"",""time"":901.0999999940395},{""stimulus"":""run_exp/static/images/task_images/dig.jpg"",""time"":1796.3999999985099}]",[],4,,,,,,,,,,,,,,
harvest,111,449069,0.0-36.0-1.0,"""event"",""trial"",""time""
""fullscreenenter"",""1"",""2897""
","
","
","""event"",""trial"",""time""
""fullscreenenter"",""1"",""2897""
","
",,null,run_exp/static/images/task_images/gems/22.jpg,null,,,,,,,10,,,4,,,,,22,0.469635029,0.454545455,,,,,,,
decision,112,449367,0.0-36.0-2.0,"""event"",""trial"",""time""
""fullscreenenter"",""1"",""2897""
","
","
","""event"",""trial"",""time""
""fullscreenenter"",""1"",""2897""
","
",,296,run_exp/static/images/task_images/land.jpg,76,,,,,,,10,,,4,,,,,,,,104641,1,2,TRUE,,,
travel,113,459078,0.0-37.0-0.0,"""event"",""trial"",""time""
""fullscreenenter"",""1"",""2897""
","
","
","""event"",""trial"",""time""
""fullscreenenter"",""1"",""2897""
","
",,,,,,,,,,,,"[{""stimulus"":""run_exp/static/images/task_images/rocket-01.jpg"",""time"":0.10000000149011612},{""stimulus"":""run_exp/static/images/task_images/rocket-02.jpg"",""time"":1080.1999999955297},{""stimulus"":""run_exp/static/images/task_images/rocket-03.jpg"",""time"":2160.5},{""stimulus"":""run_exp/static/images/task_images/rocket-04.jpg"",""time"":3240.6999999955297},{""stimulus"":""run_exp/static/images/task_images/rocket-05.jpg"",""time"":4324.60000000149},{""stimulus"":""run_exp/static/images/task_images/rocket-06.jpg"",""time"":5392.60000000149},{""stimulus"":""run_exp/static/images/task_images/rocket-07.jpg"",""time"":6473.60000000149},{""stimulus"":""run_exp/static/images/task_images/rocket-08.jpg"",""time"":7552.79999999702},{""stimulus"":""run_exp/static/images/task_images/rocket-09.jpg"",""time"":8635.5}]",[],4,,,,,,,,,,,,,,
alien_welcome,114,464082,0.0-37.0-1.0,"""event"",""trial"",""time""
""fullscreenenter"",""1"",""2897""
","
","
","""event"",""trial"",""time""
""fullscreenenter"",""1"",""2897""
","
",,null,run_exp/static/images/task_images/aliens/old_aliens/planet/alien_planet-16.jpg,null,,,,,,,,,,,,,16,"55,53,12,17,16,59,76,11,30,7,34,36,64,71,28,3,9,43,73,6,5,69,50,4,60,61,57,14,62,37,68,49,67,78,58,44",,,,,,,,,,
land,115,464591,0.0-37.0-2.0,"""event"",""trial"",""time""
""fullscreenenter"",""1"",""2897""
","
","
","""event"",""trial"",""time""
""fullscreenenter"",""1"",""2897""
","
",,null,run_exp/static/images/task_images/land.jpg,null,,,,,,,101,,,5,,,,,,,,,,,,,,
dig,116,466602,0.0-37.0-3.0,"""event"",""trial"",""time""
""fullscreenenter"",""1"",""2897""
","
","
","""event"",""trial"",""time""
""fullscreenenter"",""1"",""2897""
","
",,,,,,,,,,,,"[{""stimulus"":""run_exp/static/images/task_images/dig.jpg"",""time"":0.30000000447034836},{""stimulus"":""run_exp/static/images/task_images/land.jpg"",""time"":673.8000000044703},{""stimulus"":""run_exp/static/images/task_images/dig.jpg"",""time"":1338}]",[],5,,,,,,,,,,,,,,
harvest,117,467615,0.0-37.0-4.0,"""event"",""trial"",""time""
""fullscreenenter"",""1"",""2897""
","
","
","""event"",""trial"",""time""
""fullscreenenter"",""1"",""2897""
","
",,null,run_exp/static/images/task_images/gems/101.jpg,null,,,,,,,44,,,5,,,,,101,0.435356275,0.435643564,,,,,,,
decision,118,468133,0.0-37.0-5.0,"""event"",""trial"",""time""
""fullscreenenter"",""1"",""2897""
","
","
","""event"",""trial"",""time""
""fullscreenenter"",""1"",""2897""
","
",,516.7,run_exp/static/images/task_images/land.jpg,65,,,,,,,44,,,5,,,,,,,,123407,1,0,FALSE,,,
dig,119,470628,0.0-38.0-0.0,"""event"",""trial"",""time""
""fullscreenenter"",""1"",""2897""
","
","
","""event"",""trial"",""time""
""fullscreenenter"",""1"",""2897""
","
",,,,,,,,,,,,"[{""stimulus"":""run_exp/static/images/task_images/dig.jpg"",""time"":0.30000000447034836},{""stimulus"":""run_exp/static/images/task_images/land.jpg"",""time"":831.4000000059605},{""stimulus"":""run_exp/static/images/task_images/dig.jpg"",""time"":1662.4000000059605}]",[],5,,,,,,,,,,,,,,
harvest,120,471636,0.0-38.0-1.0,"""event"",""trial"",""time""
""fullscreenenter"",""1"",""2897""
","
","
","""event"",""trial"",""time""
""fullscreenenter"",""1"",""2897""
","
",,null,run_exp/static/images/task_images/gems/44.jpg,null,,,,,,,22,,,5,,,,,44,0.497981121,0.5,,,,,,,
decision,121,471833,0.0-38.0-2.0,"""event"",""trial"",""time""
""fullscreenenter"",""1"",""2897""
","
","
","""event"",""trial"",""time""
""fullscreenenter"",""1"",""2897""
","
",,194.9,run_exp/static/images/task_images/land.jpg,65,,,,,,,22,,,5,,,,,,,,127107,1,1,FALSE,,,
dig,122,474649,0.0-39.0-0.0,"""event"",""trial"",""time""
""fullscreenenter"",""1"",""2897""
","
","
","""event"",""trial"",""time""
""fullscreenenter"",""1"",""2897""
","
",,,,,,,,,,,,"[{""stimulus"":""run_exp/static/images/task_images/dig.jpg"",""time"":0.10000000149011612},{""stimulus"":""run_exp/static/images/task_images/land.jpg"",""time"":942.2000000029802},{""stimulus"":""run_exp/static/images/task_images/dig.jpg"",""time"":1878.8000000044703}]",[],5,,,,,,,,,,,,,,
harvest,123,475659,0.0-39.0-1.0,"""event"",""trial"",""time""
""fullscreenenter"",""1"",""2897""
","
","
","""event"",""trial"",""time""
""fullscreenenter"",""1"",""2897""
","
",,null,run_exp/static/images/task_images/gems/22.jpg,null,,,,,,,10,,,5,,,,,22,0.456026757,0.454545455,,,,,,,
decision,124,476038,0.0-39.0-2.0,"""event"",""trial"",""time""
""fullscreenenter"",""1"",""2897""
","
","
","""event"",""trial"",""time""
""fullscreenenter"",""1"",""2897""
","
",,377.7,run_exp/static/images/task_images/land.jpg,65,,,,,,,10,,,5,,,,,,,,131312,1,2,FALSE,,,
dig,125,478670,0.0-40.0-0.0,"""event"",""trial"",""time""
""fullscreenenter"",""1"",""2897""
","
","
","""event"",""trial"",""time""
""fullscreenenter"",""1"",""2897""
","
",,,,,,,,,,,,"[{""stimulus"":""run_exp/static/images/task_images/dig.jpg"",""time"":0.10000000149011612},{""stimulus"":""run_exp/static/images/task_images/land.jpg"",""time"":887.2000000029802},{""stimulus"":""run_exp/static/images/task_images/dig.jpg"",""time"":1759.2000000029802}]",[],5,,,,,,,,,,,,,,
harvest,126,479677,0.0-40.0-1.0,"""event"",""trial"",""time""
""fullscreenenter"",""1"",""2897""
","
","
","""event"",""trial"",""time""
""fullscreenenter"",""1"",""2897""
","
",,null,run_exp/static/images/task_images/gems/10.jpg,null,,,,,,,5,,,5,,,,,10,0.500366074,0.5,,,,,,,
decision,127,480003,0.0-40.0-2.0,"""event"",""trial"",""time""
""fullscreenenter"",""1"",""2897""
","
","
","""event"",""trial"",""time""
""fullscreenenter"",""1"",""2897""
","
",,324.3,run_exp/static/images/task_images/land.jpg,76,,,,,,,5,,,5,,,,,,,,135277,1,3,TRUE,,,
travel,128,489689,0.0-41.0-0.0,"""event"",""trial"",""time""
""fullscreenenter"",""1"",""2897""
","
","
","""event"",""trial"",""time""
""fullscreenenter"",""1"",""2897""
","
",,,,,,,,,,,,"[{""stimulus"":""run_exp/static/images/task_images/rocket-01.jpg"",""time"":0.10000000149011612},{""stimulus"":""run_exp/static/images/task_images/rocket-02.jpg"",""time"":1085.6000000014901},{""stimulus"":""run_exp/static/images/task_images/rocket-03.jpg"",""time"":2158.3000000044703},{""stimulus"":""run_exp/static/images/task_images/rocket-04.jpg"",""time"":3230.3000000044703},{""stimulus"":""run_exp/static/images/task_images/rocket-05.jpg"",""time"":4308.60000000149},{""stimulus"":""run_exp/static/images/task_images/rocket-06.jpg"",""time"":5384.39999999851},{""stimulus"":""run_exp/static/images/task_images/rocket-07.jpg"",""time"":6451.70000000298},{""stimulus"":""run_exp/static/images/task_images/rocket-08.jpg"",""time"":7532.30000000447},{""stimulus"":""run_exp/static/images/task_images/rocket-09.jpg"",""time"":8608}]",[],5,,,,,,,,,,,,,,
alien_welcome,129,494700,0.0-41.0-1.0,"""event"",""trial"",""time""
""fullscreenenter"",""1"",""2897""
","
","
","""event"",""trial"",""time""
""fullscreenenter"",""1"",""2897""
","
",,null,run_exp/static/images/task_images/aliens/old_aliens/planet/alien_planet-59.jpg,null,,,,,,,,,,,,,59,"55,53,12,17,16,59,76,11,30,7,34,36,64,71,28,3,9,43,73,6,5,69,50,4,60,61,57,14,62,37,68,49,67,78,58,44",,,,,,,,,,
land,130,495210,0.0-41.0-2.0,"""event"",""trial"",""time""
""fullscreenenter"",""1"",""2897""
","
","
","""event"",""trial"",""time""
""fullscreenenter"",""1"",""2897""
","
",,null,run_exp/static/images/task_images/land.jpg,null,,,,,,,96,,,6,,,,,,,,,,,,,,
dig,131,497221,0.0-41.0-3.0,"""event"",""trial"",""time""
""fullscreenenter"",""1"",""2897""
","
","
","""event"",""trial"",""time""
""fullscreenenter"",""1"",""2897""
","
",,,,,,,,,,,,"[{""stimulus"":""run_exp/static/images/task_images/dig.jpg"",""time"":0.20000000298023224},{""stimulus"":""run_exp/static/images/task_images/land.jpg"",""time"":672.3999999985099},{""stimulus"":""run_exp/static/images/task_images/dig.jpg"",""time"":1336.8999999985099}]",[],6,,,,,,,,,,,,,,
harvest,132,498228,0.0-41.0-4.0,"""event"",""trial"",""time""
""fullscreenenter"",""1"",""2897""
","
","
","""event"",""trial"",""time""
""fullscreenenter"",""1"",""2897""
","
",,null,run_exp/static/images/task_images/gems/96.jpg,null,,,,,,,78,,,6,,,,,96,0.809525259,0.8125,,,,,,,
decision,133,498734,0.0-41.0-5.0,"""event"",""trial"",""time""
""fullscreenenter"",""1"",""2897""
","
","
","""event"",""trial"",""time""
""fullscreenenter"",""1"",""2897""
","
",,504.6,run_exp/static/images/task_images/land.jpg,65,,,,,,,78,,,6,,,,,,,,154008,1,0,FALSE,,,
dig,134,501238,0.0-42.0-0.0,"""event"",""trial"",""time""
""fullscreenenter"",""1"",""2897""
","
","
","""event"",""trial"",""time""
""fullscreenenter"",""1"",""2897""
","
",,,,,,,,,,,,"[{""stimulus"":""run_exp/static/images/task_images/dig.jpg"",""time"":0.10000000149011612},{""stimulus"":""run_exp/static/images/task_images/land.jpg"",""time"":836.8999999985099},{""stimulus"":""run_exp/static/images/task_images/dig.jpg"",""time"":1670.1000000014901}]",[],6,,,,,,,,,,,,,,
harvest,135,502246,0.0-42.0-1.0,"""event"",""trial"",""time""
""fullscreenenter"",""1"",""2897""
","
","
","""event"",""trial"",""time""
""fullscreenenter"",""1"",""2897""
","
",,null,run_exp/static/images/task_images/gems/78.jpg,null,,,,,,,61,,,6,,,,,78,0.782670669,0.782051282,,,,,,,
decision,136,502524,0.0-42.0-2.0,"""event"",""trial"",""time""
""fullscreenenter"",""1"",""2897""
","
","
","""event"",""trial"",""time""
""fullscreenenter"",""1"",""2897""
","
",,276.4,run_exp/static/images/task_images/land.jpg,65,,,,,,,61,,,6,,,,,,,,157798,1,1,FALSE,,,
dig,137,505257,0.0-43.0-0.0,"""event"",""trial"",""time""
""fullscreenenter"",""1"",""2897""
","
","
","""event"",""trial"",""time""
""fullscreenenter"",""1"",""2897""
","
",,,,,,,,,,,,"[{""stimulus"":""run_exp/static/images/task_images/dig.jpg"",""time"":0.19999999552965164},{""stimulus"":""run_exp/static/images/task_images/land.jpg"",""time"":913.6999999955297},{""stimulus"":""run_exp/static/images/task_images/dig.jpg"",""time"":1821.6000000014901}]",[],6,,,,,,,,,,,,,,
harvest,138,506266,0.0-43.0-1.0,"""event"",""trial"",""time""
""fullscreenenter"",""1"",""2897""
","
","
","""event"",""trial"",""time""
""fullscreenenter"",""1"",""2897""
","
",,null,run_exp/static/images/task_images/gems/61.jpg,null,,,,,,,50,,,6,,,,,61,0.825113236,0.819672131,,,,,,,
decision,139,506584,0.0-43.0-2.0,"""event"",""trial"",""time""
""fullscreenenter"",""1"",""2897""
","
","
","""event"",""trial"",""time""
""fullscreenenter"",""1"",""2897""
","
",,316.6,run_exp/static/images/task_images/land.jpg,65,,,,,,,50,,,6,,,,,,,,161858,1,2,FALSE,,,
dig,140,509274,0.0-44.0-0.0,"""event"",""trial"",""time""
""fullscreenenter"",""1"",""2897""
","
","
","""event"",""trial"",""time""
""fullscreenenter"",""1"",""2897""
","
",,,,,,,,,,,,"[{""stimulus"":""run_exp/static/images/task_images/dig.jpg"",""time"":0.19999999552965164},{""stimulus"":""run_exp/static/images/task_images/land.jpg"",""time"":895.8999999985099},{""stimulus"":""run_exp/static/images/task_images/dig.jpg"",""time"":1795.1000000014901}]",[],6,,,,,,,,,,,,,,
harvest,141,510286,0.0-44.0-1.0,"""event"",""trial"",""time""
""fullscreenenter"",""1"",""2897""
","
","
","""event"",""trial"",""time""
""fullscreenenter"",""1"",""2897""
","
",,null,run_exp/static/images/task_images/gems/50.jpg,null,,,,,,,37,,,6,,,,,50,0.738069821,0.74,,,,,,,
decision,142,510565,0.0-44.0-2.0,"""event"",""trial"",""time""
""fullscreenenter"",""1"",""2897""
","
","
","""event"",""trial"",""time""
""fullscreenenter"",""1"",""2897""
","
",,277.8,run_exp/static/images/task_images/land.jpg,65,,,,,,,37,,,6,,,,,,,,165839,1,3,FALSE,,,
dig,143,513299,0.0-45.0-0.0,"""event"",""trial"",""time""
""fullscreenenter"",""1"",""2897""
","
","
","""event"",""trial"",""time""
""fullscreenenter"",""1"",""2897""
","
",,,,,,,,,,,,"[{""stimulus"":""run_exp/static/images/task_images/dig.jpg"",""time"":0.20000000298023224},{""stimulus"":""run_exp/static/images/task_images/land.jpg"",""time"":916.5},{""stimulus"":""run_exp/static/images/task_images/dig.jpg"",""time"":1821.1000000014901}]",[],6,,,,,,,,,,,,,,
harvest,144,514310,0.0-45.0-1.0,"""event"",""trial"",""time""
""fullscreenenter"",""1"",""2897""
","
","
","""event"",""trial"",""time""
""fullscreenenter"",""1"",""2897""
","
",,null,run_exp/static/images/task_images/gems/37.jpg,null,,,,,,,29,,,6,,,,,37,0.772166537,0.783783784,,,,,,,
decision,145,514523,0.0-45.0-2.0,"""event"",""trial"",""time""
""fullscreenenter"",""1"",""2897""
","
","
","""event"",""trial"",""time""
""fullscreenenter"",""1"",""2897""
","
",,211.1,run_exp/static/images/task_images/land.jpg,65,,,,,,,29,,,6,,,,,,,,169797,1,4,FALSE,,,
dig,146,517326,0.0-46.0-0.0,"""event"",""trial"",""time""
""fullscreenenter"",""1"",""2897""
","
","
","""event"",""trial"",""time""
""fullscreenenter"",""1"",""2897""
","
",,,,,,,,,,,,"[{""stimulus"":""run_exp/static/images/task_images/dig.jpg"",""time"":0.30000000447034836},{""stimulus"":""run_exp/static/images/task_images/land.jpg"",""time"":935.8000000044703},{""stimulus"":""run_exp/static/images/task_images/dig.jpg"",""time"":1871.8000000044703}]",[],6,,,,,,,,,,,,,,
harvest,147,518333,0.0-46.0-1.0,"""event"",""trial"",""time""
""fullscreenenter"",""1"",""2897""
","
","
","""event"",""trial"",""time""
""fullscreenenter"",""1"",""2897""
","
",,null,run_exp/static/images/task_images/gems/29.jpg,null,,,,,,,23,,,6,,,,,29,0.787499727,0.793103448,,,,,,,
decision,148,518584,0.0-46.0-2.0,"""event"",""trial"",""time""
""fullscreenenter"",""1"",""2897""
","
","
","""event"",""trial"",""time""
""fullscreenenter"",""1"",""2897""
","
",,249.5,run_exp/static/images/task_images/land.jpg,65,,,,,,,23,,,6,,,,,,,,173858,1,5,FALSE,,,
dig,149,521341,0.0-47.0-0.0,"""event"",""trial"",""time""
""fullscreenenter"",""1"",""2897""
","
","
","""event"",""trial"",""time""
""fullscreenenter"",""1"",""2897""
","
",,,,,,,,,,,,"[{""stimulus"":""run_exp/static/images/task_images/dig.jpg"",""time"":0.10000000149011612},{""stimulus"":""run_exp/static/images/task_images/land.jpg"",""time"":918.7999999970198},{""stimulus"":""run_exp/static/images/task_images/dig.jpg"",""time"":1842.6000000014901}]",[],6,,,,,,,,,,,,,,
harvest,150,522346,0.0-47.0-1.0,"""event"",""trial"",""time""
""fullscreenenter"",""1"",""2897""
","
","
","""event"",""trial"",""time""
""fullscreenenter"",""1"",""2897""
","
",,null,run_exp/static/images/task_images/gems/23.jpg,null,,,,,,,18,,,6,,,,,23,0.787628523,0.782608696,,,,,,,
decision,151,522502,0.0-47.0-2.0,"""event"",""trial"",""time""
""fullscreenenter"",""1"",""2897""
","
","
","""event"",""trial"",""time""
""fullscreenenter"",""1"",""2897""
","
",,154,run_exp/static/images/task_images/land.jpg,65,,,,,,,18,,,6,,,,,,,,177776,1,6,FALSE,,,
dig,152,525358,0.0-48.0-0.0,"""event"",""trial"",""time""
""fullscreenenter"",""1"",""2897""
","
","
","""event"",""trial"",""time""
""fullscreenenter"",""1"",""2897""
","
",,,,,,,,,,,,"[{""stimulus"":""run_exp/static/images/task_images/dig.jpg"",""time"":0.10000000149011612},{""stimulus"":""run_exp/static/images/task_images/land.jpg"",""time"":955.7000000029802},{""stimulus"":""run_exp/static/images/task_images/dig.jpg"",""time"":1904}]",[],6,,,,,,,,,,,,,,
harvest,153,526366,0.0-48.0-1.0,"""event"",""trial"",""time""
""fullscreenenter"",""1"",""2897""
","
","
","""event"",""trial"",""time""
""fullscreenenter"",""1"",""2897""
","
",,null,run_exp/static/images/task_images/gems/18.jpg,null,,,,,,,16,,,6,,,,,18,0.883938019,0.888888889,,,,,,,
decision,154,526607,0.0-48.0-2.0,"""event"",""trial"",""time""
""fullscreenenter"",""1"",""2897""
","
","
","""event"",""trial"",""time""
""fullscreenenter"",""1"",""2897""
","
",,239.6,run_exp/static/images/task_images/land.jpg,65,,,,,,,16,,,6,,,,,,,,181881,1,7,FALSE,,,
dig,155,529377,0.0-49.0-0.0,"""event"",""trial"",""time""
""fullscreenenter"",""1"",""2897""
","
","
","""event"",""trial"",""time""
""fullscreenenter"",""1"",""2897""
","
",,,,,,,,,,,,"[{""stimulus"":""run_exp/static/images/task_images/dig.jpg"",""time"":0.19999999552965164},{""stimulus"":""run_exp/static/images/task_images/land.jpg"",""time"":931},{""stimulus"":""run_exp/static/images/task_images/dig.jpg"",""time"":1851}]",[],6,,,,,,,,,,,,,,
harvest,156,530385,0.0-49.0-1.0,"""event"",""trial"",""time""
""fullscreenenter"",""1"",""2897""
","
","
","""event"",""trial"",""time""
""fullscreenenter"",""1"",""2897""
","
",,null,run_exp/static/images/task_images/gems/16.jpg,null,,,,,,,12,,,6,,,,,16,0.745436788,0.75,,,,,,,
decision,157,530699,0.0-49.0-2.0,"""event"",""trial"",""time""
""fullscreenenter"",""1"",""2897""
","
","
","""event"",""trial"",""time""
""fullscreenenter"",""1"",""2897""
","
",,313.1,run_exp/static/images/task_images/land.jpg,65,,,,,,,12,,,6,,,,,,,,185973,1,8,FALSE,,,
dig,158,533394,0.0-50.0-0.0,"""event"",""trial"",""time""
""fullscreenenter"",""1"",""2897""
","
","
","""event"",""trial"",""time""
""fullscreenenter"",""1"",""2897""
","
",,,,,,,,,,,,"[{""stimulus"":""run_exp/static/images/task_images/dig.jpg"",""time"":0.10000000149011612},{""stimulus"":""run_exp/static/images/task_images/land.jpg"",""time"":900.7999999970198},{""stimulus"":""run_exp/static/images/task_images/dig.jpg"",""time"":1797.7999999970198}]",[],6,,,,,,,,,,,,,,
harvest,159,534406,0.0-50.0-1.0,"""event"",""trial"",""time""
""fullscreenenter"",""1"",""2897""
","
","
","""event"",""trial"",""time""
""fullscreenenter"",""1"",""2897""
","
",,null,run_exp/static/images/task_images/gems/12.jpg,null,,,,,,,10,,,6,,,,,12,0.820626266,0.833333333,,,,,,,
decision,160,534662,0.0-50.0-2.0,"""event"",""trial"",""time""
""fullscreenenter"",""1"",""2897""
","
","
","""event"",""trial"",""time""
""fullscreenenter"",""1"",""2897""
","
",,255.2,run_exp/static/images/task_images/land.jpg,65,,,,,,,10,,,6,,,,,,,,189936,1,9,FALSE,,,
dig,161,537409,0.0-51.0-0.0,"""event"",""trial"",""time""
""fullscreenenter"",""1"",""2897""
","
","
","""event"",""trial"",""time""
""fullscreenenter"",""1"",""2897""
","
",,,,,,,,,,,,"[{""stimulus"":""run_exp/static/images/task_images/dig.jpg"",""time"":0.20000000298023224},{""stimulus"":""run_exp/static/images/task_images/land.jpg"",""time"":924.4000000059605},{""stimulus"":""run_exp/static/images/task_images/dig.jpg"",""time"":1829.9000000059605}]",[],6,,,,,,,,,,,,,,
harvest,162,538422,0.0-51.0-1.0,"""event"",""trial"",""time""
""fullscreenenter"",""1"",""2897""
","
","
","""event"",""trial"",""time""
""fullscreenenter"",""1"",""2897""
","
",,null,run_exp/static/images/task_images/gems/10.jpg,null,,,,,,,9,,,6,,,,,10,0.883558102,0.9,,,,,,,
decision,163,538705,0.0-51.0-2.0,"""event"",""trial"",""time""
""fullscreenenter"",""1"",""2897""
","
","
","""event"",""trial"",""time""
""fullscreenenter"",""1"",""2897""
","
",,281.9,run_exp/static/images/task_images/land.jpg,76,,,,,,,9,,,6,,,,,,,,193979,1,10,TRUE,,,
travel,164,548427,0.0-52.0-0.0,"""event"",""trial"",""time""
""fullscreenenter"",""1"",""2897""
","
","
","""event"",""trial"",""time""
""fullscreenenter"",""1"",""2897""
","
",,,,,,,,,,,,"[{""stimulus"":""run_exp/static/images/task_images/rocket-01.jpg"",""time"":0.20000000298023224},{""stimulus"":""run_exp/static/images/task_images/rocket-02.jpg"",""time"":1084.3000000044703},{""stimulus"":""run_exp/static/images/task_images/rocket-03.jpg"",""time"":2166.2000000029802},{""stimulus"":""run_exp/static/images/task_images/rocket-04.jpg"",""time"":3248.8000000044703},{""stimulus"":""run_exp/static/images/task_images/rocket-05.jpg"",""time"":4327.20000000298},{""stimulus"":""run_exp/static/images/task_images/rocket-06.jpg"",""time"":5403.80000000447},{""stimulus"":""run_exp/static/images/task_images/rocket-07.jpg"",""time"":6480.5},{""stimulus"":""run_exp/static/images/task_images/rocket-08.jpg"",""time"":7556.80000000447},{""stimulus"":""run_exp/static/images/task_images/rocket-09.jpg"",""time"":8636.80000000447}]",[],6,,,,,,,,,,,,,,
alien_welcome,165,553437,0.0-52.0-1.0,"""event"",""trial"",""time""
""fullscreenenter"",""1"",""2897""
","
","
","""event"",""trial"",""time""
""fullscreenenter"",""1"",""2897""
","
",,null,run_exp/static/images/task_images/aliens/old_aliens/planet/alien_planet-76.jpg,null,,,,,,,,,,,,,76,"55,53,12,17,16,59,76,11,30,7,34,36,64,71,28,3,9,43,73,6,5,69,50,4,60,61,57,14,62,37,68,49,67,78,58,44",,,,,,,,,,
land,166,553948,0.0-52.0-2.0,"""event"",""trial"",""time""
""fullscreenenter"",""1"",""2897""
","
","
","""event"",""trial"",""time""
""fullscreenenter"",""1"",""2897""
","
",,null,run_exp/static/images/task_images/land.jpg,null,,,,,,,107,,,7,,,,,,,,,,,,,,
dig,167,555957,0.0-52.0-3.0,"""event"",""trial"",""time""
""fullscreenenter"",""1"",""2897""
","
","
","""event"",""trial"",""time""
""fullscreenenter"",""1"",""2897""
","
",,,,,,,,,,,,"[{""stimulus"":""run_exp/static/images/task_images/dig.jpg"",""time"":0.20000000298023224},{""stimulus"":""run_exp/static/images/task_images/land.jpg"",""time"":676},{""stimulus"":""run_exp/static/images/task_images/dig.jpg"",""time"":1340.8000000044703}]",[],7,,,,,,,,,,,,,,
harvest,168,556965,0.0-52.0-4.0,"""event"",""trial"",""time""
""fullscreenenter"",""1"",""2897""
","
","
","""event"",""trial"",""time""
""fullscreenenter"",""1"",""2897""
","
",,null,run_exp/static/images/task_images/gems/107.jpg,null,,,,,,,81,,,7,,,,,107,0.75764371,0.757009346,,,,,,,
decision,169,557372,0.0-52.0-5.0,"""event"",""trial"",""time""
""fullscreenenter"",""1"",""2897""
","
","
","""event"",""trial"",""time""
""fullscreenenter"",""1"",""2897""
","
",,405.9,run_exp/static/images/task_images/land.jpg,65,,,,,,,81,,,7,,,,,,,,212647,1,0,FALSE,,,
dig,170,559979,0.0-53.0-0.0,"""event"",""trial"",""time""
""fullscreenenter"",""1"",""2897""
","
","
","""event"",""trial"",""time""
""fullscreenenter"",""1"",""2897""
","
",,,,,,,,,,,,"[{""stimulus"":""run_exp/static/images/task_images/dig.jpg"",""time"":0.19999999552965164},{""stimulus"":""run_exp/static/images/task_images/land.jpg"",""time"":865.8999999985099},{""stimulus"":""run_exp/static/images/task_images/dig.jpg"",""time"":1741}]",[],7,,,,,,,,,,,,,,
harvest,171,560988,0.0-53.0-1.0,"""event"",""trial"",""time""
""fullscreenenter"",""1"",""2897""
","
","
","""event"",""trial"",""time""
""fullscreenenter"",""1"",""2897""
","
",,null,run_exp/static/images/task_images/gems/81.jpg,null,,,,,,,59,,,7,,,,,81,0.728953811,0.728395062,,,,,,,
decision,172,561257,0.0-53.0-2.0,"""event"",""trial"",""time""
""fullscreenenter"",""1"",""2897""
","
","
","""event"",""trial"",""time""
""fullscreenenter"",""1"",""2897""
","
",,267.8,run_exp/static/images/task_images/land.jpg,65,,,,,,,59,,,7,,,,,,,,216531,1,1,FALSE,,,
dig,173,563997,0.0-54.0-0.0,"""event"",""trial"",""time""
""fullscreenenter"",""1"",""2897""
","
","
","""event"",""trial"",""time""
""fullscreenenter"",""1"",""2897""
","
",,,,,,,,,,,,"[{""stimulus"":""run_exp/static/images/task_images/dig.jpg"",""time"":0.09999999403953552},{""stimulus"":""run_exp/static/images/task_images/land.jpg"",""time"":922.5999999940395},{""stimulus"":""run_exp/static/images/task_images/dig.jpg"",""time"":1822.0999999940395}]",[],7,,,,,,,,,,,,,,
harvest,174,565005,0.0-54.0-1.0,"""event"",""trial"",""time""
""fullscreenenter"",""1"",""2897""
","
","
","""event"",""trial"",""time""
""fullscreenenter"",""1"",""2897""
","
",,null,run_exp/static/images/task_images/gems/59.jpg,null,,,,,,,44,,,7,,,,,59,0.744951413,0.745762712,,,,,,,
decision,175,565297,0.0-54.0-2.0,"""event"",""trial"",""time""
""fullscreenenter"",""1"",""2897""
","
","
","""event"",""trial"",""time""
""fullscreenenter"",""1"",""2897""
","
",,290.6,run_exp/static/images/task_images/land.jpg,65,,,,,,,44,,,7,,,,,,,,220572,1,2,FALSE,,,
dig,176,568016,0.0-55.0-0.0,"""event"",""trial"",""time""
""fullscreenenter"",""1"",""2897""
","
","
","""event"",""trial"",""time""
""fullscreenenter"",""1"",""2897""
","
",,,,,,,,,,,,"[{""stimulus"":""run_exp/static/images/task_images/dig.jpg"",""time"":0.19999999552965164},{""stimulus"":""run_exp/static/images/task_images/land.jpg"",""time"":912},{""stimulus"":""run_exp/static/images/task_images/dig.jpg"",""time"":1816}]",[],7,,,,,,,,,,,,,,
harvest,177,569024,0.0-55.0-1.0,"""event"",""trial"",""time""
""fullscreenenter"",""1"",""2897""
","
","
","""event"",""trial"",""time""
""fullscreenenter"",""1"",""2897""
","
",,null,run_exp/static/images/task_images/gems/44.jpg,null,,,,,,,39,,,7,,,,,44,0.894695901,0.886363636,,,,,,,
decision,178,569607,0.0-55.0-2.0,"""event"",""trial"",""time""
""fullscreenenter"",""1"",""2897""
","
","
","""event"",""trial"",""time""
""fullscreenenter"",""1"",""2897""
","
",,581.8,run_exp/static/images/task_images/land.jpg,65,,,,,,,39,,,7,,,,,,,,224882,1,3,FALSE,,,
dig,179,572037,0.0-56.0-0.0,"""event"",""trial"",""time""
""fullscreenenter"",""1"",""2897""
","
","
","""event"",""trial"",""time""
""fullscreenenter"",""1"",""2897""
","
",,,,,,,,,,,,"[{""stimulus"":""run_exp/static/images/task_images/dig.jpg"",""time"":0.09999999403953552},{""stimulus"":""run_exp/static/images/task_images/land.jpg"",""time"":810.0999999940395},{""stimulus"":""run_exp/static/images/task_images/dig.jpg"",""time"":1618}]",[],7,,,,,,,,,,,,,,
harvest,180,573045,0.0-56.0-1.0,"""event"",""trial"",""time""
""fullscreenenter"",""1"",""2897""
","
","
","""event"",""trial"",""time""
""fullscreenenter"",""1"",""2897""
","
",,null,run_exp/static/images/task_images/gems/39.jpg,null,,,,,,,34,,,7,,,,,39,0.867540511,0.871794872,,,,,,,
decision,181,573352,0.0-56.0-2.0,"""event"",""trial"",""time""
""fullscreenenter"",""1"",""2897""
","
","
","""event"",""trial"",""time""
""fullscreenenter"",""1"",""2897""
","
",,304.9,run_exp/static/images/task_images/land.jpg,65,,,,,,,34,,,7,,,,,,,,228626,1,4,FALSE,,,
dig,182,576059,0.0-57.0-0.0,"""event"",""trial"",""time""
""fullscreenenter"",""1"",""2897""
","
","
","""event"",""trial"",""time""
""fullscreenenter"",""1"",""2897""
","
",,,,,,,,,,,,"[{""stimulus"":""run_exp/static/images/task_images/dig.jpg"",""time"":0.10000000149011612},{""stimulus"":""run_exp/static/images/task_images/land.jpg"",""time"":904.2000000029802},{""stimulus"":""run_exp/static/images/task_images/dig.jpg"",""time"":1804.2999999970198}]",[],7,,,,,,,,,,,,,,
harvest,183,577067,0.0-57.0-1.0,"""event"",""trial"",""time""
""fullscreenenter"",""1"",""2897""
","
","
","""event"",""trial"",""time""
""fullscreenenter"",""1"",""2897""
","
",,null,run_exp/static/images/task_images/gems/34.jpg,null,,,,,,,25,,,7,,,,,34,0.725646432,0.735294118,,,,,,,
decision,184,577338,0.0-57.0-2.0,"""event"",""trial"",""time""
""fullscreenenter"",""1"",""2897""
","
","
","""event"",""trial"",""time""
""fullscreenenter"",""1"",""2897""
","
",,268.9,run_exp/static/images/task_images/land.jpg,65,,,,,,,25,,,7,,,,,,,,232612,1,5,FALSE,,,
dig,185,580081,0.0-58.0-0.0,"""event"",""trial"",""time""
""fullscreenenter"",""1"",""2897""
","
","
","""event"",""trial"",""time""
""fullscreenenter"",""1"",""2897""
","
",,,,,,,,,,,,"[{""stimulus"":""run_exp/static/images/task_images/dig.jpg"",""time"":0.10000000149011612},{""stimulus"":""run_exp/static/images/task_images/land.jpg"",""time"":915},{""stimulus"":""run_exp/static/images/task_images/dig.jpg"",""time"":1832}]",[],7,,,,,,,,,,,,,,
harvest,186,581093,0.0-58.0-1.0,"""event"",""trial"",""time""
""fullscreenenter"",""1"",""2897""
","
","
","""event"",""trial"",""time""
""fullscreenenter"",""1"",""2897""
","
",,null,run_exp/static/images/task_images/gems/25.jpg,null,,,,,,,21,,,7,,,,,25,0.820278936,0.84,,,,,,,
decision,187,581332,0.0-58.0-2.0,"""event"",""trial"",""time""
""fullscreenenter"",""1"",""2897""
","
","
","""event"",""trial"",""time""
""fullscreenenter"",""1"",""2897""
","
",,236.9,run_exp/static/images/task_images/land.jpg,65,,,,,,,21,,,7,,,,,,,,236606,1,6,FALSE,,,
dig,188,584109,0.0-59.0-0.0,"""event"",""trial"",""time""
""fullscreenenter"",""1"",""2897""
","
","
","""event"",""trial"",""time""
""fullscreenenter"",""1"",""2897""
","
",,,,,,,,,,,,"[{""stimulus"":""run_exp/static/images/task_images/dig.jpg"",""time"":0.19999999552965164},{""stimulus"":""run_exp/static/images/task_images/land.jpg"",""time"":931.5},{""stimulus"":""run_exp/static/images/task_images/dig.jpg"",""time"":1849.2999999970198}]",[],7,,,,,,,,,,,,,,
harvest,189,585113,0.0-59.0-1.0,"""event"",""trial"",""time""
""fullscreenenter"",""1"",""2897""
","
","
","""event"",""trial"",""time""
""fullscreenenter"",""1"",""2897""
","
",,null,run_exp/static/images/task_images/gems/21.jpg,null,,,,,,,18,,,7,,,,,21,0.845534856,0.857142857,,,,,,,
decision,190,585414,0.0-59.0-2.0,"""event"",""trial"",""time""
""fullscreenenter"",""1"",""2897""
","
","
","""event"",""trial"",""time""
""fullscreenenter"",""1"",""2897""
","
",,299.3,run_exp/static/images/task_images/land.jpg,65,,,,,,,18,,,7,,,,,,,,240688,1,7,FALSE,,,
dig,191,588125,0.0-60.0-0.0,"""event"",""trial"",""time""
""fullscreenenter"",""1"",""2897""
","
","
","""event"",""trial"",""time""
""fullscreenenter"",""1"",""2897""
","
",,,,,,,,,,,,"[{""stimulus"":""run_exp/static/images/task_images/dig.jpg"",""time"":0.10000000149011612},{""stimulus"":""run_exp/static/images/task_images/land.jpg"",""time"":902.8999999985099},{""stimulus"":""run_exp/static/images/task_images/dig.jpg"",""time"":1811.8000000044703}]",[],7,,,,,,,,,,,,,,
harvest,192,589133,0.0-60.0-1.0,"""event"",""trial"",""time""
""fullscreenenter"",""1"",""2897""
","
","
","""event"",""trial"",""time""
""fullscreenenter"",""1"",""2897""
","
",,null,run_exp/static/images/task_images/gems/18.jpg,null,,,,,,,15,,,7,,,,,18,0.849157931,0.833333333,,,,,,,
decision,193,589409,0.0-60.0-2.0,"""event"",""trial"",""time""
""fullscreenenter"",""1"",""2897""
","
","
","""event"",""trial"",""time""
""fullscreenenter"",""1"",""2897""
","
",,274.7,run_exp/static/images/task_images/land.jpg,65,,,,,,,15,,,7,,,,,,,,244683,1,8,FALSE,,,
dig,194,592144,0.0-61.0-0.0,"""event"",""trial"",""time""
""fullscreenenter"",""1"",""2897""
","
","
","""event"",""trial"",""time""
""fullscreenenter"",""1"",""2897""
","
",,,,,,,,,,,,"[{""stimulus"":""run_exp/static/images/task_images/dig.jpg"",""time"":0.09999999403953552},{""stimulus"":""run_exp/static/images/task_images/land.jpg"",""time"":917},{""stimulus"":""run_exp/static/images/task_images/dig.jpg"",""time"":1822.2999999970198}]",[],7,,,,,,,,,,,,,,
harvest,195,593153,0.0-61.0-1.0,"""event"",""trial"",""time""
""fullscreenenter"",""1"",""2897""
","
","
","""event"",""trial"",""time""
""fullscreenenter"",""1"",""2897""
","
",,null,run_exp/static/images/task_images/gems/15.jpg,null,,,,,,,12,,,7,,,,,15,0.77257005,0.8,,,,,,,
decision,196,593444,0.0-61.0-2.0,"""event"",""trial"",""time""
""fullscreenenter"",""1"",""2897""
","
","
","""event"",""trial"",""time""
""fullscreenenter"",""1"",""2897""
","
",,289.3,run_exp/static/images/task_images/land.jpg,76,,,,,,,12,,,7,,,,,,,,248718,1,9,TRUE,,,
travel,197,603156,0.0-62.0-0.0,"""event"",""trial"",""time""
""fullscreenenter"",""1"",""2897""
","
","
","""event"",""trial"",""time""
""fullscreenenter"",""1"",""2897""
","
",,,,,,,,,,,,"[{""stimulus"":""run_exp/static/images/task_images/rocket-01.jpg"",""time"":0.19999999552965164},{""stimulus"":""run_exp/static/images/task_images/rocket-02.jpg"",""time"":1084.3999999985099},{""stimulus"":""run_exp/static/images/task_images/rocket-03.jpg"",""time"":2163.39999999851},{""stimulus"":""run_exp/static/images/task_images/rocket-04.jpg"",""time"":3238.5},{""stimulus"":""run_exp/static/images/task_images/rocket-05.jpg"",""time"":4325.5},{""stimulus"":""run_exp/static/images/task_images/rocket-06.jpg"",""time"":5393.5},{""stimulus"":""run_exp/static/images/task_images/rocket-07.jpg"",""time"":6473.19999999553},{""stimulus"":""run_exp/static/images/task_images/rocket-08.jpg"",""time"":7553.5},{""stimulus"":""run_exp/static/images/task_images/rocket-09.jpg"",""time"":8633.5}]",[],7,,,,,,,,,,,,,,
alien_welcome,198,608164,0.0-62.0-1.0,"""event"",""trial"",""time""
""fullscreenenter"",""1"",""2897""
","
","
","""event"",""trial"",""time""
""fullscreenenter"",""1"",""2897""
","
",,null,run_exp/static/images/task_images/aliens/old_aliens/planet/alien_planet-11.jpg,null,,,,,,,,,,,,,11,"55,53,12,17,16,59,76,11,30,7,34,36,64,71,28,3,9,43,73,6,5,69,50,4,60,61,57,14,62,37,68,49,67,78,58,44",,,,,,,,,,
land,199,608675,0.0-62.0-2.0,"""event"",""trial"",""time""
""fullscreenenter"",""1"",""2897""
","
","
","""event"",""trial"",""time""
""fullscreenenter"",""1"",""2897""
","
",,null,run_exp/static/images/task_images/land.jpg,null,,,,,,,98,,,8,,,,,,,,,,,,,,
dig,200,610682,0.0-62.0-3.0,"""event"",""trial"",""time""
""fullscreenenter"",""1"",""2897""
","
","
","""event"",""trial"",""time""
""fullscreenenter"",""1"",""2897""
","
",,,,,,,,,,,,"[{""stimulus"":""run_exp/static/images/task_images/dig.jpg"",""time"":0.29999999701976776},{""stimulus"":""run_exp/static/images/task_images/land.jpg"",""time"":675.7999999970198},{""stimulus"":""run_exp/static/images/task_images/dig.jpg"",""time"":1342.2999999970198}]",[],8,,,,,,,,,,,,,,
harvest,201,611692,0.0-62.0-4.0,"""event"",""trial"",""time""
""fullscreenenter"",""1"",""2897""
","
","
","""event"",""trial"",""time""
""fullscreenenter"",""1"",""2897""
","
",,null,run_exp/static/images/task_images/gems/98.jpg,null,,,,,,,73,,,8,,,,,98,0.742002213,0.744897959,,,,,,,
decision,202,612051,0.0-62.0-5.0,"""event"",""trial"",""time""
""fullscreenenter"",""1"",""2897""
","
","
","""event"",""trial"",""time""
""fullscreenenter"",""1"",""2897""
","
",,356.9,run_exp/static/images/task_images/land.jpg,65,,,,,,,73,,,8,,,,,,,,267325,1,0,FALSE,,,
dig,203,614707,0.0-63.0-0.0,"""event"",""trial"",""time""
""fullscreenenter"",""1"",""2897""
","
","
","""event"",""trial"",""time""
""fullscreenenter"",""1"",""2897""
","
",,,,,,,,,,,,"[{""stimulus"":""run_exp/static/images/task_images/dig.jpg"",""time"":0.10000000149011612},{""stimulus"":""run_exp/static/images/task_images/land.jpg"",""time"":894},{""stimulus"":""run_exp/static/images/task_images/dig.jpg"",""time"":1774}]",[],8,,,,,,,,,,,,,,
harvest,204,615716,0.0-63.0-1.0,"""event"",""trial"",""time""
""fullscreenenter"",""1"",""2897""
","
","
","""event"",""trial"",""time""
""fullscreenenter"",""1"",""2897""
","
",,null,run_exp/static/images/task_images/gems/73.jpg,null,,,,,,,57,,,8,,,,,73,0.784702214,0.780821918,,,,,,,
decision,205,616031,0.0-63.0-2.0,"""event"",""trial"",""time""
""fullscreenenter"",""1"",""2897""
","
","
","""event"",""trial"",""time""
""fullscreenenter"",""1"",""2897""
","
",,314.5,run_exp/static/images/task_images/land.jpg,65,,,,,,,57,,,8,,,,,,,,271306,1,1,FALSE,,,
dig,206,618732,0.0-64.0-0.0,"""event"",""trial"",""time""
""fullscreenenter"",""1"",""2897""
","
","
","""event"",""trial"",""time""
""fullscreenenter"",""1"",""2897""
","
",,,,,,,,,,,,"[{""stimulus"":""run_exp/static/images/task_images/dig.jpg"",""time"":0.10000000149011612},{""stimulus"":""run_exp/static/images/task_images/land.jpg"",""time"":902.4000000059605},{""stimulus"":""run_exp/static/images/task_images/dig.jpg"",""time"":1801.5}]",[],8,,,,,,,,,,,,,,
harvest,207,619739,0.0-64.0-1.0,"""event"",""trial"",""time""
""fullscreenenter"",""1"",""2897""
","
","
","""event"",""trial"",""time""
""fullscreenenter"",""1"",""2897""
","
",,null,run_exp/static/images/task_images/gems/57.jpg,null,,,,,,,40,,,8,,,,,57,0.699896807,0.701754386,,,,,,,
decision,208,619952,0.0-64.0-2.0,"""event"",""trial"",""time""
""fullscreenenter"",""1"",""2897""
","
","
","""event"",""trial"",""time""
""fullscreenenter"",""1"",""2897""
","
",,211.4,run_exp/static/images/task_images/land.jpg,65,,,,,,,40,,,8,,,,,,,,275226,1,2,FALSE,,,
dig,209,622755,0.0-65.0-0.0,"""event"",""trial"",""time""
""fullscreenenter"",""1"",""2897""
","
","
","""event"",""trial"",""time""
""fullscreenenter"",""1"",""2897""
","
",,,,,,,,,,,,"[{""stimulus"":""run_exp/static/images/task_images/dig.jpg"",""time"":0.20000000298023224},{""stimulus"":""run_exp/static/images/task_images/land.jpg"",""time"":936.4000000059605},{""stimulus"":""run_exp/static/images/task_images/dig.jpg"",""time"":1861}]",[],8,,,,,,,,,,,,,,
harvest,210,623760,0.0-65.0-1.0,"""event"",""trial"",""time""
""fullscreenenter"",""1"",""2897""
","
","
","""event"",""trial"",""time""
""fullscreenenter"",""1"",""2897""
","
",,null,run_exp/static/images/task_images/gems/40.jpg,null,,,,,,,31,,,8,,,,,40,0.78064053,0.775,,,,,,,
decision,211,624120,0.0-65.0-2.0,"""event"",""trial"",""time""
""fullscreenenter"",""1"",""2897""
","
","
","""event"",""trial"",""time""
""fullscreenenter"",""1"",""2897""
","
",,358.6,run_exp/static/images/task_images/land.jpg,65,,,,,,,31,,,8,,,,,,,,279394,1,3,FALSE,,,
dig,212,626767,0.0-66.0-0.0,"""event"",""trial"",""time""
""fullscreenenter"",""1"",""2897""
","
","
","""event"",""trial"",""time""
""fullscreenenter"",""1"",""2897""
","
",,,,,,,,,,,,"[{""stimulus"":""run_exp/static/images/task_images/dig.jpg"",""time"":0.19999999552965164},{""stimulus"":""run_exp/static/images/task_images/land.jpg"",""time"":888.6999999955297},{""stimulus"":""run_exp/static/images/task_images/dig.jpg"",""time"":1764.6000000014901}]",[],8,,,,,,,,,,,,,,
harvest,213,627769,0.0-66.0-1.0,"""event"",""trial"",""time""
""fullscreenenter"",""1"",""2897""
","
","
","""event"",""trial"",""time""
""fullscreenenter"",""1"",""2897""
","
",,null,run_exp/static/images/task_images/gems/31.jpg,null,,,,,,,23,,,8,,,,,31,0.745949863,0.741935484,,,,,,,
decision,214,628028,0.0-66.0-2.0,"""event"",""trial"",""time""
""fullscreenenter"",""1"",""2897""
","
","
","""event"",""trial"",""time""
""fullscreenenter"",""1"",""2897""
","
",,257.8,run_exp/static/images/task_images/land.jpg,65,,,,,,,23,,,8,,,,,,,,283302,1,4,FALSE,,,
dig,215,630776,0.0-67.0-0.0,"""event"",""trial"",""time""
""fullscreenenter"",""1"",""2897""
","
","
","""event"",""trial"",""time""
""fullscreenenter"",""1"",""2897""
","
",,,,,,,,,,,,"[{""stimulus"":""run_exp/static/images/task_images/dig.jpg"",""time"":0.19999999552965164},{""stimulus"":""run_exp/static/images/task_images/land.jpg"",""time"":924.5},{""stimulus"":""run_exp/static/images/task_images/dig.jpg"",""time"":1832.5}]",[],8,,,,,,,,,,,,,,
harvest,216,631788,0.0-67.0-1.0,"""event"",""trial"",""time""
""fullscreenenter"",""1"",""2897""
","
","
","""event"",""trial"",""time""
""fullscreenenter"",""1"",""2897""
","
",,null,run_exp/static/images/task_images/gems/23.jpg,null,,,,,,,19,,,8,,,,,23,0.844753353,0.826086957,,,,,,,
decision,217,632050,0.0-67.0-2.0,"""event"",""trial"",""time""
""fullscreenenter"",""1"",""2897""
","
","
","""event"",""trial"",""time""
""fullscreenenter"",""1"",""2897""
","
",,260.4,run_exp/static/images/task_images/land.jpg,76,,,,,,,19,,,8,,,,,,,,287324,1,5,TRUE,,,
travel,218,641803,0.0-68.0-0.0,"""event"",""trial"",""time""
""fullscreenenter"",""1"",""2897""
","
","
","""event"",""trial"",""time""
""fullscreenenter"",""1"",""2897""
","
",,,,,,,,,,,,"[{""stimulus"":""run_exp/static/images/task_images/rocket-01.jpg"",""time"":0.20000000298023224},{""stimulus"":""run_exp/static/images/task_images/rocket-02.jpg"",""time"":1089.7000000029802},{""stimulus"":""run_exp/static/images/task_images/rocket-03.jpg"",""time"":2173.4000000059605},{""stimulus"":""run_exp/static/images/task_images/rocket-04.jpg"",""time"":3250.3000000044703},{""stimulus"":""run_exp/static/images/task_images/rocket-05.jpg"",""time"":4340.20000000298},{""stimulus"":""run_exp/static/images/task_images/rocket-06.jpg"",""time"":5420.30000000447},{""stimulus"":""run_exp/static/images/task_images/rocket-07.jpg"",""time"":6501.10000000149},{""stimulus"":""run_exp/static/images/task_images/rocket-08.jpg"",""time"":7577.9000000059605},{""stimulus"":""run_exp/static/images/task_images/rocket-09.jpg"",""time"":8664.60000000149}]",[],8,,,,,,,,,,,,,,
alien_welcome,219,646812,0.0-68.0-1.0,"""event"",""trial"",""time""
""fullscreenenter"",""1"",""2897""
","
","
","""event"",""trial"",""time""
""fullscreenenter"",""1"",""2897""
","
",,null,run_exp/static/images/task_images/aliens/old_aliens/planet/alien_planet-30.jpg,null,,,,,,,,,,,,,30,"55,53,12,17,16,59,76,11,30,7,34,36,64,71,28,3,9,43,73,6,5,69,50,4,60,61,57,14,62,37,68,49,67,78,58,44",,,,,,,,,,
land,220,647320,0.0-68.0-2.0,"""event"",""trial"",""time""
""fullscreenenter"",""1"",""2897""
","
","
","""event"",""trial"",""time""
""fullscreenenter"",""1"",""2897""
","
",,null,run_exp/static/images/task_images/land.jpg,null,,,,,,,106,,,9,,,,,,,,,,,,,,
dig,221,649324,0.0-68.0-3.0,"""event"",""trial"",""time""
""fullscreenenter"",""1"",""2897""
","
","
","""event"",""trial"",""time""
""fullscreenenter"",""1"",""2897""
","
",,,,,,,,,,,,"[{""stimulus"":""run_exp/static/images/task_images/dig.jpg"",""time"":0.09999999403953552},{""stimulus"":""run_exp/static/images/task_images/land.jpg"",""time"":670},{""stimulus"":""run_exp/static/images/task_images/dig.jpg"",""time"":1343.1999999955297}]",[],9,,,,,,,,,,,,,,
harvest,222,650332,0.0-68.0-4.0,"""event"",""trial"",""time""
""fullscreenenter"",""1"",""2897""
","
","
","""event"",""trial"",""time""
""fullscreenenter"",""1"",""2897""
","
",,null,run_exp/static/images/task_images/gems/106.jpg,null,,,,,,,18,,,9,,,,,106,0.172144927,0.169811321,,,,,,,
decision,223,650681,0.0-68.0-5.0,"""event"",""trial"",""time""
""fullscreenenter"",""1"",""2897""
","
","
","""event"",""trial"",""time""
""fullscreenenter"",""1"",""2897""
","
",,347.9,run_exp/static/images/task_images/land.jpg,65,,,,,,,18,,,9,,,,,,,,305955,1,0,TRUE,,,
end_of_block_continue,224,659512,0.0-69.0-0.0,"""event"",""trial"",""time""
""fullscreenenter"",""1"",""2897""
","
","
","""event"",""trial"",""time""
""fullscreenenter"",""1"",""2897""
","
",,null,run_exp/static/audio/clip_32_block_end.m4a,,,,,,,null,,,,,,,,,,,,,,,,,,
alien_welcome,225,664527,0.0-70.0-0.0,"""event"",""trial"",""time""
""fullscreenenter"",""1"",""2897""
","
","
","""event"",""trial"",""time""
""fullscreenenter"",""1"",""2897""
","
",,null,run_exp/static/images/task_images/aliens/old_aliens/planet/alien_planet-7.jpg,null,,,,,,,,,,,,,7,"55,53,12,17,16,59,76,11,30,7,34,36,64,71,28,3,9,43,73,6,5,69,50,4,60,61,57,14,62,37,68,49,67,78,58,44",,,,,,,,,,
land,226,665031,0.0-70.0-1.0,"""event"",""trial"",""time""
""fullscreenenter"",""1"",""2897""
","
","
","""event"",""trial"",""time""
""fullscreenenter"",""1"",""2897""
","
",,null,run_exp/static/images/task_images/land.jpg,null,,,,,,,96,,,10,,,,,,,,,,,,,,
dig,227,667042,0.0-70.0-2.0,"""event"",""trial"",""time""
""fullscreenenter"",""1"",""2897""
","
","
","""event"",""trial"",""time""
""fullscreenenter"",""1"",""2897""
","
",,,,,,,,,,,,"[{""stimulus"":""run_exp/static/images/task_images/dig.jpg"",""time"":0.19999999552965164},{""stimulus"":""run_exp/static/images/task_images/land.jpg"",""time"":671.5},{""stimulus"":""run_exp/static/images/task_images/dig.jpg"",""time"":1347}]",[],10,,,,,,,,,,,,,,
harvest,228,668049,0.0-70.0-3.0,"""event"",""trial"",""time""
""fullscreenenter"",""1"",""2897""
","
","
","""event"",""trial"",""time""
""fullscreenenter"",""1"",""2897""
","
",,null,run_exp/static/images/task_images/gems/96.jpg,null,,,,,,,22,,,10,,,,,96,0.224947947,0.229166667,,,,,,,
decision,229,668571,0.0-70.0-4.0,"""event"",""trial"",""time""
""fullscreenenter"",""1"",""2897""
","
","
","""event"",""trial"",""time""
""fullscreenenter"",""1"",""2897""
","
",,520.1,run_exp/static/images/task_images/land.jpg,65,,,,,,,22,,,10,,,,,,,,9047,2,0,FALSE,,,
dig,230,671055,0.0-71.0-0.0,"""event"",""trial"",""time""
""fullscreenenter"",""1"",""2897""
","
","
","""event"",""trial"",""time""
""fullscreenenter"",""1"",""2897""
","
",,,,,,,,,,,,"[{""stimulus"":""run_exp/static/images/task_images/dig.jpg"",""time"":0.20000000298023224},{""stimulus"":""run_exp/static/images/task_images/land.jpg"",""time"":833.6000000014901},{""stimulus"":""run_exp/static/images/task_images/dig.jpg"",""time"":1660.7000000029802}]",[],10,,,,,,,,,,,,,,
harvest,231,672065,0.0-71.0-1.0,"""event"",""trial"",""time""
""fullscreenenter"",""1"",""2897""
","
","
","""event"",""trial"",""time""
""fullscreenenter"",""1"",""2897""
","
",,null,run_exp/static/images/task_images/gems/22.jpg,null,,,,,,,7,,,10,,,,,22,0.305445073,0.318181818,,,,,,,
decision,232,672367,0.0-71.0-2.0,"""event"",""trial"",""time""
""fullscreenenter"",""1"",""2897""
","
","
","""event"",""trial"",""time""
""fullscreenenter"",""1"",""2897""
","
",,300.4,run_exp/static/images/task_images/land.jpg,76,,,,,,,7,,,10,,,,,,,,12843,2,1,TRUE,,,
travel,233,682071,0.0-72.0-0.0,"""event"",""trial"",""time""
""fullscreenenter"",""1"",""2897""
","
","
","""event"",""trial"",""time""
""fullscreenenter"",""1"",""2897""
","
",,,,,,,,,,,,"[{""stimulus"":""run_exp/static/images/task_images/rocket-01.jpg"",""time"":0.20000000298023224},{""stimulus"":""run_exp/static/images/task_images/rocket-02.jpg"",""time"":1086.8999999985099},{""stimulus"":""run_exp/static/images/task_images/rocket-03.jpg"",""time"":2155.7000000029802},{""stimulus"":""run_exp/static/images/task_images/rocket-04.jpg"",""time"":3233.7000000029802},{""stimulus"":""run_exp/static/images/task_images/rocket-05.jpg"",""time"":4315.60000000149},{""stimulus"":""run_exp/static/images/task_images/rocket-06.jpg"",""time"":5388.80000000447},{""stimulus"":""run_exp/static/images/task_images/rocket-07.jpg"",""time"":6471.89999999851},{""stimulus"":""run_exp/static/images/task_images/rocket-08.jpg"",""time"":7548.80000000447},{""stimulus"":""run_exp/static/images/task_images/rocket-09.jpg"",""time"":8620.5}]",[],10,,,,,,,,,,,,,,
alien_welcome,234,687083,0.0-72.0-1.0,"""event"",""trial"",""time""
""fullscreenenter"",""1"",""2897""
","
","
","""event"",""trial"",""time""
""fullscreenenter"",""1"",""2897""
","
",,null,run_exp/static/images/task_images/aliens/old_aliens/planet/alien_planet-34.jpg,null,,,,,,,,,,,,,34,"55,53,12,17,16,59,76,11,30,7,34,36,64,71,28,3,9,43,73,6,5,69,50,4,60,61,57,14,62,37,68,49,67,78,58,44",,,,,,,,,,
land,235,687594,0.0-72.0-2.0,"""event"",""trial"",""time""
""fullscreenenter"",""1"",""2897""
","
","
","""event"",""trial"",""time""
""fullscreenenter"",""1"",""2897""
","
",,null,run_exp/static/images/task_images/land.jpg,null,,,,,,,95,,,11,,,,,,,,,,,,,,
dig,236,689599,0.0-72.0-3.0,"""event"",""trial"",""time""
""fullscreenenter"",""1"",""2897""
","
","
","""event"",""trial"",""time""
""fullscreenenter"",""1"",""2897""
","
",,,,,,,,,,,,"[{""stimulus"":""run_exp/static/images/task_images/dig.jpg"",""time"":0.19999999552965164},{""stimulus"":""run_exp/static/images/task_images/land.jpg"",""time"":680.1000000014901},{""stimulus"":""run_exp/static/images/task_images/dig.jpg"",""time"":1342.8999999985099}]",[],11,,,,,,,,,,,,,,
harvest,237,690607,0.0-72.0-4.0,"""event"",""trial"",""time""
""fullscreenenter"",""1"",""2897""
","
","
","""event"",""trial"",""time""
""fullscreenenter"",""1"",""2897""
","
",,null,run_exp/static/images/task_images/gems/95.jpg,null,,,,,,,24,,,11,,,,,95,0.248106254,0.252631579,,,,,,,
decision,238,691527,0.0-72.0-5.0,"""event"",""trial"",""time""
""fullscreenenter"",""1"",""2897""
","
","
","""event"",""trial"",""time""
""fullscreenenter"",""1"",""2897""
","
",,918.8,run_exp/static/images/task_images/land.jpg,65,,,,,,,24,,,11,,,,,,,,32003,2,0,FALSE,,,
dig,239,693619,0.0-73.0-0.0,"""event"",""trial"",""time""
""fullscreenenter"",""1"",""2897""
","
","
","""event"",""trial"",""time""
""fullscreenenter"",""1"",""2897""
","
",,,,,,,,,,,,"[{""stimulus"":""run_exp/static/images/task_images/dig.jpg"",""time"":0.10000000149011612},{""stimulus"":""run_exp/static/images/task_images/land.jpg"",""time"":703.8999999985099},{""stimulus"":""run_exp/static/images/task_images/dig.jpg"",""time"":1399.6000000014901}]",[],11,,,,,,,,,,,,,,
harvest,240,694624,0.0-73.0-1.0,"""event"",""trial"",""time""
""fullscreenenter"",""1"",""2897""
","
","
","""event"",""trial"",""time""
""fullscreenenter"",""1"",""2897""
","
",,null,run_exp/static/images/task_images/gems/24.jpg,null,,,,,,,3,,,11,,,,,24,0.138528063,0.125,,,,,,,
decision,241,695030,0.0-73.0-2.0,"""event"",""trial"",""time""
""fullscreenenter"",""1"",""2897""
","
","
","""event"",""trial"",""time""
""fullscreenenter"",""1"",""2897""
","
",,404.3,run_exp/static/images/task_images/land.jpg,76,,,,,,,3,,,11,,,,,,,,35506,2,1,TRUE,,,
travel,242,704635,0.0-74.0-0.0,"""event"",""trial"",""time""
""fullscreenenter"",""1"",""2897""
","
","
","""event"",""trial"",""time""
""fullscreenenter"",""1"",""2897""
","
",,,,,,,,,,,,"[{""stimulus"":""run_exp/static/images/task_images/rocket-01.jpg"",""time"":0.20000000298023224},{""stimulus"":""run_exp/static/images/task_images/rocket-02.jpg"",""time"":1070.5},{""stimulus"":""run_exp/static/images/task_images/rocket-03.jpg"",""time"":2134.2000000029802},{""stimulus"":""run_exp/static/images/task_images/rocket-04.jpg"",""time"":3207.10000000149},{""stimulus"":""run_exp/static/images/task_images/rocket-05.jpg"",""time"":4270.60000000149},{""stimulus"":""run_exp/static/images/task_images/rocket-06.jpg"",""time"":5334.89999999851},{""stimulus"":""run_exp/static/images/task_images/rocket-07.jpg"",""time"":6396.89999999851},{""stimulus"":""run_exp/static/images/task_images/rocket-08.jpg"",""time"":7472.30000000447},{""stimulus"":""run_exp/static/images/task_images/rocket-09.jpg"",""time"":8536.89999999851}]",[],11,,,,,,,,,,,,,,
alien_welcome,243,709643,0.0-74.0-1.0,"""event"",""trial"",""time""
""fullscreenenter"",""1"",""2897""
","
","
","""event"",""trial"",""time""
""fullscreenenter"",""1"",""2897""
","
",,null,run_exp/static/images/task_images/aliens/old_aliens/planet/alien_planet-36.jpg,null,,,,,,,,,,,,,36,"55,53,12,17,16,59,76,11,30,7,34,36,64,71,28,3,9,43,73,6,5,69,50,4,60,61,57,14,62,37,68,49,67,78,58,44",,,,,,,,,,
land,244,710151,0.0-74.0-2.0,"""event"",""trial"",""time""
""fullscreenenter"",""1"",""2897""
","
","
","""event"",""trial"",""time""
""fullscreenenter"",""1"",""2897""
","
",,null,run_exp/static/images/task_images/land.jpg,null,,,,,,,101,,,12,,,,,,,,,,,,,,
dig,245,712160,0.0-74.0-3.0,"""event"",""trial"",""time""
""fullscreenenter"",""1"",""2897""
","
","
","""event"",""trial"",""time""
""fullscreenenter"",""1"",""2897""
","
",,,,,,,,,,,,"[{""stimulus"":""run_exp/static/images/task_images/dig.jpg"",""time"":0.29999999701976776},{""stimulus"":""run_exp/static/images/task_images/land.jpg"",""time"":673.3999999985099},{""stimulus"":""run_exp/static/images/task_images/dig.jpg"",""time"":1338.2999999970198}]",[],12,,,,,,,,,,,,,,
harvest,246,713168,0.0-74.0-4.0,"""event"",""trial"",""time""
""fullscreenenter"",""1"",""2897""
","
","
","""event"",""trial"",""time""
""fullscreenenter"",""1"",""2897""
","
",,null,run_exp/static/images/task_images/gems/101.jpg,null,,,,,,,16,,,12,,,,,101,0.15734517,0.158415842,,,,,,,
decision,247,713711,0.0-74.0-5.0,"""event"",""trial"",""time""
""fullscreenenter"",""1"",""2897""
","
","
","""event"",""trial"",""time""
""fullscreenenter"",""1"",""2897""
","
",,541.5,run_exp/static/images/task_images/land.jpg,65,,,,,,,16,,,12,,,,,,,,54187,2,0,FALSE,,,
dig,248,716175,0.0-75.0-0.0,"""event"",""trial"",""time""
""fullscreenenter"",""1"",""2897""
","
","
","""event"",""trial"",""time""
