trial_type,trial_index,time_elapsed,internal_node_id,success,rt,stimulus,key_press,prompt,subject_id,age,gender,button_pressed,next_reward,animation_sequence,responses,planet,curr_prac_trial,n_prac_rounds,alien,aliens,reward_received,decay_rate_actual,decay_rate_exp,time_in_block,block_num,prt,last_trial_on_planet,button_html,bonus,num_failures
pavlovia,0,3,0.0-0.0,,,,,,,,,,,,,,,,,,,,,,,,,,,
fullscreen,1,3182,0.0-1.0,TRUE,,,,,,,,,,,,,,,,,,,,,,,,,,
instruc_welcome,2,12880,0.0-2.0,,null,run_exp/static/audio/clip_1_welcome.m4a,null,"<p>Howdy! In this experiment, you’ll be an explorer traveling through space to collect space treasure.</p><p>Your mission is to collect as much treasure as possible.</p><br><br><p><img src='run_exp/static/images/task_images/opening_img-01.jpg' height='300' width='auto'></p>",aps8WR9YNZD83fN_51KYnLSfJHZ2CGO_MLRP_7ZAwot0MafpyuTI,18.78,male,,,,,,,,,,,,,,,,,,,
audio-keyboard-response,3,29432,0.0-3.0,,null,run_exp/static/audio/clip_2_move.m4a,null,,,,,,,,,,,,,,,,,,,,,,,
welcome_dec,4,30726,0.0-4.0,,1293,"<p>Howdy! In this experiment, you’ll be an explorer traveling through space to collect space treasure.</p><p>Your mission is to collect as much treasure as possible.</p><br><br><p><img src='run_exp/static/images/task_images/opening_img-01.jpg' height='300' width='auto'></p>",,,,,,1,,,,,,,,,,,,,,,,,,
html-keyboard-response,5,31663,0.0-5.0,,935,"<p>Howdy! In this experiment, you’ll be an explorer traveling through space to collect space treasure.</p><p>Your mission is to collect as much treasure as possible.</p><br><br><p><img src='run_exp/static/images/task_images/opening_img-01.jpg' height='300' width='auto'></p><button class=""jspsych-html-btn-unchosen""><img src=""run_exp/static/images/task_images/planet-01.jpg"" height=""50""></button><button class=""jspsych-html-btn-chosen""><img src=""run_exp/static/images/task_images/planet-02.jpg"" height=""50""></button><p><b>[press the space bar to lock in your answer]<b><br></p>",32,,,,,,,,,,,,,,,,,,,,,,,
instruc_goal,6,41684,0.0-6.0-0.0,,null,run_exp/static/audio/clip_3_goal.m4a,null,"<p> As a space explorer, you’ll visit different planets to dig for space treasure, these pink gems.</p> <p> The more treasure you dig up, the more bonus money you’ll win! </p><br><br><p><img src='run_exp/static/images/task_images/pink_gem.jpg' height='300' width='auto'></p>",,,,,,,,,,,,,,,,,,,,,,
instruc_goal,7,43357,0.0-6.0-1.0,,1671,"<p> As a space explorer, you’ll visit different planets to dig for space treasure, these pink gems.</p> <p> The more treasure you dig up, the more bonus money you’ll win! </p><br><br><p><img src='run_exp/static/images/task_images/pink_gem.jpg' height='300' width='auto'></p>",,,,,,1,,,,,,,,,,,,,,,,,,
html-keyboard-response,8,43592,0.0-6.0-2.0,,234,"<p> As a space explorer, you’ll visit different planets to dig for space treasure, these pink gems.</p> <p> The more treasure you dig up, the more bonus money you’ll win! </p><br><br><p><img src='run_exp/static/images/task_images/pink_gem.jpg' height='300' width='auto'></p><button class=""jspsych-html-btn-unchosen""><img src=""run_exp/static/images/task_images/planet-01.jpg"" height=""50""></button><button class=""jspsych-html-btn-chosen""><img src=""run_exp/static/images/task_images/planet-02.jpg"" height=""50""></button><p><b>[press the space bar to lock in your answer]<b><br></p>",32,,,,,,,,,,,,,,,,,,,,,,,
instruc_dig,9,59557,0.0-7.0-0.0,,null,run_exp/static/audio/clip_4_dig.m4a,null,,,,,,100,,,,,,,,,,,,,,,,,
instruc_dig_try,10,59839,0.0-7.0-1.0,,284,"<p> When you’ve arrived at a new planet, you will dig once. </p> <p>Then, you get to decide if you want to stay on the planet and dig again or travel to a new planet and dig there.</p> <p> To stay and dig, press the letter <strong>‘A’</strong> on your keyboard. Try pressing it now! </p><p><img src='run_exp/static/images/task_images/land.jpg'  height='700' width='auto'></p>",65,"<p> When you’ve arrived at a new planet, you will dig once. </p> <p>Then, you get to decide if you want to stay on the planet and dig again or travel to a new planet and dig there.</p> <p> To stay and dig, press the letter <strong>‘A’</strong> on your keyboard. Try pressing it now! </p><p><img src='run_exp/static/images/task_images/land.jpg'  height='700' width='auto'></p>",,,,,100,,,,,,,,,,,,,,,,,
dig_prac,11,61870,0.0-7.0-2.0,,,,,,,,,,,"[{""stimulus"":""run_exp/static/images/task_images/dig.jpg"",""time"":0},{""stimulus"":""run_exp/static/images/task_images/land.jpg"",""time"":673},{""stimulus"":""run_exp/static/images/task_images/dig.jpg"",""time"":1350}]",[],,,,,,,,,,,,,,,
instruc_travel,12,98064,0.0-7.0-3.0,,null,run_exp/static/audio/clip_5_travel.m4a,null,"<p>Every time you dig up gems, there are less gems on the planet, so the more you dig on a planet the fewer gems you’ll get with each dig.</p><p>When gems are running low, you may want to travel to a new planet. </p> <p>  Planets are very far apart in this galaxy, so it will take some time to travel between them. </p> <br><p>There are lots and lots of planets for you to visit, so you won’t be able to return to any planets you’ve seen before. </p><br><p>To leave this planet and travel to a new one, press the letter <strong>‘L’</strong> on your keyboard. Try pressing it now! </p><p><img src='run_exp/static/images/task_images/rocket-01.jpg'  height='600' width='auto'></p>",,,,,,,,,,,,,,,,,,,,,,
instruc_travel_try,13,99416,0.0-7.0-4.0,,1351,"<p>Every time you dig up gems, there are less gems on the planet, so the more you dig on a planet the fewer gems you’ll get with each dig.</p><p>When gems are running low, you may want to travel to a new planet. </p> <p>  Planets are very far apart in this galaxy, so it will take some time to travel between them. </p> <br><p>There are lots and lots of planets for you to visit, so you won’t be able to return to any planets you’ve seen before. </p><br><p>To leave this planet and travel to a new one, press the letter <strong>‘L’</strong> on your keyboard. Try pressing it now! </p><p><img src='run_exp/static/images/task_images/rocket-01.jpg'  height='600' width='auto'></p>",76,"<p>Every time you dig up gems, there are less gems on the planet, so the more you dig on a planet the fewer gems you’ll get with each dig.</p><p>When gems are running low, you may want to travel to a new planet. </p> <p>  Planets are very far apart in this galaxy, so it will take some time to travel between them. </p> <br><p>There are lots and lots of planets for you to visit, so you won’t be able to return to any planets you’ve seen before. </p><br><p>To leave this planet and travel to a new one, press the letter <strong>‘L’</strong> on your keyboard. Try pressing it now! </p><p><img src='run_exp/static/images/task_images/rocket-01.jpg'  height='600' width='auto'></p>",,,,,,,,,,,,,,,,,,,,,,
travel_prac,14,109529,0.0-7.0-5.0,,,,,,,,,,,"[{""stimulus"":""run_exp/static/images/task_images/rocket-01.jpg"",""time"":0},{""stimulus"":""run_exp/static/images/task_images/rocket-02.jpg"",""time"":1122},{""stimulus"":""run_exp/static/images/task_images/rocket-03.jpg"",""time"":2247},{""stimulus"":""run_exp/static/images/task_images/rocket-04.jpg"",""time"":3374},{""stimulus"":""run_exp/static/images/task_images/rocket-05.jpg"",""time"":4498},{""stimulus"":""run_exp/static/images/task_images/rocket-06.jpg"",""time"":5624},{""stimulus"":""run_exp/static/images/task_images/rocket-07.jpg"",""time"":6746},{""stimulus"":""run_exp/static/images/task_images/rocket-08.jpg"",""time"":7870},{""stimulus"":""run_exp/static/images/task_images/rocket-09.jpg"",""time"":8985}]",[],0,,,,,,,,,,,,,,
instruc_alien_greet,15,136699,0.0-7.0-6.0,,null,run_exp/static/audio/clip_6_alien.m4a,null,"<p>When you arrive at a new planet, the alien who owns the treasure mine on that planet will greet you!</p><p>The better an alien takes care of their mine the easier it is to dig for gems. Some aliens take better care of their mine than others. So, you won’t get exactly the same amount of gems on each planet.</p><p>What the alien looks like does not tell you anything about how many gems there are on the planet.</p><br><p><img src=""run_exp/static/images/task_images/aliens/instructions_aliens/planet/alien_planet-1.jpg""  height=""600"" width=""auto""></p>",,,,,,,,,,,,,,,,,,,,,,
instruc_alien_greet,16,138323,0.0-7.0-7.0,,1623,"<p>When you arrive at a new planet, the alien who owns the treasure mine on that planet will greet you!</p><p>The better an alien takes care of their mine the easier it is to dig for gems. Some aliens take better care of their mine than others. So, you won’t get exactly the same amount of gems on each planet.</p><p>What the alien looks like does not tell you anything about how many gems there are on the planet.</p><br><p><img src=""run_exp/static/images/task_images/aliens/instructions_aliens/planet/alien_planet-1.jpg""  height=""600"" width=""auto""></p>",,,,,,1,,,,,,,,,,,,,,,,,,
html-keyboard-response,17,138403,0.0-7.0-8.0,,79,"<p>When you arrive at a new planet, the alien who owns the treasure mine on that planet will greet you!</p><p>The better an alien takes care of their mine the easier it is to dig for gems. Some aliens take better care of their mine than others. So, you won’t get exactly the same amount of gems on each planet.</p><p>What the alien looks like does not tell you anything about how many gems there are on the planet.</p><br><p><img src=""run_exp/static/images/task_images/aliens/instructions_aliens/planet/alien_planet-1.jpg""  height=""600"" width=""auto""></p><button class=""jspsych-html-btn-unchosen""><img src=""run_exp/static/images/task_images/planet-01.jpg"" height=""50""></button><button class=""jspsych-html-btn-chosen""><img src=""run_exp/static/images/task_images/planet-02.jpg"" height=""50""></button><p><b>[press the space bar to lock in your answer]<b><br></p>",32,,,,,,,,,,,,,,,,,,,,,,,
time_out,18,149441,0.0-8.0-0.0,,null,run_exp/static/audio/clip_7_timeout.m4a,null,"<p>If you don't make your choice fast enough, you’ll have to wait a few seconds before you can make another one.</p><p>You can’t dig for more gems or travel to new planets. You just have to sit and wait.</p><br><p><img src='run_exp/static/images/task_images/time_out.jpg'  height='600' width='auto'></p>",,,,,,,,,,,,,,,,,,,,,,
time_out,19,150708,0.0-8.0-1.0,,1265,"<p>If you don't make your choice fast enough, you’ll have to wait a few seconds before you can make another one.</p><p>You can’t dig for more gems or travel to new planets. You just have to sit and wait.</p><br><p><img src='run_exp/static/images/task_images/time_out.jpg'  height='600' width='auto'></p>",,,,,,1,,,,,,,,,,,,,,,,,,
html-keyboard-response,20,151444,0.0-8.0-2.0,,735,"<p>If you don't make your choice fast enough, you’ll have to wait a few seconds before you can make another one.</p><p>You can’t dig for more gems or travel to new planets. You just have to sit and wait.</p><br><p><img src='run_exp/static/images/task_images/time_out.jpg'  height='600' width='auto'></p><button class=""jspsych-html-btn-unchosen""><img src=""run_exp/static/images/task_images/planet-01.jpg"" height=""50""></button><button class=""jspsych-html-btn-chosen""><img src=""run_exp/static/images/task_images/planet-02.jpg"" height=""50""></button><p><b>[press the space bar to lock in your answer]<b><br></p>",32,,,,,,,,,,,,,,,,,,,,,,,
instruc_break,21,167095,0.0-9.0-0.0,,null,run_exp/static/audio/clip_8_break.m4a,null,"<p> After digging and traveling for a while, you’ll be able to take a break at home base. </p><p>The game will last 20 minutes no matter what.</p><p>You will visit home base every 5 minutes, so, you will visit home base three times during the game.</p><br><p><img src='run_exp/static/images/task_images/home_base.jpg' height='600' width='auto'></p>",,,,,,,,,,,,,,,,,,,,,,
instruc_break,22,168400,0.0-9.0-1.0,,1305,"<p> After digging and traveling for a while, you’ll be able to take a break at home base. </p><p>The game will last 20 minutes no matter what.</p><p>You will visit home base every 5 minutes, so, you will visit home base three times during the game.</p><br><p><img src='run_exp/static/images/task_images/home_base.jpg' height='600' width='auto'></p>",,,,,,1,,,,,,,,,,,,,,,,,,
html-keyboard-response,23,168667,0.0-9.0-2.0,,267,"<p> After digging and traveling for a while, you’ll be able to take a break at home base. </p><p>The game will last 20 minutes no matter what.</p><p>You will visit home base every 5 minutes, so, you will visit home base three times during the game.</p><br><p><img src='run_exp/static/images/task_images/home_base.jpg' height='600' width='auto'></p><button class=""jspsych-html-btn-unchosen""><img src=""run_exp/static/images/task_images/planet-01.jpg"" height=""50""></button><button class=""jspsych-html-btn-chosen""><img src=""run_exp/static/images/task_images/planet-02.jpg"" height=""50""></button><p><b>[press the space bar to lock in your answer]<b><br></p>",32,,,,,,,,,,,,,,,,,,,,,,,
instruc_prac_game,24,178747,0.0-10.0-0.0,,null,run_exp/static/audio/clip_9_practice.m4a,null,"<p> Are you ready to play a practice game? </p> <p>In this practice game, you'll be digging up barrels of gems. But, in the real game, you'll be digging up the gems themselves. </p>",,,,,,,,,,,,,,,,,,,,,,
html-button-response,25,180002,0.0-10.0-1.0,,1254,"<p> Are you ready to play a practice game? </p> <p>In this practice game, you'll be digging up barrels of gems. But, in the real game, you'll be digging up the gems themselves. </p>",,,,,,0,,,,,,,,,,,,,,,,,,
alien_welcome_prac,26,185017,0.0-11.0-0.0,,null,run_exp/static/images/task_images/aliens/practice_aliens/planet/alien_planet-5.jpg,null,,,,,,,,,,,,,,,,,,,,,,,
land_prac,27,185524,0.0-11.0-1.0,,null,run_exp/static/images/task_images/land.jpg,null,,,,,,98,,,0,,,,,,,,,,,,,,
dig_prac,28,187553,0.0-11.0-2.0,,,,,,,,,,,"[{""stimulus"":""run_exp/static/images/task_images/dig.jpg"",""time"":0},{""stimulus"":""run_exp/static/images/task_images/land.jpg"",""time"":676},{""stimulus"":""run_exp/static/images/task_images/dig.jpg"",""time"":1358}]",[],,,,,,,,,,,,,,,
harvest_prac,29,188568,0.0-11.0-3.0,,null,run_exp/static/images/task_images/barrel_text.jpg,null,,,,,,,,,,,,,,,,,,,,,,,
decision_prac,30,189197,0.0-11.0-4.0,,628,run_exp/static/images/task_images/land.jpg,65,,,,,,,,,,1,,,,,,,,,,,,,
dig_prac,31,191229,0.0-12.0-0.0,,,,,,,,,,,"[{""stimulus"":""run_exp/static/images/task_images/dig.jpg"",""time"":0},{""stimulus"":""run_exp/static/images/task_images/land.jpg"",""time"":679},{""stimulus"":""run_exp/static/images/task_images/dig.jpg"",""time"":1359}]",[],,,,,,,,,,,,,,,
harvest_prac,32,192235,0.0-12.0-1.0,,null,run_exp/static/images/task_images/barrel_text.jpg,null,,,,,,,,,,,,,,,,,,,,,,,
decision_prac,33,192463,0.0-12.0-2.0,,227,run_exp/static/images/task_images/land.jpg,65,,,,,,,,,,2,,,,,,,,,,,,,
dig_prac,34,194480,0.0-13.0-0.0,,,,,,,,,,,"[{""stimulus"":""run_exp/static/images/task_images/dig.jpg"",""time"":0},{""stimulus"":""run_exp/static/images/task_images/land.jpg"",""time"":670},{""stimulus"":""run_exp/static/images/task_images/dig.jpg"",""time"":1342}]",[],,,,,,,,,,,,,,,
harvest_prac,35,195493,0.0-13.0-1.0,,null,run_exp/static/images/task_images/barrel_text.jpg,null,,,,,,,,,,,,,,,,,,,,,,,
decision_prac,36,195745,0.0-13.0-2.0,,251,run_exp/static/images/task_images/land.jpg,65,,,,,,,,,,3,,,,,,,,,,,,,
dig_prac,37,197761,0.0-14.0-0.0,,,,,,,,,,,"[{""stimulus"":""run_exp/static/images/task_images/dig.jpg"",""time"":0},{""stimulus"":""run_exp/static/images/task_images/land.jpg"",""time"":668},{""stimulus"":""run_exp/static/images/task_images/dig.jpg"",""time"":1342}]",[],,,,,,,,,,,,,,,
harvest_prac,38,198775,0.0-14.0-1.0,,null,run_exp/static/images/task_images/barrel_text.jpg,null,,,,,,,,,,,,,,,,,,,,,,,
decision_prac,39,199037,0.0-14.0-2.0,,262,run_exp/static/images/task_images/land.jpg,65,,,,,,,,,,4,,,,,,,,,,,,,
dig_prac,40,201074,0.0-15.0-0.0,,,,,,,,,,,"[{""stimulus"":""run_exp/static/images/task_images/dig.jpg"",""time"":0},{""stimulus"":""run_exp/static/images/task_images/land.jpg"",""time"":675},{""stimulus"":""run_exp/static/images/task_images/dig.jpg"",""time"":1357}]",[],,,,,,,,,,,,,,,
harvest_prac,41,202075,0.0-15.0-1.0,,null,run_exp/static/images/task_images/barrel_text.jpg,null,,,,,,,,,,,,,,,,,,,,,,,
decision_prac,42,202506,0.0-15.0-2.0,,430,run_exp/static/images/task_images/land.jpg,65,,,,,,,,,,,1,,,,,,,,,,,,
quiz_instruc,43,205540,0.0-16.0-0.0,,3033,run_exp/static/audio/clip_10_quiz.m4a,,,,,,0,,,,,,,,,,,,,,,,,,
instruc_repeat,44,248258,0.0-16.0-1.0,,null,"<p> Are you ready to play a practice game? </p> <p>In this practice game, you'll be digging up barrels of gems. But, in the real game, you'll be digging up the gems themselves. </p>",null,"<p>In this game, your goal is to collect as many gems as you can. That’s how you will win bonus money. </p> <p>The entire game will last 20 minutes no matter how many gems you collect or how many planets you visit. </p><p>To stay on a planet and dig again, press the letter A on your keyboard. To leave for a new planet, press the letter L.</p><p>The more you dig on a planet, the fewer gems you’ll get with each dig which is why you might consider leaving for a new planet. </p><p>When you arrive at a new planet, you’ll be greeted by an alien. What the alien looks like does not tell you anything about how much treasure is on the planet. </p>",,,,,,,,,,,,,,,,,,,,,,
instruc_repeat_continue,45,250676,0.0-16.0-2.0,,2417,"<p> Are you ready to play a practice game? </p> <p>In this practice game, you'll be digging up barrels of gems. But, in the real game, you'll be digging up the gems themselves. </p>",,,,,,0,,,,,,,,,,,,,,,,,,
quiz_q_1_ask,46,254130,0.0-16.0-3.0,,3453,run_exp/static/audio/clip_11_q1_ask.m4a,,,,,,2,,,,,,,,,,,,,,,,,,
quiz_q_1_fb_correct,47,257940,0.0-17.0-0.0,,null,run_exp/static/audio/clip_12_q1_corrrect.m4a,null,<p>That’s correct. You win extra money by collecting more gems.</p>,,,,,,,,,,,,,,,,,,,,,,
quiz_q_2_ask,48,263318,0.0-17.0-1.0,,5377,run_exp/static/audio/clip_14_q2_ask.m4a,,,,,,1,,,,,,,,,,,,,,,,,,
quiz_q_2_fb_correct,49,267282,0.0-18.0-0.0,,null,run_exp/static/audio/clip_15_q2_correct.m4a,null,<p>That’s correct. The experiment is 20 minutes no matter what.</p>,,,,,,,,,,,,,,,,,,,,,,
quiz_q_3_ask,50,269173,0.0-18.0-1.0,,1891,run_exp/static/audio/clip_17_q3_ask.m4a,,,,,,1,,,,,,,,,,,,,,,,,,
quiz_q_3_fb_correct,51,273113,0.0-19.0-0.0,,null,run_exp/static/audio/clip_18_q3_correct.m4a,null,<p> That’s correct. You press the letter L to travel to a new planet.</p>,,,,,,,,,,,,,,,,,,,,,,
quiz_q_4_ask,52,275755,0.0-19.0-1.0,,2642,run_exp/static/audio/clip_20_q4_ask.m4a,,,,,,0,,,,,,,,,,,,,,,,,,
quiz_q_4_fb_correct,53,281034,0.0-20.0-0.0,,null,run_exp/static/audio/clip_21_q4_correct.m4a,null,<p> That’s correct. The more you dig on a planet the fewer gems you’ll get with each dig. </p>,,,,,,,,,,,,,,,,,,,,,,
quiz_q_5_ask,54,282482,0.0-20.0-1.0,,1448,run_exp/static/audio/clip_23_q5_ask.m4a,,,,,,1,,,,,,,,,,,,,,,,,,
quiz_q_5_fb_correct,55,287435,0.0-21.0-0.0,,null,run_exp/static/audio/clip_24_q5_correct.m4a,null,<p> That’s correct. The alien tells you nothing about how much treasure is on the planet.</p>,,,,,,,,,,,,,,,,,,,,,,
quiz_correct,56,290856,0.0-22.0-0.0,,null,run_exp/static/audio/clip_26_correct_quiz.m4a,null,,,,,,,,,,,,,,,,,,,,,,,
quiz_correct_continue,57,291483,0.0-22.0-1.0,,626,<p>Good job! You're now ready to move on to the real game!</p>,,,,,,0,,,,,,,,,,,,,,,,,,
audio-keyboard-response,58,301557,0.0-22.0-2.0,,null,run_exp/static/audio/clip_28_real_game.m4a,null,,,,,,,,,,,,,,,,,,,,,,,
instruc_begin_exp_contine,59,302667,0.0-22.0-3.0,,1109,"<p>Now that you know how  to dig for space treasure and travel to new planets,you can start exploring! </p><p>Do you want to go over the instructions again or get started with the real game?</p>",,,,,,1,,,,,,1,,,,,,,,,,,,
alien_welcome,60,307669,0.0-23.0-0.0,,null,run_exp/static/images/task_images/aliens/old_aliens/planet/alien_planet-64.jpg,null,,,,,,,,,,,,64,"64,70,50,74,4,72,1,6,30,9,5,62,19,69,54,3,2,77,52,20,68,12,47,22,63,14,35,73,39,10,17,66,28,29,51,67,37,34,45,58,38",,,,,,,,,,
land,61,308183,0.0-23.0-1.0,,null,run_exp/static/images/task_images/land.jpg,null,,,,,,99,,,1,,,,,,,,,,,,,,
dig,62,310201,0.0-23.0-2.0,,,,,,,,,,,"[{""stimulus"":""run_exp/static/images/task_images/dig.jpg"",""time"":0},{""stimulus"":""run_exp/static/images/task_images/land.jpg"",""time"":668},{""stimulus"":""run_exp/static/images/task_images/dig.jpg"",""time"":1335}]",[],1,,,,,,,,,,,,,,
harvest,63,311214,0.0-23.0-3.0,,null,run_exp/static/images/task_images/gems/99.jpg,null,,,,,,23,,,1,,,,,99,0.232361101,0.232323232,,,,,,,
decision,64,311508,0.0-23.0-4.0,,294,run_exp/static/images/task_images/land.jpg,65,,,,,,23,,,1,,,,,,,,8841,1,0,FALSE,,,
dig,65,314237,0.0-24.0-0.0,,,,,,,,,,,"[{""stimulus"":""run_exp/static/images/task_images/dig.jpg"",""time"":0},{""stimulus"":""run_exp/static/images/task_images/land.jpg"",""time"":904},{""stimulus"":""run_exp/static/images/task_images/dig.jpg"",""time"":1813}]",[],1,,,,,,,,,,,,,,
harvest,66,315246,0.0-24.0-1.0,,null,run_exp/static/images/task_images/gems/23.jpg,null,,,,,,4,,,1,,,,,23,0.189285845,0.173913043,,,,,,,
decision,67,315368,0.0-24.0-2.0,,121,run_exp/static/images/task_images/land.jpg,65,,,,,,4,,,1,,,,,,,,12700,1,1,FALSE,,,
dig,68,318263,0.0-25.0-0.0,,,,,,,,,,,"[{""stimulus"":""run_exp/static/images/task_images/dig.jpg"",""time"":0},{""stimulus"":""run_exp/static/images/task_images/land.jpg"",""time"":963},{""stimulus"":""run_exp/static/images/task_images/dig.jpg"",""time"":1925}]",[],1,,,,,,,,,,,,,,
harvest,69,319278,0.0-25.0-1.0,,null,run_exp/static/images/task_images/gems/4.jpg,null,,,,,,1,,,1,,,,,4,0.165580837,0.25,,,,,,,
decision,70,319605,0.0-25.0-2.0,,327,run_exp/static/images/task_images/land.jpg,76,,,,,,1,,,1,,,,,,,,16937,1,2,TRUE,,,
travel,71,329332,0.0-26.0-0.0,,,,,,,,,,,"[{""stimulus"":""run_exp/static/images/task_images/rocket-01.jpg"",""time"":0},{""stimulus"":""run_exp/static/images/task_images/rocket-02.jpg"",""time"":1089},{""stimulus"":""run_exp/static/images/task_images/rocket-03.jpg"",""time"":2175},{""stimulus"":""run_exp/static/images/task_images/rocket-04.jpg"",""time"":3250},{""stimulus"":""run_exp/static/images/task_images/rocket-05.jpg"",""time"":4325},{""stimulus"":""run_exp/static/images/task_images/rocket-06.jpg"",""time"":5403},{""stimulus"":""run_exp/static/images/task_images/rocket-07.jpg"",""time"":6482},{""stimulus"":""run_exp/static/images/task_images/rocket-08.jpg"",""time"":7558},{""stimulus"":""run_exp/static/images/task_images/rocket-09.jpg"",""time"":8645}]",[],1,,,,,,,,,,,,,,
alien_welcome,72,334340,0.0-26.0-1.0,,null,run_exp/static/images/task_images/aliens/old_aliens/planet/alien_planet-70.jpg,null,,,,,,,,,,,,70,"64,70,50,74,4,72,1,6,30,9,5,62,19,69,54,3,2,77,52,20,68,12,47,22,63,14,35,73,39,10,17,66,28,29,51,67,37,34,45,58,38",,,,,,,,,,
land,73,334853,0.0-26.0-2.0,,null,run_exp/static/images/task_images/land.jpg,null,,,,,,98,,,2,,,,,,,,,,,,,,
dig,74,336882,0.0-26.0-3.0,,,,,,,,,,,"[{""stimulus"":""run_exp/static/images/task_images/dig.jpg"",""time"":0},{""stimulus"":""run_exp/static/images/task_images/land.jpg"",""time"":679},{""stimulus"":""run_exp/static/images/task_images/dig.jpg"",""time"":1359}]",[],2,,,,,,,,,,,,,,
harvest,75,337886,0.0-26.0-4.0,,null,run_exp/static/images/task_images/gems/98.jpg,null,,,,,,12,,,2,,,,,98,0.126231308,0.12244898,,,,,,,
decision,76,337915,0.0-26.0-5.0,,29,run_exp/static/images/task_images/land.jpg,65,,,,,,12,,,2,,,,,,,,35247,1,0,FALSE,,,
dig,77,340913,0.0-27.0-0.0,,,,,,,,,,,"[{""stimulus"":""run_exp/static/images/task_images/dig.jpg"",""time"":0},{""stimulus"":""run_exp/static/images/task_images/land.jpg"",""time"":999},{""stimulus"":""run_exp/static/images/task_images/dig.jpg"",""time"":1997}]",[],2,,,,,,,,,,,,,,
harvest,78,341928,0.0-27.0-1.0,,null,run_exp/static/images/task_images/gems/12.jpg,null,,,,,,3,,,2,,,,,12,0.23584856,0.25,,,,,,,
decision,79,342318,0.0-27.0-2.0,,389,run_exp/static/images/task_images/land.jpg,76,,,,,,3,,,2,,,,,,,,39650,1,1,TRUE,,,
travel,80,351979,0.0-28.0-0.0,,,,,,,,,,,"[{""stimulus"":""run_exp/static/images/task_images/rocket-01.jpg"",""time"":0},{""stimulus"":""run_exp/static/images/task_images/rocket-02.jpg"",""time"":1079},{""stimulus"":""run_exp/static/images/task_images/rocket-03.jpg"",""time"":2155},{""stimulus"":""run_exp/static/images/task_images/rocket-04.jpg"",""time"":3229},{""stimulus"":""run_exp/static/images/task_images/rocket-05.jpg"",""time"":4301},{""stimulus"":""run_exp/static/images/task_images/rocket-06.jpg"",""time"":5376},{""stimulus"":""run_exp/static/images/task_images/rocket-07.jpg"",""time"":6450},{""stimulus"":""run_exp/static/images/task_images/rocket-08.jpg"",""time"":7519},{""stimulus"":""run_exp/static/images/task_images/rocket-09.jpg"",""time"":8586}]",[],2,,,,,,,,,,,,,,
alien_welcome,81,356979,0.0-28.0-1.0,,null,run_exp/static/images/task_images/aliens/old_aliens/planet/alien_planet-50.jpg,null,,,,,,,,,,,,50,"64,70,50,74,4,72,1,6,30,9,5,62,19,69,54,3,2,77,52,20,68,12,47,22,63,14,35,73,39,10,17,66,28,29,51,67,37,34,45,58,38",,,,,,,,,,
land,82,357485,0.0-28.0-2.0,,null,run_exp/static/images/task_images/land.jpg,null,,,,,,111,,,3,,,,,,,,,,,,,,
dig,83,359526,0.0-28.0-3.0,,,,,,,,,,,"[{""stimulus"":""run_exp/static/images/task_images/dig.jpg"",""time"":0},{""stimulus"":""run_exp/static/images/task_images/land.jpg"",""time"":678},{""stimulus"":""run_exp/static/images/task_images/dig.jpg"",""time"":1360}]",[],3,,,,,,,,,,,,,,
harvest,84,360531,0.0-28.0-4.0,,null,run_exp/static/images/task_images/gems/111.jpg,null,,,,,,53,,,3,,,,,111,0.480486151,0.477477477,,,,,,,
decision,85,360851,0.0-28.0-5.0,,319,run_exp/static/images/task_images/land.jpg,65,,,,,,53,,,3,,,,,,,,58183,1,0,FALSE,,,
dig,86,363566,0.0-29.0-0.0,,,,,,,,,,,"[{""stimulus"":""run_exp/static/images/task_images/dig.jpg"",""time"":0},{""stimulus"":""run_exp/static/images/task_images/land.jpg"",""time"":906},{""stimulus"":""run_exp/static/images/task_images/dig.jpg"",""time"":1808}]",[],3,,,,,,,,,,,,,,
harvest,87,364572,0.0-29.0-1.0,,null,run_exp/static/images/task_images/gems/53.jpg,null,,,,,,21,,,3,,,,,53,0.389522495,0.396226415,,,,,,,
decision,88,364688,0.0-29.0-2.0,,116,run_exp/static/images/task_images/land.jpg,65,,,,,,21,,,3,,,,,,,,62020,1,1,FALSE,,,
dig,89,367607,0.0-30.0-0.0,,,,,,,,,,,"[{""stimulus"":""run_exp/static/images/task_images/dig.jpg"",""time"":0},{""stimulus"":""run_exp/static/images/task_images/land.jpg"",""time"":976},{""stimulus"":""run_exp/static/images/task_images/dig.jpg"",""time"":1951}]",[],3,,,,,,,,,,,,,,
harvest,90,368620,0.0-30.0-1.0,,null,run_exp/static/images/task_images/gems/21.jpg,null,,,,,,12,,,3,,,,,21,0.562464378,0.571428571,,,,,,,
decision,91,368974,0.0-30.0-2.0,,353,run_exp/static/images/task_images/land.jpg,76,,,,,,12,,,3,,,,,,,,66306,1,2,TRUE,,,
travel,92,378682,0.0-31.0-0.0,,,,,,,,,,,"[{""stimulus"":""run_exp/static/images/task_images/rocket-01.jpg"",""time"":0},{""stimulus"":""run_exp/static/images/task_images/rocket-02.jpg"",""time"":1085},{""stimulus"":""run_exp/static/images/task_images/rocket-03.jpg"",""time"":2162},{""stimulus"":""run_exp/static/images/task_images/rocket-04.jpg"",""time"":3242},{""stimulus"":""run_exp/static/images/task_images/rocket-05.jpg"",""time"":4315},{""stimulus"":""run_exp/static/images/task_images/rocket-06.jpg"",""time"":5394},{""stimulus"":""run_exp/static/images/task_images/rocket-07.jpg"",""time"":6468},{""stimulus"":""run_exp/static/images/task_images/rocket-08.jpg"",""time"":7545},{""stimulus"":""run_exp/static/images/task_images/rocket-09.jpg"",""time"":8628}]",[],3,,,,,,,,,,,,,,
alien_welcome,93,383691,0.0-31.0-1.0,,null,run_exp/static/images/task_images/aliens/old_aliens/planet/alien_planet-74.jpg,null,,,,,,,,,,,,74,"64,70,50,74,4,72,1,6,30,9,5,62,19,69,54,3,2,77,52,20,68,12,47,22,63,14,35,73,39,10,17,66,28,29,51,67,37,34,45,58,38",,,,,,,,,,
land,94,384196,0.0-31.0-2.0,,null,run_exp/static/images/task_images/land.jpg,null,,,,,,94,,,4,,,,,,,,,,,,,,
dig,95,386214,0.0-31.0-3.0,,,,,,,,,,,"[{""stimulus"":""run_exp/static/images/task_images/dig.jpg"",""time"":1},{""stimulus"":""run_exp/static/images/task_images/land.jpg"",""time"":670},{""stimulus"":""run_exp/static/images/task_images/dig.jpg"",""time"":1343}]",[],4,,,,,,,,,,,,,,
harvest,96,387219,0.0-31.0-4.0,,null,run_exp/static/images/task_images/gems/94.jpg,null,,,,,,48,,,4,,,,,94,0.506900853,0.510638298,,,,,,,
decision,97,387356,0.0-31.0-5.0,,137,run_exp/static/images/task_images/land.jpg,65,,,,,,48,,,4,,,,,,,,84688,1,0,FALSE,,,
dig,98,390245,0.0-32.0-0.0,,,,,,,,,,,"[{""stimulus"":""run_exp/static/images/task_images/dig.jpg"",""time"":0},{""stimulus"":""run_exp/static/images/task_images/land.jpg"",""time"":968},{""stimulus"":""run_exp/static/images/task_images/dig.jpg"",""time"":1930}]",[],4,,,,,,,,,,,,,,
harvest,99,391260,0.0-32.0-1.0,,null,run_exp/static/images/task_images/gems/48.jpg,null,,,,,,21,,,4,,,,,48,0.432001496,0.4375,,,,,,,
decision,100,391568,0.0-32.0-2.0,,307,run_exp/static/images/task_images/land.jpg,65,,,,,,21,,,4,,,,,,,,88900,1,1,FALSE,,,
dig,101,394277,0.0-33.0-0.0,,,,,,,,,,,"[{""stimulus"":""run_exp/static/images/task_images/dig.jpg"",""time"":0},{""stimulus"":""run_exp/static/images/task_images/land.jpg"",""time"":903},{""stimulus"":""run_exp/static/images/task_images/dig.jpg"",""time"":1803}]",[],4,,,,,,,,,,,,,,
harvest,102,395290,0.0-33.0-1.0,,null,run_exp/static/images/task_images/gems/21.jpg,null,,,,,,11,,,4,,,,,21,0.528912485,0.523809524,,,,,,,
decision,103,395450,0.0-33.0-2.0,,158,run_exp/static/images/task_images/land.jpg,76,,,,,,11,,,4,,,,,,,,92782,1,2,TRUE,,,
travel,104,405338,0.0-34.0-0.0,,,,,,,,,,,"[{""stimulus"":""run_exp/static/images/task_images/rocket-01.jpg"",""time"":0},{""stimulus"":""run_exp/static/images/task_images/rocket-02.jpg"",""time"":1104},{""stimulus"":""run_exp/static/images/task_images/rocket-03.jpg"",""time"":2202},{""stimulus"":""run_exp/static/images/task_images/rocket-04.jpg"",""time"":3308},{""stimulus"":""run_exp/static/images/task_images/rocket-05.jpg"",""time"":4413},{""stimulus"":""run_exp/static/images/task_images/rocket-06.jpg"",""time"":5511},{""stimulus"":""run_exp/static/images/task_images/rocket-07.jpg"",""time"":6606},{""stimulus"":""run_exp/static/images/task_images/rocket-08.jpg"",""time"":7699},{""stimulus"":""run_exp/static/images/task_images/rocket-09.jpg"",""time"":8792}]",[],4,,,,,,,,,,,,,,
alien_welcome,105,410350,0.0-34.0-1.0,,null,run_exp/static/images/task_images/aliens/old_aliens/planet/alien_planet-4.jpg,null,,,,,,,,,,,,4,"64,70,50,74,4,72,1,6,30,9,5,62,19,69,54,3,2,77,52,20,68,12,47,22,63,14,35,73,39,10,17,66,28,29,51,67,37,34,45,58,38",,,,,,,,,,
land,106,410854,0.0-34.0-2.0,,null,run_exp/static/images/task_images/land.jpg,null,,,,,,101,,,5,,,,,,,,,,,,,,
dig,107,412870,0.0-34.0-3.0,,,,,,,,,,,"[{""stimulus"":""run_exp/static/images/task_images/dig.jpg"",""time"":0},{""stimulus"":""run_exp/static/images/task_images/land.jpg"",""time"":671},{""stimulus"":""run_exp/static/images/task_images/dig.jpg"",""time"":1342}]",[],5,,,,,,,,,,,,,,
harvest,108,413885,0.0-34.0-4.0,,null,run_exp/static/images/task_images/gems/101.jpg,null,,,,,,44,,,5,,,,,101,0.437131564,0.435643564,,,,,,,
decision,109,413938,0.0-34.0-5.0,,52,run_exp/static/images/task_images/land.jpg,65,,,,,,44,,,5,,,,,,,,111270,1,0,FALSE,,,
dig,110,416916,0.0-35.0-0.0,,,,,,,,,,,"[{""stimulus"":""run_exp/static/images/task_images/dig.jpg"",""time"":0},{""stimulus"":""run_exp/static/images/task_images/land.jpg"",""time"":994},{""stimulus"":""run_exp/static/images/task_images/dig.jpg"",""time"":1976}]",[],5,,,,,,,,,,,,,,
harvest,111,417918,0.0-35.0-1.0,,null,run_exp/static/images/task_images/gems/44.jpg,null,,,,,,20,,,5,,,,,44,0.446915038,0.454545455,,,,,,,
decision,112,418045,0.0-35.0-2.0,,127,run_exp/static/images/task_images/land.jpg,65,,,,,,20,,,5,,,,,,,,115377,1,1,FALSE,,,
dig,113,420941,0.0-36.0-0.0,,,,,,,,,,,"[{""stimulus"":""run_exp/static/images/task_images/dig.jpg"",""time"":0},{""stimulus"":""run_exp/static/images/task_images/land.jpg"",""time"":963},{""stimulus"":""run_exp/static/images/task_images/dig.jpg"",""time"":1922}]",[],5,,,,,,,,,,,,,,
harvest,114,421949,0.0-36.0-1.0,,null,run_exp/static/images/task_images/gems/20.jpg,null,,,,,,10,,,5,,,,,20,0.48958029,0.5,,,,,,,
decision,115,422044,0.0-36.0-2.0,,95,run_exp/static/images/task_images/land.jpg,76,,,,,,10,,,5,,,,,,,,119376,1,2,TRUE,,,
travel,116,432013,0.0-37.0-0.0,,,,,,,,,,,"[{""stimulus"":""run_exp/static/images/task_images/rocket-01.jpg"",""time"":0},{""stimulus"":""run_exp/static/images/task_images/rocket-02.jpg"",""time"":1104},{""stimulus"":""run_exp/static/images/task_images/rocket-03.jpg"",""time"":2218},{""stimulus"":""run_exp/static/images/task_images/rocket-04.jpg"",""time"":3324},{""stimulus"":""run_exp/static/images/task_images/rocket-05.jpg"",""time"":4426},{""stimulus"":""run_exp/static/images/task_images/rocket-06.jpg"",""time"":5534},{""stimulus"":""run_exp/static/images/task_images/rocket-07.jpg"",""time"":6637},{""stimulus"":""run_exp/static/images/task_images/rocket-08.jpg"",""time"":7742},{""stimulus"":""run_exp/static/images/task_images/rocket-09.jpg"",""time"":8851}]",[],5,,,,,,,,,,,,,,
alien_welcome,117,437021,0.0-37.0-1.0,,null,run_exp/static/images/task_images/aliens/old_aliens/planet/alien_planet-72.jpg,null,,,,,,,,,,,,72,"64,70,50,74,4,72,1,6,30,9,5,62,19,69,54,3,2,77,52,20,68,12,47,22,63,14,35,73,39,10,17,66,28,29,51,67,37,34,45,58,38",,,,,,,,,,
land,118,437526,0.0-37.0-2.0,,null,run_exp/static/images/task_images/land.jpg,null,,,,,,104,,,6,,,,,,,,,,,,,,
dig,119,439544,0.0-37.0-3.0,,,,,,,,,,,"[{""stimulus"":""run_exp/static/images/task_images/dig.jpg"",""time"":0},{""stimulus"":""run_exp/static/images/task_images/land.jpg"",""time"":673},{""stimulus"":""run_exp/static/images/task_images/dig.jpg"",""time"":1340}]",[],6,,,,,,,,,,,,,,
harvest,120,440557,0.0-37.0-4.0,,null,run_exp/static/images/task_images/gems/104.jpg,null,,,,,,85,,,6,,,,,104,0.814188179,0.817307692,,,,,,,
decision,121,440608,0.0-37.0-5.0,,52,run_exp/static/images/task_images/land.jpg,65,,,,,,85,,,6,,,,,,,,137940,1,0,FALSE,,,
dig,122,443587,0.0-38.0-0.0,,,,,,,,,,,"[{""stimulus"":""run_exp/static/images/task_images/dig.jpg"",""time"":0},{""stimulus"":""run_exp/static/images/task_images/land.jpg"",""time"":993},{""stimulus"":""run_exp/static/images/task_images/dig.jpg"",""time"":1977}]",[],6,,,,,,,,,,,,,,
harvest,123,444589,0.0-38.0-1.0,,null,run_exp/static/images/task_images/gems/85.jpg,null,,,,,,63,,,6,,,,,85,0.745179922,0.741176471,,,,,,,
decision,124,444747,0.0-38.0-2.0,,158,run_exp/static/images/task_images/land.jpg,65,,,,,,63,,,6,,,,,,,,142079,1,1,FALSE,,,
dig,125,447620,0.0-39.0-0.0,,,,,,,,,,,"[{""stimulus"":""run_exp/static/images/task_images/dig.jpg"",""time"":0},{""stimulus"":""run_exp/static/images/task_images/land.jpg"",""time"":959},{""stimulus"":""run_exp/static/images/task_images/dig.jpg"",""time"":1918}]",[],6,,,,,,,,,,,,,,
harvest,126,448620,0.0-39.0-1.0,,null,run_exp/static/images/task_images/gems/63.jpg,null,,,,,,50,,,6,,,,,63,0.794742533,0.793650794,,,,,,,
decision,127,448652,0.0-39.0-2.0,,32,run_exp/static/images/task_images/land.jpg,65,,,,,,50,,,6,,,,,,,,145984,1,2,FALSE,,,
dig,128,451636,0.0-40.0-0.0,,,,,,,,,,,"[{""stimulus"":""run_exp/static/images/task_images/dig.jpg"",""time"":0},{""stimulus"":""run_exp/static/images/task_images/land.jpg"",""time"":995},{""stimulus"":""run_exp/static/images/task_images/dig.jpg"",""time"":1986}]",[],6,,,,,,,,,,,,,,
harvest,129,452647,0.0-40.0-1.0,,null,run_exp/static/images/task_images/gems/50.jpg,null,,,,,,43,,,6,,,,,50,0.863847742,0.86,,,,,,,
decision,130,452817,0.0-40.0-2.0,,169,run_exp/static/images/task_images/land.jpg,65,,,,,,43,,,6,,,,,,,,150149,1,3,FALSE,,,
dig,131,455666,0.0-41.0-0.0,,,,,,,,,,,"[{""stimulus"":""run_exp/static/images/task_images/dig.jpg"",""time"":0},{""stimulus"":""run_exp/static/images/task_images/land.jpg"",""time"":943},{""stimulus"":""run_exp/static/images/task_images/dig.jpg"",""time"":1893}]",[],6,,,,,,,,,,,,,,
harvest,132,456673,0.0-41.0-1.0,,null,run_exp/static/images/task_images/gems/43.jpg,null,,,,,,38,,,6,,,,,43,0.883965771,0.88372093,,,,,,,
decision,133,456706,0.0-41.0-2.0,,33,run_exp/static/images/task_images/land.jpg,65,,,,,,38,,,6,,,,,,,,154038,1,4,FALSE,,,
dig,134,459704,0.0-42.0-0.0,,,,,,,,,,,"[{""stimulus"":""run_exp/static/images/task_images/dig.jpg"",""time"":0},{""stimulus"":""run_exp/static/images/task_images/land.jpg"",""time"":1003},{""stimulus"":""run_exp/static/images/task_images/dig.jpg"",""time"":1999}]",[],6,,,,,,,,,,,,,,
harvest,135,460713,0.0-42.0-1.0,,null,run_exp/static/images/task_images/gems/38.jpg,null,,,,,,27,,,6,,,,,38,0.719912871,0.710526316,,,,,,,
decision,136,460720,0.0-42.0-2.0,,7,run_exp/static/images/task_images/land.jpg,65,,,,,,27,,,6,,,,,,,,158052,1,5,FALSE,,,
dig,137,463730,0.0-43.0-0.0,,,,,,,,,,,"[{""stimulus"":""run_exp/static/images/task_images/dig.jpg"",""time"":0},{""stimulus"":""run_exp/static/images/task_images/land.jpg"",""time"":1004},{""stimulus"":""run_exp/static/images/task_images/dig.jpg"",""time"":2006}]",[],6,,,,,,,,,,,,,,
harvest,138,464738,0.0-43.0-1.0,,null,run_exp/static/images/task_images/gems/27.jpg,null,,,,,,22,,,6,,,,,27,0.806863549,0.814814815,,,,,,,
decision,139,465031,0.0-43.0-2.0,,293,run_exp/static/images/task_images/land.jpg,76,,,,,,22,,,6,,,,,,,,162363,1,6,TRUE,,,
travel,140,474821,0.0-44.0-0.0,,,,,,,,,,,"[{""stimulus"":""run_exp/static/images/task_images/rocket-01.jpg"",""time"":0},{""stimulus"":""run_exp/static/images/task_images/rocket-02.jpg"",""time"":1088},{""stimulus"":""run_exp/static/images/task_images/rocket-03.jpg"",""time"":2173},{""stimulus"":""run_exp/static/images/task_images/rocket-04.jpg"",""time"":3260},{""stimulus"":""run_exp/static/images/task_images/rocket-05.jpg"",""time"":4341},{""stimulus"":""run_exp/static/images/task_images/rocket-06.jpg"",""time"":5430},{""stimulus"":""run_exp/static/images/task_images/rocket-07.jpg"",""time"":6522},{""stimulus"":""run_exp/static/images/task_images/rocket-08.jpg"",""time"":7614},{""stimulus"":""run_exp/static/images/task_images/rocket-09.jpg"",""time"":8695}]",[],6,,,,,,,,,,,,,,
alien_welcome,141,479824,0.0-44.0-1.0,,null,run_exp/static/images/task_images/aliens/old_aliens/planet/alien_planet-1.jpg,null,,,,,,,,,,,,1,"64,70,50,74,4,72,1,6,30,9,5,62,19,69,54,3,2,77,52,20,68,12,47,22,63,14,35,73,39,10,17,66,28,29,51,67,37,34,45,58,38",,,,,,,,,,
land,142,480324,0.0-44.0-2.0,,null,run_exp/static/images/task_images/land.jpg,null,,,,,,94,,,7,,,,,,,,,,,,,,
dig,143,482357,0.0-44.0-3.0,,,,,,,,,,,"[{""stimulus"":""run_exp/static/images/task_images/dig.jpg"",""time"":0},{""stimulus"":""run_exp/static/images/task_images/land.jpg"",""time"":681},{""stimulus"":""run_exp/static/images/task_images/dig.jpg"",""time"":1357}]",[],7,,,,,,,,,,,,,,
harvest,144,483369,0.0-44.0-4.0,,null,run_exp/static/images/task_images/gems/94.jpg,null,,,,,,77,,,7,,,,,94,0.81977726,0.819148936,,,,,,,
decision,145,483386,0.0-44.0-5.0,,16,run_exp/static/images/task_images/land.jpg,65,,,,,,77,,,7,,,,,,,,180718,1,0,FALSE,,,
dig,146,486385,0.0-45.0-0.0,,,,,,,,,,,"[{""stimulus"":""run_exp/static/images/task_images/dig.jpg"",""time"":0},{""stimulus"":""run_exp/static/images/task_images/land.jpg"",""time"":995},{""stimulus"":""run_exp/static/images/task_images/dig.jpg"",""time"":1989}]",[],7,,,,,,,,,,,,,,
harvest,147,487391,0.0-45.0-1.0,,null,run_exp/static/images/task_images/gems/77.jpg,null,,,,,,65,,,7,,,,,77,0.842296711,0.844155844,,,,,,,
decision,148,487396,0.0-45.0-2.0,,4,run_exp/static/images/task_images/land.jpg,65,,,,,,65,,,7,,,,,,,,184728,1,1,FALSE,,,
dig,149,490418,0.0-46.0-0.0,,,,,,,,,,,"[{""stimulus"":""run_exp/static/images/task_images/dig.jpg"",""time"":0},{""stimulus"":""run_exp/static/images/task_images/land.jpg"",""time"":1010},{""stimulus"":""run_exp/static/images/task_images/dig.jpg"",""time"":2018}]",[],7,,,,,,,,,,,,,,
harvest,150,491422,0.0-46.0-1.0,,null,run_exp/static/images/task_images/gems/65.jpg,null,,,,,,51,,,7,,,,,65,0.783285609,0.784615385,,,,,,,
decision,151,491486,0.0-46.0-2.0,,64,run_exp/static/images/task_images/land.jpg,65,,,,,,51,,,7,,,,,,,,188818,1,2,FALSE,,,
dig,152,494446,0.0-47.0-0.0,,,,,,,,,,,"[{""stimulus"":""run_exp/static/images/task_images/dig.jpg"",""time"":0},{""stimulus"":""run_exp/static/images/task_images/land.jpg"",""time"":989},{""stimulus"":""run_exp/static/images/task_images/dig.jpg"",""time"":1972}]",[],7,,,,,,,,,,,,,,
harvest,153,495448,0.0-47.0-1.0,,null,run_exp/static/images/task_images/gems/51.jpg,null,,,,,,39,,,7,,,,,51,0.770239744,0.764705882,,,,,,,
decision,154,495520,0.0-47.0-2.0,,70,run_exp/static/images/task_images/land.jpg,65,,,,,,39,,,7,,,,,,,,192852,1,3,FALSE,,,
dig,155,498481,0.0-48.0-0.0,,,,,,,,,,,"[{""stimulus"":""run_exp/static/images/task_images/dig.jpg"",""time"":0},{""stimulus"":""run_exp/static/images/task_images/land.jpg"",""time"":989},{""stimulus"":""run_exp/static/images/task_images/dig.jpg"",""time"":1967}]",[],7,,,,,,,,,,,,,,
harvest,156,499496,0.0-48.0-1.0,,null,run_exp/static/images/task_images/gems/39.jpg,null,,,,,,28,,,7,,,,,39,0.715651015,0.717948718,,,,,,,
decision,157,499538,0.0-48.0-2.0,,42,run_exp/static/images/task_images/land.jpg,65,,,,,,28,,,7,,,,,,,,196870,1,4,FALSE,,,
dig,158,502535,0.0-49.0-0.0,,,,,,,,,,,"[{""stimulus"":""run_exp/static/images/task_images/dig.jpg"",""time"":0},{""stimulus"":""run_exp/static/images/task_images/land.jpg"",""time"":993},{""stimulus"":""run_exp/static/images/task_images/dig.jpg"",""time"":1991}]",[],7,,,,,,,,,,,,,,
harvest,159,503535,0.0-49.0-1.0,,null,run_exp/static/images/task_images/gems/28.jpg,null,,,,,,23,,,7,,,,,28,0.830364811,0.821428571,,,,,,,
decision,160,503538,0.0-49.0-2.0,,4,run_exp/static/images/task_images/land.jpg,76,,,,,,23,,,7,,,,,,,,200870,1,5,TRUE,,,
travel,161,513602,0.0-50.0-0.0,,,,,,,,,,,"[{""stimulus"":""run_exp/static/images/task_images/rocket-01.jpg"",""time"":0},{""stimulus"":""run_exp/static/images/task_images/rocket-02.jpg"",""time"":1110},{""stimulus"":""run_exp/static/images/task_images/rocket-03.jpg"",""time"":2235},{""stimulus"":""run_exp/static/images/task_images/rocket-04.jpg"",""time"":3355},{""stimulus"":""run_exp/static/images/task_images/rocket-05.jpg"",""time"":4469},{""stimulus"":""run_exp/static/images/task_images/rocket-06.jpg"",""time"":5580},{""stimulus"":""run_exp/static/images/task_images/rocket-07.jpg"",""time"":6697},{""stimulus"":""run_exp/static/images/task_images/rocket-08.jpg"",""time"":7821},{""stimulus"":""run_exp/static/images/task_images/rocket-09.jpg"",""time"":8946}]",[],7,,,,,,,,,,,,,,
alien_welcome,162,518604,0.0-50.0-1.0,,null,run_exp/static/images/task_images/aliens/old_aliens/planet/alien_planet-6.jpg,null,,,,,,,,,,,,6,"64,70,50,74,4,72,1,6,30,9,5,62,19,69,54,3,2,77,52,20,68,12,47,22,63,14,35,73,39,10,17,66,28,29,51,67,37,34,45,58,38",,,,,,,,,,
land,163,519106,0.0-50.0-2.0,,null,run_exp/static/images/task_images/land.jpg,null,,,,,,103,,,8,,,,,,,,,,,,,,
dig,164,521133,0.0-50.0-3.0,,,,,,,,,,,"[{""stimulus"":""run_exp/static/images/task_images/dig.jpg"",""time"":0},{""stimulus"":""run_exp/static/images/task_images/land.jpg"",""time"":675},{""stimulus"":""run_exp/static/images/task_images/dig.jpg"",""time"":1342}]",[],8,,,,,,,,,,,,,,
harvest,165,522142,0.0-50.0-4.0,,null,run_exp/static/images/task_images/gems/103.jpg,null,,,,,,76,,,8,,,,,103,0.740841996,0.737864078,,,,,,,
decision,166,522297,0.0-50.0-5.0,,153,run_exp/static/images/task_images/land.jpg,65,,,,,,76,,,8,,,,,,,,219629,1,0,FALSE,,,
dig,167,525176,0.0-51.0-0.0,,,,,,,,,,,"[{""stimulus"":""run_exp/static/images/task_images/dig.jpg"",""time"":0},{""stimulus"":""run_exp/static/images/task_images/land.jpg"",""time"":961},{""stimulus"":""run_exp/static/images/task_images/dig.jpg"",""time"":1913}]",[],8,,,,,,,,,,,,,,
harvest,168,526182,0.0-51.0-1.0,,null,run_exp/static/images/task_images/gems/76.jpg,null,,,,,,59,,,8,,,,,76,0.779592918,0.776315789,,,,,,,
decision,169,526273,0.0-51.0-2.0,,92,run_exp/static/images/task_images/land.jpg,65,,,,,,59,,,8,,,,,,,,223605,1,1,FALSE,,,
dig,170,529214,0.0-52.0-0.0,,,,,,,,,,,"[{""stimulus"":""run_exp/static/images/task_images/dig.jpg"",""time"":0},{""stimulus"":""run_exp/static/images/task_images/land.jpg"",""time"":983},{""stimulus"":""run_exp/static/images/task_images/dig.jpg"",""time"":1967}]",[],8,,,,,,,,,,,,,,
harvest,171,530229,0.0-52.0-1.0,,null,run_exp/static/images/task_images/gems/59.jpg,null,,,,,,46,,,8,,,,,59,0.781951548,0.779661017,,,,,,,
decision,172,530327,0.0-52.0-2.0,,98,run_exp/static/images/task_images/land.jpg,65,,,,,,46,,,8,,,,,,,,227659,1,2,FALSE,,,
dig,173,533270,0.0-53.0-0.0,,,,,,,,,,,"[{""stimulus"":""run_exp/static/images/task_images/dig.jpg"",""time"":0},{""stimulus"":""run_exp/static/images/task_images/land.jpg"",""time"":981},{""stimulus"":""run_exp/static/images/task_images/dig.jpg"",""time"":1961}]",[],8,,,,,,,,,,,,,,
harvest,174,534275,0.0-53.0-1.0,,null,run_exp/static/images/task_images/gems/46.jpg,null,,,,,,38,,,8,,,,,46,0.829803925,0.826086957,,,,,,,
decision,175,534304,0.0-53.0-2.0,,28,run_exp/static/images/task_images/land.jpg,65,,,,,,38,,,8,,,,,,,,231636,1,3,FALSE,,,
dig,176,537307,0.0-54.0-0.0,,,,,,,,,,,"[{""stimulus"":""run_exp/static/images/task_images/dig.jpg"",""time"":0},{""stimulus"":""run_exp/static/images/task_images/land.jpg"",""time"":1001},{""stimulus"":""run_exp/static/images/task_images/dig.jpg"",""time"":2004}]",[],8,,,,,,,,,,,,,,
harvest,177,538308,0.0-54.0-1.0,,null,run_exp/static/images/task_images/gems/38.jpg,null,,,,,,34,,,8,,,,,38,0.891774756,0.894736842,,,,,,,
decision,178,538360,0.0-54.0-2.0,,50,run_exp/static/images/task_images/land.jpg,65,,,,,,34,,,8,,,,,,,,235692,1,4,FALSE,,,
dig,179,541323,0.0-55.0-0.0,,,,,,,,,,,"[{""stimulus"":""run_exp/static/images/task_images/dig.jpg"",""time"":0},{""stimulus"":""run_exp/static/images/task_images/land.jpg"",""time"":993},{""stimulus"":""run_exp/static/images/task_images/dig.jpg"",""time"":1976}]",[],8,,,,,,,,,,,,,,
harvest,180,542323,0.0-55.0-1.0,,null,run_exp/static/images/task_images/gems/34.jpg,null,,,,,,31,,,8,,,,,34,0.914179558,0.911764706,,,,,,,
decision,181,542333,0.0-55.0-2.0,,10,run_exp/static/images/task_images/land.jpg,65,,,,,,31,,,8,,,,,,,,239665,1,5,FALSE,,,
dig,182,545356,0.0-56.0-0.0,,,,,,,,,,,"[{""stimulus"":""run_exp/static/images/task_images/dig.jpg"",""time"":0},{""stimulus"":""run_exp/static/images/task_images/land.jpg"",""time"":1001},{""stimulus"":""run_exp/static/images/task_images/dig.jpg"",""time"":2009}]",[],8,,,,,,,,,,,,,,
harvest,183,546369,0.0-56.0-1.0,,null,run_exp/static/images/task_images/gems/31.jpg,null,,,,,,25,,,8,,,,,31,0.799545453,0.806451613,,,,,,,
decision,184,546529,0.0-56.0-2.0,,160,run_exp/static/images/task_images/land.jpg,65,,,,,,25,,,8,,,,,,,,243861,1,6,FALSE,,,
dig,185,549403,0.0-57.0-0.0,,,,,,,,,,,"[{""stimulus"":""run_exp/static/images/task_images/dig.jpg"",""time"":0},{""stimulus"":""run_exp/static/images/task_images/land.jpg"",""time"":960},{""stimulus"":""run_exp/static/images/task_images/dig.jpg"",""time"":1909}]",[],8,,,,,,,,,,,,,,
harvest,186,550404,0.0-57.0-1.0,,null,run_exp/static/images/task_images/gems/25.jpg,null,,,,,,20,,,8,,,,,25,0.805118659,0.8,,,,,,,
decision,187,550455,0.0-57.0-2.0,,51,run_exp/static/images/task_images/land.jpg,76,,,,,,20,,,8,,,,,,,,247787,1,7,TRUE,,,
travel,188,560470,0.0-58.0-0.0,,,,,,,,,,,"[{""stimulus"":""run_exp/static/images/task_images/rocket-01.jpg"",""time"":0},{""stimulus"":""run_exp/static/images/task_images/rocket-02.jpg"",""time"":1112},{""stimulus"":""run_exp/static/images/task_images/rocket-03.jpg"",""time"":2223},{""stimulus"":""run_exp/static/images/task_images/rocket-04.jpg"",""time"":3329},{""stimulus"":""run_exp/static/images/task_images/rocket-05.jpg"",""time"":4442},{""stimulus"":""run_exp/static/images/task_images/rocket-06.jpg"",""time"":5551},{""stimulus"":""run_exp/static/images/task_images/rocket-07.jpg"",""time"":6663},{""stimulus"":""run_exp/static/images/task_images/rocket-08.jpg"",""time"":7782},{""stimulus"":""run_exp/static/images/task_images/rocket-09.jpg"",""time"":8891}]",[],8,,,,,,,,,,,,,,
alien_welcome,189,565477,0.0-58.0-1.0,,null,run_exp/static/images/task_images/aliens/old_aliens/planet/alien_planet-30.jpg,null,,,,,,,,,,,,30,"64,70,50,74,4,72,1,6,30,9,5,62,19,69,54,3,2,77,52,20,68,12,47,22,63,14,35,73,39,10,17,66,28,29,51,67,37,34,45,58,38",,,,,,,,,,
land,190,565980,0.0-58.0-2.0,,null,run_exp/static/images/task_images/land.jpg,null,,,,,,100,,,9,,,,,,,,,,,,,,
dig,191,567999,0.0-58.0-3.0,,,,,,,,,,,"[{""stimulus"":""run_exp/static/images/task_images/dig.jpg"",""time"":0},{""stimulus"":""run_exp/static/images/task_images/land.jpg"",""time"":668},{""stimulus"":""run_exp/static/images/task_images/dig.jpg"",""time"":1340}]",[],9,,,,,,,,,,,,,,
harvest,192,569011,0.0-58.0-4.0,,null,run_exp/static/images/task_images/gems/100.jpg,null,,,,,,23,,,9,,,,,100,0.228949592,0.23,,,,,,,
decision,193,569013,0.0-58.0-5.0,,2,run_exp/static/images/task_images/land.jpg,65,,,,,,23,,,9,,,,,,,,266345,1,0,FALSE,,,
dig,194,572041,0.0-59.0-0.0,,,,,,,,,,,"[{""stimulus"":""run_exp/static/images/task_images/dig.jpg"",""time"":0},{""stimulus"":""run_exp/static/images/task_images/land.jpg"",""time"":1014},{""stimulus"":""run_exp/static/images/task_images/dig.jpg"",""time"":2023}]",[],9,,,,,,,,,,,,,,
harvest,195,573055,0.0-59.0-1.0,,null,run_exp/static/images/task_images/gems/23.jpg,null,,,,,,6,,,9,,,,,23,0.262345533,0.260869565,,,,,,,
decision,196,573462,0.0-59.0-2.0,,407,run_exp/static/images/task_images/land.jpg,76,,,,,,6,,,9,,,,,,,,270794,1,1,TRUE,,,
travel,197,583156,0.0-60.0-0.0,,,,,,,,,,,"[{""stimulus"":""run_exp/static/images/task_images/rocket-01.jpg"",""time"":0},{""stimulus"":""run_exp/static/images/task_images/rocket-02.jpg"",""time"":1075},{""stimulus"":""run_exp/static/images/task_images/rocket-03.jpg"",""time"":2150},{""stimulus"":""run_exp/static/images/task_images/rocket-04.jpg"",""time"":3229},{""stimulus"":""run_exp/static/images/task_images/rocket-05.jpg"",""time"":4308},{""stimulus"":""run_exp/static/images/task_images/rocket-06.jpg"",""time"":5388},{""stimulus"":""run_exp/static/images/task_images/rocket-07.jpg"",""time"":6466},{""stimulus"":""run_exp/static/images/task_images/rocket-08.jpg"",""time"":7538},{""stimulus"":""run_exp/static/images/task_images/rocket-09.jpg"",""time"":8616}]",[],9,,,,,,,,,,,,,,
alien_welcome,198,588167,0.0-60.0-1.0,,null,run_exp/static/images/task_images/aliens/old_aliens/planet/alien_planet-9.jpg,null,,,,,,,,,,,,9,"64,70,50,74,4,72,1,6,30,9,5,62,19,69,54,3,2,77,52,20,68,12,47,22,63,14,35,73,39,10,17,66,28,29,51,67,37,34,45,58,38",,,,,,,,,,
land,199,588678,0.0-60.0-2.0,,null,run_exp/static/images/task_images/land.jpg,null,,,,,,98,,,10,,,,,,,,,,,,,,
dig,200,590719,0.0-60.0-3.0,,,,,,,,,,,"[{""stimulus"":""run_exp/static/images/task_images/dig.jpg"",""time"":0},{""stimulus"":""run_exp/static/images/task_images/land.jpg"",""time"":680},{""stimulus"":""run_exp/static/images/task_images/dig.jpg"",""time"":1360}]",[],10,,,,,,,,,,,,,,
harvest,201,591730,0.0-60.0-4.0,,null,run_exp/static/images/task_images/gems/98.jpg,null,,,,,,14,,,10,,,,,98,0.141142053,0.142857143,,,,,,,
decision,202,591776,0.0-60.0-5.0,,46,run_exp/static/images/task_images/land.jpg,65,,,,,,14,,,10,,,,,,,,289108,1,0,FALSE,,,
dig,203,594776,0.0-61.0-0.0,,,,,,,,,,,"[{""stimulus"":""run_exp/static/images/task_images/dig.jpg"",""time"":0},{""stimulus"":""run_exp/static/images/task_images/land.jpg"",""time"":999},{""stimulus"":""run_exp/static/images/task_images/dig.jpg"",""time"":1997}]",[],10,,,,,,,,,,,,,,
harvest,204,595792,0.0-61.0-1.0,,null,run_exp/static/images/task_images/gems/14.jpg,null,,,,,,3,,,10,,,,,14,0.181644303,0.214285714,,,,,,,
decision,205,595956,0.0-61.0-2.0,,164,run_exp/static/images/task_images/land.jpg,76,,,,,,3,,,10,,,,,,,,293288,1,1,TRUE,,,
travel,206,605830,0.0-62.0-0.0,,,,,,,,,,,"[{""stimulus"":""run_exp/static/images/task_images/rocket-01.jpg"",""time"":0},{""stimulus"":""run_exp/static/images/task_images/rocket-02.jpg"",""time"":1098},{""stimulus"":""run_exp/static/images/task_images/rocket-03.jpg"",""time"":2190},{""stimulus"":""run_exp/static/images/task_images/rocket-04.jpg"",""time"":3295},{""stimulus"":""run_exp/static/images/task_images/rocket-05.jpg"",""time"":4389},{""stimulus"":""run_exp/static/images/task_images/rocket-06.jpg"",""time"":5481},{""stimulus"":""run_exp/static/images/task_images/rocket-07.jpg"",""time"":6575},{""stimulus"":""run_exp/static/images/task_images/rocket-08.jpg"",""time"":7675},{""stimulus"":""run_exp/static/images/task_images/rocket-09.jpg"",""time"":8770}]",[],10,,,,,,,,,,,,,,
alien_welcome,207,610840,0.0-62.0-1.0,,null,run_exp/static/images/task_images/aliens/old_aliens/planet/alien_planet-5.jpg,null,,,,,,,,,,,,5,"64,70,50,74,4,72,1,6,30,9,5,62,19,69,54,3,2,77,52,20,68,12,47,22,63,14,35,73,39,10,17,66,28,29,51,67,37,34,45,58,38",,,,,,,,,,
land,208,611349,0.0-62.0-2.0,,null,run_exp/static/images/task_images/land.jpg,null,,,,,,111,,,11,,,,,,,,,,,,,,
dig,209,613390,0.0-62.0-3.0,,,,,,,,,,,"[{""stimulus"":""run_exp/static/images/task_images/dig.jpg"",""time"":1},{""stimulus"":""run_exp/static/images/task_images/land.jpg"",""time"":676},{""stimulus"":""run_exp/static/images/task_images/dig.jpg"",""time"":1358}]",[],11,,,,,,,,,,,,,,
harvest,210,614402,0.0-62.0-4.0,,null,run_exp/static/images/task_images/gems/111.jpg,null,,,,,,21,,,11,,,,,111,0.191801863,0.189189189,,,,,,,
decision,211,614411,0.0-62.0-5.0,,8,run_exp/static/images/task_images/land.jpg,65,,,,,,21,,,11,,,,,,,,311743,1,0,TRUE,,,
end_of_block_continue,212,618594,0.0-63.0-0.0,,4182,run_exp/static/audio/clip_32_block_end.m4a,,,,,,0,,,,,,,,,,,,,,,,,,
alien_welcome,213,623607,0.0-64.0-0.0,,null,run_exp/static/images/task_images/aliens/old_aliens/planet/alien_planet-62.jpg,null,,,,,,,,,,,,62,"64,70,50,74,4,72,1,6,30,9,5,62,19,69,54,3,2,77,52,20,68,12,47,22,63,14,35,73,39,10,17,66,28,29,51,67,37,34,45,58,38",,,,,,,,,,
land,214,624107,0.0-64.0-1.0,,null,run_exp/static/images/task_images/land.jpg,null,,,,,,104,,,12,,,,,,,,,,,,,,
dig,215,626152,0.0-64.0-2.0,,,,,,,,,,,"[{""stimulus"":""run_exp/static/images/task_images/dig.jpg"",""time"":0},{""stimulus"":""run_exp/static/images/task_images/land.jpg"",""time"":678},{""stimulus"":""run_exp/static/images/task_images/dig.jpg"",""time"":1359}]",[],12,,,,,,,,,,,,,,
harvest,216,627152,0.0-64.0-3.0,,null,run_exp/static/images/task_images/gems/104.jpg,null,,,,,,22,,,12,,,,,104,0.209237578,0.211538462,,,,,,,
decision,217,627211,0.0-64.0-4.0,,59,run_exp/static/images/task_images/land.jpg,65,,,,,,22,,,12,,,,,,,,8615,2,0,FALSE,,,
dig,218,630171,0.0-65.0-0.0,,,,,,,,,,,"[{""stimulus"":""run_exp/static/images/task_images/dig.jpg"",""time"":0},{""stimulus"":""run_exp/static/images/task_images/land.jpg"",""time"":982},{""stimulus"":""run_exp/static/images/task_images/dig.jpg"",""time"":1967}]",[],12,,,,,,,,,,,,,,
harvest,219,631184,0.0-65.0-1.0,,null,run_exp/static/images/task_images/gems/22.jpg,null,,,,,,2,,,12,,,,,22,0.102250507,0.090909091,,,,,,,
decision,220,631321,0.0-65.0-2.0,,135,run_exp/static/images/task_images/land.jpg,76,,,,,,2,,,12,,,,,,,,12725,2,1,TRUE,,,
travel,221,641278,0.0-66.0-0.0,,,,,,,,,,,"[{""stimulus"":""run_exp/static/images/task_images/rocket-01.jpg"",""time"":0},{""stimulus"":""run_exp/static/images/task_images/rocket-02.jpg"",""time"":1098},{""stimulus"":""run_exp/static/images/task_images/rocket-03.jpg"",""time"":2207},{""stimulus"":""run_exp/static/images/task_images/rocket-04.jpg"",""time"":3314},{""stimulus"":""run_exp/static/images/task_images/rocket-05.jpg"",""time"":4421},{""stimulus"":""run_exp/static/images/task_images/rocket-06.jpg"",""time"":5529},{""stimulus"":""run_exp/static/images/task_images/rocket-07.jpg"",""time"":6634},{""stimulus"":""run_exp/static/images/task_images/rocket-08.jpg"",""time"":7743},{""stimulus"":""run_exp/static/images/task_images/rocket-09.jpg"",""time"":8843}]",[],12,,,,,,,,,,,,,,
alien_welcome,222,646282,0.0-66.0-1.0,,null,run_exp/static/images/task_images/aliens/old_aliens/planet/alien_planet-19.jpg,null,,,,,,,,,,,,19,"64,70,50,74,4,72,1,6,30,9,5,62,19,69,54,3,2,77,52,20,68,12,47,22,63,14,35,73,39,10,17,66,28,29,51,67,37,34,45,58,38",,,,,,,,,,
land,223,646791,0.0-66.0-2.0,,null,run_exp/static/images/task_images/land.jpg,null,,,,,,106,,,13,,,,,,,,,,,,,,
dig,224,648806,0.0-66.0-3.0,,,,,,,,,,,"[{""stimulus"":""run_exp/static/images/task_images/dig.jpg"",""time"":0},{""stimulus"":""run_exp/static/images/task_images/land.jpg"",""time"":670},{""stimulus"":""run_exp/static/images/task_images/dig.jpg"",""time"":1341}]",[],13,,,,,,,,,,,,,,
harvest,225,649817,0.0-66.0-4.0,,null,run_exp/static/images/task_images/gems/106.jpg,null,,,,,,35,,,13,,,,,106,0.325874888,0.330188679,,,,,,,
decision,226,649829,0.0-66.0-5.0,,12,run_exp/static/images/task_images/land.jpg,65,,,,,,35,,,13,,,,,,,,31233,2,0,FALSE,,,
dig,227,652843,0.0-67.0-0.0,,,,,,,,,,,"[{""stimulus"":""run_exp/static/images/task_images/dig.jpg"",""time"":0},{""stimulus"":""run_exp/static/images/task_images/land.jpg"",""time"":1005},{""stimulus"":""run_exp/static/images/task_images/dig.jpg"",""time"":2004}]",[],13,,,,,,,,,,,,,,
harvest,228,653856,0.0-67.0-1.0,,null,run_exp/static/images/task_images/gems/35.jpg,null,,,,,,4,,,13,,,,,35,0.119693647,0.114285714,,,,,,,
decision,229,653925,0.0-67.0-2.0,,69,run_exp/static/images/task_images/land.jpg,65,,,,,,4,,,13,,,,,,,,35329,2,1,FALSE,,,
dig,230,656879,0.0-68.0-0.0,,,,,,,,,,,"[{""stimulus"":""run_exp/static/images/task_images/dig.jpg"",""time"":0},{""stimulus"":""run_exp/static/images/task_images/land.jpg"",""time"":987},{""stimulus"":""run_exp/static/images/task_images/dig.jpg"",""time"":1969}]",[],13,,,,,,,,,,,,,,
harvest,231,657892,0.0-68.0-1.0,,null,run_exp/static/images/task_images/gems/4.jpg,null,,,,,,1,,,13,,,,,4,0.189355845,0.25,,,,,,,
decision,232,657996,0.0-68.0-2.0,,103,run_exp/static/images/task_images/land.jpg,76,,,,,,1,,,13,,,,,,,,39400,2,2,TRUE,,,
travel,233,667978,0.0-69.0-0.0,,,,,,,,,,,"[{""stimulus"":""run_exp/static/images/task_images/rocket-01.jpg"",""time"":0},{""stimulus"":""run_exp/static/images/task_images/rocket-02.jpg"",""time"":1107},{""stimulus"":""run_exp/static/images/task_images/rocket-03.jpg"",""time"":2219},{""stimulus"":""run_exp/static/images/task_images/rocket-04.jpg"",""time"":3325},{""stimulus"":""run_exp/static/images/task_images/rocket-05.jpg"",""time"":4433},{""stimulus"":""run_exp/static/images/task_images/rocket-06.jpg"",""time"":5543},{""stimulus"":""run_exp/static/images/task_images/rocket-07.jpg"",""time"":6652},{""stimulus"":""run_exp/static/images/task_images/rocket-08.jpg"",""time"":7760},{""stimulus"":""run_exp/static/images/task_images/rocket-09.jpg"",""time"":8870}]",[],13,,,,,,,,,,,,,,
alien_welcome,234,672981,0.0-69.0-1.0,,null,run_exp/static/images/task_images/aliens/old_aliens/planet/alien_planet-69.jpg,null,,,,,,,,,,,,69,"64,70,50,74,4,72,1,6,30,9,5,62,19,69,54,3,2,77,52,20,68,12,47,22,63,14,35,73,39,10,17,66,28,29,51,67,37,34,45,58,38",,,,,,,,,,
land,235,673487,0.0-69.0-2.0,,null,run_exp/static/images/task_images/land.jpg,null,,,,,,99,,,14,,,,,,,,,,,,,,
dig,236,675510,0.0-69.0-3.0,,,,,,,,,,,"[{""stimulus"":""run_exp/static/images/task_images/dig.jpg"",""time"":0},{""stimulus"":""run_exp/static/images/task_images/land.jpg"",""time"":677},{""stimulus"":""run_exp/static/images/task_images/dig.jpg"",""time"":1349}]",[],14,,,,,,,,,,,,,,
harvest,237,676513,0.0-69.0-4.0,,null,run_exp/static/images/task_images/gems/99.jpg,null,,,,,,22,,,14,,,,,99,0.225203752,0.222222222,,,,,,,
decision,238,676690,0.0-69.0-5.0,,177,run_exp/static/images/task_images/land.jpg,65,,,,,,22,,,14,,,,,,,,58094,2,0,FALSE,,,
dig,239,679557,0.0-70.0-0.0,,,,,,,,,,,"[{""stimulus"":""run_exp/static/images/task_images/dig.jpg"",""time"":0},{""stimulus"":""run_exp/static/images/task_images/land.jpg"",""time"":956},{""stimulus"":""run_exp/static/images/task_images/dig.jpg"",""time"":1911}]",[],14,,,,,,,,,,,,,,
harvest,240,680569,0.0-70.0-1.0,,null,run_exp/static/images/task_images/gems/22.jpg,null,,,,,,3,,,14,,,,,22,0.14057029,0.136363636,,,,,,,
decision,241,680702,0.0-70.0-2.0,,131,run_exp/static/images/task_images/land.jpg,76,,,,,,3,,,14,,,,,,,,62106,2,1,TRUE,,,
travel,242,690658,0.0-71.0-0.0,,,,,,,,,,,"[{""stimulus"":""run_exp/static/images/task_images/rocket-01.jpg"",""time"":0},{""stimulus"":""run_exp/static/images/task_images/rocket-02.jpg"",""time"":1101},{""stimulus"":""run_exp/static/images/task_images/rocket-03.jpg"",""time"":2208},{""stimulus"":""run_exp/static/images/task_images/rocket-04.jpg"",""time"":3319},{""stimulus"":""run_exp/static/images/task_images/rocket-05.jpg"",""time"":4425},{""stimulus"":""run_exp/static/images/task_images/rocket-06.jpg"",""time"":5523},{""stimulus"":""run_exp/static/images/task_images/rocket-07.jpg"",""time"":6633},{""stimulus"":""run_exp/static/images/task_images/rocket-08.jpg"",""time"":7742},{""stimulus"":""run_exp/static/images/task_images/rocket-09.jpg"",""time"":8847}]",[],14,,,,,,,,,,,,,,
alien_welcome,243,695669,0.0-71.0-1.0,,null,run_exp/static/images/task_images/aliens/old_aliens/planet/alien_planet-54.jpg,null,,,,,,,,,,,,54,"64,70,50,74,4,72,1,6,30,9,5,62,19,69,54,3,2,77,52,20,68,12,47,22,63,14,35,73,39,10,17,66,28,29,51,67,37,34,45,58,38",,,,,,,,,,
land,244,696170,0.0-71.0-2.0,,null,run_exp/static/images/task_images/land.jpg,null,,,,,,102,,,15,,,,,,,,,,,,,,
dig,245,698196,0.0-71.0-3.0,,,,,,,,,,,"[{""stimulus"":""run_exp/static/images/task_images/dig.jpg"",""time"":0},{""stimulus"":""run_exp/static/images/task_images/land.jpg"",""time"":679},{""stimulus"":""run_exp/static/images/task_images/dig.jpg"",""time"":1347}]",[],15,,,,,,,,,,,,,,
harvest,246,699202,0.0-71.0-4.0,,null,run_exp/static/images/task_images/gems/102.jpg,null,,,,,,86,,,15,,,,,102,0.847149634,0.843137255,,,,,,,
decision,247,699289,0.0-71.0-5.0,,85,run_exp/static/images/task_images/land.jpg,65,,,,,,86,,,15,,,,,,,,80693,2,0,FALSE,,,
dig,248,702230,0.0-72.0-0.0,,,,,,,,,,,"[{""stimulus"":""run_exp/static/images/task_images/dig.jpg"",""time"":0},{""stimulus"":""run_exp/static/images/task_images/land.jpg"",""time"":983},{""stimulus"":""run_exp/static/images/task_images/dig.jpg"",""time"":1955}]",[],15,,,,,,,,,,,,,,
harvest,249,703245,0.0-72.0-1.0,,null,run_exp/static/images/task_images/gems/86.jpg,null,,,,,,66,,,15,,,,,86,0.771664631,0.76744186,,,,,,,
decision,250,703276,0.0-72.0-2.0,,30,run_exp/static/images/task_images/land.jpg,65,,,,,,66,,,15,,,,,,,,84680,2,1,FALSE,,,
dig,251,706282,0.0-73.0-0.0,,,,,,,,,,,"[{""stimulus"":""run_exp/static/images/task_images/dig.jpg"",""time"":1},{""stimulus"":""run_exp/static/images/task_images/land.jpg"",""time"":994},{""stimulus"":""run_exp/static/images/task_images/dig.jpg"",""time"":1999}]",[],15,,,,,,,,,,,,,,
harvest,252,707294,0.0-73.0-1.0,,null,run_exp/static/images/task_images/gems/66.jpg,null,,,,,,53,,,15,,,,,66,0.809412209,0.803030303,,,,,,,
decision,253,707402,0.0-73.0-2.0,,108,run_exp/static/images/task_images/land.jpg,65,,,,,,53,,,15,,,,,,,,88806,2,2,FALSE,,,
dig,254,710310,0.0-74.0-0.0,,,,,,,,,,,"[{""stimulus"":""run_exp/static/images/task_images/dig.jpg"",""time"":0},{""stimulus"":""run_exp/static/images/task_images/land.jpg"",""time"":968},{""stimulus"":""run_exp/static/images/task_images/dig.jpg"",""time"":1934}]",[],15,,,,,,,,,,,,,,
harvest,255,711323,0.0-74.0-1.0,,null,run_exp/static/images/task_images/gems/53.jpg,null,,,,,,39,,,15,,,,,53,0.739866608,0.735849057,,,,,,,
decision,256,711341,0.0-74.0-2.0,,18,run_exp/static/images/task_images/land.jpg,65,,,,,,39,,,15,,,,,,,,92745,2,3,FALSE,,,
dig,257,714352,0.0-75.0-0.0,,,,,,,,,,,"[{""stimulus"":""run_exp/static/images/task_images/dig.jpg"",""time"":0},{""stimulus"":""run_exp/static/images/task_images/land.jpg"",""time"":1008},{""stimulus"":""run_exp/static/images/task_images/dig.jpg"",""time"":2006}]",[],15,,,,,,,,,,,,,,
harvest,258,715357,0.0-75.0-1.0,,null,run_exp/static/images/task_images/gems/39.jpg,null,,,,,,30,,,15,,,,,39,0.771933765,0.769230769,,,,,,,
decision,259,715394,0.0-75.0-2.0,,36,run_exp/static/images/task_images/land.jpg,65,,,,,,30,,,15,,,,,,,,96798,2,4,FALSE,,,
dig,260,718385,0.0-76.0-0.0,,,,,,,,,,,"[{""stimulus"":""run_exp/static/images/task_images/dig.jpg"",""time"":0},{""stimulus"":""run_exp/static/images/task_images/land.jpg"",""time"":996},{""stimulus"":""run_exp/static/images/task_images/dig.jpg"",""time"":1995}]",[],15,,,,,,,,,,,,,,
harvest,261,719386,0.0-76.0-1.0,,null,run_exp/static/images/task_images/gems/30.jpg,null,,,,,,20,,,15,,,,,30,0.67795448,0.666666667,,,,,,,
decision,262,719478,0.0-76.0-2.0,,92,run_exp/static/images/task_images/land.jpg,76,,,,,,20,,,15,,,,,,,,100882,2,5,TRUE,,,
travel,263,729447,0.0-77.0-0.0,,,,,,,,,,,"[{""stimulus"":""run_exp/static/images/task_images/rocket-01.jpg"",""time"":0},{""stimulus"":""run_exp/static/images/task_images/rocket-02.jpg"",""time"":1107},{""stimulus"":""run_exp/static/images/task_images/rocket-03.jpg"",""time"":2217},{""stimulus"":""run_exp/static/images/task_images/rocket-04.jpg"",""time"":3324},{""stimulus"":""run_exp/static/images/task_images/rocket-05.jpg"",""time"":4429},{""stimulus"":""run_exp/static/images/task_images/rocket-06.jpg"",""time"":5543},{""stimulus"":""run_exp/static/images/task_images/rocket-07.jpg"",""time"":6653},{""stimulus"":""run_exp/static/images/task_images/rocket-08.jpg"",""time"":7758},{""stimulus"":""run_exp/static/images/task_images/rocket-09.jpg"",""time"":8862}]",[],15,,,,,,,,,,,,,,
alien_welcome,264,734450,0.0-77.0-1.0,,null,run_exp/static/images/task_images/aliens/old_aliens/planet/alien_planet-3.jpg,null,,,,,,,,,,,,3,"64,70,50,74,4,72,1,6,30,9,5,62,19,69,54,3,2,77,52,20,68,12,47,22,63,14,35,73,39,10,17,66,28,29,51,67,37,34,45,58,38",,,,,,,,,,
land,265,734954,0.0-77.0-2.0,,null,run_exp/static/images/task_images/land.jpg,null,,,,,,100,,,16,,,,,,,,,,,,,,
dig,266,736977,0.0-77.0-3.0,,,,,,,,,,,"[{""stimulus"":""run_exp/static/images/task_images/dig.jpg"",""time"":0},{""stimulus"":""run_exp/static/images/task_images/land.jpg"",""time"":680},{""stimulus"":""run_exp/static/images/task_images/dig.jpg"",""time"":1350}]",[],16,,,,,,,,,,,,,,
harvest,267,737980,0.0-77.0-4.0,,null,run_exp/static/images/task_images/gems/100.jpg,null,,,,,,81,,,16,,,,,100,0.81121124,0.81,,,,,,,
decision,268,737997,0.0-77.0-5.0,,17,run_exp/static/images/task_images/land.jpg,65,,,,,,81,,,16,,,,,,,,119401,2,0,FALSE,,,
dig,269,740996,0.0-78.0-0.0,,,,,,,,,,,"[{""stimulus"":""run_exp/static/images/task_images/dig.jpg"",""time"":0},{""stimulus"":""run_exp/static/images/task_images/land.jpg"",""time"":997},{""stimulus"":""run_exp/static/images/task_images/dig.jpg"",""time"":1992}]",[],16,,,,,,,,,,,,,,
harvest,270,742008,0.0-78.0-1.0,,null,run_exp/static/images/task_images/gems/81.jpg,null,,,,,,70,,,16,,,,,81,0.868577833,0.864197531,,,,,,,
decision,271,742031,0.0-78.0-2.0,,23,run_exp/static/images/task_images/land.jpg,65,,,,,,70,,,16,,,,,,,,123436,2,1,FALSE,,,
dig,272,745030,0.0-79.0-0.0,,,,,,,,,,,"[{""stimulus"":""run_exp/static/images/task_images/dig.jpg"",""time"":0},{""stimulus"":""run_exp/static/images/task_images/land.jpg"",""time"":1002},{""stimulus"":""run_exp/static/images/task_images/dig.jpg"",""time"":2003}]",[],16,,,,,,,,,,,,,,
harvest,273,746042,0.0-79.0-1.0,,null,run_exp/static/images/task_images/gems/70.jpg,null,,,,,,56,,,16,,,,,70,0.794744708,0.8,,,,,,,
decision,274,746167,0.0-79.0-2.0,,126,run_exp/static/images/task_images/land.jpg,65,,,,,,56,,,16,,,,,,,,127571,2,2,FALSE,,,
dig,275,749061,0.0-80.0-0.0,,,,,,,,,,,"[{""stimulus"":""run_exp/static/images/task_images/dig.jpg"",""time"":0},{""stimulus"":""run_exp/static/images/task_images/land.jpg"",""time"":963},{""stimulus"":""run_exp/static/images/task_images/dig.jpg"",""time"":1931}]",[],16,,,,,,,,,,,,,,
harvest,276,750072,0.0-80.0-1.0,,null,run_exp/static/images/task_images/gems/56.jpg,null,,,,,,46,,,16,,,,,56,0.825951873,0.821428571,,,,,,,
decision,277,750153,0.0-80.0-2.0,,81,run_exp/static/images/task_images/land.jpg,65,,,,,,46,,,16,,,,,,,,131558,2,3,FALSE,,,
dig,278,753107,0.0-81.0-0.0,,,,,,,,,,,"[{""stimulus"":""run_exp/static/images/task_images/dig.jpg"",""time"":0},{""stimulus"":""run_exp/static/images/task_images/land.jpg"",""time"":983},{""stimulus"":""run_exp/static/images/task_images/dig.jpg"",""time"":1969}]",[],16,,,,,,,,,,,,,,
harvest,279,754123,0.0-81.0-1.0,,null,run_exp/static/images/task_images/gems/46.jpg,null,,,,,,36,,,16,,,,,46,0.787797039,0.782608696,,,,,,,
decision,280,754268,0.0-81.0-2.0,,145,run_exp/static/images/task_images/land.jpg,65,,,,,,36,,,16,,,,,,,,135673,2,4,FALSE,,,
dig,281,757136,0.0-82.0-0.0,,,,,,,,,,,"[{""stimulus"":""run_exp/static/images/task_images/dig.jpg"",""time"":0},{""stimulus"":""run_exp/static/images/task_images/land.jpg"",""time"":957},{""stimulus"":""run_exp/static/images/task_images/dig.jpg"",""time"":1909}]",[],16,,,,,,,,,,,,,,
harvest,282,758137,0.0-82.0-1.0,,null,run_exp/static/images/task_images/gems/36.jpg,null,,,,,,27,,,16,,,,,36,0.761389978,0.75,,,,,,,
decision,283,758238,0.0-82.0-2.0,,101,run_exp/static/images/task_images/land.jpg,65,,,,,,27,,,16,,,,,,,,139642,2,5,FALSE,,,
dig,284,761151,0.0-83.0-0.0,,,,,,,,,,,"[{""stimulus"":""run_exp/static/images/task_images/dig.jpg"",""time"":1},{""stimulus"":""run_exp/static/images/task_images/land.jpg"",""time"":971},{""stimulus"":""run_exp/static/images/task_images/dig.jpg"",""time"":1941}]",[],16,,,,,,,,,,,,,,
harvest,285,762160,0.0-83.0-1.0,,null,run_exp/static/images/task_images/gems/27.jpg,null,,,,,,22,,,16,,,,,27,0.8164028,0.814814815,,,,,,,
decision,286,762238,0.0-83.0-2.0,,77,run_exp/static/images/task_images/land.jpg,76,,,,,,22,,,16,,,,,,,,143642,2,6,TRUE,,,
travel,287,772227,0.0-84.0-0.0,,,,,,,,,,,"[{""stimulus"":""run_exp/static/images/task_images/rocket-01.jpg"",""time"":0},{""stimulus"":""run_exp/static/images/task_images/rocket-02.jpg"",""time"":1112},{""stimulus"":""run_exp/static/images/task_images/rocket-03.jpg"",""time"":2219},{""stimulus"":""run_exp/static/images/task_images/rocket-04.jpg"",""time"":3332},{""stimulus"":""run_exp/static/images/task_images/rocket-05.jpg"",""time"":4441},{""stimulus"":""run_exp/static/images/task_images/rocket-06.jpg"",""time"":5545},{""stimulus"":""run_exp/static/images/task_images/rocket-07.jpg"",""time"":6661},{""stimulus"":""run_exp/static/images/task_images/rocket-08.jpg"",""time"":7770},{""stimulus"":""run_exp/static/images/task_images/rocket-09.jpg"",""time"":8880}]",[],16,,,,,,,,,,,,,,
alien_welcome,288,777228,0.0-84.0-1.0,,null,run_exp/static/images/task_images/aliens/old_aliens/planet/alien_planet-2.jpg,null,,,,,,,,,,,,2,"64,70,50,74,4,72,1,6,30,9,5,62,19,69,54,3,2,77,52,20,68,12,47,22,63,14,35,73,39,10,17,66,28,29,51,67,37,34,45,58,38",,,,,,,,,,
land,289,777729,0.0-84.0-2.0,,null,run_exp/static/images/task_images/land.jpg,null,,,,,,94,,,17,,,,,,,,,,,,,,
dig,290,779743,0.0-84.0-3.0,,,,,,,,,,,"[{""stimulus"":""run_exp/static/images/task_images/dig.jpg"",""time"":0},{""stimulus"":""run_exp/static/images/task_images/land.jpg"",""time"":670},{""stimulus"":""run_exp/static/images/task_images/dig.jpg"",""time"":1342}]",[],17,,,,,,,,,,,,,,
harvest,291,780754,0.0-84.0-4.0,,null,run_exp/static/images/task_images/gems/94.jpg,null,,,,,,72,,,17,,,,,94,0.762711265,0.765957447,,,,,,,
decision,292,780894,0.0-84.0-5.0,,141,run_exp/static/images/task_images/land.jpg,65,,,,,,72,,,17,,,,,,,,162298,2,0,FALSE,,,
dig,293,783783,0.0-85.0-0.0,,,,,,,,,,,"[{""stimulus"":""run_exp/static/images/task_images/dig.jpg"",""time"":0},{""stimulus"":""run_exp/static/images/task_images/land.jpg"",""time"":957},{""stimulus"":""run_exp/static/images/task_images/dig.jpg"",""time"":1923}]",[],17,,,,,,,,,,,,,,
harvest,294,784788,0.0-85.0-1.0,,null,run_exp/static/images/task_images/gems/72.jpg,null,,,,,,58,,,17,,,,,72,0.802613013,0.805555556,,,,,,,
decision,295,784969,0.0-85.0-2.0,,179,run_exp/static/images/task_images/land.jpg,65,,,,,,58,,,17,,,,,,,,166373,2,1,FALSE,,,
dig,296,787824,0.0-86.0-0.0,,,,,,,,,,,"[{""stimulus"":""run_exp/static/images/task_images/dig.jpg"",""time"":0},{""stimulus"":""run_exp/static/images/task_images/land.jpg"",""time"":944},{""stimulus"":""run_exp/static/images/task_images/dig.jpg"",""time"":1897}]",[],17,,,,,,,,,,,,,,
harvest,297,788838,0.0-86.0-1.0,,null,run_exp/static/images/task_images/gems/58.jpg,null,,,,,,48,,,17,,,,,58,0.833314366,0.827586207,,,,,,,
decision,298,788943,0.0-86.0-2.0,,105,run_exp/static/images/task_images/land.jpg,65,,,,,,48,,,17,,,,,,,,170347,2,2,FALSE,,,
dig,299,791884,0.0-87.0-0.0,,,,,,,,,,,"[{""stimulus"":""run_exp/static/images/task_images/dig.jpg"",""time"":0},{""stimulus"":""run_exp/static/images/task_images/land.jpg"",""time"":976},{""stimulus"":""run_exp/static/images/task_images/dig.jpg"",""time"":1955}]",[],17,,,,,,,,,,,,,,
harvest,300,792895,0.0-87.0-1.0,,null,run_exp/static/images/task_images/gems/48.jpg,null,,,,,,37,,,17,,,,,48,0.776471054,0.770833333,,,,,,,
decision,301,793007,0.0-87.0-2.0,,112,run_exp/static/images/task_images/land.jpg,65,,,,,,37,,,17,,,,,,,,174411,2,3,FALSE,,,
dig,302,795924,0.0-88.0-0.0,,,,,,,,,,,"[{""stimulus"":""run_exp/static/images/task_images/dig.jpg"",""time"":0},{""stimulus"":""run_exp/static/images/task_images/land.jpg"",""time"":967},{""stimulus"":""run_exp/static/images/task_images/dig.jpg"",""time"":1935}]",[],17,,,,,,,,,,,,,,
harvest,303,796934,0.0-88.0-1.0,,null,run_exp/static/images/task_images/gems/37.jpg,null,,,,,,31,,,17,,,,,37,0.825143316,0.837837838,,,,,,,
decision,304,797040,0.0-88.0-2.0,,105,run_exp/static/images/task_images/land.jpg,65,,,,,,31,,,17,,,,,,,,178444,2,4,FALSE,,,
dig,305,799966,0.0-89.0-0.0,,,,,,,,,,,"[{""stimulus"":""run_exp/static/images/task_images/dig.jpg"",""time"":0},{""stimulus"":""run_exp/static/images/task_images/land.jpg"",""time"":976},{""stimulus"":""run_exp/static/images/task_images/dig.jpg"",""time"":1945}]",[],17,,,,,,,,,,,,,,
harvest,306,800979,0.0-89.0-1.0,,null,run_exp/static/images/task_images/gems/31.jpg,null,,,,,,27,,,17,,,,,31,0.866082234,0.870967742,,,,,,,
decision,307,801031,0.0-89.0-2.0,,51,run_exp/static/images/task_images/land.jpg,76,,,,,,27,,,17,,,,,,,,182435,2,5,TRUE,,,
travel,308,811028,0.0-90.0-0.0,,,,,,,,,,,"[{""stimulus"":""run_exp/static/images/task_images/rocket-01.jpg"",""time"":0},{""stimulus"":""run_exp/static/images/task_images/rocket-02.jpg"",""time"":1115},{""stimulus"":""run_exp/static/images/task_images/rocket-03.jpg"",""time"":2229},{""stimulus"":""run_exp/static/images/task_images/rocket-04.jpg"",""time"":3338},{""stimulus"":""run_exp/static/images/task_images/rocket-05.jpg"",""time"":4446},{""stimulus"":""run_exp/static/images/task_images/rocket-06.jpg"",""time"":5553},{""stimulus"":""run_exp/static/images/task_images/rocket-07.jpg"",""time"":6663},{""stimulus"":""run_exp/static/images/task_images/rocket-08.jpg"",""time"":7770},{""stimulus"":""run_exp/static/images/task_images/rocket-09.jpg"",""time"":8881}]",[],17,,,,,,,,,,,,,,
alien_welcome,309,816030,0.0-90.0-1.0,,null,run_exp/static/images/task_images/aliens/old_aliens/planet/alien_planet-77.jpg,null,,,,,,,,,,,,77,"64,70,50,74,4,72,1,6,30,9,5,62,19,69,54,3,2,77,52,20,68,12,47,22,63,14,35,73,39,10,17,66,28,29,51,67,37,34,45,58,38",,,,,,,,,,
land,310,816544,0.0-90.0-2.0,,null,run_exp/static/images/task_images/land.jpg,null,,,,,,96,,,18,,,,,,,,,,,,,,
dig,311,818558,0.0-90.0-3.0,,,,,,,,,,,"[{""stimulus"":""run_exp/static/images/task_images/dig.jpg"",""time"":0},{""stimulus"":""run_exp/static/images/task_images/land.jpg"",""time"":675},{""stimulus"":""run_exp/static/images/task_images/dig.jpg"",""time"":1342}]",[],18,,,,,,,,,,,,,,
harvest,312,819559,0.0-90.0-4.0,,null,run_exp/static/images/task_images/gems/96.jpg,null,,,,,,66,,,18,,,,,96,0.692153557,0.6875,,,,,,,
decision,313,819612,0.0-90.0-5.0,,53,run_exp/static/images/task_images/land.jpg,65,,,,,,66,,,18,,,,,,,,201016,2,0,FALSE,,,
dig,314,822574,0.0-91.0-0.0,,,,,,,,,,,"[{""stimulus"":""run_exp/static/images/task_images/dig.jpg"",""time"":0},{""stimulus"":""run_exp/static/images/task_images/land.jpg"",""time"":985},{""stimulus"":""run_exp/static/images/task_images/dig.jpg"",""time"":1973}]",[],18,,,,,,,,,,,,,,
harvest,315,823578,0.0-91.0-1.0,,null,run_exp/static/images/task_images/gems/66.jpg,null,,,,,,54,,,18,,,,,66,0.822747512,0.818181818,,,,,,,
decision,316,823659,0.0-91.0-2.0,,81,run_exp/static/images/task_images/land.jpg,65,,,,,,54,,,18,,,,,,,,205065,2,1,FALSE,,,
dig,317,826610,0.0-92.0-0.0,,,,,,,,,,,"[{""stimulus"":""run_exp/static/images/task_images/dig.jpg"",""time"":0},{""stimulus"":""run_exp/static/images/task_images/land.jpg"",""time"":983},{""stimulus"":""run_exp/static/images/task_images/dig.jpg"",""time"":1969}]",[],18,,,,,,,,,,,,,,
harvest,318,827622,0.0-92.0-1.0,,null,run_exp/static/images/task_images/gems/54.jpg,null,,,,,,44,,,18,,,,,54,0.822799808,0.814814815,,,,,,,
decision,319,827704,0.0-92.0-2.0,,82,run_exp/static/images/task_images/land.jpg,65,,,,,,44,,,18,,,,,,,,209108,2,2,FALSE,,,
dig,320,830645,0.0-93.0-0.0,,,,,,,,,,,"[{""stimulus"":""run_exp/static/images/task_images/dig.jpg"",""time"":0},{""stimulus"":""run_exp/static/images/task_images/land.jpg"",""time"":975},{""stimulus"":""run_exp/static/images/task_images/dig.jpg"",""time"":1954}]",[],18,,,,,,,,,,,,,,
harvest,321,831653,0.0-93.0-1.0,,null,run_exp/static/images/task_images/gems/44.jpg,null,,,,,,36,,,18,,,,,44,0.811824642,0.818181818,,,,,,,
decision,322,831767,0.0-93.0-2.0,,113,run_exp/static/images/task_images/land.jpg,65,,,,,,36,,,18,,,,,,,,213171,2,3,FALSE,,,
dig,323,834682,0.0-94.0-0.0,,,,,,,,,,,"[{""stimulus"":""run_exp/static/images/task_images/dig.jpg"",""time"":0},{""stimulus"":""run_exp/static/images/task_images/land.jpg"",""time"":976},{""stimulus"":""run_exp/static/images/task_images/dig.jpg"",""time"":1945}]",[],18,,,,,,,,,,,,,,
harvest,324,835697,0.0-94.0-1.0,,null,run_exp/static/images/task_images/gems/36.jpg,null,,,,,,31,,,18,,,,,36,0.848975279,0.861111111,,,,,,,
decision,325,835800,0.0-94.0-2.0,,103,run_exp/static/images/task_images/land.jpg,76,,,,,,31,,,18,,,,,,,,217204,2,4,TRUE,,,
travel,326,845775,0.0-95.0-0.0,,,,,,,,,,,"[{""stimulus"":""run_exp/static/images/task_images/rocket-01.jpg"",""time"":0},{""stimulus"":""run_exp/static/images/task_images/rocket-02.jpg"",""time"":1113},{""stimulus"":""run_exp/static/images/task_images/rocket-03.jpg"",""time"":2224},{""stimulus"":""run_exp/static/images/task_images/rocket-04.jpg"",""time"":3330},{""stimulus"":""run_exp/static/images/task_images/rocket-05.jpg"",""time"":4429},{""stimulus"":""run_exp/static/images/task_images/rocket-06.jpg"",""time"":5537},{""stimulus"":""run_exp/static/images/task_images/rocket-07.jpg"",""time"":6643},{""stimulus"":""run_exp/static/images/task_images/rocket-08.jpg"",""time"":7753},{""stimulus"":""run_exp/static/images/task_images/rocket-09.jpg"",""time"":8862}]",[],18,,,,,,,,,,,,,,
alien_welcome,327,850783,0.0-95.0-1.0,,null,run_exp/static/images/task_images/aliens/old_aliens/planet/alien_planet-52.jpg,null,,,,,,,,,,,,52,"64,70,50,74,4,72,1,6,30,9,5,62,19,69,54,3,2,77,52,20,68,12,47,22,63,14,35,73,39,10,17,66,28,29,51,67,37,34,45,58,38",,,,,,,,,,
land,328,851289,0.0-95.0-2.0,,null,run_exp/static/images/task_images/land.jpg,null,,,,,,95,,,19,,,,,,,,,,,,,,
dig,329,853311,0.0-95.0-3.0,,,,,,,,,,,"[{""stimulus"":""run_exp/static/images/task_images/dig.jpg"",""time"":0},{""stimulus"":""run_exp/static/images/task_images/land.jpg"",""time"":671},{""stimulus"":""run_exp/static/images/task_images/dig.jpg"",""time"":1348}]",[],19,,,,,,,,,,,,,,
harvest,330,854323,0.0-95.0-4.0,,null,run_exp/static/images/task_images/gems/95.jpg,null,,,,,,83,,,19,,,,,95,0.874740307,0.873684211,,,,,,,
decision,331,854507,0.0-95.0-5.0,,184,run_exp/static/images/task_images/land.jpg,65,,,,,,83,,,19,,,,,,,,235911,2,0,FALSE,,,
dig,332,857344,0.0-96.0-0.0,,,,,,,,,,,"[{""stimulus"":""run_exp/static/images/task_images/dig.jpg"",""time"":0},{""stimulus"":""run_exp/static/images/task_images/land.jpg"",""time"":946},{""stimulus"":""run_exp/static/images/task_images/dig.jpg"",""time"":1885}]",[],19,,,,,,,,,,,,,,
harvest,333,858359,0.0-96.0-1.0,,null,run_exp/static/images/task_images/gems/83.jpg,null,,,,,,67,,,19,,,,,83,0.80623608,0.807228916,,,,,,,
decision,334,858483,0.0-96.0-2.0,,124,run_exp/static/images/task_images/land.jpg,65,,,,,,67,,,19,,,,,,,,239887,2,1,FALSE,,,
dig,335,861386,0.0-97.0-0.0,,,,,,,,,,,"[{""stimulus"":""run_exp/static/images/task_images/dig.jpg"",""time"":0},{""stimulus"":""run_exp/static/images/task_images/land.jpg"",""time"":960},{""stimulus"":""run_exp/static/images/task_images/dig.jpg"",""time"":1929}]",[],19,,,,,,,,,,,,,,
harvest,336,862387,0.0-97.0-1.0,,null,run_exp/static/images/task_images/gems/67.jpg,null,,,,,,49,,,19,,,,,67,0.728123513,0.731343284,,,,,,,
decision,337,862544,0.0-97.0-2.0,,156,run_exp/static/images/task_images/land.jpg,65,,,,,,49,,,19,,,,,,,,243948,2,2,FALSE,,,
dig,338,865417,0.0-98.0-0.0,,,,,,,,,,,"[{""stimulus"":""run_exp/static/images/task_images/dig.jpg"",""time"":0},{""stimulus"":""run_exp/static/images/task_images/land.jpg"",""time"":961},{""stimulus"":""run_exp/static/images/task_images/dig.jpg"",""time"":1917}]",[],19,,,,,,,,,,,,,,
harvest,339,866428,0.0-98.0-1.0,,null,run_exp/static/images/task_images/gems/49.jpg,null,,,,,,39,,,19,,,,,49,0.804403641,0.795918367,,,,,,,
decision,340,866570,0.0-98.0-2.0,,142,run_exp/static/images/task_images/land.jpg,65,,,,,,39,,,19,,,,,,,,247974,2,3,FALSE,,,
dig,341,869464,0.0-99.0-0.0,,,,,,,,,,,"[{""stimulus"":""run_exp/static/images/task_images/dig.jpg"",""time"":0},{""stimulus"":""run_exp/static/images/task_images/land.jpg"",""time"":967},{""stimulus"":""run_exp/static/images/task_images/dig.jpg"",""time"":1933}]",[],19,,,,,,,,,,,,,,
harvest,342,870477,0.0-99.0-1.0,,null,run_exp/static/images/task_images/gems/39.jpg,null,,,,,,34,,,19,,,,,39,0.871975242,0.871794872,,,,,,,
decision,343,870478,0.0-99.0-2.0,,0,run_exp/static/images/task_images/land.jpg,65,,,,,,34,,,19,,,,,,,,251882,2,4,FALSE,,,
dig,344,873511,0.0-100.0-0.0,,,,,,,,,,,"[{""stimulus"":""run_exp/static/images/task_images/dig.jpg"",""time"":0},{""stimulus"":""run_exp/static/images/task_images/land.jpg"",""time"":1012},{""stimulus"":""run_exp/static/images/task_images/dig.jpg"",""time"":2013}]",[],19,,,,,,,,,,,,,,
harvest,345,874525,0.0-100.0-1.0,,null,run_exp/static/images/task_images/gems/34.jpg,null,,,,,,30,,,19,,,,,34,0.884083453,0.882352941,,,,,,,
decision,346,874640,0.0-100.0-2.0,,115,run_exp/static/images/task_images/land.jpg,76,,,,,,30,,,19,,,,,,,,256045,2,5,TRUE,,,
travel,347,884589,0.0-101.0-0.0,,,,,,,,,,,"[{""stimulus"":""run_exp/static/images/task_images/rocket-01.jpg"",""time"":0},{""stimulus"":""run_exp/static/images/task_images/rocket-02.jpg"",""time"":1099},{""stimulus"":""run_exp/static/images/task_images/rocket-03.jpg"",""time"":2211},{""stimulus"":""run_exp/static/images/task_images/rocket-04.jpg"",""time"":3313},{""stimulus"":""run_exp/static/images/task_images/rocket-05.jpg"",""time"":4412},{""stimulus"":""run_exp/static/images/task_images/rocket-06.jpg"",""time"":5518},{""stimulus"":""run_exp/static/images/task_images/rocket-07.jpg"",""time"":6617},{""stimulus"":""run_exp/static/images/task_images/rocket-08.jpg"",""time"":7725},{""stimulus"":""run_exp/static/images/task_images/rocket-09.jpg"",""time"":8837}]",[],19,,,,,,,,,,,,,,
alien_welcome,348,889591,0.0-101.0-1.0,,null,run_exp/static/images/task_images/aliens/old_aliens/planet/alien_planet-20.jpg,null,,,,,,,,,,,,20,"64,70,50,74,4,72,1,6,30,9,5,62,19,69,54,3,2,77,52,20,68,12,47,22,63,14,35,73,39,10,17,66,28,29,51,67,37,34,45,58,38",,,,,,,,,,
land,349,890096,0.0-101.0-2.0,,null,run_exp/static/images/task_images/land.jpg,null,,,,,,101,,,20,,,,,,,,,,,,,,
dig,350,892121,0.0-101.0-3.0,,,,,,,,,,,"[{""stimulus"":""run_exp/static/images/task_images/dig.jpg"",""time"":0},{""stimulus"":""run_exp/static/images/task_images/land.jpg"",""time"":678},{""stimulus"":""run_exp/static/images/task_images/dig.jpg"",""time"":1346}]",[],20,,,,,,,,,,,,,,
harvest,351,893136,0.0-101.0-4.0,,null,run_exp/static/images/task_images/gems/101.jpg,null,,,,,,53,,,20,,,,,101,0.52486755,0.524752475,,,,,,,
decision,352,893165,0.0-101.0-5.0,,28,run_exp/static/images/task_images/land.jpg,65,,,,,,53,,,20,,,,,,,,274569,2,0,FALSE,,,
dig,353,896167,0.0-102.0-0.0,,,,,,,,,,,"[{""stimulus"":""run_exp/static/images/task_images/dig.jpg"",""time"":0},{""stimulus"":""run_exp/static/images/task_images/land.jpg"",""time"":1004},{""stimulus"":""run_exp/static/images/task_images/dig.jpg"",""time"":2001}]",[],20,,,,,,,,,,,,,,
harvest,354,897180,0.0-102.0-1.0,,null,run_exp/static/images/task_images/gems/53.jpg,null,,,,,,28,,,20,,,,,53,0.53661117,0.528301887,,,,,,,
decision,355,897469,0.0-102.0-2.0,,288,run_exp/static/images/task_images/land.jpg,65,,,,,,28,,,20,,,,,,,,278873,2,1,FALSE,,,
dig,356,900224,0.0-103.0-0.0,,,,,,,,,,,"[{""stimulus"":""run_exp/static/images/task_images/dig.jpg"",""time"":1},{""stimulus"":""run_exp/static/images/task_images/land.jpg"",""time"":914},{""stimulus"":""run_exp/static/images/task_images/dig.jpg"",""time"":1831}]",[],20,,,,,,,,,,,,,,
harvest,357,901230,0.0-103.0-1.0,,null,run_exp/static/images/task_images/gems/28.jpg,null,,,,,,13,,,20,,,,,28,0.476721459,0.464285714,,,,,,,
decision,358,901451,0.0-103.0-2.0,,220,run_exp/static/images/task_images/land.jpg,76,,,,,,13,,,20,,,,,,,,282855,2,2,TRUE,,,
travel,359,911297,0.0-104.0-0.0,,,,,,,,,,,"[{""stimulus"":""run_exp/static/images/task_images/rocket-01.jpg"",""time"":0},{""stimulus"":""run_exp/static/images/task_images/rocket-02.jpg"",""time"":1088},{""stimulus"":""run_exp/static/images/task_images/rocket-03.jpg"",""time"":2180},{""stimulus"":""run_exp/static/images/task_images/rocket-04.jpg"",""time"":3271},{""stimulus"":""run_exp/static/images/task_images/rocket-05.jpg"",""time"":4369},{""stimulus"":""run_exp/static/images/task_images/rocket-06.jpg"",""time"":5460},{""stimulus"":""run_exp/static/images/task_images/rocket-07.jpg"",""time"":6556},{""stimulus"":""run_exp/static/images/task_images/rocket-08.jpg"",""time"":7649},{""stimulus"":""run_exp/static/images/task_images/rocket-09.jpg"",""time"":8741}]",[],20,,,,,,,,,,,,,,
alien_welcome,360,916306,0.0-104.0-1.0,,null,run_exp/static/images/task_images/aliens/old_aliens/planet/alien_planet-68.jpg,null,,,,,,,,,,,,68,"64,70,50,74,4,72,1,6,30,9,5,62,19,69,54,3,2,77,52,20,68,12,47,22,63,14,35,73,39,10,17,66,28,29,51,67,37,34,45,58,38",,,,,,,,,,
land,361,916813,0.0-104.0-2.0,,null,run_exp/static/images/task_images/land.jpg,null,,,,,,97,,,21,,,,,,,,,,,,,,
dig,362,918846,0.0-104.0-3.0,,,,,,,,,,,"[{""stimulus"":""run_exp/static/images/task_images/dig.jpg"",""time"":0},{""stimulus"":""run_exp/static/images/task_images/land.jpg"",""time"":678},{""stimulus"":""run_exp/static/images/task_images/dig.jpg"",""time"":1351}]",[],21,,,,,,,,,,,,,,
harvest,363,919847,0.0-104.0-4.0,,null,run_exp/static/images/task_images/gems/97.jpg,null,,,,,,70,,,21,,,,,97,0.720474864,0.721649485,,,,,,,
decision,364,920034,0.0-104.0-5.0,,186,run_exp/static/images/task_images/land.jpg,65,,,,,,70,,,21,,,,,,,,301438,2,0,TRUE,,,
end_of_block_continue,365,921864,0.0-105.0-0.0,,1828,run_exp/static/audio/clip_32_block_end.m4a,,,,,,0,,,,,,,,,,,,,,,,,,
alien_welcome,366,926876,0.0-106.0-0.0,,null,run_exp/static/images/task_images/aliens/old_aliens/planet/alien_planet-12.jpg,null,,,,,,,,,,,,12,"64,70,50,74,4,72,1,6,30,9,5,62,19,69,54,3,2,77,52,20,68,12,47,22,63,14,35,73,39,10,17,66,28,29,51,67,37,34,45,58,38",,,,,,,,,,
land,367,927384,0.0-106.0-1.0,,null,run_exp/static/images/task_images/land.jpg,null,,,,,,109,,,22,,,,,,,,,,,,,,
dig,368,929418,0.0-106.0-2.0,,,,,,,,,,,"[{""stimulus"":""run_exp/static/images/task_images/dig.jpg"",""time"":0},{""stimulus"":""run_exp/static/images/task_images/land.jpg"",""time"":679},{""stimulus"":""run_exp/static/images/task_images/dig.jpg"",""time"":1360}]",[],22,,,,,,,,,,,,,,
harvest,369,930431,0.0-106.0-3.0,,null,run_exp/static/images/task_images/gems/109.jpg,null,,,,,,58,,,22,,,,,109,0.532610937,0.532110092,,,,,,,
decision,370,930575,0.0-106.0-4.0,,143,run_exp/static/images/task_images/land.jpg,65,,,,,,58,,,22,,,,,,,,8708,3,0,FALSE,,,
dig,371,933460,0.0-107.0-0.0,,,,,,,,,,,"[{""stimulus"":""run_exp/static/images/task_images/dig.jpg"",""time"":0},{""stimulus"":""run_exp/static/images/task_images/land.jpg"",""time"":959},{""stimulus"":""run_exp/static/images/task_images/dig.jpg"",""time"":1914}]",[],22,,,,,,,,,,,,,,
harvest,372,934470,0.0-107.0-1.0,,null,run_exp/static/images/task_images/gems/58.jpg,null,,,,,,29,,,22,,,,,58,0.49695175,0.5,,,,,,,
decision,373,934513,0.0-107.0-2.0,,43,run_exp/static/images/task_images/land.jpg,65,,,,,,29,,,22,,,,,,,,12646,3,1,FALSE,,,
dig,374,937502,0.0-108.0-0.0,,,,,,,,,,,"[{""stimulus"":""run_exp/static/images/task_images/dig.jpg"",""time"":0},{""stimulus"":""run_exp/static/images/task_images/land.jpg"",""time"":996},{""stimulus"":""run_exp/static/images/task_images/dig.jpg"",""time"":1991}]",[],22,,,,,,,,,,,,,,
harvest,375,938512,0.0-108.0-1.0,,null,run_exp/static/images/task_images/gems/29.jpg,null,,,,,,15,,,22,,,,,29,0.524486228,0.517241379,,,,,,,
decision,376,938522,0.0-108.0-2.0,,11,run_exp/static/images/task_images/land.jpg,76,,,,,,15,,,22,,,,,,,,16655,3,2,TRUE,,,
travel,377,948585,0.0-109.0-0.0,,,,,,,,,,,"[{""stimulus"":""run_exp/static/images/task_images/rocket-01.jpg"",""time"":0},{""stimulus"":""run_exp/static/images/task_images/rocket-02.jpg"",""time"":1121},{""stimulus"":""run_exp/static/images/task_images/rocket-03.jpg"",""time"":2232},{""stimulus"":""run_exp/static/images/task_images/rocket-04.jpg"",""time"":3353},{""stimulus"":""run_exp/static/images/task_images/rocket-05.jpg"",""time"":4466},{""stimulus"":""run_exp/static/images/task_images/rocket-06.jpg"",""time"":5577},{""stimulus"":""run_exp/static/images/task_images/rocket-07.jpg"",""time"":6699},{""stimulus"":""run_exp/static/images/task_images/rocket-08.jpg"",""time"":7813},{""stimulus"":""run_exp/static/images/task_images/rocket-09.jpg"",""time"":8936}]",[],22,,,,,,,,,,,,,,
alien_welcome,378,953591,0.0-109.0-1.0,,null,run_exp/static/images/task_images/aliens/old_aliens/planet/alien_planet-47.jpg,null,,,,,,,,,,,,47,"64,70,50,74,4,72,1,6,30,9,5,62,19,69,54,3,2,77,52,20,68,12,47,22,63,14,35,73,39,10,17,66,28,29,51,67,37,34,45,58,38",,,,,,,,,,
land,379,954104,0.0-109.0-2.0,,null,run_exp/static/images/task_images/land.jpg,null,,,,,,95,,,23,,,,,,,,,,,,,,
dig,380,956124,0.0-109.0-3.0,,,,,,,,,,,"[{""stimulus"":""run_exp/static/images/task_images/dig.jpg"",""time"":0},{""stimulus"":""run_exp/static/images/task_images/land.jpg"",""time"":668},{""stimulus"":""run_exp/static/images/task_images/dig.jpg"",""time"":1340}]",[],23,,,,,,,,,,,,,,
harvest,381,957135,0.0-109.0-4.0,,null,run_exp/static/images/task_images/gems/95.jpg,null,,,,,,72,,,23,,,,,95,0.755220589,0.757894737,,,,,,,
decision,382,957269,0.0-109.0-5.0,,134,run_exp/static/images/task_images/land.jpg,65,,,,,,72,,,23,,,,,,,,35403,3,0,FALSE,,,
dig,383,960164,0.0-110.0-0.0,,,,,,,,,,,"[{""stimulus"":""run_exp/static/images/task_images/dig.jpg"",""time"":0},{""stimulus"":""run_exp/static/images/task_images/land.jpg"",""time"":968},{""stimulus"":""run_exp/static/images/task_images/dig.jpg"",""time"":1925}]",[],23,,,,,,,,,,,,,,
harvest,384,961166,0.0-110.0-1.0,,null,run_exp/static/images/task_images/gems/72.jpg,null,,,,,,56,,,23,,,,,72,0.781741076,0.777777778,,,,,,,
decision,385,961231,0.0-110.0-2.0,,65,run_exp/static/images/task_images/land.jpg,65,,,,,,56,,,23,,,,,,,,39364,3,1,FALSE,,,
dig,386,964197,0.0-111.0-0.0,,,,,,,,,,,"[{""stimulus"":""run_exp/static/images/task_images/dig.jpg"",""time"":0},{""stimulus"":""run_exp/static/images/task_images/land.jpg"",""time"":988},{""stimulus"":""run_exp/static/images/task_images/dig.jpg"",""time"":1969}]",[],23,,,,,,,,,,,,,,
harvest,387,965213,0.0-111.0-1.0,,null,run_exp/static/images/task_images/gems/56.jpg,null,,,,,,49,,,23,,,,,56,0.871329247,0.875,,,,,,,
decision,388,967138,0.0-111.0-2.0,,1925,run_exp/static/images/task_images/land.jpg,65,,,,,,49,,,23,,,,,,,,45272,3,2,FALSE,,,
dig,389,968243,0.0-112.0-0.0,,,,,,,,,,,"[{""stimulus"":""run_exp/static/images/task_images/dig.jpg"",""time"":0},{""stimulus"":""run_exp/static/images/task_images/land.jpg"",""time"":367},{""stimulus"":""run_exp/static/images/task_images/dig.jpg"",""time"":740}]",[],23,,,,,,,,,,,,,,
harvest,390,969255,0.0-112.0-1.0,,null,run_exp/static/images/task_images/gems/49.jpg,null,,,,,,43,,,23,,,,,49,0.875672219,0.87755102,,,,,,,
decision,391,969522,0.0-112.0-2.0,,266,run_exp/static/images/task_images/land.jpg,65,,,,,,43,,,23,,,,,,,,47655,3,3,FALSE,,,
dig,392,972293,0.0-113.0-0.0,,,,,,,,,,,"[{""stimulus"":""run_exp/static/images/task_images/dig.jpg"",""time"":0},{""stimulus"":""run_exp/static/images/task_images/land.jpg"",""time"":925},{""stimulus"":""run_exp/static/images/task_images/dig.jpg"",""time"":1844}]",[],23,,,,,,,,,,,,,,
harvest,393,973307,0.0-113.0-1.0,,null,run_exp/static/images/task_images/gems/43.jpg,null,,,,,,33,,,23,,,,,43,0.777261651,0.76744186,,,,,,,
decision,394,973394,0.0-113.0-2.0,,86,run_exp/static/images/task_images/land.jpg,65,,,,,,33,,,23,,,,,,,,51527,3,4,FALSE,,,
dig,395,976354,0.0-114.0-0.0,,,,,,,,,,,"[{""stimulus"":""run_exp/static/images/task_images/dig.jpg"",""time"":0},{""stimulus"":""run_exp/static/images/task_images/land.jpg"",""time"":988},{""stimulus"":""run_exp/static/images/task_images/dig.jpg"",""time"":1973}]",[],23,,,,,,,,,,,,,,
harvest,396,977356,0.0-114.0-1.0,,null,run_exp/static/images/task_images/gems/33.jpg,null,,,,,,28,,,23,,,,,33,0.859119767,0.848484848,,,,,,,
decision,397,977523,0.0-114.0-2.0,,168,run_exp/static/images/task_images/land.jpg,76,,,,,,28,,,23,,,,,,,,55656,3,5,TRUE,,,
travel,398,987413,0.0-115.0-0.0,,,,,,,,,,,"[{""stimulus"":""run_exp/static/images/task_images/rocket-01.jpg"",""time"":0},{""stimulus"":""run_exp/static/images/task_images/rocket-02.jpg"",""time"":1095},{""stimulus"":""run_exp/static/images/task_images/rocket-03.jpg"",""time"":2188},{""stimulus"":""run_exp/static/images/task_images/rocket-04.jpg"",""time"":3287},{""stimulus"":""run_exp/static/images/task_images/rocket-05.jpg"",""time"":4389},{""stimulus"":""run_exp/static/images/task_images/rocket-06.jpg"",""time"":5483},{""stimulus"":""run_exp/static/images/task_images/rocket-07.jpg"",""time"":6588},{""stimulus"":""run_exp/static/images/task_images/rocket-08.jpg"",""time"":7682},{""stimulus"":""run_exp/static/images/task_images/rocket-09.jpg"",""time"":8777}]",[],23,,,,,,,,,,,,,,
alien_welcome,399,992424,0.0-115.0-1.0,,null,run_exp/static/images/task_images/aliens/old_aliens/planet/alien_planet-22.jpg,null,,,,,,,,,,,,22,"64,70,50,74,4,72,1,6,30,9,5,62,19,69,54,3,2,77,52,20,68,12,47,22,63,14,35,73,39,10,17,66,28,29,51,67,37,34,45,58,38",,,,,,,,,,
land,400,992929,0.0-115.0-2.0,,null,run_exp/static/images/task_images/land.jpg,null,,,,,,103,,,24,,,,,,,,,,,,,,
dig,401,994965,0.0-115.0-3.0,,,,,,,,,,,"[{""stimulus"":""run_exp/static/images/task_images/dig.jpg"",""time"":0},{""stimulus"":""run_exp/static/images/task_images/land.jpg"",""time"":677},{""stimulus"":""run_exp/static/images/task_images/dig.jpg"",""time"":1359}]",[],24,,,,,,,,,,,,,,
harvest,402,995978,0.0-115.0-4.0,,null,run_exp/static/images/task_images/gems/103.jpg,null,,,,,,57,,,24,,,,,103,0.556303913,0.553398058,,,,,,,
decision,403,996121,0.0-115.0-5.0,,143,run_exp/static/images/task_images/land.jpg,65,,,,,,57,,,24,,,,,,,,74254,3,0,FALSE,,,
dig,404,999017,0.0-116.0-0.0,,,,,,,,,,,"[{""stimulus"":""run_exp/static/images/task_images/dig.jpg"",""time"":0},{""stimulus"":""run_exp/static/images/task_images/land.jpg"",""time"":962},{""stimulus"":""run_exp/static/images/task_images/dig.jpg"",""time"":1926}]",[],24,,,,,,,,,,,,,,
harvest,405,1000026,0.0-116.0-1.0,,null,run_exp/static/images/task_images/gems/57.jpg,null,,,,,,31,,,24,,,,,57,0.550385529,0.543859649,,,,,,,
decision,406,1000062,0.0-116.0-2.0,,36,run_exp/static/images/task_images/land.jpg,65,,,,,,31,,,24,,,,,,,,78195,3,1,FALSE,,,
dig,407,1003043,0.0-117.0-0.0,,,,,,,,,,,"[{""stimulus"":""run_exp/static/images/task_images/dig.jpg"",""time"":0},{""stimulus"":""run_exp/static/images/task_images/land.jpg"",""time"":994},{""stimulus"":""run_exp/static/images/task_images/dig.jpg"",""time"":1984}]",[],24,,,,,,,,,,,,,,
harvest,408,1004056,0.0-117.0-1.0,,null,run_exp/static/images/task_images/gems/31.jpg,null,,,,,,16,,,24,,,,,31,0.503347883,0.516129032,,,,,,,
decision,409,1004161,0.0-117.0-2.0,,104,run_exp/static/images/task_images/land.jpg,76,,,,,,16,,,24,,,,,,,,82294,3,2,TRUE,,,
travel,410,1014167,0.0-118.0-0.0,,,,,,,,,,,"[{""stimulus"":""run_exp/static/images/task_images/rocket-01.jpg"",""time"":0},{""stimulus"":""run_exp/static/images/task_images/rocket-02.jpg"",""time"":1107},{""stimulus"":""run_exp/static/images/task_images/rocket-03.jpg"",""time"":2220},{""stimulus"":""run_exp/static/images/task_images/rocket-04.jpg"",""time"":3334},{""stimulus"":""run_exp/static/images/task_images/rocket-05.jpg"",""time"":4442},{""stimulus"":""run_exp/static/images/task_images/rocket-06.jpg"",""time"":5556},{""stimulus"":""run_exp/static/images/task_images/rocket-07.jpg"",""time"":6667},{""stimulus"":""run_exp/static/images/task_images/rocket-08.jpg"",""time"":7776},{""stimulus"":""run_exp/static/images/task_images/rocket-09.jpg"",""time"":8886}]",[],24,,,,,,,,,,,,,,
alien_welcome,411,1019182,0.0-118.0-1.0,,null,run_exp/static/images/task_images/aliens/old_aliens/planet/alien_planet-63.jpg,null,,,,,,,,,,,,63,"64,70,50,74,4,72,1,6,30,9,5,62,19,69,54,3,2,77,52,20,68,12,47,22,63,14,35,73,39,10,17,66,28,29,51,67,37,34,45,58,38",,,,,,,,,,
land,412,1019699,0.0-118.0-2.0,,null,run_exp/static/images/task_images/land.jpg,null,,,,,,92,,,25,,,,,,,,,,,,,,
dig,413,1021713,0.0-118.0-3.0,,,,,,,,,,,"[{""stimulus"":""run_exp/static/images/task_images/dig.jpg"",""time"":0},{""stimulus"":""run_exp/static/images/task_images/land.jpg"",""time"":671},{""stimulus"":""run_exp/static/images/task_images/dig.jpg"",""time"":1342}]",[],25,,,,,,,,,,,,,,
harvest,414,1022719,0.0-118.0-4.0,,null,run_exp/static/images/task_images/gems/92.jpg,null,,,,,,57,,,25,,,,,92,0.615921222,0.619565217,,,,,,,
decision,415,1022735,0.0-118.0-5.0,,15,run_exp/static/images/task_images/land.jpg,65,,,,,,57,,,25,,,,,,,,100868,3,0,FALSE,,,
dig,416,1025746,0.0-119.0-0.0,,,,,,,,,,,"[{""stimulus"":""run_exp/static/images/task_images/dig.jpg"",""time"":0},{""stimulus"":""run_exp/static/images/task_images/land.jpg"",""time"":1005},{""stimulus"":""run_exp/static/images/task_images/dig.jpg"",""time"":2006}]",[],25,,,,,,,,,,,,,,
harvest,417,1026761,0.0-119.0-1.0,,null,run_exp/static/images/task_images/gems/57.jpg,null,,,,,,29,,,25,,,,,57,0.511804508,0.50877193,,,,,,,
decision,418,1026777,0.0-119.0-2.0,,16,run_exp/static/images/task_images/land.jpg,65,,,,,,29,,,25,,,,,,,,104910,3,1,FALSE,,,
dig,419,1029791,0.0-120.0-0.0,,,,,,,,,,,"[{""stimulus"":""run_exp/static/images/task_images/dig.jpg"",""time"":0},{""stimulus"":""run_exp/static/images/task_images/land.jpg"",""time"":1002},{""stimulus"":""run_exp/static/images/task_images/dig.jpg"",""time"":2005}]",[],25,,,,,,,,,,,,,,
harvest,420,1030806,0.0-120.0-1.0,,null,run_exp/static/images/task_images/gems/29.jpg,null,,,,,,15,,,25,,,,,29,0.511841961,0.517241379,,,,,,,
decision,421,1030876,0.0-120.0-2.0,,70,run_exp/static/images/task_images/land.jpg,76,,,,,,15,,,25,,,,,,,,109009,3,2,TRUE,,,
