trial_type,trial_index,time_elapsed,internal_node_id,interactions,blur_events,focus_events,fullscreenenter_events,fullscreenexit_events,success,rt,stimulus,key_press,prompt,subject_id,participant_id,age,gender,button_pressed,next_reward,animation_sequence,responses,planet,curr_prac_trial,n_prac_rounds,alien,aliens,reward_received,decay_rate_actual,decay_rate_exp,time_in_block,block_num,prt,last_trial_on_planet,button_html,bonus,num_failures
pavlovia,0,12,0.0-0.0,"""event"",""trial"",""time""
""fullscreenenter"",""1"",""4538""
","
","
","""event"",""trial"",""time""
""fullscreenenter"",""1"",""4538""
","
",,,,,,,,,,,,,,,,,,,,,,,,,,,,
fullscreen,1,5520,0.0-1.0,"""event"",""trial"",""time""
""fullscreenenter"",""1"",""4538""
","
","
","""event"",""trial"",""time""
""fullscreenenter"",""1"",""4538""
","
",TRUE,,,,,,,,,,,,,,,,,,,,,,,,,,,
instruc_welcome,2,15404,0.0-2.0,"""event"",""trial"",""time""
""fullscreenenter"",""1"",""4538""
","
","
","""event"",""trial"",""time""
""fullscreenenter"",""1"",""4538""
","
",,null,run_exp/static/audio/clip_1_welcome.m4a,null,"<p>Howdy! In this experiment, you’ll be an explorer traveling through space to collect space treasure.</p><p>Your mission is to collect as much treasure as possible.</p><br><br><p><img src='run_exp/static/images/task_images/opening_img-01.jpg' height='300' width='auto'></p>",9248,3929,20.25,Female,,,,,,,,,,,,,,,,,,,
audio-keyboard-response,3,32421,0.0-3.0,"""event"",""trial"",""time""
""fullscreenenter"",""1"",""4538""
","
","
","""event"",""trial"",""time""
""fullscreenenter"",""1"",""4538""
","
",,null,run_exp/static/audio/clip_2_move.m4a,null,,,,,,,,,,,,,,,,,,,,,,,,
welcome_dec,4,43809,0.0-4.0,"""event"",""trial"",""time""
""fullscreenenter"",""1"",""4538""
","
","
","""event"",""trial"",""time""
""fullscreenenter"",""1"",""4538""
","
",,11384.9,"<p>Howdy! In this experiment, you’ll be an explorer traveling through space to collect space treasure.</p><p>Your mission is to collect as much treasure as possible.</p><br><br><p><img src='run_exp/static/images/task_images/opening_img-01.jpg' height='300' width='auto'></p>",,,,,,,1,,,,,,,,,,,,,,,,,,
html-keyboard-response,5,45677,0.0-5.0,"""event"",""trial"",""time""
""fullscreenenter"",""1"",""4538""
","
","
","""event"",""trial"",""time""
""fullscreenenter"",""1"",""4538""
","
",,1863.4,"<p>Howdy! In this experiment, you’ll be an explorer traveling through space to collect space treasure.</p><p>Your mission is to collect as much treasure as possible.</p><br><br><p><img src='run_exp/static/images/task_images/opening_img-01.jpg' height='300' width='auto'></p><button class=""jspsych-html-btn-unchosen""><img src=""run_exp/static/images/task_images/planet-01.jpg"" height=""50""></button><button class=""jspsych-html-btn-chosen""><img src=""run_exp/static/images/task_images/planet-02.jpg"" height=""50""></button><p><b>[press the space bar to lock in your answer]<b><br></p>",32,,,,,,,,,,,,,,,,,,,,,,,,
instruc_goal,6,55926,0.0-6.0-0.0,"""event"",""trial"",""time""
""fullscreenenter"",""1"",""4538""
","
","
","""event"",""trial"",""time""
""fullscreenenter"",""1"",""4538""
","
",,null,run_exp/static/audio/clip_3_goal.m4a,null,"<p> As a space explorer, you’ll visit different planets to dig for space treasure, these pink gems.</p> <p> The more treasure you dig up, the more bonus money you’ll win! </p><br><br><p><img src='run_exp/static/images/task_images/pink_gem.jpg' height='300' width='auto'></p>",,,,,,,,,,,,,,,,,,,,,,,
instruc_goal,7,65436,0.0-6.0-1.0,"""event"",""trial"",""time""
""fullscreenenter"",""1"",""4538""
","
","
","""event"",""trial"",""time""
""fullscreenenter"",""1"",""4538""
","
",,9506.7,"<p> As a space explorer, you’ll visit different planets to dig for space treasure, these pink gems.</p> <p> The more treasure you dig up, the more bonus money you’ll win! </p><br><br><p><img src='run_exp/static/images/task_images/pink_gem.jpg' height='300' width='auto'></p>",,,,,,,1,,,,,,,,,,,,,,,,,,
html-keyboard-response,8,65926,0.0-6.0-2.0,"""event"",""trial"",""time""
""fullscreenenter"",""1"",""4538""
","
","
","""event"",""trial"",""time""
""fullscreenenter"",""1"",""4538""
","
",,485.4,"<p> As a space explorer, you’ll visit different planets to dig for space treasure, these pink gems.</p> <p> The more treasure you dig up, the more bonus money you’ll win! </p><br><br><p><img src='run_exp/static/images/task_images/pink_gem.jpg' height='300' width='auto'></p><button class=""jspsych-html-btn-unchosen""><img src=""run_exp/static/images/task_images/planet-01.jpg"" height=""50""></button><button class=""jspsych-html-btn-chosen""><img src=""run_exp/static/images/task_images/planet-02.jpg"" height=""50""></button><p><b>[press the space bar to lock in your answer]<b><br></p>",32,,,,,,,,,,,,,,,,,,,,,,,,
instruc_dig,9,82281,0.0-7.0-0.0,"""event"",""trial"",""time""
""fullscreenenter"",""1"",""4538""
","
","
","""event"",""trial"",""time""
""fullscreenenter"",""1"",""4538""
","
",,null,run_exp/static/audio/clip_4_dig.m4a,null,,,,,,,100,,,,,,,,,,,,,,,,,
instruc_dig_try,10,82654,0.0-7.0-1.0,"""event"",""trial"",""time""
""fullscreenenter"",""1"",""4538""
","
","
","""event"",""trial"",""time""
""fullscreenenter"",""1"",""4538""
","
",,370,"<p> When you’ve arrived at a new planet, you will dig once. </p> <p>Then, you get to decide if you want to stay on the planet and dig again or travel to a new planet and dig there.</p> <p> To stay and dig, press the letter <strong>‘A’</strong> on your keyboard. Try pressing it now! </p><p><img src='run_exp/static/images/task_images/land.jpg'  height='700' width='auto'></p>",65,"<p> When you’ve arrived at a new planet, you will dig once. </p> <p>Then, you get to decide if you want to stay on the planet and dig again or travel to a new planet and dig there.</p> <p> To stay and dig, press the letter <strong>‘A’</strong> on your keyboard. Try pressing it now! </p><p><img src='run_exp/static/images/task_images/land.jpg'  height='700' width='auto'></p>",,,,,,100,,,,,,,,,,,,,,,,,
dig_prac,11,84681,0.0-7.0-2.0,"""event"",""trial"",""time""
""fullscreenenter"",""1"",""4538""
","
","
","""event"",""trial"",""time""
""fullscreenenter"",""1"",""4538""
","
",,,,,,,,,,,,"[{""stimulus"":""run_exp/static/images/task_images/dig.jpg"",""time"":0.5999999998603016},{""stimulus"":""run_exp/static/images/task_images/land.jpg"",""time"":670.8999999999069},{""stimulus"":""run_exp/static/images/task_images/dig.jpg"",""time"":1343.2999999998137}]",[],,,,,,,,,,,,,,,
instruc_travel,12,121172,0.0-7.0-3.0,"""event"",""trial"",""time""
""fullscreenenter"",""1"",""4538""
","
","
","""event"",""trial"",""time""
""fullscreenenter"",""1"",""4538""
","
",,null,run_exp/static/audio/clip_5_travel.m4a,null,"<p>Every time you dig up gems, there are less gems on the planet, so the more you dig on a planet the fewer gems you’ll get with each dig.</p><p>When gems are running low, you may want to travel to a new planet. </p> <p>  Planets are very far apart in this galaxy, so it will take some time to travel between them. </p> <br><p>There are lots and lots of planets for you to visit, so you won’t be able to return to any planets you’ve seen before. </p><br><p>To leave this planet and travel to a new one, press the letter <strong>‘L’</strong> on your keyboard. Try pressing it now! </p><p><img src='run_exp/static/images/task_images/rocket-01.jpg'  height='600' width='auto'></p>",,,,,,,,,,,,,,,,,,,,,,,
instruc_travel_try,13,125197,0.0-7.0-4.0,"""event"",""trial"",""time""
""fullscreenenter"",""1"",""4538""
","
","
","""event"",""trial"",""time""
""fullscreenenter"",""1"",""4538""
","
",,4020.8,"<p>Every time you dig up gems, there are less gems on the planet, so the more you dig on a planet the fewer gems you’ll get with each dig.</p><p>When gems are running low, you may want to travel to a new planet. </p> <p>  Planets are very far apart in this galaxy, so it will take some time to travel between them. </p> <br><p>There are lots and lots of planets for you to visit, so you won’t be able to return to any planets you’ve seen before. </p><br><p>To leave this planet and travel to a new one, press the letter <strong>‘L’</strong> on your keyboard. Try pressing it now! </p><p><img src='run_exp/static/images/task_images/rocket-01.jpg'  height='600' width='auto'></p>",76,"<p>Every time you dig up gems, there are less gems on the planet, so the more you dig on a planet the fewer gems you’ll get with each dig.</p><p>When gems are running low, you may want to travel to a new planet. </p> <p>  Planets are very far apart in this galaxy, so it will take some time to travel between them. </p> <br><p>There are lots and lots of planets for you to visit, so you won’t be able to return to any planets you’ve seen before. </p><br><p>To leave this planet and travel to a new one, press the letter <strong>‘L’</strong> on your keyboard. Try pressing it now! </p><p><img src='run_exp/static/images/task_images/rocket-01.jpg'  height='600' width='auto'></p>",,,,,,,,,,,,,,,,,,,,,,,
travel_prac,14,135200,0.0-7.0-5.0,"""event"",""trial"",""time""
""fullscreenenter"",""1"",""4538""
","
","
","""event"",""trial"",""time""
""fullscreenenter"",""1"",""4538""
","
",,,,,,,,,,,,"[{""stimulus"":""run_exp/static/images/task_images/rocket-01.jpg"",""time"":0.5},{""stimulus"":""run_exp/static/images/task_images/rocket-02.jpg"",""time"":1113.2000000001863},{""stimulus"":""run_exp/static/images/task_images/rocket-03.jpg"",""time"":2225},{""stimulus"":""run_exp/static/images/task_images/rocket-04.jpg"",""time"":3336.9000000001397},{""stimulus"":""run_exp/static/images/task_images/rocket-05.jpg"",""time"":4449.40000000014},{""stimulus"":""run_exp/static/images/task_images/rocket-06.jpg"",""time"":5561.100000000093},{""stimulus"":""run_exp/static/images/task_images/rocket-07.jpg"",""time"":6673.200000000186},{""stimulus"":""run_exp/static/images/task_images/rocket-08.jpg"",""time"":7785},{""stimulus"":""run_exp/static/images/task_images/rocket-09.jpg"",""time"":8897}]",[],0,,,,,,,,,,,,,,
instruc_alien_greet,15,162671,0.0-7.0-6.0,"""event"",""trial"",""time""
""fullscreenenter"",""1"",""4538""
","
","
","""event"",""trial"",""time""
""fullscreenenter"",""1"",""4538""
","
",,null,run_exp/static/audio/clip_6_alien.m4a,null,"<p>When you arrive at a new planet, the alien who owns the treasure mine on that planet will greet you!</p><p>The better an alien takes care of their mine the easier it is to dig for gems. Some aliens take better care of their mine than others. So, you won’t get exactly the same amount of gems on each planet.</p><p>What the alien looks like does not tell you anything about how many gems there are on the planet.</p><br><p><img src=""run_exp/static/images/task_images/aliens/instructions_aliens/planet/alien_planet-1.jpg""  height=""600"" width=""auto""></p>",,,,,,,,,,,,,,,,,,,,,,,
instruc_alien_greet,16,167430,0.0-7.0-7.0,"""event"",""trial"",""time""
""fullscreenenter"",""1"",""4538""
","
","
","""event"",""trial"",""time""
""fullscreenenter"",""1"",""4538""
","
",,4756.6,"<p>When you arrive at a new planet, the alien who owns the treasure mine on that planet will greet you!</p><p>The better an alien takes care of their mine the easier it is to dig for gems. Some aliens take better care of their mine than others. So, you won’t get exactly the same amount of gems on each planet.</p><p>What the alien looks like does not tell you anything about how many gems there are on the planet.</p><br><p><img src=""run_exp/static/images/task_images/aliens/instructions_aliens/planet/alien_planet-1.jpg""  height=""600"" width=""auto""></p>",,,,,,,1,,,,,,,,,,,,,,,,,,
html-keyboard-response,17,167975,0.0-7.0-8.0,"""event"",""trial"",""time""
""fullscreenenter"",""1"",""4538""
","
","
","""event"",""trial"",""time""
""fullscreenenter"",""1"",""4538""
","
",,541.8,"<p>When you arrive at a new planet, the alien who owns the treasure mine on that planet will greet you!</p><p>The better an alien takes care of their mine the easier it is to dig for gems. Some aliens take better care of their mine than others. So, you won’t get exactly the same amount of gems on each planet.</p><p>What the alien looks like does not tell you anything about how many gems there are on the planet.</p><br><p><img src=""run_exp/static/images/task_images/aliens/instructions_aliens/planet/alien_planet-1.jpg""  height=""600"" width=""auto""></p><button class=""jspsych-html-btn-unchosen""><img src=""run_exp/static/images/task_images/planet-01.jpg"" height=""50""></button><button class=""jspsych-html-btn-chosen""><img src=""run_exp/static/images/task_images/planet-02.jpg"" height=""50""></button><p><b>[press the space bar to lock in your answer]<b><br></p>",32,,,,,,,,,,,,,,,,,,,,,,,,
time_out,18,179430,0.0-8.0-0.0,"""event"",""trial"",""time""
""fullscreenenter"",""1"",""4538""
","
","
","""event"",""trial"",""time""
""fullscreenenter"",""1"",""4538""
","
",,null,run_exp/static/audio/clip_7_timeout.m4a,null,"<p>If you don't make your choice fast enough, you’ll have to wait a few seconds before you can make another one.</p><p>You can’t dig for more gems or travel to new planets. You just have to sit and wait.</p><br><p><img src='run_exp/static/images/task_images/time_out.jpg'  height='600' width='auto'></p>",,,,,,,,,,,,,,,,,,,,,,,
time_out,19,184048,0.0-8.0-1.0,"""event"",""trial"",""time""
""fullscreenenter"",""1"",""4538""
","
","
","""event"",""trial"",""time""
""fullscreenenter"",""1"",""4538""
","
",,4615.1,"<p>If you don't make your choice fast enough, you’ll have to wait a few seconds before you can make another one.</p><p>You can’t dig for more gems or travel to new planets. You just have to sit and wait.</p><br><p><img src='run_exp/static/images/task_images/time_out.jpg'  height='600' width='auto'></p>",,,,,,,1,,,,,,,,,,,,,,,,,,
html-keyboard-response,20,184505,0.0-8.0-2.0,"""event"",""trial"",""time""
""fullscreenenter"",""1"",""4538""
","
","
","""event"",""trial"",""time""
""fullscreenenter"",""1"",""4538""
","
",,454.4,"<p>If you don't make your choice fast enough, you’ll have to wait a few seconds before you can make another one.</p><p>You can’t dig for more gems or travel to new planets. You just have to sit and wait.</p><br><p><img src='run_exp/static/images/task_images/time_out.jpg'  height='600' width='auto'></p><button class=""jspsych-html-btn-unchosen""><img src=""run_exp/static/images/task_images/planet-01.jpg"" height=""50""></button><button class=""jspsych-html-btn-chosen""><img src=""run_exp/static/images/task_images/planet-02.jpg"" height=""50""></button><p><b>[press the space bar to lock in your answer]<b><br></p>",32,,,,,,,,,,,,,,,,,,,,,,,,
instruc_break,21,200411,0.0-9.0-0.0,"""event"",""trial"",""time""
""fullscreenenter"",""1"",""4538""
","
","
","""event"",""trial"",""time""
""fullscreenenter"",""1"",""4538""
","
",,null,run_exp/static/audio/clip_8_break.m4a,null,"<p> After digging and traveling for a while, you’ll be able to take a break at home base. </p><p>The game will last 20 minutes no matter what.</p><p>You will visit home base every 5 minutes, so, you will visit home base three times during the game.</p><br><p><img src='run_exp/static/images/task_images/home_base.jpg' height='600' width='auto'></p>",,,,,,,,,,,,,,,,,,,,,,,
instruc_break,22,205416,0.0-9.0-1.0,"""event"",""trial"",""time""
""fullscreenenter"",""1"",""4538""
","
","
","""event"",""trial"",""time""
""fullscreenenter"",""1"",""4538""
","
",,5001,"<p> After digging and traveling for a while, you’ll be able to take a break at home base. </p><p>The game will last 20 minutes no matter what.</p><p>You will visit home base every 5 minutes, so, you will visit home base three times during the game.</p><br><p><img src='run_exp/static/images/task_images/home_base.jpg' height='600' width='auto'></p>",,,,,,,1,,,,,,,,,,,,,,,,,,
html-keyboard-response,23,205931,0.0-9.0-2.0,"""event"",""trial"",""time""
""fullscreenenter"",""1"",""4538""
","
","
","""event"",""trial"",""time""
""fullscreenenter"",""1"",""4538""
","
",,510.8,"<p> After digging and traveling for a while, you’ll be able to take a break at home base. </p><p>The game will last 20 minutes no matter what.</p><p>You will visit home base every 5 minutes, so, you will visit home base three times during the game.</p><br><p><img src='run_exp/static/images/task_images/home_base.jpg' height='600' width='auto'></p><button class=""jspsych-html-btn-unchosen""><img src=""run_exp/static/images/task_images/planet-01.jpg"" height=""50""></button><button class=""jspsych-html-btn-chosen""><img src=""run_exp/static/images/task_images/planet-02.jpg"" height=""50""></button><p><b>[press the space bar to lock in your answer]<b><br></p>",32,,,,,,,,,,,,,,,,,,,,,,,,
instruc_prac_game,24,216403,0.0-10.0-0.0,"""event"",""trial"",""time""
""fullscreenenter"",""1"",""4538""
","
","
","""event"",""trial"",""time""
""fullscreenenter"",""1"",""4538""
","
",,null,run_exp/static/audio/clip_9_practice.m4a,null,"<p> Are you ready to play a practice game? </p> <p>In this practice game, you'll be digging up barrels of gems. But, in the real game, you'll be digging up the gems themselves. </p>",,,,,,,,,,,,,,,,,,,,,,,
html-button-response,25,219798,0.0-10.0-1.0,"""event"",""trial"",""time""
""fullscreenenter"",""1"",""4538""
","
","
","""event"",""trial"",""time""
""fullscreenenter"",""1"",""4538""
","
",,3392.9,"<p> Are you ready to play a practice game? </p> <p>In this practice game, you'll be digging up barrels of gems. But, in the real game, you'll be digging up the gems themselves. </p>",,,,,,,0,,,,,,,,,,,,,,,,,,
alien_welcome_prac,26,224808,0.0-11.0-0.0,"""event"",""trial"",""time""
""fullscreenenter"",""1"",""4538""
","
","
","""event"",""trial"",""time""
""fullscreenenter"",""1"",""4538""
","
",,null,run_exp/static/images/task_images/aliens/practice_aliens/planet/alien_planet-5.jpg,null,,,,,,,,,,,,,,,,,,,,,,,,
land_prac,27,225312,0.0-11.0-1.0,"""event"",""trial"",""time""
""fullscreenenter"",""1"",""4538""
","
","
","""event"",""trial"",""time""
""fullscreenenter"",""1"",""4538""
","
",,null,run_exp/static/images/task_images/land.jpg,null,,,,,,,96,,,0,,,,,,,,,,,,,,
dig_prac,28,227320,0.0-11.0-2.0,"""event"",""trial"",""time""
""fullscreenenter"",""1"",""4538""
","
","
","""event"",""trial"",""time""
""fullscreenenter"",""1"",""4538""
","
",,,,,,,,,,,,"[{""stimulus"":""run_exp/static/images/task_images/dig.jpg"",""time"":0.39999999990686774},{""stimulus"":""run_exp/static/images/task_images/land.jpg"",""time"":670},{""stimulus"":""run_exp/static/images/task_images/dig.jpg"",""time"":1343.2000000001863}]",[],,,,,,,,,,,,,,,
harvest_prac,29,228329,0.0-11.0-3.0,"""event"",""trial"",""time""
""fullscreenenter"",""1"",""4538""
","
","
","""event"",""trial"",""time""
""fullscreenenter"",""1"",""4538""
","
",,null,run_exp/static/images/task_images/barrel_text.jpg,null,,,,,,,,,,,,,,,,,,,,,,,,
decision_prac,30,230513,0.0-11.0-4.0,"""event"",""trial"",""time""
""fullscreenenter"",""1"",""4538""
","
","
","""event"",""trial"",""time""
""fullscreenenter"",""1"",""4538""
","
",,2181.3,run_exp/static/images/task_images/land.jpg,65,,,,,,,,,,,1,,,,,,,,,,,,,
dig_prac,31,232521,0.0-12.0-0.0,"""event"",""trial"",""time""
""fullscreenenter"",""1"",""4538""
","
","
","""event"",""trial"",""time""
""fullscreenenter"",""1"",""4538""
","
",,,,,,,,,,,,"[{""stimulus"":""run_exp/static/images/task_images/dig.jpg"",""time"":0.20000000018626451},{""stimulus"":""run_exp/static/images/task_images/land.jpg"",""time"":675.2000000001863},{""stimulus"":""run_exp/static/images/task_images/dig.jpg"",""time"":1339.3000000002794}]",[],,,,,,,,,,,,,,,
harvest_prac,32,233528,0.0-12.0-1.0,"""event"",""trial"",""time""
""fullscreenenter"",""1"",""4538""
","
","
","""event"",""trial"",""time""
""fullscreenenter"",""1"",""4538""
","
",,null,run_exp/static/images/task_images/barrel_text.jpg,null,,,,,,,,,,,,,,,,,,,,,,,,
decision_prac,33,236340,0.0-12.0-2.0,"""event"",""trial"",""time""
""fullscreenenter"",""1"",""4538""
","
","
","""event"",""trial"",""time""
""fullscreenenter"",""1"",""4538""
","
",,2809.6,run_exp/static/images/task_images/land.jpg,76,,,,,,,,,,,2,,,,,,,,,,,,,
travel,34,243528,0.0-13.0-0.0,"""event"",""trial"",""time""
""fullscreenenter"",""1"",""4538""
","
","
","""event"",""trial"",""time""
""fullscreenenter"",""1"",""4538""
","
",,,,,,,,,,,,"[{""stimulus"":""run_exp/static/images/task_images/rocket-01.jpg"",""time"":0.2999999998137355},{""stimulus"":""run_exp/static/images/task_images/rocket-02.jpg"",""time"":801},{""stimulus"":""run_exp/static/images/task_images/rocket-03.jpg"",""time"":1600.7999999998137},{""stimulus"":""run_exp/static/images/task_images/rocket-04.jpg"",""time"":2401.1999999997206},{""stimulus"":""run_exp/static/images/task_images/rocket-05.jpg"",""time"":3200.6999999997206},{""stimulus"":""run_exp/static/images/task_images/rocket-06.jpg"",""time"":3992.7999999998137},{""stimulus"":""run_exp/static/images/task_images/rocket-07.jpg"",""time"":4792.5},{""stimulus"":""run_exp/static/images/task_images/rocket-08.jpg"",""time"":5592.600000000093},{""stimulus"":""run_exp/static/images/task_images/rocket-09.jpg"",""time"":6392.699999999721}]",[],0,,,,,,,,,,,,,,
alien_welcome_prac,35,248532,0.0-13.0-1.0,"""event"",""trial"",""time""
""fullscreenenter"",""1"",""4538""
","
","
","""event"",""trial"",""time""
""fullscreenenter"",""1"",""4538""
","
",,null,run_exp/static/images/task_images/aliens/practice_aliens/planet/alien_planet-4.jpg,null,,,,,,,,,,,,,,,,,,,,,,,,
land_prac,36,249041,0.0-13.0-2.0,"""event"",""trial"",""time""
""fullscreenenter"",""1"",""4538""
","
","
","""event"",""trial"",""time""
""fullscreenenter"",""1"",""4538""
","
",,null,run_exp/static/images/task_images/land.jpg,null,,,,,,,108,,,0,,,,,,,,,,,,,,
dig_prac,37,251048,0.0-13.0-3.0,"""event"",""trial"",""time""
""fullscreenenter"",""1"",""4538""
","
","
","""event"",""trial"",""time""
""fullscreenenter"",""1"",""4538""
","
",,,,,,,,,,,,"[{""stimulus"":""run_exp/static/images/task_images/dig.jpg"",""time"":0.39999999990686774},{""stimulus"":""run_exp/static/images/task_images/land.jpg"",""time"":670.3000000002794},{""stimulus"":""run_exp/static/images/task_images/dig.jpg"",""time"":1342.3999999999069}]",[],,,,,,,,,,,,,,,
harvest_prac,38,252057,0.0-13.0-4.0,"""event"",""trial"",""time""
""fullscreenenter"",""1"",""4538""
","
","
","""event"",""trial"",""time""
""fullscreenenter"",""1"",""4538""
","
",,null,run_exp/static/images/task_images/barrel_text.jpg,null,,,,,,,,,,,,,,,,,,,,,,,,
decision_prac,39,253982,0.0-13.0-5.0,"""event"",""trial"",""time""
""fullscreenenter"",""1"",""4538""
","
","
","""event"",""trial"",""time""
""fullscreenenter"",""1"",""4538""
","
",,1923.2,run_exp/static/images/task_images/land.jpg,65,,,,,,,,,,,3,,,,,,,,,,,,,
dig_prac,40,255993,0.0-14.0-0.0,"""event"",""trial"",""time""
""fullscreenenter"",""1"",""4538""
","
","
","""event"",""trial"",""time""
""fullscreenenter"",""1"",""4538""
","
",,,,,,,,,,,,"[{""stimulus"":""run_exp/static/images/task_images/dig.jpg"",""time"":0.39999999990686774},{""stimulus"":""run_exp/static/images/task_images/land.jpg"",""time"":670.2000000001863},{""stimulus"":""run_exp/static/images/task_images/dig.jpg"",""time"":1342.3000000002794}]",[],,,,,,,,,,,,,,,
harvest_prac,41,257005,0.0-14.0-1.0,"""event"",""trial"",""time""
""fullscreenenter"",""1"",""4538""
","
","
","""event"",""trial"",""time""
""fullscreenenter"",""1"",""4538""
","
",,null,run_exp/static/images/task_images/barrel_text.jpg,null,,,,,,,,,,,,,,,,,,,,,,,,
decision_prac,42,260008,0.0-14.0-2.0,"""event"",""trial"",""time""
""fullscreenenter"",""1"",""4538""
","
","
","""event"",""trial"",""time""
""fullscreenenter"",""1"",""4538""
","
",,null,run_exp/static/images/task_images/land.jpg,null,,,,,,,,,,,4,,,,,,,,,,,,,
time_out,43,262016,0.0-15.0-0.0,"""event"",""trial"",""time""
""fullscreenenter"",""1"",""4538""
","
","
","""event"",""trial"",""time""
""fullscreenenter"",""1"",""4538""
","
",,null,run_exp/static/images/task_images/time_out.jpg,null,,,,,,,,,,,,,,,,,,,,,,,,
decision_prac,44,262617,0.0-15.0-1.0,"""event"",""trial"",""time""
""fullscreenenter"",""1"",""4538""
","
","
","""event"",""trial"",""time""
""fullscreenenter"",""1"",""4538""
","
",,598.1,run_exp/static/images/task_images/land.jpg,65,,,,,,,,,,,,1,,,,,,,,,,,,
quiz_instruc,45,275614,0.0-16.0-0.0,"""event"",""trial"",""time""
""fullscreenenter"",""1"",""4538""
","
","
","""event"",""trial"",""time""
""fullscreenenter"",""1"",""4538""
","
",,12992.2,run_exp/static/audio/clip_10_quiz.m4a,,,,,,,0,,,,,,,,,,,,,,,,,,
instruc_repeat,46,318714,0.0-16.0-1.0,"""event"",""trial"",""time""
""fullscreenenter"",""1"",""4538""
","
","
","""event"",""trial"",""time""
""fullscreenenter"",""1"",""4538""
","
",,null,"<p> Are you ready to play a practice game? </p> <p>In this practice game, you'll be digging up barrels of gems. But, in the real game, you'll be digging up the gems themselves. </p>",null,"<p>In this game, your goal is to collect as many gems as you can. That’s how you will win bonus money. </p> <p>The entire game will last 20 minutes no matter how many gems you collect or how many planets you visit. </p><p>To stay on a planet and dig again, press the letter A on your keyboard. To leave for a new planet, press the letter L.</p><p>The more you dig on a planet, the fewer gems you’ll get with each dig which is why you might consider leaving for a new planet. </p><p>When you arrive at a new planet, you’ll be greeted by an alien. What the alien looks like does not tell you anything about how much treasure is on the planet. </p>",,,,,,,,,,,,,,,,,,,,,,,
instruc_repeat_continue,47,319983,0.0-16.0-2.0,"""event"",""trial"",""time""
""fullscreenenter"",""1"",""4538""
","
","
","""event"",""trial"",""time""
""fullscreenenter"",""1"",""4538""
","
",,1264.4,"<p> Are you ready to play a practice game? </p> <p>In this practice game, you'll be digging up barrels of gems. But, in the real game, you'll be digging up the gems themselves. </p>",,,,,,,0,,,,,,,,,,,,,,,,,,
quiz_q_1_ask,48,332529,0.0-16.0-3.0,"""event"",""trial"",""time""
""fullscreenenter"",""1"",""4538""
","
","
","""event"",""trial"",""time""
""fullscreenenter"",""1"",""4538""
","
",,12535.4,run_exp/static/audio/clip_11_q1_ask.m4a,,,,,,,2,,,,,,,,,,,,,,,,,,
quiz_q_1_fb_correct,49,336753,0.0-17.0-0.0,"""event"",""trial"",""time""
""fullscreenenter"",""1"",""4538""
","
","
","""event"",""trial"",""time""
""fullscreenenter"",""1"",""4538""
","
",,null,run_exp/static/audio/clip_12_q1_correct.m4a,null,<p>That’s correct. You win extra money by collecting more gems.</p>,,,,,,,,,,,,,,,,,,,,,,,
quiz_q_2_ask,50,343187,0.0-17.0-1.0,"""event"",""trial"",""time""
""fullscreenenter"",""1"",""4538""
","
","
","""event"",""trial"",""time""
""fullscreenenter"",""1"",""4538""
","
",,6430.5,run_exp/static/audio/clip_14_q2_ask.m4a,,,,,,,1,,,,,,,,,,,,,,,,,,
quiz_q_2_fb_correct,51,347371,0.0-18.0-0.0,"""event"",""trial"",""time""
""fullscreenenter"",""1"",""4538""
","
","
","""event"",""trial"",""time""
""fullscreenenter"",""1"",""4538""
","
",,null,run_exp/static/audio/clip_15_q2_correct.m4a,null,<p>That’s correct. The experiment is 20 minutes no matter what.</p>,,,,,,,,,,,,,,,,,,,,,,,
quiz_q_3_ask,52,350867,0.0-18.0-1.0,"""event"",""trial"",""time""
""fullscreenenter"",""1"",""4538""
","
","
","""event"",""trial"",""time""
""fullscreenenter"",""1"",""4538""
","
",,3493.1,run_exp/static/audio/clip_17_q3_ask.m4a,,,,,,,1,,,,,,,,,,,,,,,,,,
quiz_q_3_fb_correct,53,355175,0.0-19.0-0.0,"""event"",""trial"",""time""
""fullscreenenter"",""1"",""4538""
","
","
","""event"",""trial"",""time""
""fullscreenenter"",""1"",""4538""
","
",,null,run_exp/static/audio/clip_18_q3_correct.m4a,null,<p> That’s correct. You press the letter L to travel to a new planet.</p>,,,,,,,,,,,,,,,,,,,,,,,
quiz_q_4_ask,54,359714,0.0-19.0-1.0,"""event"",""trial"",""time""
""fullscreenenter"",""1"",""4538""
","
","
","""event"",""trial"",""time""
""fullscreenenter"",""1"",""4538""
","
",,4534.8,run_exp/static/audio/clip_20_q4_ask.m4a,,,,,,,0,,,,,,,,,,,,,,,,,,
quiz_q_4_fb_correct,55,365282,0.0-20.0-0.0,"""event"",""trial"",""time""
""fullscreenenter"",""1"",""4538""
","
","
","""event"",""trial"",""time""
""fullscreenenter"",""1"",""4538""
","
",,null,run_exp/static/audio/clip_21_q4_correct.m4a,null,<p> That’s correct. The more you dig on a planet the fewer gems you’ll get with each dig. </p>,,,,,,,,,,,,,,,,,,,,,,,
quiz_q_5_ask,56,370252,0.0-20.0-1.0,"""event"",""trial"",""time""
""fullscreenenter"",""1"",""4538""
","
","
","""event"",""trial"",""time""
""fullscreenenter"",""1"",""4538""
","
",,4965.8,run_exp/static/audio/clip_23_q5_ask.m4a,,,,,,,1,,,,,,,,,,,,,,,,,,
quiz_q_5_fb_correct,57,375518,0.0-21.0-0.0,"""event"",""trial"",""time""
""fullscreenenter"",""1"",""4538""
","
","
","""event"",""trial"",""time""
""fullscreenenter"",""1"",""4538""
","
",,null,run_exp/static/audio/clip_24_q5_correct.m4a,null,<p> That’s correct. The alien tells you nothing about how much treasure is on the planet.</p>,,,,,,,,,,,,,,,,,,,,,,,
quiz_correct,58,379355,0.0-22.0-0.0,"""event"",""trial"",""time""
""fullscreenenter"",""1"",""4538""
","
","
","""event"",""trial"",""time""
""fullscreenenter"",""1"",""4538""
","
",,null,run_exp/static/audio/clip_26_correct_quiz.m4a,null,,,,,,,,,,,,,,,,,,,,,,,,
quiz_correct_continue,59,382633,0.0-22.0-1.0,"""event"",""trial"",""time""
""fullscreenenter"",""1"",""4538""
","
","
","""event"",""trial"",""time""
""fullscreenenter"",""1"",""4538""
","
",,3275.9,<p>Good job! You're now ready to move on to the real game!</p>,,,,,,,0,,,,,,,,,,,,,,,,,,
audio-keyboard-response,60,393045,0.0-22.0-2.0,"""event"",""trial"",""time""
""fullscreenenter"",""1"",""4538""
","
","
","""event"",""trial"",""time""
""fullscreenenter"",""1"",""4538""
","
",,null,run_exp/static/audio/clip_28_real_game.m4a,null,,,,,,,,,,,,,,,,,,,,,,,,
instruc_begin_exp_contine,61,394978,0.0-22.0-3.0,"""event"",""trial"",""time""
""fullscreenenter"",""1"",""4538""
","
","
","""event"",""trial"",""time""
""fullscreenenter"",""1"",""4538""
","
",,1931.2,"<p>Now that you know how  to dig for space treasure and travel to new planets,you can start exploring! </p><p>Do you want to go over the instructions again or get started with the real game?</p>",,,,,,,1,,,,,,1,,,,,,,,,,,,
alien_welcome,62,399992,0.0-23.0-0.0,"""event"",""trial"",""time""
""fullscreenenter"",""1"",""4538""
","
","
","""event"",""trial"",""time""
""fullscreenenter"",""1"",""4538""
","
",,null,run_exp/static/images/task_images/aliens/old_aliens/planet/alien_planet-78.jpg,null,,,,,,,,,,,,,78,"78,8,67,32,25,23,14,19,72,80,6,47,44,2,30,27,40,50,79,13,42,24,73,20,56,41,53,22,54,39,49,7",,,,,,,,,,
land,63,400496,0.0-23.0-1.0,"""event"",""trial"",""time""
""fullscreenenter"",""1"",""4538""
","
","
","""event"",""trial"",""time""
""fullscreenenter"",""1"",""4538""
","
",,null,run_exp/static/images/task_images/land.jpg,null,,,,,,,103,,,1,,,,,,,,,,,,,,
dig,64,402505,0.0-23.0-2.0,"""event"",""trial"",""time""
""fullscreenenter"",""1"",""4538""
","
","
","""event"",""trial"",""time""
""fullscreenenter"",""1"",""4538""
","
",,,,,,,,,,,,"[{""stimulus"":""run_exp/static/images/task_images/dig.jpg"",""time"":0.39999999990686774},{""stimulus"":""run_exp/static/images/task_images/land.jpg"",""time"":670.0999999996275},{""stimulus"":""run_exp/static/images/task_images/dig.jpg"",""time"":1342.0999999996275}]",[],1,,,,,,,,,,,,,,
harvest,65,403512,0.0-23.0-3.0,"""event"",""trial"",""time""
""fullscreenenter"",""1"",""4538""
","
","
","""event"",""trial"",""time""
""fullscreenenter"",""1"",""4538""
","
",,null,run_exp/static/images/task_images/gems/103.jpg,null,,,,,,,15,,,1,,,,,103,0.146084274,0.145631068,,,,,,,
decision,66,405320,0.0-23.0-4.0,"""event"",""trial"",""time""
""fullscreenenter"",""1"",""4538""
","
","
","""event"",""trial"",""time""
""fullscreenenter"",""1"",""4538""
","
",,1804.8,run_exp/static/images/task_images/land.jpg,65,,,,,,,15,,,1,,,,,,,,10338,1,0,FALSE,,,
dig,67,406520,0.0-24.0-0.0,"""event"",""trial"",""time""
""fullscreenenter"",""1"",""4538""
","
","
","""event"",""trial"",""time""
""fullscreenenter"",""1"",""4538""
","
",,,,,,,,,,,,"[{""stimulus"":""run_exp/static/images/task_images/dig.jpg"",""time"":0.20000000018626451},{""stimulus"":""run_exp/static/images/task_images/land.jpg"",""time"":403.90000000037253},{""stimulus"":""run_exp/static/images/task_images/dig.jpg"",""time"":804.3000000002794}]",[],1,,,,,,,,,,,,,,
harvest,68,407529,0.0-24.0-1.0,"""event"",""trial"",""time""
""fullscreenenter"",""1"",""4538""
","
","
","""event"",""trial"",""time""
""fullscreenenter"",""1"",""4538""
","
",,null,run_exp/static/images/task_images/gems/15.jpg,null,,,,,,,2,,,1,,,,,15,0.111147532,0.133333333,,,,,,,
decision,69,409483,0.0-24.0-2.0,"""event"",""trial"",""time""
""fullscreenenter"",""1"",""4538""
","
","
","""event"",""trial"",""time""
""fullscreenenter"",""1"",""4538""
","
",,1952.4,run_exp/static/images/task_images/land.jpg,65,,,,,,,2,,,1,,,,,,,,14501,1,1,FALSE,,,
dig,70,410537,0.0-25.0-0.0,"""event"",""trial"",""time""
""fullscreenenter"",""1"",""4538""
","
","
","""event"",""trial"",""time""
""fullscreenenter"",""1"",""4538""
","
",,,,,,,,,,,,"[{""stimulus"":""run_exp/static/images/task_images/dig.jpg"",""time"":0.2999999998137355},{""stimulus"":""run_exp/static/images/task_images/land.jpg"",""time"":353.79999999981374},{""stimulus"":""run_exp/static/images/task_images/dig.jpg"",""time"":705.6000000000931}]",[],1,,,,,,,,,,,,,,
harvest,71,411545,0.0-25.0-1.0,"""event"",""trial"",""time""
""fullscreenenter"",""1"",""4538""
","
","
","""event"",""trial"",""time""
""fullscreenenter"",""1"",""4538""
","
",,null,run_exp/static/images/task_images/gems/2.jpg,null,,,,,,,0,,,1,,,,,2,0.188700028,0,,,,,,,
decision,72,412508,0.0-25.0-2.0,"""event"",""trial"",""time""
""fullscreenenter"",""1"",""4538""
","
","
","""event"",""trial"",""time""
""fullscreenenter"",""1"",""4538""
","
",,961.2,run_exp/static/images/task_images/land.jpg,76,,,,,,,0,,,1,,,,,,,,17526,1,2,TRUE,,,
travel,73,421552,0.0-26.0-0.0,"""event"",""trial"",""time""
""fullscreenenter"",""1"",""4538""
","
","
","""event"",""trial"",""time""
""fullscreenenter"",""1"",""4538""
","
",,,,,,,,,,,,"[{""stimulus"":""run_exp/static/images/task_images/rocket-01.jpg"",""time"":0.3000000002793968},{""stimulus"":""run_exp/static/images/task_images/rocket-02.jpg"",""time"":1009.1000000000931},{""stimulus"":""run_exp/static/images/task_images/rocket-03.jpg"",""time"":2016.3000000002794},{""stimulus"":""run_exp/static/images/task_images/rocket-04.jpg"",""time"":3016.5},{""stimulus"":""run_exp/static/images/task_images/rocket-05.jpg"",""time"":4024.3000000002794},{""stimulus"":""run_exp/static/images/task_images/rocket-06.jpg"",""time"":5024.300000000279},{""stimulus"":""run_exp/static/images/task_images/rocket-07.jpg"",""time"":6032.600000000093},{""stimulus"":""run_exp/static/images/task_images/rocket-08.jpg"",""time"":7032.5},{""stimulus"":""run_exp/static/images/task_images/rocket-09.jpg"",""time"":8040.300000000279}]",[],1,,,,,,,,,,,,,,
alien_welcome,74,426560,0.0-26.0-1.0,"""event"",""trial"",""time""
""fullscreenenter"",""1"",""4538""
","
","
","""event"",""trial"",""time""
""fullscreenenter"",""1"",""4538""
","
",,null,run_exp/static/images/task_images/aliens/old_aliens/planet/alien_planet-8.jpg,null,,,,,,,,,,,,,8,"78,8,67,32,25,23,14,19,72,80,6,47,44,2,30,27,40,50,79,13,42,24,73,20,56,41,53,22,54,39,49,7",,,,,,,,,,
land,75,427064,0.0-26.0-2.0,"""event"",""trial"",""time""
""fullscreenenter"",""1"",""4538""
","
","
","""event"",""trial"",""time""
""fullscreenenter"",""1"",""4538""
","
",,null,run_exp/static/images/task_images/land.jpg,null,,,,,,,99,,,2,,,,,,,,,,,,,,
dig,76,429072,0.0-26.0-3.0,"""event"",""trial"",""time""
""fullscreenenter"",""1"",""4538""
","
","
","""event"",""trial"",""time""
""fullscreenenter"",""1"",""4538""
","
",,,,,,,,,,,,"[{""stimulus"":""run_exp/static/images/task_images/dig.jpg"",""time"":0.39999999990686774},{""stimulus"":""run_exp/static/images/task_images/land.jpg"",""time"":670.3000000002794},{""stimulus"":""run_exp/static/images/task_images/dig.jpg"",""time"":1342.5}]",[],2,,,,,,,,,,,,,,
harvest,77,430080,0.0-26.0-4.0,"""event"",""trial"",""time""
""fullscreenenter"",""1"",""4538""
","
","
","""event"",""trial"",""time""
""fullscreenenter"",""1"",""4538""
","
",,null,run_exp/static/images/task_images/gems/99.jpg,null,,,,,,,27,,,2,,,,,99,0.274405868,0.272727273,,,,,,,
decision,78,432590,0.0-26.0-5.0,"""event"",""trial"",""time""
""fullscreenenter"",""1"",""4538""
","
","
","""event"",""trial"",""time""
""fullscreenenter"",""1"",""4538""
","
",,2507.9,run_exp/static/images/task_images/land.jpg,65,,,,,,,27,,,2,,,,,,,,37608,1,0,FALSE,,,
dig,79,433088,0.0-27.0-0.0,"""event"",""trial"",""time""
""fullscreenenter"",""1"",""4538""
","
","
","""event"",""trial"",""time""
""fullscreenenter"",""1"",""4538""
","
",,,,,,,,,,,,"[{""stimulus"":""run_exp/static/images/task_images/dig.jpg"",""time"":0.20000000018626451},{""stimulus"":""run_exp/static/images/task_images/land.jpg"",""time"":166},{""stimulus"":""run_exp/static/images/task_images/dig.jpg"",""time"":334.60000000009313}]",[],2,,,,,,,,,,,,,,
harvest,80,434096,0.0-27.0-1.0,"""event"",""trial"",""time""
""fullscreenenter"",""1"",""4538""
","
","
","""event"",""trial"",""time""
""fullscreenenter"",""1"",""4538""
","
",,null,run_exp/static/images/task_images/gems/27.jpg,null,,,,,,,8,,,2,,,,,27,0.280020823,0.296296296,,,,,,,
decision,81,435995,0.0-27.0-2.0,"""event"",""trial"",""time""
""fullscreenenter"",""1"",""4538""
","
","
","""event"",""trial"",""time""
""fullscreenenter"",""1"",""4538""
","
",,1896.6,run_exp/static/images/task_images/land.jpg,65,,,,,,,8,,,2,,,,,,,,41013,1,1,FALSE,,,
dig,82,437105,0.0-28.0-0.0,"""event"",""trial"",""time""
""fullscreenenter"",""1"",""4538""
","
","
","""event"",""trial"",""time""
""fullscreenenter"",""1"",""4538""
","
",,,,,,,,,,,,"[{""stimulus"":""run_exp/static/images/task_images/dig.jpg"",""time"":0.2999999998137355},{""stimulus"":""run_exp/static/images/task_images/land.jpg"",""time"":376.10000000009313},{""stimulus"":""run_exp/static/images/task_images/dig.jpg"",""time"":736.5}]",[],2,,,,,,,,,,,,,,
harvest,83,438106,0.0-28.0-1.0,"""event"",""trial"",""time""
""fullscreenenter"",""1"",""4538""
","
","
","""event"",""trial"",""time""
""fullscreenenter"",""1"",""4538""
","
",,null,run_exp/static/images/task_images/gems/8.jpg,null,,,,,,,1,,,2,,,,,8,0.183428134,0.125,,,,,,,
decision,84,439436,0.0-28.0-2.0,"""event"",""trial"",""time""
""fullscreenenter"",""1"",""4538""
","
","
","""event"",""trial"",""time""
""fullscreenenter"",""1"",""4538""
","
",,1327.5,run_exp/static/images/task_images/land.jpg,65,,,,,,,1,,,2,,,,,,,,44454,1,2,FALSE,,,
dig,85,441120,0.0-29.0-0.0,"""event"",""trial"",""time""
""fullscreenenter"",""1"",""4538""
","
","
","""event"",""trial"",""time""
""fullscreenenter"",""1"",""4538""
","
",,,,,,,,,,,,"[{""stimulus"":""run_exp/static/images/task_images/dig.jpg"",""time"":0.39999999990686774},{""stimulus"":""run_exp/static/images/task_images/land.jpg"",""time"":559.5},{""stimulus"":""run_exp/static/images/task_images/dig.jpg"",""time"":1118.8999999999069}]",[],2,,,,,,,,,,,,,,
harvest,86,442128,0.0-29.0-1.0,"""event"",""trial"",""time""
""fullscreenenter"",""1"",""4538""
","
","
","""event"",""trial"",""time""
""fullscreenenter"",""1"",""4538""
","
",,null,run_exp/static/images/task_images/gems/1.jpg,null,,,,,,,0,,,2,,,,,1,0.149503769,0,,,,,,,
decision,87,443211,0.0-29.0-2.0,"""event"",""trial"",""time""
""fullscreenenter"",""1"",""4538""
","
","
","""event"",""trial"",""time""
""fullscreenenter"",""1"",""4538""
","
",,1080.8,run_exp/static/images/task_images/land.jpg,76,,,,,,,0,,,2,,,,,,,,48229,1,3,TRUE,,,
travel,88,452136,0.0-30.0-0.0,"""event"",""trial"",""time""
""fullscreenenter"",""1"",""4538""
","
","
","""event"",""trial"",""time""
""fullscreenenter"",""1"",""4538""
","
",,,,,,,,,,,,"[{""stimulus"":""run_exp/static/images/task_images/rocket-01.jpg"",""time"":0.3000000002793968},{""stimulus"":""run_exp/static/images/task_images/rocket-02.jpg"",""time"":992.9000000003725},{""stimulus"":""run_exp/static/images/task_images/rocket-03.jpg"",""time"":1985.1000000000931},{""stimulus"":""run_exp/static/images/task_images/rocket-04.jpg"",""time"":2976.8000000002794},{""stimulus"":""run_exp/static/images/task_images/rocket-05.jpg"",""time"":3968.8000000002794},{""stimulus"":""run_exp/static/images/task_images/rocket-06.jpg"",""time"":4961.200000000186},{""stimulus"":""run_exp/static/images/task_images/rocket-07.jpg"",""time"":5953.100000000093},{""stimulus"":""run_exp/static/images/task_images/rocket-08.jpg"",""time"":6944.9000000003725},{""stimulus"":""run_exp/static/images/task_images/rocket-09.jpg"",""time"":7937}]",[],2,,,,,,,,,,,,,,
alien_welcome,89,457144,0.0-30.0-1.0,"""event"",""trial"",""time""
""fullscreenenter"",""1"",""4538""
","
","
","""event"",""trial"",""time""
""fullscreenenter"",""1"",""4538""
","
",,null,run_exp/static/images/task_images/aliens/old_aliens/planet/alien_planet-67.jpg,null,,,,,,,,,,,,,67,"78,8,67,32,25,23,14,19,72,80,6,47,44,2,30,27,40,50,79,13,42,24,73,20,56,41,53,22,54,39,49,7",,,,,,,,,,
land,90,457649,0.0-30.0-2.0,"""event"",""trial"",""time""
""fullscreenenter"",""1"",""4538""
","
","
","""event"",""trial"",""time""
""fullscreenenter"",""1"",""4538""
","
",,null,run_exp/static/images/task_images/land.jpg,null,,,,,,,95,,,3,,,,,,,,,,,,,,
dig,91,459656,0.0-30.0-3.0,"""event"",""trial"",""time""
""fullscreenenter"",""1"",""4538""
","
","
","""event"",""trial"",""time""
""fullscreenenter"",""1"",""4538""
","
",,,,,,,,,,,,"[{""stimulus"":""run_exp/static/images/task_images/dig.jpg"",""time"":0.5},{""stimulus"":""run_exp/static/images/task_images/land.jpg"",""time"":669.6999999997206},{""stimulus"":""run_exp/static/images/task_images/dig.jpg"",""time"":1342}]",[],3,,,,,,,,,,,,,,
harvest,92,460665,0.0-30.0-4.0,"""event"",""trial"",""time""
""fullscreenenter"",""1"",""4538""
","
","
","""event"",""trial"",""time""
""fullscreenenter"",""1"",""4538""
","
",,null,run_exp/static/images/task_images/gems/95.jpg,null,,,,,,,46,,,3,,,,,95,0.48663299,0.484210526,,,,,,,
decision,93,461580,0.0-30.0-5.0,"""event"",""trial"",""time""
""fullscreenenter"",""1"",""4538""
","
","
","""event"",""trial"",""time""
""fullscreenenter"",""1"",""4538""
","
",,913.1,run_exp/static/images/task_images/land.jpg,65,,,,,,,46,,,3,,,,,,,,66598,1,0,FALSE,,,
dig,94,463672,0.0-31.0-0.0,"""event"",""trial"",""time""
""fullscreenenter"",""1"",""4538""
","
","
","""event"",""trial"",""time""
""fullscreenenter"",""1"",""4538""
","
",,,,,,,,,,,,"[{""stimulus"":""run_exp/static/images/task_images/dig.jpg"",""time"":0.5},{""stimulus"":""run_exp/static/images/task_images/land.jpg"",""time"":704},{""stimulus"":""run_exp/static/images/task_images/dig.jpg"",""time"":1392.2999999998137}]",[],3,,,,,,,,,,,,,,
harvest,95,464680,0.0-31.0-1.0,"""event"",""trial"",""time""
""fullscreenenter"",""1"",""4538""
","
","
","""event"",""trial"",""time""
""fullscreenenter"",""1"",""4538""
","
",,null,run_exp/static/images/task_images/gems/46.jpg,null,,,,,,,25,,,3,,,,,46,0.550825728,0.543478261,,,,,,,
decision,96,466481,0.0-31.0-2.0,"""event"",""trial"",""time""
""fullscreenenter"",""1"",""4538""
","
","
","""event"",""trial"",""time""
""fullscreenenter"",""1"",""4538""
","
",,1799.2,run_exp/static/images/task_images/land.jpg,76,,,,,,,25,,,3,,,,,,,,71500,1,1,TRUE,,,
travel,97,474688,0.0-32.0-0.0,"""event"",""trial"",""time""
""fullscreenenter"",""1"",""4538""
","
","
","""event"",""trial"",""time""
""fullscreenenter"",""1"",""4538""
","
",,,,,,,,,,,,"[{""stimulus"":""run_exp/static/images/task_images/rocket-01.jpg"",""time"":0.3000000002793968},{""stimulus"":""run_exp/static/images/task_images/rocket-02.jpg"",""time"":914.8999999999069},{""stimulus"":""run_exp/static/images/task_images/rocket-03.jpg"",""time"":1827},{""stimulus"":""run_exp/static/images/task_images/rocket-04.jpg"",""time"":2739.399999999907},{""stimulus"":""run_exp/static/images/task_images/rocket-05.jpg"",""time"":3651},{""stimulus"":""run_exp/static/images/task_images/rocket-06.jpg"",""time"":4562.600000000093},{""stimulus"":""run_exp/static/images/task_images/rocket-07.jpg"",""time"":5475.200000000186},{""stimulus"":""run_exp/static/images/task_images/rocket-08.jpg"",""time"":6378.700000000186},{""stimulus"":""run_exp/static/images/task_images/rocket-09.jpg"",""time"":7290.800000000279}]",[],3,,,,,,,,,,,,,,
alien_welcome,98,479696,0.0-32.0-1.0,"""event"",""trial"",""time""
""fullscreenenter"",""1"",""4538""
","
","
","""event"",""trial"",""time""
""fullscreenenter"",""1"",""4538""
","
",,null,run_exp/static/images/task_images/aliens/old_aliens/planet/alien_planet-32.jpg,null,,,,,,,,,,,,,32,"78,8,67,32,25,23,14,19,72,80,6,47,44,2,30,27,40,50,79,13,42,24,73,20,56,41,53,22,54,39,49,7",,,,,,,,,,
land,99,480200,0.0-32.0-2.0,"""event"",""trial"",""time""
""fullscreenenter"",""1"",""4538""
","
","
","""event"",""trial"",""time""
""fullscreenenter"",""1"",""4538""
","
",,null,run_exp/static/images/task_images/land.jpg,null,,,,,,,101,,,4,,,,,,,,,,,,,,
dig,100,482208,0.0-32.0-3.0,"""event"",""trial"",""time""
""fullscreenenter"",""1"",""4538""
","
","
","""event"",""trial"",""time""
""fullscreenenter"",""1"",""4538""
","
",,,,,,,,,,,,"[{""stimulus"":""run_exp/static/images/task_images/dig.jpg"",""time"":0.5},{""stimulus"":""run_exp/static/images/task_images/land.jpg"",""time"":670.2000000001863},{""stimulus"":""run_exp/static/images/task_images/dig.jpg"",""time"":1336}]",[],4,,,,,,,,,,,,,,
harvest,101,483216,0.0-32.0-4.0,"""event"",""trial"",""time""
""fullscreenenter"",""1"",""4538""
","
","
","""event"",""trial"",""time""
""fullscreenenter"",""1"",""4538""
","
",,null,run_exp/static/images/task_images/gems/101.jpg,null,,,,,,,49,,,4,,,,,101,0.483277881,0.485148515,,,,,,,
decision,102,485906,0.0-32.0-5.0,"""event"",""trial"",""time""
""fullscreenenter"",""1"",""4538""
","
","
","""event"",""trial"",""time""
""fullscreenenter"",""1"",""4538""
","
",,2687.4,run_exp/static/images/task_images/land.jpg,65,,,,,,,49,,,4,,,,,,,,90924,1,0,FALSE,,,
dig,103,486232,0.0-33.0-0.0,"""event"",""trial"",""time""
""fullscreenenter"",""1"",""4538""
","
","
","""event"",""trial"",""time""
""fullscreenenter"",""1"",""4538""
","
",,,,,,,,,,,,"[{""stimulus"":""run_exp/static/images/task_images/dig.jpg"",""time"":0.6999999997206032},{""stimulus"":""run_exp/static/images/task_images/land.jpg"",""time"":112.5},{""stimulus"":""run_exp/static/images/task_images/dig.jpg"",""time"":216.29999999981374}]",[],4,,,,,,,,,,,,,,
harvest,104,487240,0.0-33.0-1.0,"""event"",""trial"",""time""
""fullscreenenter"",""1"",""4538""
","
","
","""event"",""trial"",""time""
""fullscreenenter"",""1"",""4538""
","
",,null,run_exp/static/images/task_images/gems/49.jpg,null,,,,,,,24,,,4,,,,,49,0.499096253,0.489795918,,,,,,,
decision,105,489478,0.0-33.0-2.0,"""event"",""trial"",""time""
""fullscreenenter"",""1"",""4538""
","
","
","""event"",""trial"",""time""
""fullscreenenter"",""1"",""4538""
","
",,2235.7,run_exp/static/images/task_images/land.jpg,65,,,,,,,24,,,4,,,,,,,,94496,1,1,FALSE,,,
dig,106,490249,0.0-34.0-0.0,"""event"",""trial"",""time""
""fullscreenenter"",""1"",""4538""
","
","
","""event"",""trial"",""time""
""fullscreenenter"",""1"",""4538""
","
",,,,,,,,,,,,"[{""stimulus"":""run_exp/static/images/task_images/dig.jpg"",""time"":0.20000000018626451},{""stimulus"":""run_exp/static/images/task_images/land.jpg"",""time"":262.79999999981374},{""stimulus"":""run_exp/static/images/task_images/dig.jpg"",""time"":510.39999999990687}]",[],4,,,,,,,,,,,,,,
harvest,107,491256,0.0-34.0-1.0,"""event"",""trial"",""time""
""fullscreenenter"",""1"",""4538""
","
","
","""event"",""trial"",""time""
""fullscreenenter"",""1"",""4538""
","
",,null,run_exp/static/images/task_images/gems/24.jpg,null,,,,,,,12,,,4,,,,,24,0.506981055,0.5,,,,,,,
decision,108,494265,0.0-34.0-2.0,"""event"",""trial"",""time""
""fullscreenenter"",""1"",""4538""
","
","
","""event"",""trial"",""time""
""fullscreenenter"",""1"",""4538""
","
",,null,run_exp/static/images/task_images/land.jpg,null,,,,,,,12,,,4,,,,,,,,99283,1,2,FALSE,,,
time_out,109,496272,0.0-35.0-0.0,"""event"",""trial"",""time""
""fullscreenenter"",""1"",""4538""
","
","
","""event"",""trial"",""time""
""fullscreenenter"",""1"",""4538""
","
",,null,run_exp/static/images/task_images/time_out.jpg,null,,,,,,,12,,,,,,,,,,,,,,,,,
decision,110,496794,0.0-35.0-1.0,"""event"",""trial"",""time""
""fullscreenenter"",""1"",""4538""
","
","
","""event"",""trial"",""time""
""fullscreenenter"",""1"",""4538""
","
",,519.1,run_exp/static/images/task_images/land.jpg,65,,,,,,,12,,,4,,,,,,,,101812,1,2,FALSE,,,
dig,111,499280,0.0-36.0-0.0,"""event"",""trial"",""time""
""fullscreenenter"",""1"",""4538""
","
","
","""event"",""trial"",""time""
""fullscreenenter"",""1"",""4538""
","
",,,,,,,,,,,,"[{""stimulus"":""run_exp/static/images/task_images/dig.jpg"",""time"":0.20000000018626451},{""stimulus"":""run_exp/static/images/task_images/land.jpg"",""time"":835.2000000001863},{""stimulus"":""run_exp/static/images/task_images/dig.jpg"",""time"":1659}]",[],4,,,,,,,,,,,,,,
harvest,112,500288,0.0-36.0-1.0,"""event"",""trial"",""time""
""fullscreenenter"",""1"",""4538""
","
","
","""event"",""trial"",""time""
""fullscreenenter"",""1"",""4538""
","
",,null,run_exp/static/images/task_images/gems/12.jpg,null,,,,,,,7,,,4,,,,,12,0.545492014,0.583333333,,,,,,,
decision,113,502845,0.0-36.0-2.0,"""event"",""trial"",""time""
""fullscreenenter"",""1"",""4538""
","
","
","""event"",""trial"",""time""
""fullscreenenter"",""1"",""4538""
","
",,2554.6,run_exp/static/images/task_images/land.jpg,65,,,,,,,7,,,4,,,,,,,,107863,1,3,FALSE,,,
dig,114,503297,0.0-37.0-0.0,"""event"",""trial"",""time""
""fullscreenenter"",""1"",""4538""
","
","
","""event"",""trial"",""time""
""fullscreenenter"",""1"",""4538""
","
",,,,,,,,,,,,"[{""stimulus"":""run_exp/static/images/task_images/dig.jpg"",""time"":0.2999999998137355},{""stimulus"":""run_exp/static/images/task_images/land.jpg"",""time"":151.89999999990687},{""stimulus"":""run_exp/static/images/task_images/dig.jpg"",""time"":303.89999999990687}]",[],4,,,,,,,,,,,,,,
harvest,115,504305,0.0-37.0-1.0,"""event"",""trial"",""time""
""fullscreenenter"",""1"",""4538""
","
","
","""event"",""trial"",""time""
""fullscreenenter"",""1"",""4538""
","
",,null,run_exp/static/images/task_images/gems/7.jpg,null,,,,,,,3,,,4,,,,,7,0.414459234,0.428571429,,,,,,,
decision,116,505891,0.0-37.0-2.0,"""event"",""trial"",""time""
""fullscreenenter"",""1"",""4538""
","
","
","""event"",""trial"",""time""
""fullscreenenter"",""1"",""4538""
","
",,1584.3,run_exp/static/images/task_images/land.jpg,76,,,,,,,3,,,4,,,,,,,,110909,1,4,TRUE,,,
travel,117,514313,0.0-38.0-0.0,"""event"",""trial"",""time""
""fullscreenenter"",""1"",""4538""
","
","
","""event"",""trial"",""time""
""fullscreenenter"",""1"",""4538""
","
",,,,,,,,,,,,"[{""stimulus"":""run_exp/static/images/task_images/rocket-01.jpg"",""time"":0.2999999998137355},{""stimulus"":""run_exp/static/images/task_images/rocket-02.jpg"",""time"":937.1999999997206},{""stimulus"":""run_exp/static/images/task_images/rocket-03.jpg"",""time"":1873.1000000000931},{""stimulus"":""run_exp/static/images/task_images/rocket-04.jpg"",""time"":2808.899999999907},{""stimulus"":""run_exp/static/images/task_images/rocket-05.jpg"",""time"":3745.1999999997206},{""stimulus"":""run_exp/static/images/task_images/rocket-06.jpg"",""time"":4681.100000000093},{""stimulus"":""run_exp/static/images/task_images/rocket-07.jpg"",""time"":5617.299999999814},{""stimulus"":""run_exp/static/images/task_images/rocket-08.jpg"",""time"":6553.100000000093},{""stimulus"":""run_exp/static/images/task_images/rocket-09.jpg"",""time"":7490.199999999721}]",[],4,,,,,,,,,,,,,,
alien_welcome,118,519320,0.0-38.0-1.0,"""event"",""trial"",""time""
""fullscreenenter"",""1"",""4538""
","
","
","""event"",""trial"",""time""
""fullscreenenter"",""1"",""4538""
","
",,null,run_exp/static/images/task_images/aliens/old_aliens/planet/alien_planet-25.jpg,null,,,,,,,,,,,,,25,"78,8,67,32,25,23,14,19,72,80,6,47,44,2,30,27,40,50,79,13,42,24,73,20,56,41,53,22,54,39,49,7",,,,,,,,,,
land,119,519825,0.0-38.0-2.0,"""event"",""trial"",""time""
""fullscreenenter"",""1"",""4538""
","
","
","""event"",""trial"",""time""
""fullscreenenter"",""1"",""4538""
","
",,null,run_exp/static/images/task_images/land.jpg,null,,,,,,,95,,,5,,,,,,,,,,,,,,
dig,120,521833,0.0-38.0-3.0,"""event"",""trial"",""time""
""fullscreenenter"",""1"",""4538""
","
","
","""event"",""trial"",""time""
""fullscreenenter"",""1"",""4538""
","
",,,,,,,,,,,,"[{""stimulus"":""run_exp/static/images/task_images/dig.jpg"",""time"":0.5},{""stimulus"":""run_exp/static/images/task_images/land.jpg"",""time"":670.3000000002794},{""stimulus"":""run_exp/static/images/task_images/dig.jpg"",""time"":1342.3000000002794}]",[],5,,,,,,,,,,,,,,
harvest,121,522840,0.0-38.0-4.0,"""event"",""trial"",""time""
""fullscreenenter"",""1"",""4538""
","
","
","""event"",""trial"",""time""
""fullscreenenter"",""1"",""4538""
","
",,null,run_exp/static/images/task_images/gems/95.jpg,null,,,,,,,54,,,5,,,,,95,0.565730367,0.568421053,,,,,,,
decision,122,525451,0.0-38.0-5.0,"""event"",""trial"",""time""
""fullscreenenter"",""1"",""4538""
","
","
","""event"",""trial"",""time""
""fullscreenenter"",""1"",""4538""
","
",,2608.2,run_exp/static/images/task_images/land.jpg,65,,,,,,,54,,,5,,,,,,,,130469,1,0,FALSE,,,
dig,123,525857,0.0-39.0-0.0,"""event"",""trial"",""time""
""fullscreenenter"",""1"",""4538""
","
","
","""event"",""trial"",""time""
""fullscreenenter"",""1"",""4538""
","
",,,,,,,,,,,,"[{""stimulus"":""run_exp/static/images/task_images/dig.jpg"",""time"":0.3000000002793968},{""stimulus"":""run_exp/static/images/task_images/land.jpg"",""time"":135.39999999990687},{""stimulus"":""run_exp/static/images/task_images/dig.jpg"",""time"":263.60000000009313}]",[],5,,,,,,,,,,,,,,
harvest,124,526865,0.0-39.0-1.0,"""event"",""trial"",""time""
""fullscreenenter"",""1"",""4538""
","
","
","""event"",""trial"",""time""
""fullscreenenter"",""1"",""4538""
","
",,null,run_exp/static/images/task_images/gems/54.jpg,null,,,,,,,30,,,5,,,,,54,0.547630748,0.555555556,,,,,,,
decision,125,528670,0.0-39.0-2.0,"""event"",""trial"",""time""
""fullscreenenter"",""1"",""4538""
","
","
","""event"",""trial"",""time""
""fullscreenenter"",""1"",""4538""
","
",,1803.4,run_exp/static/images/task_images/land.jpg,65,,,,,,,30,,,5,,,,,,,,133688,1,1,FALSE,,,
dig,126,529873,0.0-40.0-0.0,"""event"",""trial"",""time""
""fullscreenenter"",""1"",""4538""
","
","
","""event"",""trial"",""time""
""fullscreenenter"",""1"",""4538""
","
",,,,,,,,,,,,"[{""stimulus"":""run_exp/static/images/task_images/dig.jpg"",""time"":0.39999999990686774},{""stimulus"":""run_exp/static/images/task_images/land.jpg"",""time"":406.09999999962747},{""stimulus"":""run_exp/static/images/task_images/dig.jpg"",""time"":798.5}]",[],5,,,,,,,,,,,,,,
harvest,127,530880,0.0-40.0-1.0,"""event"",""trial"",""time""
""fullscreenenter"",""1"",""4538""
","
","
","""event"",""trial"",""time""
""fullscreenenter"",""1"",""4538""
","
",,null,run_exp/static/images/task_images/gems/30.jpg,null,,,,,,,16,,,5,,,,,30,0.519397547,0.533333333,,,,,,,
decision,128,532572,0.0-40.0-2.0,"""event"",""trial"",""time""
""fullscreenenter"",""1"",""4538""
","
","
","""event"",""trial"",""time""
""fullscreenenter"",""1"",""4538""
","
",,1689.9,run_exp/static/images/task_images/land.jpg,65,,,,,,,16,,,5,,,,,,,,137590,1,2,FALSE,,,
dig,129,533896,0.0-41.0-0.0,"""event"",""trial"",""time""
""fullscreenenter"",""1"",""4538""
","
","
","""event"",""trial"",""time""
""fullscreenenter"",""1"",""4538""
","
",,,,,,,,,,,,"[{""stimulus"":""run_exp/static/images/task_images/dig.jpg"",""time"":0.5},{""stimulus"":""run_exp/static/images/task_images/land.jpg"",""time"":441.5},{""stimulus"":""run_exp/static/images/task_images/dig.jpg"",""time"":881.7000000001863}]",[],5,,,,,,,,,,,,,,
harvest,130,534904,0.0-41.0-1.0,"""event"",""trial"",""time""
""fullscreenenter"",""1"",""4538""
","
","
","""event"",""trial"",""time""
""fullscreenenter"",""1"",""4538""
","
",,null,run_exp/static/images/task_images/gems/16.jpg,null,,,,,,,9,,,5,,,,,16,0.576610473,0.5625,,,,,,,
decision,131,536211,0.0-41.0-2.0,"""event"",""trial"",""time""
""fullscreenenter"",""1"",""4538""
","
","
","""event"",""trial"",""time""
""fullscreenenter"",""1"",""4538""
","
",,1304.3,run_exp/static/images/task_images/land.jpg,65,,,,,,,9,,,5,,,,,,,,141229,1,3,FALSE,,,
dig,132,537913,0.0-42.0-0.0,"""event"",""trial"",""time""
""fullscreenenter"",""1"",""4538""
","
","
","""event"",""trial"",""time""
""fullscreenenter"",""1"",""4538""
","
",,,,,,,,,,,,"[{""stimulus"":""run_exp/static/images/task_images/dig.jpg"",""time"":0.19999999972060323},{""stimulus"":""run_exp/static/images/task_images/land.jpg"",""time"":569.3999999999069},{""stimulus"":""run_exp/static/images/task_images/dig.jpg"",""time"":1137.7999999998137}]",[],5,,,,,,,,,,,,,,
harvest,133,538922,0.0-42.0-1.0,"""event"",""trial"",""time""
""fullscreenenter"",""1"",""4538""
","
","
","""event"",""trial"",""time""
""fullscreenenter"",""1"",""4538""
","
",,null,run_exp/static/images/task_images/gems/9.jpg,null,,,,,,,4,,,5,,,,,9,0.496346837,0.444444444,,,,,,,
decision,134,539784,0.0-42.0-2.0,"""event"",""trial"",""time""
""fullscreenenter"",""1"",""4538""
","
","
","""event"",""trial"",""time""
""fullscreenenter"",""1"",""4538""
","
",,859.6,run_exp/static/images/task_images/land.jpg,65,,,,,,,4,,,5,,,,,,,,144802,1,4,FALSE,,,
dig,135,541936,0.0-43.0-0.0,"""event"",""trial"",""time""
""fullscreenenter"",""1"",""4538""
","
","
","""event"",""trial"",""time""
""fullscreenenter"",""1"",""4538""
","
",,,,,,,,,,,,"[{""stimulus"":""run_exp/static/images/task_images/dig.jpg"",""time"":0.2999999998137355},{""stimulus"":""run_exp/static/images/task_images/land.jpg"",""time"":716.5},{""stimulus"":""run_exp/static/images/task_images/dig.jpg"",""time"":1428.6999999997206}]",[],5,,,,,,,,,,,,,,
harvest,136,542944,0.0-43.0-1.0,"""event"",""trial"",""time""
""fullscreenenter"",""1"",""4538""
","
","
","""event"",""trial"",""time""
""fullscreenenter"",""1"",""4538""
","
",,null,run_exp/static/images/task_images/gems/4.jpg,null,,,,,,,2,,,5,,,,,4,0.504435815,0.5,,,,,,,
decision,137,545953,0.0-43.0-2.0,"""event"",""trial"",""time""
""fullscreenenter"",""1"",""4538""
","
","
","""event"",""trial"",""time""
""fullscreenenter"",""1"",""4538""
","
",,null,run_exp/static/images/task_images/land.jpg,null,,,,,,,2,,,5,,,,,,,,150971,1,5,FALSE,,,
time_out,138,547961,0.0-44.0-0.0,"""event"",""trial"",""time""
""fullscreenenter"",""1"",""4538""
","
","
","""event"",""trial"",""time""
""fullscreenenter"",""1"",""4538""
","
",,null,run_exp/static/images/task_images/time_out.jpg,null,,,,,,,2,,,,,,,,,,,,,,,,,
decision,139,548240,0.0-44.0-1.0,"""event"",""trial"",""time""
""fullscreenenter"",""1"",""4538""
","
","
","""event"",""trial"",""time""
""fullscreenenter"",""1"",""4538""
","
",,277.8,run_exp/static/images/task_images/land.jpg,65,,,,,,,2,,,5,,,,,,,,153258,1,5,FALSE,,,
dig,140,550968,0.0-45.0-0.0,"""event"",""trial"",""time""
""fullscreenenter"",""1"",""4538""
","
","
","""event"",""trial"",""time""
""fullscreenenter"",""1"",""4538""
","
",,,,,,,,,,,,"[{""stimulus"":""run_exp/static/images/task_images/dig.jpg"",""time"":0.2999999998137355},{""stimulus"":""run_exp/static/images/task_images/land.jpg"",""time"":917.1000000000931},{""stimulus"":""run_exp/static/images/task_images/dig.jpg"",""time"":1820.3999999999069}]",[],5,,,,,,,,,,,,,,
harvest,141,551976,0.0-45.0-1.0,"""event"",""trial"",""time""
""fullscreenenter"",""1"",""4538""
","
","
","""event"",""trial"",""time""
""fullscreenenter"",""1"",""4538""
","
",,null,run_exp/static/images/task_images/gems/2.jpg,null,,,,,,,1,,,5,,,,,2,0.530515114,0.5,,,,,,,
decision,142,554312,0.0-45.0-2.0,"""event"",""trial"",""time""
""fullscreenenter"",""1"",""4538""
","
","
","""event"",""trial"",""time""
""fullscreenenter"",""1"",""4538""
","
",,2333.5,run_exp/static/images/task_images/land.jpg,76,,,,,,,1,,,5,,,,,,,,159330,1,6,TRUE,,,
travel,143,561985,0.0-46.0-0.0,"""event"",""trial"",""time""
""fullscreenenter"",""1"",""4538""
","
","
","""event"",""trial"",""time""
""fullscreenenter"",""1"",""4538""
","
",,,,,,,,,,,,"[{""stimulus"":""run_exp/static/images/task_images/rocket-01.jpg"",""time"":0.39999999990686774},{""stimulus"":""run_exp/static/images/task_images/rocket-02.jpg"",""time"":860.2999999998137},{""stimulus"":""run_exp/static/images/task_images/rocket-03.jpg"",""time"":1708.7999999998137},{""stimulus"":""run_exp/static/images/task_images/rocket-04.jpg"",""time"":2556.600000000093},{""stimulus"":""run_exp/static/images/task_images/rocket-05.jpg"",""time"":3412.6999999997206},{""stimulus"":""run_exp/static/images/task_images/rocket-06.jpg"",""time"":4260.899999999907},{""stimulus"":""run_exp/static/images/task_images/rocket-07.jpg"",""time"":5108.699999999721},{""stimulus"":""run_exp/static/images/task_images/rocket-08.jpg"",""time"":5964.5},{""stimulus"":""run_exp/static/images/task_images/rocket-09.jpg"",""time"":6812.600000000093}]",[],5,,,,,,,,,,,,,,
alien_welcome,144,566992,0.0-46.0-1.0,"""event"",""trial"",""time""
""fullscreenenter"",""1"",""4538""
","
","
","""event"",""trial"",""time""
""fullscreenenter"",""1"",""4538""
","
",,null,run_exp/static/images/task_images/aliens/old_aliens/planet/alien_planet-23.jpg,null,,,,,,,,,,,,,23,"78,8,67,32,25,23,14,19,72,80,6,47,44,2,30,27,40,50,79,13,42,24,73,20,56,41,53,22,54,39,49,7",,,,,,,,,,
land,145,567499,0.0-46.0-2.0,"""event"",""trial"",""time""
""fullscreenenter"",""1"",""4538""
","
","
","""event"",""trial"",""time""
""fullscreenenter"",""1"",""4538""
","
",,null,run_exp/static/images/task_images/land.jpg,null,,,,,,,103,,,6,,,,,,,,,,,,,,
dig,146,569503,0.0-46.0-3.0,"""event"",""trial"",""time""
""fullscreenenter"",""1"",""4538""
","
","
","""event"",""trial"",""time""
""fullscreenenter"",""1"",""4538""
","
",,,,,,,,,,,,"[{""stimulus"":""run_exp/static/images/task_images/dig.jpg"",""time"":0.39999999990686774},{""stimulus"":""run_exp/static/images/task_images/land.jpg"",""time"":675.2000000001863},{""stimulus"":""run_exp/static/images/task_images/dig.jpg"",""time"":1339.7000000001863}]",[],6,,,,,,,,,,,,,,
harvest,147,570512,0.0-46.0-4.0,"""event"",""trial"",""time""
""fullscreenenter"",""1"",""4538""
","
","
","""event"",""trial"",""time""
""fullscreenenter"",""1"",""4538""
","
",,null,run_exp/static/images/task_images/gems/103.jpg,null,,,,,,,78,,,6,,,,,103,0.758096676,0.757281553,,,,,,,
decision,148,571045,0.0-46.0-5.0,"""event"",""trial"",""time""
""fullscreenenter"",""1"",""4538""
","
","
","""event"",""trial"",""time""
""fullscreenenter"",""1"",""4538""
","
",,531.5,run_exp/static/images/task_images/land.jpg,65,,,,,,,78,,,6,,,,,,,,176063,1,0,FALSE,,,
dig,149,573520,0.0-47.0-0.0,"""event"",""trial"",""time""
""fullscreenenter"",""1"",""4538""
","
","
","""event"",""trial"",""time""
""fullscreenenter"",""1"",""4538""
","
",,,,,,,,,,,,"[{""stimulus"":""run_exp/static/images/task_images/dig.jpg"",""time"":0.19999999972060323},{""stimulus"":""run_exp/static/images/task_images/land.jpg"",""time"":831.1000000000931},{""stimulus"":""run_exp/static/images/task_images/dig.jpg"",""time"":1647.6000000000931}]",[],6,,,,,,,,,,,,,,
harvest,150,574528,0.0-47.0-1.0,"""event"",""trial"",""time""
""fullscreenenter"",""1"",""4538""
","
","
","""event"",""trial"",""time""
""fullscreenenter"",""1"",""4538""
","
",,null,run_exp/static/images/task_images/gems/78.jpg,null,,,,,,,60,,,6,,,,,78,0.771947845,0.769230769,,,,,,,
decision,151,575262,0.0-47.0-2.0,"""event"",""trial"",""time""
""fullscreenenter"",""1"",""4538""
","
","
","""event"",""trial"",""time""
""fullscreenenter"",""1"",""4538""
","
",,732,run_exp/static/images/task_images/land.jpg,65,,,,,,,60,,,6,,,,,,,,180280,1,1,FALSE,,,
dig,152,577537,0.0-48.0-0.0,"""event"",""trial"",""time""
""fullscreenenter"",""1"",""4538""
","
","
","""event"",""trial"",""time""
""fullscreenenter"",""1"",""4538""
","
",,,,,,,,,,,,"[{""stimulus"":""run_exp/static/images/task_images/dig.jpg"",""time"":0.2999999998137355},{""stimulus"":""run_exp/static/images/task_images/land.jpg"",""time"":758.5},{""stimulus"":""run_exp/static/images/task_images/dig.jpg"",""time"":1518.3999999999069}]",[],6,,,,,,,,,,,,,,
harvest,153,578544,0.0-48.0-1.0,"""event"",""trial"",""time""
""fullscreenenter"",""1"",""4538""
","
","
","""event"",""trial"",""time""
""fullscreenenter"",""1"",""4538""
","
",,null,run_exp/static/images/task_images/gems/60.jpg,null,,,,,,,46,,,6,,,,,60,0.770702498,0.766666667,,,,,,,
decision,154,579796,0.0-48.0-2.0,"""event"",""trial"",""time""
""fullscreenenter"",""1"",""4538""
","
","
","""event"",""trial"",""time""
""fullscreenenter"",""1"",""4538""
","
",,1250.2,run_exp/static/images/task_images/land.jpg,65,,,,,,,46,,,6,,,,,,,,184814,1,2,FALSE,,,
dig,155,581552,0.0-49.0-0.0,"""event"",""trial"",""time""
""fullscreenenter"",""1"",""4538""
","
","
","""event"",""trial"",""time""
""fullscreenenter"",""1"",""4538""
","
",,,,,,,,,,,,"[{""stimulus"":""run_exp/static/images/task_images/dig.jpg"",""time"":0.3000000002793968},{""stimulus"":""run_exp/static/images/task_images/land.jpg"",""time"":592.2000000001863},{""stimulus"":""run_exp/static/images/task_images/dig.jpg"",""time"":1168.2000000001863}]",[],6,,,,,,,,,,,,,,
harvest,156,582560,0.0-49.0-1.0,"""event"",""trial"",""time""
""fullscreenenter"",""1"",""4538""
","
","
","""event"",""trial"",""time""
""fullscreenenter"",""1"",""4538""
","
",,null,run_exp/static/images/task_images/gems/46.jpg,null,,,,,,,34,,,6,,,,,46,0.745854141,0.739130435,,,,,,,
decision,157,583471,0.0-49.0-2.0,"""event"",""trial"",""time""
""fullscreenenter"",""1"",""4538""
","
","
","""event"",""trial"",""time""
""fullscreenenter"",""1"",""4538""
","
",,909.5,run_exp/static/images/task_images/land.jpg,65,,,,,,,34,,,6,,,,,,,,188489,1,3,FALSE,,,
dig,158,585569,0.0-50.0-0.0,"""event"",""trial"",""time""
""fullscreenenter"",""1"",""4538""
","
","
","""event"",""trial"",""time""
""fullscreenenter"",""1"",""4538""
","
",,,,,,,,,,,,"[{""stimulus"":""run_exp/static/images/task_images/dig.jpg"",""time"":0.20000000018626451},{""stimulus"":""run_exp/static/images/task_images/land.jpg"",""time"":698.8000000002794},{""stimulus"":""run_exp/static/images/task_images/dig.jpg"",""time"":1394.7000000001863}]",[],6,,,,,,,,,,,,,,
harvest,159,586579,0.0-50.0-1.0,"""event"",""trial"",""time""
""fullscreenenter"",""1"",""4538""
","
","
","""event"",""trial"",""time""
""fullscreenenter"",""1"",""4538""
","
",,null,run_exp/static/images/task_images/gems/34.jpg,null,,,,,,,26,,,6,,,,,34,0.762663658,0.764705882,,,,,,,
decision,160,587622,0.0-50.0-2.0,"""event"",""trial"",""time""
""fullscreenenter"",""1"",""4538""
","
","
","""event"",""trial"",""time""
""fullscreenenter"",""1"",""4538""
","
",,1041,run_exp/static/images/task_images/land.jpg,65,,,,,,,26,,,6,,,,,,,,192640,1,4,FALSE,,,
dig,161,589593,0.0-51.0-0.0,"""event"",""trial"",""time""
""fullscreenenter"",""1"",""4538""
","
","
","""event"",""trial"",""time""
""fullscreenenter"",""1"",""4538""
","
",,,,,,,,,,,,"[{""stimulus"":""run_exp/static/images/task_images/dig.jpg"",""time"":0.20000000018626451},{""stimulus"":""run_exp/static/images/task_images/land.jpg"",""time"":661.8999999999069},{""stimulus"":""run_exp/static/images/task_images/dig.jpg"",""time"":1309.8999999999069}]",[],6,,,,,,,,,,,,,,
harvest,162,590600,0.0-51.0-1.0,"""event"",""trial"",""time""
""fullscreenenter"",""1"",""4538""
","
","
","""event"",""trial"",""time""
""fullscreenenter"",""1"",""4538""
","
",,null,run_exp/static/images/task_images/gems/26.jpg,null,,,,,,,22,,,6,,,,,26,0.852189385,0.846153846,,,,,,,
decision,163,591809,0.0-51.0-2.0,"""event"",""trial"",""time""
""fullscreenenter"",""1"",""4538""
","
","
","""event"",""trial"",""time""
""fullscreenenter"",""1"",""4538""
","
",,1206.6,run_exp/static/images/task_images/land.jpg,65,,,,,,,22,,,6,,,,,,,,196827,1,5,FALSE,,,
dig,164,593609,0.0-52.0-0.0,"""event"",""trial"",""time""
""fullscreenenter"",""1"",""4538""
","
","
","""event"",""trial"",""time""
""fullscreenenter"",""1"",""4538""
","
",,,,,,,,,,,,"[{""stimulus"":""run_exp/static/images/task_images/dig.jpg"",""time"":0.40000000037252903},{""stimulus"":""run_exp/static/images/task_images/land.jpg"",""time"":603.6000000000931},{""stimulus"":""run_exp/static/images/task_images/dig.jpg"",""time"":1203.7000000001863}]",[],6,,,,,,,,,,,,,,
harvest,165,594617,0.0-52.0-1.0,"""event"",""trial"",""time""
""fullscreenenter"",""1"",""4538""
","
","
","""event"",""trial"",""time""
""fullscreenenter"",""1"",""4538""
","
",,null,run_exp/static/images/task_images/gems/22.jpg,null,,,,,,,18,,,6,,,,,22,0.819317985,0.818181818,,,,,,,
decision,166,595401,0.0-52.0-2.0,"""event"",""trial"",""time""
""fullscreenenter"",""1"",""4538""
","
","
","""event"",""trial"",""time""
""fullscreenenter"",""1"",""4538""
","
",,782.5,run_exp/static/images/task_images/land.jpg,65,,,,,,,18,,,6,,,,,,,,200419,1,6,FALSE,,,
dig,167,597624,0.0-53.0-0.0,"""event"",""trial"",""time""
""fullscreenenter"",""1"",""4538""
","
","
","""event"",""trial"",""time""
""fullscreenenter"",""1"",""4538""
","
",,,,,,,,,,,,"[{""stimulus"":""run_exp/static/images/task_images/dig.jpg"",""time"":0.20000000018626451},{""stimulus"":""run_exp/static/images/task_images/land.jpg"",""time"":747.1000000000931},{""stimulus"":""run_exp/static/images/task_images/dig.jpg"",""time"":1483.2000000001863}]",[],6,,,,,,,,,,,,,,
harvest,168,598633,0.0-53.0-1.0,"""event"",""trial"",""time""
""fullscreenenter"",""1"",""4538""
","
","
","""event"",""trial"",""time""
""fullscreenenter"",""1"",""4538""
","
",,null,run_exp/static/images/task_images/gems/18.jpg,null,,,,,,,16,,,6,,,,,18,0.867402352,0.888888889,,,,,,,
decision,169,599718,0.0-53.0-2.0,"""event"",""trial"",""time""
""fullscreenenter"",""1"",""4538""
","
","
","""event"",""trial"",""time""
""fullscreenenter"",""1"",""4538""
","
",,1083.1,run_exp/static/images/task_images/land.jpg,65,,,,,,,16,,,6,,,,,,,,204736,1,7,FALSE,,,
dig,170,601640,0.0-54.0-0.0,"""event"",""trial"",""time""
""fullscreenenter"",""1"",""4538""
","
","
","""event"",""trial"",""time""
""fullscreenenter"",""1"",""4538""
","
",,,,,,,,,,,,"[{""stimulus"":""run_exp/static/images/task_images/dig.jpg"",""time"":0.40000000037252903},{""stimulus"":""run_exp/static/images/task_images/land.jpg"",""time"":646.3000000002794},{""stimulus"":""run_exp/static/images/task_images/dig.jpg"",""time"":1285.9000000003725}]",[],6,,,,,,,,,,,,,,
harvest,171,602648,0.0-54.0-1.0,"""event"",""trial"",""time""
""fullscreenenter"",""1"",""4538""
","
","
","""event"",""trial"",""time""
""fullscreenenter"",""1"",""4538""
","
",,null,run_exp/static/images/task_images/gems/16.jpg,null,,,,,,,13,,,6,,,,,16,0.825867119,0.8125,,,,,,,
decision,172,603210,0.0-54.0-2.0,"""event"",""trial"",""time""
""fullscreenenter"",""1"",""4538""
","
","
","""event"",""trial"",""time""
""fullscreenenter"",""1"",""4538""
","
",,559,run_exp/static/images/task_images/land.jpg,65,,,,,,,13,,,6,,,,,,,,208228,1,8,FALSE,,,
dig,173,605665,0.0-55.0-0.0,"""event"",""trial"",""time""
""fullscreenenter"",""1"",""4538""
","
","
","""event"",""trial"",""time""
""fullscreenenter"",""1"",""4538""
","
",,,,,,,,,,,,"[{""stimulus"":""run_exp/static/images/task_images/dig.jpg"",""time"":0.19999999972060323},{""stimulus"":""run_exp/static/images/task_images/land.jpg"",""time"":815.5},{""stimulus"":""run_exp/static/images/task_images/dig.jpg"",""time"":1631.8999999999069}]",[],6,,,,,,,,,,,,,,
harvest,174,606672,0.0-55.0-1.0,"""event"",""trial"",""time""
""fullscreenenter"",""1"",""4538""
","
","
","""event"",""trial"",""time""
""fullscreenenter"",""1"",""4538""
","
",,null,run_exp/static/images/task_images/gems/13.jpg,null,,,,,,,8,,,6,,,,,13,0.647998989,0.615384615,,,,,,,
decision,175,607101,0.0-55.0-2.0,"""event"",""trial"",""time""
""fullscreenenter"",""1"",""4538""
","
","
","""event"",""trial"",""time""
""fullscreenenter"",""1"",""4538""
","
",,426.1,run_exp/static/images/task_images/land.jpg,65,,,,,,,8,,,6,,,,,,,,212120,1,9,FALSE,,,
dig,176,609681,0.0-56.0-0.0,"""event"",""trial"",""time""
""fullscreenenter"",""1"",""4538""
","
","
","""event"",""trial"",""time""
""fullscreenenter"",""1"",""4538""
","
",,,,,,,,,,,,"[{""stimulus"":""run_exp/static/images/task_images/dig.jpg"",""time"":0.2999999998137355},{""stimulus"":""run_exp/static/images/task_images/land.jpg"",""time"":862.3999999999069},{""stimulus"":""run_exp/static/images/task_images/dig.jpg"",""time"":1718.5}]",[],6,,,,,,,,,,,,,,
harvest,177,610688,0.0-56.0-1.0,"""event"",""trial"",""time""
""fullscreenenter"",""1"",""4538""
","
","
","""event"",""trial"",""time""
""fullscreenenter"",""1"",""4538""
","
",,null,run_exp/static/images/task_images/gems/8.jpg,null,,,,,,,6,,,6,,,,,8,0.782767167,0.75,,,,,,,
decision,178,610859,0.0-56.0-2.0,"""event"",""trial"",""time""
""fullscreenenter"",""1"",""4538""
","
","
","""event"",""trial"",""time""
""fullscreenenter"",""1"",""4538""
","
",,168.5,run_exp/static/images/task_images/land.jpg,65,,,,,,,6,,,6,,,,,,,,215877,1,10,FALSE,,,
dig,179,613696,0.0-57.0-0.0,"""event"",""trial"",""time""
""fullscreenenter"",""1"",""4538""
","
","
","""event"",""trial"",""time""
""fullscreenenter"",""1"",""4538""
","
",,,,,,,,,,,,"[{""stimulus"":""run_exp/static/images/task_images/dig.jpg"",""time"":0.2999999998137355},{""stimulus"":""run_exp/static/images/task_images/land.jpg"",""time"":952.6999999997206},{""stimulus"":""run_exp/static/images/task_images/dig.jpg"",""time"":1888.8999999999069}]",[],6,,,,,,,,,,,,,,
harvest,180,614705,0.0-57.0-1.0,"""event"",""trial"",""time""
""fullscreenenter"",""1"",""4538""
","
","
","""event"",""trial"",""time""
""fullscreenenter"",""1"",""4538""
","
",,null,run_exp/static/images/task_images/gems/6.jpg,null,,,,,,,5,,,6,,,,,6,0.832363099,0.833333333,,,,,,,
decision,181,615142,0.0-57.0-2.0,"""event"",""trial"",""time""
""fullscreenenter"",""1"",""4538""
","
","
","""event"",""trial"",""time""
""fullscreenenter"",""1"",""4538""
","
",,435.3,run_exp/static/images/task_images/land.jpg,76,,,,,,,5,,,6,,,,,,,,220160,1,11,TRUE,,,
travel,182,624708,0.0-58.0-0.0,"""event"",""trial"",""time""
""fullscreenenter"",""1"",""4538""
","
","
","""event"",""trial"",""time""
""fullscreenenter"",""1"",""4538""
","
",,,,,,,,,,,,"[{""stimulus"":""run_exp/static/images/task_images/rocket-01.jpg"",""time"":0.3000000002793968},{""stimulus"":""run_exp/static/images/task_images/rocket-02.jpg"",""time"":1069.8999999999069},{""stimulus"":""run_exp/static/images/task_images/rocket-03.jpg"",""time"":2126.2000000001863},{""stimulus"":""run_exp/static/images/task_images/rocket-04.jpg"",""time"":3190},{""stimulus"":""run_exp/static/images/task_images/rocket-05.jpg"",""time"":4254.399999999907},{""stimulus"":""run_exp/static/images/task_images/rocket-06.jpg"",""time"":5317.899999999907},{""stimulus"":""run_exp/static/images/task_images/rocket-07.jpg"",""time"":6374.5},{""stimulus"":""run_exp/static/images/task_images/rocket-08.jpg"",""time"":7437.899999999907},{""stimulus"":""run_exp/static/images/task_images/rocket-09.jpg"",""time"":8501.600000000093}]",[],6,,,,,,,,,,,,,,
alien_welcome,183,629713,0.0-58.0-1.0,"""event"",""trial"",""time""
""fullscreenenter"",""1"",""4538""
","
","
","""event"",""trial"",""time""
""fullscreenenter"",""1"",""4538""
","
",,null,run_exp/static/images/task_images/aliens/old_aliens/planet/alien_planet-14.jpg,null,,,,,,,,,,,,,14,"78,8,67,32,25,23,14,19,72,80,6,47,44,2,30,27,40,50,79,13,42,24,73,20,56,41,53,22,54,39,49,7",,,,,,,,,,
land,184,630216,0.0-58.0-2.0,"""event"",""trial"",""time""
""fullscreenenter"",""1"",""4538""
","
","
","""event"",""trial"",""time""
""fullscreenenter"",""1"",""4538""
","
",,null,run_exp/static/images/task_images/land.jpg,null,,,,,,,99,,,7,,,,,,,,,,,,,,
dig,185,632224,0.0-58.0-3.0,"""event"",""trial"",""time""
""fullscreenenter"",""1"",""4538""
","
","
","""event"",""trial"",""time""
""fullscreenenter"",""1"",""4538""
","
",,,,,,,,,,,,"[{""stimulus"":""run_exp/static/images/task_images/dig.jpg"",""time"":0.5},{""stimulus"":""run_exp/static/images/task_images/land.jpg"",""time"":670.3999999999069},{""stimulus"":""run_exp/static/images/task_images/dig.jpg"",""time"":1342.2000000001863}]",[],7,,,,,,,,,,,,,,
harvest,186,633233,0.0-58.0-4.0,"""event"",""trial"",""time""
""fullscreenenter"",""1"",""4538""
","
","
","""event"",""trial"",""time""
""fullscreenenter"",""1"",""4538""
","
",,null,run_exp/static/images/task_images/gems/99.jpg,null,,,,,,,71,,,7,,,,,99,0.721663308,0.717171717,,,,,,,
decision,187,633474,0.0-58.0-5.0,"""event"",""trial"",""time""
""fullscreenenter"",""1"",""4538""
","
","
","""event"",""trial"",""time""
""fullscreenenter"",""1"",""4538""
","
",,238.5,run_exp/static/images/task_images/land.jpg,65,,,,,,,71,,,7,,,,,,,,238492,1,0,FALSE,,,
dig,188,636248,0.0-59.0-0.0,"""event"",""trial"",""time""
""fullscreenenter"",""1"",""4538""
","
","
","""event"",""trial"",""time""
""fullscreenenter"",""1"",""4538""
","
",,,,,,,,,,,,"[{""stimulus"":""run_exp/static/images/task_images/dig.jpg"",""time"":0.5},{""stimulus"":""run_exp/static/images/task_images/land.jpg"",""time"":929.5},{""stimulus"":""run_exp/static/images/task_images/dig.jpg"",""time"":1849.3999999999069}]",[],7,,,,,,,,,,,,,,
harvest,189,637256,0.0-59.0-1.0,"""event"",""trial"",""time""
""fullscreenenter"",""1"",""4538""
","
","
","""event"",""trial"",""time""
""fullscreenenter"",""1"",""4538""
","
",,null,run_exp/static/images/task_images/gems/71.jpg,null,,,,,,,59,,,7,,,,,71,0.826859734,0.830985915,,,,,,,
decision,190,637272,0.0-59.0-2.0,"""event"",""trial"",""time""
""fullscreenenter"",""1"",""4538""
","
","
","""event"",""trial"",""time""
""fullscreenenter"",""1"",""4538""
","
",,13.9,run_exp/static/images/task_images/land.jpg,65,,,,,,,59,,,7,,,,,,,,242290,1,1,FALSE,,,
dig,191,640273,0.0-60.0-0.0,"""event"",""trial"",""time""
""fullscreenenter"",""1"",""4538""
","
","
","""event"",""trial"",""time""
""fullscreenenter"",""1"",""4538""
","
",,,,,,,,,,,,"[{""stimulus"":""run_exp/static/images/task_images/dig.jpg"",""time"":0.39999999990686774},{""stimulus"":""run_exp/static/images/task_images/land.jpg"",""time"":1002.1000000000931},{""stimulus"":""run_exp/static/images/task_images/dig.jpg"",""time"":1994.8999999999069}]",[],7,,,,,,,,,,,,,,
harvest,192,641280,0.0-60.0-1.0,"""event"",""trial"",""time""
""fullscreenenter"",""1"",""4538""
","
","
","""event"",""trial"",""time""
""fullscreenenter"",""1"",""4538""
","
",,null,run_exp/static/images/task_images/gems/59.jpg,null,,,,,,,44,,,7,,,,,59,0.741814673,0.745762712,,,,,,,
decision,193,641589,0.0-60.0-2.0,"""event"",""trial"",""time""
""fullscreenenter"",""1"",""4538""
","
","
","""event"",""trial"",""time""
""fullscreenenter"",""1"",""4538""
","
",,306.9,run_exp/static/images/task_images/land.jpg,65,,,,,,,44,,,7,,,,,,,,246607,1,2,FALSE,,,
dig,194,644288,0.0-61.0-0.0,"""event"",""trial"",""time""
""fullscreenenter"",""1"",""4538""
","
","
","""event"",""trial"",""time""
""fullscreenenter"",""1"",""4538""
","
",,,,,,,,,,,,"[{""stimulus"":""run_exp/static/images/task_images/dig.jpg"",""time"":0.3000000002793968},{""stimulus"":""run_exp/static/images/task_images/land.jpg"",""time"":901.8999999999069},{""stimulus"":""run_exp/static/images/task_images/dig.jpg"",""time"":1797.5}]",[],7,,,,,,,,,,,,,,
harvest,195,645296,0.0-61.0-1.0,"""event"",""trial"",""time""
""fullscreenenter"",""1"",""4538""
","
","
","""event"",""trial"",""time""
""fullscreenenter"",""1"",""4538""
","
",,null,run_exp/static/images/task_images/gems/44.jpg,null,,,,,,,38,,,7,,,,,44,0.86826752,0.863636364,,,,,,,
decision,196,645485,0.0-61.0-2.0,"""event"",""trial"",""time""
""fullscreenenter"",""1"",""4538""
","
","
","""event"",""trial"",""time""
""fullscreenenter"",""1"",""4538""
","
",,186.4,run_exp/static/images/task_images/land.jpg,65,,,,,,,38,,,7,,,,,,,,250503,1,3,FALSE,,,
dig,197,648304,0.0-62.0-0.0,"""event"",""trial"",""time""
""fullscreenenter"",""1"",""4538""
","
","
","""event"",""trial"",""time""
""fullscreenenter"",""1"",""4538""
","
",,,,,,,,,,,,"[{""stimulus"":""run_exp/static/images/task_images/dig.jpg"",""time"":0.2999999998137355},{""stimulus"":""run_exp/static/images/task_images/land.jpg"",""time"":942},{""stimulus"":""run_exp/static/images/task_images/dig.jpg"",""time"":1878.3999999999069}]",[],7,,,,,,,,,,,,,,
harvest,198,649312,0.0-62.0-1.0,"""event"",""trial"",""time""
""fullscreenenter"",""1"",""4538""
","
","
","""event"",""trial"",""time""
""fullscreenenter"",""1"",""4538""
","
",,null,run_exp/static/images/task_images/gems/38.jpg,null,,,,,,,33,,,7,,,,,38,0.879912328,0.868421053,,,,,,,
decision,199,650316,0.0-62.0-2.0,"""event"",""trial"",""time""
""fullscreenenter"",""1"",""4538""
","
","
","""event"",""trial"",""time""
""fullscreenenter"",""1"",""4538""
","
",,1001.8,run_exp/static/images/task_images/land.jpg,65,,,,,,,33,,,7,,,,,,,,255334,1,4,FALSE,,,
dig,200,652329,0.0-63.0-0.0,"""event"",""trial"",""time""
""fullscreenenter"",""1"",""4538""
","
","
","""event"",""trial"",""time""
""fullscreenenter"",""1"",""4538""
","
",,,,,,,,,,,,"[{""stimulus"":""run_exp/static/images/task_images/dig.jpg"",""time"":0.39999999990686774},{""stimulus"":""run_exp/static/images/task_images/land.jpg"",""time"":671.5999999996275},{""stimulus"":""run_exp/static/images/task_images/dig.jpg"",""time"":1335.2999999998137}]",[],7,,,,,,,,,,,,,,
harvest,201,653337,0.0-63.0-1.0,"""event"",""trial"",""time""
""fullscreenenter"",""1"",""4538""
","
","
","""event"",""trial"",""time""
""fullscreenenter"",""1"",""4538""
","
",,null,run_exp/static/images/task_images/gems/33.jpg,null,,,,,,,27,,,7,,,,,33,0.813198746,0.818181818,,,,,,,
decision,202,654006,0.0-63.0-2.0,"""event"",""trial"",""time""
""fullscreenenter"",""1"",""4538""
","
","
","""event"",""trial"",""time""
""fullscreenenter"",""1"",""4538""
","
",,667.4,run_exp/static/images/task_images/land.jpg,65,,,,,,,27,,,7,,,,,,,,259024,1,5,FALSE,,,
dig,203,656345,0.0-64.0-0.0,"""event"",""trial"",""time""
""fullscreenenter"",""1"",""4538""
","
","
","""event"",""trial"",""time""
""fullscreenenter"",""1"",""4538""
","
",,,,,,,,,,,,"[{""stimulus"":""run_exp/static/images/task_images/dig.jpg"",""time"":0.39999999990686774},{""stimulus"":""run_exp/static/images/task_images/land.jpg"",""time"":781.5},{""stimulus"":""run_exp/static/images/task_images/dig.jpg"",""time"":1557.6999999997206}]",[],7,,,,,,,,,,,,,,
harvest,204,657352,0.0-64.0-1.0,"""event"",""trial"",""time""
""fullscreenenter"",""1"",""4538""
","
","
","""event"",""trial"",""time""
""fullscreenenter"",""1"",""4538""
","
",,null,run_exp/static/images/task_images/gems/27.jpg,null,,,,,,,18,,,7,,,,,27,0.682520177,0.666666667,,,,,,,
decision,205,657716,0.0-64.0-2.0,"""event"",""trial"",""time""
""fullscreenenter"",""1"",""4538""
","
","
","""event"",""trial"",""time""
""fullscreenenter"",""1"",""4538""
","
",,361.5,run_exp/static/images/task_images/land.jpg,65,,,,,,,18,,,7,,,,,,,,262734,1,6,FALSE,,,
dig,206,660360,0.0-65.0-0.0,"""event"",""trial"",""time""
""fullscreenenter"",""1"",""4538""
","
","
","""event"",""trial"",""time""
""fullscreenenter"",""1"",""4538""
","
",,,,,,,,,,,,"[{""stimulus"":""run_exp/static/images/task_images/dig.jpg"",""time"":0.5},{""stimulus"":""run_exp/static/images/task_images/land.jpg"",""time"":883.5},{""stimulus"":""run_exp/static/images/task_images/dig.jpg"",""time"":1759.8999999999069}]",[],7,,,,,,,,,,,,,,
harvest,207,661368,0.0-65.0-1.0,"""event"",""trial"",""time""
""fullscreenenter"",""1"",""4538""
","
","
","""event"",""trial"",""time""
""fullscreenenter"",""1"",""4538""
","
",,null,run_exp/static/images/task_images/gems/18.jpg,null,,,,,,,13,,,7,,,,,18,0.711517821,0.722222222,,,,,,,
decision,208,661664,0.0-65.0-2.0,"""event"",""trial"",""time""
""fullscreenenter"",""1"",""4538""
","
","
","""event"",""trial"",""time""
""fullscreenenter"",""1"",""4538""
","
",,294.6,run_exp/static/images/task_images/land.jpg,65,,,,,,,13,,,7,,,,,,,,266683,1,7,FALSE,,,
dig,209,664376,0.0-66.0-0.0,"""event"",""trial"",""time""
""fullscreenenter"",""1"",""4538""
","
","
","""event"",""trial"",""time""
""fullscreenenter"",""1"",""4538""
","
",,,,,,,,,,,,"[{""stimulus"":""run_exp/static/images/task_images/dig.jpg"",""time"":0.5},{""stimulus"":""run_exp/static/images/task_images/land.jpg"",""time"":906.8000000002794},{""stimulus"":""run_exp/static/images/task_images/dig.jpg"",""time"":1811.2000000001863}]",[],7,,,,,,,,,,,,,,
harvest,210,665380,0.0-66.0-1.0,"""event"",""trial"",""time""
""fullscreenenter"",""1"",""4538""
","
","
","""event"",""trial"",""time""
""fullscreenenter"",""1"",""4538""
","
",,null,run_exp/static/images/task_images/gems/13.jpg,null,,,,,,,11,,,7,,,,,13,0.862428774,0.846153846,,,,,,,
decision,211,668181,0.0-66.0-2.0,"""event"",""trial"",""time""
""fullscreenenter"",""1"",""4538""
","
","
","""event"",""trial"",""time""
""fullscreenenter"",""1"",""4538""
","
",,2799.3,run_exp/static/images/task_images/land.jpg,65,,,,,,,11,,,7,,,,,,,,273199,1,8,FALSE,,,
dig,212,668393,0.0-67.0-0.0,"""event"",""trial"",""time""
""fullscreenenter"",""1"",""4538""
","
","
","""event"",""trial"",""time""
""fullscreenenter"",""1"",""4538""
","
",,,,,,,,,,,,"[{""stimulus"":""run_exp/static/images/task_images/dig.jpg"",""time"":0.5},{""stimulus"":""run_exp/static/images/task_images/land.jpg"",""time"":69.5},{""stimulus"":""run_exp/static/images/task_images/dig.jpg"",""time"":134.60000000009313}]",[],7,,,,,,,,,,,,,,
harvest,213,669400,0.0-67.0-1.0,"""event"",""trial"",""time""
""fullscreenenter"",""1"",""4538""
","
","
","""event"",""trial"",""time""
""fullscreenenter"",""1"",""4538""
","
",,null,run_exp/static/images/task_images/gems/11.jpg,null,,,,,,,7,,,7,,,,,11,0.670257642,0.636363636,,,,,,,
decision,214,669816,0.0-67.0-2.0,"""event"",""trial"",""time""
""fullscreenenter"",""1"",""4538""
","
","
","""event"",""trial"",""time""
""fullscreenenter"",""1"",""4538""
","
",,414.4,run_exp/static/images/task_images/land.jpg,65,,,,,,,7,,,7,,,,,,,,274835,1,9,FALSE,,,
dig,215,672416,0.0-68.0-0.0,"""event"",""trial"",""time""
""fullscreenenter"",""1"",""4538""
","
","
","""event"",""trial"",""time""
""fullscreenenter"",""1"",""4538""
","
",,,,,,,,,,,,"[{""stimulus"":""run_exp/static/images/task_images/dig.jpg"",""time"":1.3999999999068677},{""stimulus"":""run_exp/static/images/task_images/land.jpg"",""time"":864.1999999997206},{""stimulus"":""run_exp/static/images/task_images/dig.jpg"",""time"":1729.2999999998137}]",[],7,,,,,,,,,,,,,,
harvest,216,673423,0.0-68.0-1.0,"""event"",""trial"",""time""
""fullscreenenter"",""1"",""4538""
","
","
","""event"",""trial"",""time""
""fullscreenenter"",""1"",""4538""
","
",,null,run_exp/static/images/task_images/gems/7.jpg,null,,,,,,,6,,,7,,,,,7,0.805427452,0.857142857,,,,,,,
decision,217,676433,0.0-68.0-2.0,"""event"",""trial"",""time""
""fullscreenenter"",""1"",""4538""
","
","
","""event"",""trial"",""time""
""fullscreenenter"",""1"",""4538""
","
",,null,run_exp/static/images/task_images/land.jpg,null,,,,,,,6,,,7,,,,,,,,281451,1,10,FALSE,,,
time_out,218,678441,0.0-69.0-0.0,"""event"",""trial"",""time""
""fullscreenenter"",""1"",""4538""
","
","
","""event"",""trial"",""time""
""fullscreenenter"",""1"",""4538""
","
",,null,run_exp/static/images/task_images/time_out.jpg,null,,,,,,,6,,,,,,,,,,,,,,,,,
decision,219,679255,0.0-69.0-1.0,"""event"",""trial"",""time""
""fullscreenenter"",""1"",""4538""
","
","
","""event"",""trial"",""time""
""fullscreenenter"",""1"",""4538""
","
",,811.6,run_exp/static/images/task_images/land.jpg,65,,,,,,,6,,,7,,,,,,,,284273,1,10,FALSE,,,
dig,220,681456,0.0-70.0-0.0,"""event"",""trial"",""time""
""fullscreenenter"",""1"",""4538""
","
","
","""event"",""trial"",""time""
""fullscreenenter"",""1"",""4538""
","
",,,,,,,,,,,,"[{""stimulus"":""run_exp/static/images/task_images/dig.jpg"",""time"":0.39999999990686774},{""stimulus"":""run_exp/static/images/task_images/land.jpg"",""time"":731.7999999998137},{""stimulus"":""run_exp/static/images/task_images/dig.jpg"",""time"":1459.8999999999069}]",[],7,,,,,,,,,,,,,,
harvest,221,682465,0.0-70.0-1.0,"""event"",""trial"",""time""
""fullscreenenter"",""1"",""4538""
","
","
","""event"",""trial"",""time""
""fullscreenenter"",""1"",""4538""
","
",,null,run_exp/static/images/task_images/gems/6.jpg,null,,,,,,,5,,,7,,,,,6,0.804062047,0.833333333,,,,,,,
decision,222,684133,0.0-70.0-2.0,"""event"",""trial"",""time""
""fullscreenenter"",""1"",""4538""
","
","
","""event"",""trial"",""time""
""fullscreenenter"",""1"",""4538""
","
",,1666.2,run_exp/static/images/task_images/land.jpg,76,,,,,,,5,,,7,,,,,,,,289151,1,11,TRUE,,,
travel,223,692465,0.0-71.0-0.0,"""event"",""trial"",""time""
""fullscreenenter"",""1"",""4538""
","
","
","""event"",""trial"",""time""
""fullscreenenter"",""1"",""4538""
","
",,,,,,,,,,,,"[{""stimulus"":""run_exp/static/images/task_images/rocket-01.jpg"",""time"":0.2999999998137355},{""stimulus"":""run_exp/static/images/task_images/rocket-02.jpg"",""time"":927.3999999999069},{""stimulus"":""run_exp/static/images/task_images/rocket-03.jpg"",""time"":1855.5},{""stimulus"":""run_exp/static/images/task_images/rocket-04.jpg"",""time"":2783.2000000001863},{""stimulus"":""run_exp/static/images/task_images/rocket-05.jpg"",""time"":3703.399999999907},{""stimulus"":""run_exp/static/images/task_images/rocket-06.jpg"",""time"":4631.399999999907},{""stimulus"":""run_exp/static/images/task_images/rocket-07.jpg"",""time"":5559.100000000093},{""stimulus"":""run_exp/static/images/task_images/rocket-08.jpg"",""time"":6479.600000000093},{""stimulus"":""run_exp/static/images/task_images/rocket-09.jpg"",""time"":7407.200000000186}]",[],7,,,,,,,,,,,,,,
alien_welcome,224,697473,0.0-71.0-1.0,"""event"",""trial"",""time""
""fullscreenenter"",""1"",""4538""
","
","
","""event"",""trial"",""time""
""fullscreenenter"",""1"",""4538""
","
",,null,run_exp/static/images/task_images/aliens/old_aliens/planet/alien_planet-19.jpg,null,,,,,,,,,,,,,19,"78,8,67,32,25,23,14,19,72,80,6,47,44,2,30,27,40,50,79,13,42,24,73,20,56,41,53,22,54,39,49,7",,,,,,,,,,
land,225,697977,0.0-71.0-2.0,"""event"",""trial"",""time""
""fullscreenenter"",""1"",""4538""
","
","
","""event"",""trial"",""time""
""fullscreenenter"",""1"",""4538""
","
",,null,run_exp/static/images/task_images/land.jpg,null,,,,,,,107,,,8,,,,,,,,,,,,,,
dig,226,699985,0.0-71.0-3.0,"""event"",""trial"",""time""
""fullscreenenter"",""1"",""4538""
","
","
","""event"",""trial"",""time""
""fullscreenenter"",""1"",""4538""
","
",,,,,,,,,,,,"[{""stimulus"":""run_exp/static/images/task_images/dig.jpg"",""time"":0.39999999990686774},{""stimulus"":""run_exp/static/images/task_images/land.jpg"",""time"":670.5},{""stimulus"":""run_exp/static/images/task_images/dig.jpg"",""time"":1342.2000000001863}]",[],8,,,,,,,,,,,,,,
harvest,227,700993,0.0-71.0-4.0,"""event"",""trial"",""time""
""fullscreenenter"",""1"",""4538""
","
","
","""event"",""trial"",""time""
""fullscreenenter"",""1"",""4538""
","
",,null,run_exp/static/images/task_images/gems/107.jpg,null,,,,,,,86,,,8,,,,,107,0.807099259,0.803738318,,,,,,,
decision,228,701258,0.0-71.0-5.0,"""event"",""trial"",""time""
""fullscreenenter"",""1"",""4538""
","
","
","""event"",""trial"",""time""
""fullscreenenter"",""1"",""4538""
","
",,262.9,run_exp/static/images/task_images/land.jpg,65,,,,,,,86,,,8,,,,,,,,306276,1,0,TRUE,,,
end_of_block_continue,229,710362,0.0-72.0-0.0,"""event"",""trial"",""time""
""fullscreenenter"",""1"",""4538""
","
","
","""event"",""trial"",""time""
""fullscreenenter"",""1"",""4538""
","
",,null,run_exp/static/audio/clip_32_block_end.m4a,,,,,,,null,,,,,,,,,,,,,,,,,,
alien_welcome,230,715376,0.0-73.0-0.0,"""event"",""trial"",""time""
""fullscreenenter"",""1"",""4538""
","
","
","""event"",""trial"",""time""
""fullscreenenter"",""1"",""4538""
","
",,null,run_exp/static/images/task_images/aliens/old_aliens/planet/alien_planet-72.jpg,null,,,,,,,,,,,,,72,"78,8,67,32,25,23,14,19,72,80,6,47,44,2,30,27,40,50,79,13,42,24,73,20,56,41,53,22,54,39,49,7",,,,,,,,,,
land,231,715881,0.0-73.0-1.0,"""event"",""trial"",""time""
""fullscreenenter"",""1"",""4538""
","
","
","""event"",""trial"",""time""
""fullscreenenter"",""1"",""4538""
","
",,null,run_exp/static/images/task_images/land.jpg,null,,,,,,,101,,,9,,,,,,,,,,,,,,
dig,232,717888,0.0-73.0-2.0,"""event"",""trial"",""time""
""fullscreenenter"",""1"",""4538""
","
","
","""event"",""trial"",""time""
""fullscreenenter"",""1"",""4538""
","
",,,,,,,,,,,,"[{""stimulus"":""run_exp/static/images/task_images/dig.jpg"",""time"":0.39999999990686774},{""stimulus"":""run_exp/static/images/task_images/land.jpg"",""time"":670.1999999997206},{""stimulus"":""run_exp/static/images/task_images/dig.jpg"",""time"":1342}]",[],9,,,,,,,,,,,,,,
harvest,233,718897,0.0-73.0-3.0,"""event"",""trial"",""time""
""fullscreenenter"",""1"",""4538""
","
","
","""event"",""trial"",""time""
""fullscreenenter"",""1"",""4538""
","
",,null,run_exp/static/images/task_images/gems/101.jpg,null,,,,,,,26,,,9,,,,,101,0.253974055,0.257425743,,,,,,,
decision,234,719149,0.0-73.0-4.0,"""event"",""trial"",""time""
""fullscreenenter"",""1"",""4538""
","
","
","""event"",""trial"",""time""
""fullscreenenter"",""1"",""4538""
","
",,250.5,run_exp/static/images/task_images/land.jpg,65,,,,,,,26,,,9,,,,,,,,8780,2,0,FALSE,,,
dig,235,721905,0.0-74.0-0.0,"""event"",""trial"",""time""
""fullscreenenter"",""1"",""4538""
","
","
","""event"",""trial"",""time""
""fullscreenenter"",""1"",""4538""
","
",,,,,,,,,,,,"[{""stimulus"":""run_exp/static/images/task_images/dig.jpg"",""time"":0.19999999972060323},{""stimulus"":""run_exp/static/images/task_images/land.jpg"",""time"":918.5},{""stimulus"":""run_exp/static/images/task_images/dig.jpg"",""time"":1838.6999999997206}]",[],9,,,,,,,,,,,,,,
harvest,236,722913,0.0-74.0-1.0,"""event"",""trial"",""time""
""fullscreenenter"",""1"",""4538""
","
","
","""event"",""trial"",""time""
""fullscreenenter"",""1"",""4538""
","
",,null,run_exp/static/images/task_images/gems/26.jpg,null,,,,,,,7,,,9,,,,,26,0.265608767,0.269230769,,,,,,,
decision,237,724461,0.0-74.0-2.0,"""event"",""trial"",""time""
""fullscreenenter"",""1"",""4538""
","
","
","""event"",""trial"",""time""
""fullscreenenter"",""1"",""4538""
","
",,1546.1,run_exp/static/images/task_images/land.jpg,65,,,,,,,7,,,9,,,,,,,,14092,2,1,FALSE,,,
dig,238,725929,0.0-75.0-0.0,"""event"",""trial"",""time""
""fullscreenenter"",""1"",""4538""
","
","
","""event"",""trial"",""time""
""fullscreenenter"",""1"",""4538""
","
",,,,,,,,,,,,"[{""stimulus"":""run_exp/static/images/task_images/dig.jpg"",""time"":0.2999999998137355},{""stimulus"":""run_exp/static/images/task_images/land.jpg"",""time"":494},{""stimulus"":""run_exp/static/images/task_images/dig.jpg"",""time"":973.7999999998137}]",[],9,,,,,,,,,,,,,,
harvest,239,726936,0.0-75.0-1.0,"""event"",""trial"",""time""
""fullscreenenter"",""1"",""4538""
","
","
","""event"",""trial"",""time""
""fullscreenenter"",""1"",""4538""
","
",,null,run_exp/static/images/task_images/gems/7.jpg,null,,,,,,,1,,,9,,,,,7,0.166855861,0.142857143,,,,,,,
decision,240,727214,0.0-75.0-2.0,"""event"",""trial"",""time""
""fullscreenenter"",""1"",""4538""
","
","
","""event"",""trial"",""time""
""fullscreenenter"",""1"",""4538""
","
",,275.1,run_exp/static/images/task_images/land.jpg,65,,,,,,,1,,,9,,,,,,,,16845,2,2,FALSE,,,
dig,241,729945,0.0-76.0-0.0,"""event"",""trial"",""time""
""fullscreenenter"",""1"",""4538""
","
","
","""event"",""trial"",""time""
""fullscreenenter"",""1"",""4538""
","
",,,,,,,,,,,,"[{""stimulus"":""run_exp/static/images/task_images/dig.jpg"",""time"":0.20000000018626451},{""stimulus"":""run_exp/static/images/task_images/land.jpg"",""time"":909.8000000002794},{""stimulus"":""run_exp/static/images/task_images/dig.jpg"",""time"":1821.8000000002794}]",[],9,,,,,,,,,,,,,,
harvest,242,730961,0.0-76.0-1.0,"""event"",""trial"",""time""
""fullscreenenter"",""1"",""4538""
","
","
","""event"",""trial"",""time""
""fullscreenenter"",""1"",""4538""
","
",,null,run_exp/static/images/task_images/gems/1.jpg,null,,,,,,,0,,,9,,,,,1,0.23087561,0,,,,,,,
decision,243,732078,0.0-76.0-2.0,"""event"",""trial"",""time""
""fullscreenenter"",""1"",""4538""
","
","
","""event"",""trial"",""time""
""fullscreenenter"",""1"",""4538""
","
",,1115.2,run_exp/static/images/task_images/land.jpg,65,,,,,,,0,,,9,,,,,,,,21709,2,3,FALSE,,,
dig,244,733968,0.0-77.0-0.0,"""event"",""trial"",""time""
""fullscreenenter"",""1"",""4538""
","
","
","""event"",""trial"",""time""
""fullscreenenter"",""1"",""4538""
","
",,,,,,,,,,,,"[{""stimulus"":""run_exp/static/images/task_images/dig.jpg"",""time"":0.20000000018626451},{""stimulus"":""run_exp/static/images/task_images/land.jpg"",""time"":629.8000000002794},{""stimulus"":""run_exp/static/images/task_images/dig.jpg"",""time"":1262.2000000001863}]",[],9,,,,,,,,,,,,,,
harvest,245,734976,0.0-77.0-1.0,"""event"",""trial"",""time""
""fullscreenenter"",""1"",""4538""
","
","
","""event"",""trial"",""time""
""fullscreenenter"",""1"",""4538""
","
",,null,run_exp/static/images/task_images/gems/0.jpg,null,,,,,,,0,,,9,,,,,0,0.212211768,NaN,,,,,,,
decision,246,735276,0.0-77.0-2.0,"""event"",""trial"",""time""
""fullscreenenter"",""1"",""4538""
","
","
","""event"",""trial"",""time""
""fullscreenenter"",""1"",""4538""
","
",,297.6,run_exp/static/images/task_images/land.jpg,76,,,,,,,0,,,9,,,,,,,,24907,2,4,TRUE,,,
travel,247,744993,0.0-78.0-0.0,"""event"",""trial"",""time""
""fullscreenenter"",""1"",""4538""
","
","
","""event"",""trial"",""time""
""fullscreenenter"",""1"",""4538""
","
",,,,,,,,,,,,"[{""stimulus"":""run_exp/static/images/task_images/rocket-01.jpg"",""time"":0.2999999998137355},{""stimulus"":""run_exp/static/images/task_images/rocket-02.jpg"",""time"":1086.5},{""stimulus"":""run_exp/static/images/task_images/rocket-03.jpg"",""time"":2158.5},{""stimulus"":""run_exp/static/images/task_images/rocket-04.jpg"",""time"":3238.399999999907},{""stimulus"":""run_exp/static/images/task_images/rocket-05.jpg"",""time"":4318.5},{""stimulus"":""run_exp/static/images/task_images/rocket-06.jpg"",""time"":5398.5999999996275},{""stimulus"":""run_exp/static/images/task_images/rocket-07.jpg"",""time"":6470.899999999907},{""stimulus"":""run_exp/static/images/task_images/rocket-08.jpg"",""time"":7550.899999999907},{""stimulus"":""run_exp/static/images/task_images/rocket-09.jpg"",""time"":8630.5}]",[],9,,,,,,,,,,,,,,
alien_welcome,248,750000,0.0-78.0-1.0,"""event"",""trial"",""time""
""fullscreenenter"",""1"",""4538""
","
","
","""event"",""trial"",""time""
""fullscreenenter"",""1"",""4538""
","
",,null,run_exp/static/images/task_images/aliens/old_aliens/planet/alien_planet-80.jpg,null,,,,,,,,,,,,,80,"78,8,67,32,25,23,14,19,72,80,6,47,44,2,30,27,40,50,79,13,42,24,73,20,56,41,53,22,54,39,49,7",,,,,,,,,,
land,249,750505,0.0-78.0-2.0,"""event"",""trial"",""time""
""fullscreenenter"",""1"",""4538""
","
","
","""event"",""trial"",""time""
""fullscreenenter"",""1"",""4538""
","
",,null,run_exp/static/images/task_images/land.jpg,null,,,,,,,99,,,10,,,,,,,,,,,,,,
dig,250,752512,0.0-78.0-3.0,"""event"",""trial"",""time""
""fullscreenenter"",""1"",""4538""
","
","
","""event"",""trial"",""time""
""fullscreenenter"",""1"",""4538""
","
",,,,,,,,,,,,"[{""stimulus"":""run_exp/static/images/task_images/dig.jpg"",""time"":0.39999999990686774},{""stimulus"":""run_exp/static/images/task_images/land.jpg"",""time"":670.1999999997206},{""stimulus"":""run_exp/static/images/task_images/dig.jpg"",""time"":1342.1000000000931}]",[],10,,,,,,,,,,,,,,
harvest,251,753520,0.0-78.0-4.0,"""event"",""trial"",""time""
""fullscreenenter"",""1"",""4538""
","
","
","""event"",""trial"",""time""
""fullscreenenter"",""1"",""4538""
","
",,null,run_exp/static/images/task_images/gems/99.jpg,null,,,,,,,20,,,10,,,,,99,0.201140252,0.202020202,,,,,,,
decision,252,755032,0.0-78.0-5.0,"""event"",""trial"",""time""
""fullscreenenter"",""1"",""4538""
","
","
","""event"",""trial"",""time""
""fullscreenenter"",""1"",""4538""
","
