trial_type,trial_index,time_elapsed,internal_node_id,interactions,blur_events,focus_events,fullscreenenter_events,fullscreenexit_events,success,rt,stimulus,key_press,prompt,subject_id,participant_id,age,gender,button_pressed,next_reward,animation_sequence,responses,planet,curr_prac_trial,n_prac_rounds,alien,aliens,reward_received,decay_rate_actual,decay_rate_exp,time_in_block,block_num,prt,last_trial_on_planet,button_html,bonus,num_failures
pavlovia,0,3,0.0-0.0,"""event"",""trial"",""time""
""fullscreenenter"",""1"",""4735""
","
","
","""event"",""trial"",""time""
""fullscreenenter"",""1"",""4735""
","
",,,,,,,,,,,,,,,,,,,,,,,,,,,,
fullscreen,1,5711,0.0-1.0,"""event"",""trial"",""time""
""fullscreenenter"",""1"",""4735""
","
","
","""event"",""trial"",""time""
""fullscreenenter"",""1"",""4735""
","
",TRUE,,,,,,,,,,,,,,,,,,,,,,,,,,,
instruc_welcome,2,15539,0.0-2.0,"""event"",""trial"",""time""
""fullscreenenter"",""1"",""4735""
","
","
","""event"",""trial"",""time""
""fullscreenenter"",""1"",""4735""
","
",,null,run_exp/static/audio/clip_1_welcome.m4a,null,"<p>Howdy! In this experiment, you’ll be an explorer traveling through space to collect space treasure.</p><p>Your mission is to collect as much treasure as possible.</p><br><br><p><img src='run_exp/static/images/task_images/opening_img-01.jpg' height='300' width='auto'></p>",12515,5454,16.53,Male,,,,,,,,,,,,,,,,,,,
audio-keyboard-response,3,32139,0.0-3.0,"""event"",""trial"",""time""
""fullscreenenter"",""1"",""4735""
","
","
","""event"",""trial"",""time""
""fullscreenenter"",""1"",""4735""
","
",,null,run_exp/static/audio/clip_2_move.m4a,null,,,,,,,,,,,,,,,,,,,,,,,,
welcome_dec,4,34576,0.0-4.0,"""event"",""trial"",""time""
""fullscreenenter"",""1"",""4735""
","
","
","""event"",""trial"",""time""
""fullscreenenter"",""1"",""4735""
","
",,2429.6,"<p>Howdy! In this experiment, you’ll be an explorer traveling through space to collect space treasure.</p><p>Your mission is to collect as much treasure as possible.</p><br><br><p><img src='run_exp/static/images/task_images/opening_img-01.jpg' height='300' width='auto'></p>",,,,,,,1,,,,,,,,,,,,,,,,,,
html-keyboard-response,5,35293,0.0-5.0,"""event"",""trial"",""time""
""fullscreenenter"",""1"",""4735""
","
","
","""event"",""trial"",""time""
""fullscreenenter"",""1"",""4735""
","
",,712.3,"<p>Howdy! In this experiment, you’ll be an explorer traveling through space to collect space treasure.</p><p>Your mission is to collect as much treasure as possible.</p><br><br><p><img src='run_exp/static/images/task_images/opening_img-01.jpg' height='300' width='auto'></p><button class=""jspsych-html-btn-unchosen""><img src=""run_exp/static/images/task_images/planet-01.jpg"" height=""50""></button><button class=""jspsych-html-btn-chosen""><img src=""run_exp/static/images/task_images/planet-02.jpg"" height=""50""></button><p><b>[press the space bar to lock in your answer]<b><br></p>",32,,,,,,,,,,,,,,,,,,,,,,,,
instruc_goal,6,45363,0.0-6.0-0.0,"""event"",""trial"",""time""
""fullscreenenter"",""1"",""4735""
","
","
","""event"",""trial"",""time""
""fullscreenenter"",""1"",""4735""
","
",,null,run_exp/static/audio/clip_3_goal.m4a,null,"<p> As a space explorer, you’ll visit different planets to dig for space treasure, these pink gems.</p> <p> The more treasure you dig up, the more bonus money you’ll win! </p><br><br><p><img src='run_exp/static/images/task_images/pink_gem.jpg' height='300' width='auto'></p>",,,,,,,,,,,,,,,,,,,,,,,
instruc_goal,7,48293,0.0-6.0-1.0,"""event"",""trial"",""time""
""fullscreenenter"",""1"",""4735""
","
","
","""event"",""trial"",""time""
""fullscreenenter"",""1"",""4735""
","
",,2925,"<p> As a space explorer, you’ll visit different planets to dig for space treasure, these pink gems.</p> <p> The more treasure you dig up, the more bonus money you’ll win! </p><br><br><p><img src='run_exp/static/images/task_images/pink_gem.jpg' height='300' width='auto'></p>",,,,,,,1,,,,,,,,,,,,,,,,,,
html-keyboard-response,8,49343,0.0-6.0-2.0,"""event"",""trial"",""time""
""fullscreenenter"",""1"",""4735""
","
","
","""event"",""trial"",""time""
""fullscreenenter"",""1"",""4735""
","
",,1047.8,"<p> As a space explorer, you’ll visit different planets to dig for space treasure, these pink gems.</p> <p> The more treasure you dig up, the more bonus money you’ll win! </p><br><br><p><img src='run_exp/static/images/task_images/pink_gem.jpg' height='300' width='auto'></p><button class=""jspsych-html-btn-unchosen""><img src=""run_exp/static/images/task_images/planet-01.jpg"" height=""50""></button><button class=""jspsych-html-btn-chosen""><img src=""run_exp/static/images/task_images/planet-02.jpg"" height=""50""></button><p><b>[press the space bar to lock in your answer]<b><br></p>",32,,,,,,,,,,,,,,,,,,,,,,,,
instruc_dig,9,65359,0.0-7.0-0.0,"""event"",""trial"",""time""
""fullscreenenter"",""1"",""4735""
","
","
","""event"",""trial"",""time""
""fullscreenenter"",""1"",""4735""
","
",,null,run_exp/static/audio/clip_4_dig.m4a,null,,,,,,,100,,,,,,,,,,,,,,,,,
instruc_dig_try,10,65762,0.0-7.0-1.0,"""event"",""trial"",""time""
""fullscreenenter"",""1"",""4735""
","
","
","""event"",""trial"",""time""
""fullscreenenter"",""1"",""4735""
","
",,398.4000001,"<p> When you’ve arrived at a new planet, you will dig once. </p> <p>Then, you get to decide if you want to stay on the planet and dig again or travel to a new planet and dig there.</p> <p> To stay and dig, press the letter <strong>‘A’</strong> on your keyboard. Try pressing it now! </p><p><img src='run_exp/static/images/task_images/land.jpg'  height='700' width='auto'></p>",65,"<p> When you’ve arrived at a new planet, you will dig once. </p> <p>Then, you get to decide if you want to stay on the planet and dig again or travel to a new planet and dig there.</p> <p> To stay and dig, press the letter <strong>‘A’</strong> on your keyboard. Try pressing it now! </p><p><img src='run_exp/static/images/task_images/land.jpg'  height='700' width='auto'></p>",,,,,,100,,,,,,,,,,,,,,,,,
dig_prac,11,67775,0.0-7.0-2.0,"""event"",""trial"",""time""
""fullscreenenter"",""1"",""4735""
","
","
","""event"",""trial"",""time""
""fullscreenenter"",""1"",""4735""
","
",,,,,,,,,,,,"[{""stimulus"":""run_exp/static/images/task_images/dig.jpg"",""time"":0.39999985694885254},{""stimulus"":""run_exp/static/images/task_images/land.jpg"",""time"":670.0999999046326},{""stimulus"":""run_exp/static/images/task_images/dig.jpg"",""time"":1341.8999998569489}]",[],,,,,,,,,,,,,,,
instruc_travel,12,104020,0.0-7.0-3.0,"""event"",""trial"",""time""
""fullscreenenter"",""1"",""4735""
","
","
","""event"",""trial"",""time""
""fullscreenenter"",""1"",""4735""
","
",,null,run_exp/static/audio/clip_5_travel.m4a,null,"<p>Every time you dig up gems, there are less gems on the planet, so the more you dig on a planet the fewer gems you’ll get with each dig.</p><p>When gems are running low, you may want to travel to a new planet. </p> <p>  Planets are very far apart in this galaxy, so it will take some time to travel between them. </p> <br><p>There are lots and lots of planets for you to visit, so you won’t be able to return to any planets you’ve seen before. </p><br><p>To leave this planet and travel to a new one, press the letter <strong>‘L’</strong> on your keyboard. Try pressing it now! </p><p><img src='run_exp/static/images/task_images/rocket-01.jpg'  height='600' width='auto'></p>",,,,,,,,,,,,,,,,,,,,,,,
instruc_travel_try,13,104487,0.0-7.0-4.0,"""event"",""trial"",""time""
""fullscreenenter"",""1"",""4735""
","
","
","""event"",""trial"",""time""
""fullscreenenter"",""1"",""4735""
","
",,464.3000002,"<p>Every time you dig up gems, there are less gems on the planet, so the more you dig on a planet the fewer gems you’ll get with each dig.</p><p>When gems are running low, you may want to travel to a new planet. </p> <p>  Planets are very far apart in this galaxy, so it will take some time to travel between them. </p> <br><p>There are lots and lots of planets for you to visit, so you won’t be able to return to any planets you’ve seen before. </p><br><p>To leave this planet and travel to a new one, press the letter <strong>‘L’</strong> on your keyboard. Try pressing it now! </p><p><img src='run_exp/static/images/task_images/rocket-01.jpg'  height='600' width='auto'></p>",76,"<p>Every time you dig up gems, there are less gems on the planet, so the more you dig on a planet the fewer gems you’ll get with each dig.</p><p>When gems are running low, you may want to travel to a new planet. </p> <p>  Planets are very far apart in this galaxy, so it will take some time to travel between them. </p> <br><p>There are lots and lots of planets for you to visit, so you won’t be able to return to any planets you’ve seen before. </p><br><p>To leave this planet and travel to a new one, press the letter <strong>‘L’</strong> on your keyboard. Try pressing it now! </p><p><img src='run_exp/static/images/task_images/rocket-01.jpg'  height='600' width='auto'></p>",,,,,,,,,,,,,,,,,,,,,,,
travel_prac,14,114501,0.0-7.0-5.0,"""event"",""trial"",""time""
""fullscreenenter"",""1"",""4735""
","
","
","""event"",""trial"",""time""
""fullscreenenter"",""1"",""4735""
","
",,,,,,,,,,,,"[{""stimulus"":""run_exp/static/images/task_images/rocket-01.jpg"",""time"":0.20000004768371582},{""stimulus"":""run_exp/static/images/task_images/rocket-02.jpg"",""time"":1124.2999999523163},{""stimulus"":""run_exp/static/images/task_images/rocket-03.jpg"",""time"":2226.2000000476837},{""stimulus"":""run_exp/static/images/task_images/rocket-04.jpg"",""time"":3335.5},{""stimulus"":""run_exp/static/images/task_images/rocket-05.jpg"",""time"":4446.5},{""stimulus"":""run_exp/static/images/task_images/rocket-06.jpg"",""time"":5563.799999952316},{""stimulus"":""run_exp/static/images/task_images/rocket-07.jpg"",""time"":6682.600000143051},{""stimulus"":""run_exp/static/images/task_images/rocket-08.jpg"",""time"":7784.700000047684},{""stimulus"":""run_exp/static/images/task_images/rocket-09.jpg"",""time"":8892.200000047684}]",[],0,,,,,,,,,,,,,,
instruc_alien_greet,15,141679,0.0-7.0-6.0,"""event"",""trial"",""time""
""fullscreenenter"",""1"",""4735""
","
","
","""event"",""trial"",""time""
""fullscreenenter"",""1"",""4735""
","
",,null,run_exp/static/audio/clip_6_alien.m4a,null,"<p>When you arrive at a new planet, the alien who owns the treasure mine on that planet will greet you!</p><p>The better an alien takes care of their mine the easier it is to dig for gems. Some aliens take better care of their mine than others. So, you won’t get exactly the same amount of gems on each planet.</p><p>What the alien looks like does not tell you anything about how many gems there are on the planet.</p><br><p><img src=""run_exp/static/images/task_images/aliens/instructions_aliens/planet/alien_planet-1.jpg""  height=""600"" width=""auto""></p>",,,,,,,,,,,,,,,,,,,,,,,
instruc_alien_greet,16,144922,0.0-7.0-7.0,"""event"",""trial"",""time""
""fullscreenenter"",""1"",""4735""
","
","
","""event"",""trial"",""time""
""fullscreenenter"",""1"",""4735""
","
",,3238.4,"<p>When you arrive at a new planet, the alien who owns the treasure mine on that planet will greet you!</p><p>The better an alien takes care of their mine the easier it is to dig for gems. Some aliens take better care of their mine than others. So, you won’t get exactly the same amount of gems on each planet.</p><p>What the alien looks like does not tell you anything about how many gems there are on the planet.</p><br><p><img src=""run_exp/static/images/task_images/aliens/instructions_aliens/planet/alien_planet-1.jpg""  height=""600"" width=""auto""></p>",,,,,,,1,,,,,,,,,,,,,,,,,,
html-keyboard-response,17,145662,0.0-7.0-8.0,"""event"",""trial"",""time""
""fullscreenenter"",""1"",""4735""
","
","
","""event"",""trial"",""time""
""fullscreenenter"",""1"",""4735""
","
",,737.5999999,"<p>When you arrive at a new planet, the alien who owns the treasure mine on that planet will greet you!</p><p>The better an alien takes care of their mine the easier it is to dig for gems. Some aliens take better care of their mine than others. So, you won’t get exactly the same amount of gems on each planet.</p><p>What the alien looks like does not tell you anything about how many gems there are on the planet.</p><br><p><img src=""run_exp/static/images/task_images/aliens/instructions_aliens/planet/alien_planet-1.jpg""  height=""600"" width=""auto""></p><button class=""jspsych-html-btn-unchosen""><img src=""run_exp/static/images/task_images/planet-01.jpg"" height=""50""></button><button class=""jspsych-html-btn-chosen""><img src=""run_exp/static/images/task_images/planet-02.jpg"" height=""50""></button><p><b>[press the space bar to lock in your answer]<b><br></p>",32,,,,,,,,,,,,,,,,,,,,,,,,
time_out,18,156764,0.0-8.0-0.0,"""event"",""trial"",""time""
""fullscreenenter"",""1"",""4735""
","
","
","""event"",""trial"",""time""
""fullscreenenter"",""1"",""4735""
","
",,null,run_exp/static/audio/clip_7_timeout.m4a,null,"<p>If you don't make your choice fast enough, you’ll have to wait a few seconds before you can make another one.</p><p>You can’t dig for more gems or travel to new planets. You just have to sit and wait.</p><br><p><img src='run_exp/static/images/task_images/time_out.jpg'  height='600' width='auto'></p>",,,,,,,,,,,,,,,,,,,,,,,
time_out,19,158872,0.0-8.0-1.0,"""event"",""trial"",""time""
""fullscreenenter"",""1"",""4735""
","
","
","""event"",""trial"",""time""
""fullscreenenter"",""1"",""4735""
","
",,2103.3,"<p>If you don't make your choice fast enough, you’ll have to wait a few seconds before you can make another one.</p><p>You can’t dig for more gems or travel to new planets. You just have to sit and wait.</p><br><p><img src='run_exp/static/images/task_images/time_out.jpg'  height='600' width='auto'></p>",,,,,,,1,,,,,,,,,,,,,,,,,,
html-keyboard-response,20,160191,0.0-8.0-2.0,"""event"",""trial"",""time""
""fullscreenenter"",""1"",""4735""
","
","
","""event"",""trial"",""time""
""fullscreenenter"",""1"",""4735""
","
",,1316.3,"<p>If you don't make your choice fast enough, you’ll have to wait a few seconds before you can make another one.</p><p>You can’t dig for more gems or travel to new planets. You just have to sit and wait.</p><br><p><img src='run_exp/static/images/task_images/time_out.jpg'  height='600' width='auto'></p><button class=""jspsych-html-btn-unchosen""><img src=""run_exp/static/images/task_images/planet-01.jpg"" height=""50""></button><button class=""jspsych-html-btn-chosen""><img src=""run_exp/static/images/task_images/planet-02.jpg"" height=""50""></button><p><b>[press the space bar to lock in your answer]<b><br></p>",32,,,,,,,,,,,,,,,,,,,,,,,,
instruc_break,21,175878,0.0-9.0-0.0,"""event"",""trial"",""time""
""fullscreenenter"",""1"",""4735""
","
","
","""event"",""trial"",""time""
""fullscreenenter"",""1"",""4735""
","
",,null,run_exp/static/audio/clip_8_break.m4a,null,"<p> After digging and traveling for a while, you’ll be able to take a break at home base. </p><p>The game will last 20 minutes no matter what.</p><p>You will visit home base every 5 minutes, so, you will visit home base three times during the game.</p><br><p><img src='run_exp/static/images/task_images/home_base.jpg' height='600' width='auto'></p>",,,,,,,,,,,,,,,,,,,,,,,
instruc_break,22,179590,0.0-9.0-1.0,"""event"",""trial"",""time""
""fullscreenenter"",""1"",""4735""
","
","
","""event"",""trial"",""time""
""fullscreenenter"",""1"",""4735""
","
",,3705.4,"<p> After digging and traveling for a while, you’ll be able to take a break at home base. </p><p>The game will last 20 minutes no matter what.</p><p>You will visit home base every 5 minutes, so, you will visit home base three times during the game.</p><br><p><img src='run_exp/static/images/task_images/home_base.jpg' height='600' width='auto'></p>",,,,,,,1,,,,,,,,,,,,,,,,,,
html-keyboard-response,23,180160,0.0-9.0-2.0,"""event"",""trial"",""time""
""fullscreenenter"",""1"",""4735""
","
","
","""event"",""trial"",""time""
""fullscreenenter"",""1"",""4735""
","
",,567.9000001,"<p> After digging and traveling for a while, you’ll be able to take a break at home base. </p><p>The game will last 20 minutes no matter what.</p><p>You will visit home base every 5 minutes, so, you will visit home base three times during the game.</p><br><p><img src='run_exp/static/images/task_images/home_base.jpg' height='600' width='auto'></p><button class=""jspsych-html-btn-unchosen""><img src=""run_exp/static/images/task_images/planet-01.jpg"" height=""50""></button><button class=""jspsych-html-btn-chosen""><img src=""run_exp/static/images/task_images/planet-02.jpg"" height=""50""></button><p><b>[press the space bar to lock in your answer]<b><br></p>",32,,,,,,,,,,,,,,,,,,,,,,,,
instruc_prac_game,24,190299,0.0-10.0-0.0,"""event"",""trial"",""time""
""fullscreenenter"",""1"",""4735""
","
","
","""event"",""trial"",""time""
""fullscreenenter"",""1"",""4735""
","
",,null,run_exp/static/audio/clip_9_practice.m4a,null,"<p> Are you ready to play a practice game? </p> <p>In this practice game, you'll be digging up barrels of gems. But, in the real game, you'll be digging up the gems themselves. </p>",,,,,,,,,,,,,,,,,,,,,,,
html-button-response,25,192254,0.0-10.0-1.0,"""event"",""trial"",""time""
""fullscreenenter"",""1"",""4735""
","
","
","""event"",""trial"",""time""
""fullscreenenter"",""1"",""4735""
","
",,1950.8,"<p> Are you ready to play a practice game? </p> <p>In this practice game, you'll be digging up barrels of gems. But, in the real game, you'll be digging up the gems themselves. </p>",,,,,,,0,,,,,,,,,,,,,,,,,,
alien_welcome_prac,26,197270,0.0-11.0-0.0,"""event"",""trial"",""time""
""fullscreenenter"",""1"",""4735""
","
","
","""event"",""trial"",""time""
""fullscreenenter"",""1"",""4735""
","
",,null,run_exp/static/images/task_images/aliens/practice_aliens/planet/alien_planet-5.jpg,null,,,,,,,,,,,,,,,,,,,,,,,,
land_prac,27,197773,0.0-11.0-1.0,"""event"",""trial"",""time""
""fullscreenenter"",""1"",""4735""
","
","
","""event"",""trial"",""time""
""fullscreenenter"",""1"",""4735""
","
",,null,run_exp/static/images/task_images/land.jpg,null,,,,,,,105,,,0,,,,,,,,,,,,,,
dig_prac,28,199786,0.0-11.0-2.0,"""event"",""trial"",""time""
""fullscreenenter"",""1"",""4735""
","
","
","""event"",""trial"",""time""
""fullscreenenter"",""1"",""4735""
","
",,,,,,,,,,,,"[{""stimulus"":""run_exp/static/images/task_images/dig.jpg"",""time"":0.40000009536743164},{""stimulus"":""run_exp/static/images/task_images/land.jpg"",""time"":673.1000001430511},{""stimulus"":""run_exp/static/images/task_images/dig.jpg"",""time"":1346.7999999523163}]",[],,,,,,,,,,,,,,,
harvest_prac,29,200804,0.0-11.0-3.0,"""event"",""trial"",""time""
""fullscreenenter"",""1"",""4735""
","
","
","""event"",""trial"",""time""
""fullscreenenter"",""1"",""4735""
","
",,null,run_exp/static/images/task_images/barrel_text.jpg,null,,,,,,,,,,,,,,,,,,,,,,,,
decision_prac,30,202591,0.0-11.0-4.0,"""event"",""trial"",""time""
""fullscreenenter"",""1"",""4735""
","
","
","""event"",""trial"",""time""
""fullscreenenter"",""1"",""4735""
","
",,1784.9,run_exp/static/images/task_images/land.jpg,65,,,,,,,,,,,1,,,,,,,,,,,,,
dig_prac,31,204599,0.0-12.0-0.0,"""event"",""trial"",""time""
""fullscreenenter"",""1"",""4735""
","
","
","""event"",""trial"",""time""
""fullscreenenter"",""1"",""4735""
","
",,,,,,,,,,,,"[{""stimulus"":""run_exp/static/images/task_images/dig.jpg"",""time"":0.20000004768371582},{""stimulus"":""run_exp/static/images/task_images/land.jpg"",""time"":682.1000001430511},{""stimulus"":""run_exp/static/images/task_images/dig.jpg"",""time"":1347.9000000953674}]",[],,,,,,,,,,,,,,,
harvest_prac,32,205615,0.0-12.0-1.0,"""event"",""trial"",""time""
""fullscreenenter"",""1"",""4735""
","
","
","""event"",""trial"",""time""
""fullscreenenter"",""1"",""4735""
","
",,null,run_exp/static/images/task_images/barrel_text.jpg,null,,,,,,,,,,,,,,,,,,,,,,,,
decision_prac,33,206840,0.0-12.0-2.0,"""event"",""trial"",""time""
""fullscreenenter"",""1"",""4735""
","
","
","""event"",""trial"",""time""
""fullscreenenter"",""1"",""4735""
","
",,1223.2,run_exp/static/images/task_images/land.jpg,65,,,,,,,,,,,2,,,,,,,,,,,,,
dig_prac,34,208854,0.0-13.0-0.0,"""event"",""trial"",""time""
""fullscreenenter"",""1"",""4735""
","
","
","""event"",""trial"",""time""
""fullscreenenter"",""1"",""4735""
","
",,,,,,,,,,,,"[{""stimulus"":""run_exp/static/images/task_images/dig.jpg"",""time"":0.19999980926513672},{""stimulus"":""run_exp/static/images/task_images/land.jpg"",""time"":674.5},{""stimulus"":""run_exp/static/images/task_images/dig.jpg"",""time"":1337.6999998092651}]",[],,,,,,,,,,,,,,,
harvest_prac,35,209863,0.0-13.0-1.0,"""event"",""trial"",""time""
""fullscreenenter"",""1"",""4735""
","
","
","""event"",""trial"",""time""
""fullscreenenter"",""1"",""4735""
","
",,null,run_exp/static/images/task_images/barrel_text.jpg,null,,,,,,,,,,,,,,,,,,,,,,,,
decision_prac,36,209990,0.0-13.0-2.0,"""event"",""trial"",""time""
""fullscreenenter"",""1"",""4735""
","
","
","""event"",""trial"",""time""
""fullscreenenter"",""1"",""4735""
","
",,126.5,run_exp/static/images/task_images/land.jpg,65,,,,,,,,,,,3,,,,,,,,,,,,,
dig_prac,37,212007,0.0-14.0-0.0,"""event"",""trial"",""time""
""fullscreenenter"",""1"",""4735""
","
","
","""event"",""trial"",""time""
""fullscreenenter"",""1"",""4735""
","
",,,,,,,,,,,,"[{""stimulus"":""run_exp/static/images/task_images/dig.jpg"",""time"":0.20000004768371582},{""stimulus"":""run_exp/static/images/task_images/land.jpg"",""time"":683.2999999523163},{""stimulus"":""run_exp/static/images/task_images/dig.jpg"",""time"":1339.0999999046326}]",[],,,,,,,,,,,,,,,
harvest_prac,38,213024,0.0-14.0-1.0,"""event"",""trial"",""time""
""fullscreenenter"",""1"",""4735""
","
","
","""event"",""trial"",""time""
""fullscreenenter"",""1"",""4735""
","
",,null,run_exp/static/images/task_images/barrel_text.jpg,null,,,,,,,,,,,,,,,,,,,,,,,,
decision_prac,39,213310,0.0-14.0-2.0,"""event"",""trial"",""time""
""fullscreenenter"",""1"",""4735""
","
","
","""event"",""trial"",""time""
""fullscreenenter"",""1"",""4735""
","
",,284.8,run_exp/static/images/task_images/land.jpg,65,,,,,,,,,,,4,,,,,,,,,,,,,
dig_prac,40,215329,0.0-15.0-0.0,"""event"",""trial"",""time""
""fullscreenenter"",""1"",""4735""
","
","
","""event"",""trial"",""time""
""fullscreenenter"",""1"",""4735""
","
",,,,,,,,,,,,"[{""stimulus"":""run_exp/static/images/task_images/dig.jpg"",""time"":0.2999999523162842},{""stimulus"":""run_exp/static/images/task_images/land.jpg"",""time"":678.2000000476837},{""stimulus"":""run_exp/static/images/task_images/dig.jpg"",""time"":1338}]",[],,,,,,,,,,,,,,,
harvest_prac,41,216333,0.0-15.0-1.0,"""event"",""trial"",""time""
""fullscreenenter"",""1"",""4735""
","
","
","""event"",""trial"",""time""
""fullscreenenter"",""1"",""4735""
","
",,null,run_exp/static/images/task_images/barrel_text.jpg,null,,,,,,,,,,,,,,,,,,,,,,,,
decision_prac,42,216761,0.0-15.0-2.0,"""event"",""trial"",""time""
""fullscreenenter"",""1"",""4735""
","
","
","""event"",""trial"",""time""
""fullscreenenter"",""1"",""4735""
","
",,426.2,run_exp/static/images/task_images/land.jpg,65,,,,,,,,,,,,1,,,,,,,,,,,,
quiz_instruc,43,221851,0.0-16.0-0.0,"""event"",""trial"",""time""
""fullscreenenter"",""1"",""4735""
","
","
","""event"",""trial"",""time""
""fullscreenenter"",""1"",""4735""
","
",,5085.4,run_exp/static/audio/clip_10_quiz.m4a,,,,,,,0,,,,,,,,,,,,,,,,,,
instruc_repeat,44,264631,0.0-16.0-1.0,"""event"",""trial"",""time""
""fullscreenenter"",""1"",""4735""
","
","
","""event"",""trial"",""time""
""fullscreenenter"",""1"",""4735""
","
",,null,"<p> Are you ready to play a practice game? </p> <p>In this practice game, you'll be digging up barrels of gems. But, in the real game, you'll be digging up the gems themselves. </p>",null,"<p>In this game, your goal is to collect as many gems as you can. That’s how you will win bonus money. </p> <p>The entire game will last 20 minutes no matter how many gems you collect or how many planets you visit. </p><p>To stay on a planet and dig again, press the letter A on your keyboard. To leave for a new planet, press the letter L.</p><p>The more you dig on a planet, the fewer gems you’ll get with each dig which is why you might consider leaving for a new planet. </p><p>When you arrive at a new planet, you’ll be greeted by an alien. What the alien looks like does not tell you anything about how much treasure is on the planet. </p>",,,,,,,,,,,,,,,,,,,,,,,
instruc_repeat_continue,45,266228,0.0-16.0-2.0,"""event"",""trial"",""time""
""fullscreenenter"",""1"",""4735""
","
","
","""event"",""trial"",""time""
""fullscreenenter"",""1"",""4735""
","
",,1594.3,"<p> Are you ready to play a practice game? </p> <p>In this practice game, you'll be digging up barrels of gems. But, in the real game, you'll be digging up the gems themselves. </p>",,,,,,,0,,,,,,,,,,,,,,,,,,
quiz_q_1_ask,46,270877,0.0-16.0-3.0,"""event"",""trial"",""time""
""fullscreenenter"",""1"",""4735""
","
","
","""event"",""trial"",""time""
""fullscreenenter"",""1"",""4735""
","
",,4646.3,run_exp/static/audio/clip_11_q1_ask.m4a,,,,,,,2,,,,,,,,,,,,,,,,,,
quiz_q_1_fb_correct,47,274729,0.0-17.0-0.0,"""event"",""trial"",""time""
""fullscreenenter"",""1"",""4735""
","
","
","""event"",""trial"",""time""
""fullscreenenter"",""1"",""4735""
","
",,null,run_exp/static/audio/clip_12_q1_correct.m4a,null,<p>That’s correct. You win extra money by collecting more gems.</p>,,,,,,,,,,,,,,,,,,,,,,,
quiz_q_2_ask,48,277769,0.0-17.0-1.0,"""event"",""trial"",""time""
""fullscreenenter"",""1"",""4735""
","
","
","""event"",""trial"",""time""
""fullscreenenter"",""1"",""4735""
","
",,3037.5,run_exp/static/audio/clip_14_q2_ask.m4a,,,,,,,1,,,,,,,,,,,,,,,,,,
quiz_q_2_fb_correct,49,281788,0.0-18.0-0.0,"""event"",""trial"",""time""
""fullscreenenter"",""1"",""4735""
","
","
","""event"",""trial"",""time""
""fullscreenenter"",""1"",""4735""
","
",,null,run_exp/static/audio/clip_15_q2_correct.m4a,null,<p>That’s correct. The experiment is 20 minutes no matter what.</p>,,,,,,,,,,,,,,,,,,,,,,,
quiz_q_3_ask,50,285284,0.0-18.0-1.0,"""event"",""trial"",""time""
""fullscreenenter"",""1"",""4735""
","
","
","""event"",""trial"",""time""
""fullscreenenter"",""1"",""4735""
","
",,3492.3,run_exp/static/audio/clip_17_q3_ask.m4a,,,,,,,1,,,,,,,,,,,,,,,,,,
quiz_q_3_fb_correct,51,289291,0.0-19.0-0.0,"""event"",""trial"",""time""
""fullscreenenter"",""1"",""4735""
","
","
","""event"",""trial"",""time""
""fullscreenenter"",""1"",""4735""
","
",,null,run_exp/static/audio/clip_18_q3_correct.m4a,null,<p> That’s correct. You press the letter L to travel to a new planet.</p>,,,,,,,,,,,,,,,,,,,,,,,
quiz_q_4_ask,52,292315,0.0-19.0-1.0,"""event"",""trial"",""time""
""fullscreenenter"",""1"",""4735""
","
","
","""event"",""trial"",""time""
""fullscreenenter"",""1"",""4735""
","
",,3021.9,run_exp/static/audio/clip_20_q4_ask.m4a,,,,,,,0,,,,,,,,,,,,,,,,,,
quiz_q_4_fb_correct,53,297650,0.0-20.0-0.0,"""event"",""trial"",""time""
""fullscreenenter"",""1"",""4735""
","
","
","""event"",""trial"",""time""
""fullscreenenter"",""1"",""4735""
","
",,null,run_exp/static/audio/clip_21_q4_correct.m4a,null,<p> That’s correct. The more you dig on a planet the fewer gems you’ll get with each dig. </p>,,,,,,,,,,,,,,,,,,,,,,,
quiz_q_5_ask,54,301085,0.0-20.0-1.0,"""event"",""trial"",""time""
""fullscreenenter"",""1"",""4735""
","
","
","""event"",""trial"",""time""
""fullscreenenter"",""1"",""4735""
","
",,3427.1,run_exp/static/audio/clip_23_q5_ask.m4a,,,,,,,1,,,,,,,,,,,,,,,,,,
quiz_q_5_fb_correct,55,306110,0.0-21.0-0.0,"""event"",""trial"",""time""
""fullscreenenter"",""1"",""4735""
","
","
","""event"",""trial"",""time""
""fullscreenenter"",""1"",""4735""
","
",,null,run_exp/static/audio/clip_24_q5_correct.m4a,null,<p> That’s correct. The alien tells you nothing about how much treasure is on the planet.</p>,,,,,,,,,,,,,,,,,,,,,,,
quiz_correct,56,309590,0.0-22.0-0.0,"""event"",""trial"",""time""
""fullscreenenter"",""1"",""4735""
","
","
","""event"",""trial"",""time""
""fullscreenenter"",""1"",""4735""
","
",,null,run_exp/static/audio/clip_26_correct_quiz.m4a,null,,,,,,,,,,,,,,,,,,,,,,,,
quiz_correct_continue,57,311198,0.0-22.0-1.0,"""event"",""trial"",""time""
""fullscreenenter"",""1"",""4735""
","
","
","""event"",""trial"",""time""
""fullscreenenter"",""1"",""4735""
","
",,1605.6,<p>Good job! You're now ready to move on to the real game!</p>,,,,,,,0,,,,,,,,,,,,,,,,,,
audio-keyboard-response,58,321330,0.0-22.0-2.0,"""event"",""trial"",""time""
""fullscreenenter"",""1"",""4735""
","
","
","""event"",""trial"",""time""
""fullscreenenter"",""1"",""4735""
","
",,null,run_exp/static/audio/clip_28_real_game.m4a,null,,,,,,,,,,,,,,,,,,,,,,,,
instruc_begin_exp_contine,59,323448,0.0-22.0-3.0,"""event"",""trial"",""time""
""fullscreenenter"",""1"",""4735""
","
","
","""event"",""trial"",""time""
""fullscreenenter"",""1"",""4735""
","
",,2116.5,"<p>Now that you know how  to dig for space treasure and travel to new planets,you can start exploring! </p><p>Do you want to go over the instructions again or get started with the real game?</p>",,,,,,,1,,,,,,1,,,,,,,,,,,,
alien_welcome,60,328462,0.0-23.0-0.0,"""event"",""trial"",""time""
""fullscreenenter"",""1"",""4735""
","
","
","""event"",""trial"",""time""
""fullscreenenter"",""1"",""4735""
","
",,null,run_exp/static/images/task_images/aliens/old_aliens/planet/alien_planet-16.jpg,null,,,,,,,,,,,,,16,"16,20,55,56,34,80,22,54,44,51,23,48,49,7,24,2,1,71,40,41,52,33,60,69,47,14,10,68,29,78,70,77,5",,,,,,,,,,
land,61,328965,0.0-23.0-1.0,"""event"",""trial"",""time""
""fullscreenenter"",""1"",""4735""
","
","
","""event"",""trial"",""time""
""fullscreenenter"",""1"",""4735""
","
",,null,run_exp/static/images/task_images/land.jpg,null,,,,,,,99,,,1,,,,,,,,,,,,,,
dig,62,330973,0.0-23.0-2.0,"""event"",""trial"",""time""
""fullscreenenter"",""1"",""4735""
","
","
","""event"",""trial"",""time""
""fullscreenenter"",""1"",""4735""
","
",,,,,,,,,,,,"[{""stimulus"":""run_exp/static/images/task_images/dig.jpg"",""time"":0.5999999046325684},{""stimulus"":""run_exp/static/images/task_images/land.jpg"",""time"":670.7999999523163},{""stimulus"":""run_exp/static/images/task_images/dig.jpg"",""time"":1336.2000000476837}]",[],1,,,,,,,,,,,,,,
harvest,63,331980,0.0-23.0-3.0,"""event"",""trial"",""time""
""fullscreenenter"",""1"",""4735""
","
","
","""event"",""trial"",""time""
""fullscreenenter"",""1"",""4735""
","
",,null,run_exp/static/images/task_images/gems/99.jpg,null,,,,,,,19,,,1,,,,,99,0.192952645,0.191919192,,,,,,,
decision,64,332806,0.0-23.0-4.0,"""event"",""trial"",""time""
""fullscreenenter"",""1"",""4735""
","
","
","""event"",""trial"",""time""
""fullscreenenter"",""1"",""4735""
","
",,824.5,run_exp/static/images/task_images/land.jpg,65,,,,,,,19,,,1,,,,,,,,9357,1,0,FALSE,,,
dig,65,335000,0.0-24.0-0.0,"""event"",""trial"",""time""
""fullscreenenter"",""1"",""4735""
","
","
","""event"",""trial"",""time""
""fullscreenenter"",""1"",""4735""
","
",,,,,,,,,,,,"[{""stimulus"":""run_exp/static/images/task_images/dig.jpg"",""time"":0.2999999523162842},{""stimulus"":""run_exp/static/images/task_images/land.jpg"",""time"":736.7000000476837},{""stimulus"":""run_exp/static/images/task_images/dig.jpg"",""time"":1457.7999999523163}]",[],1,,,,,,,,,,,,,,
harvest,66,336012,0.0-24.0-1.0,"""event"",""trial"",""time""
""fullscreenenter"",""1"",""4735""
","
","
","""event"",""trial"",""time""
""fullscreenenter"",""1"",""4735""
","
",,null,run_exp/static/images/task_images/gems/19.jpg,null,,,,,,,4,,,1,,,,,19,0.232608481,0.210526316,,,,,,,
decision,67,336537,0.0-24.0-2.0,"""event"",""trial"",""time""
""fullscreenenter"",""1"",""4735""
","
","
","""event"",""trial"",""time""
""fullscreenenter"",""1"",""4735""
","
",,523.3000002,run_exp/static/images/task_images/land.jpg,65,,,,,,,4,,,1,,,,,,,,13087,1,1,FALSE,,,
dig,68,339025,0.0-25.0-0.0,"""event"",""trial"",""time""
""fullscreenenter"",""1"",""4735""
","
","
","""event"",""trial"",""time""
""fullscreenenter"",""1"",""4735""
","
",,,,,,,,,,,,"[{""stimulus"":""run_exp/static/images/task_images/dig.jpg"",""time"":0.2999999523162842},{""stimulus"":""run_exp/static/images/task_images/land.jpg"",""time"":827.3999998569489},{""stimulus"":""run_exp/static/images/task_images/dig.jpg"",""time"":1653.8999998569489}]",[],1,,,,,,,,,,,,,,
harvest,69,340038,0.0-25.0-1.0,"""event"",""trial"",""time""
""fullscreenenter"",""1"",""4735""
","
","
","""event"",""trial"",""time""
""fullscreenenter"",""1"",""4735""
","
",,null,run_exp/static/images/task_images/gems/4.jpg,null,,,,,,,1,,,1,,,,,4,0.349773259,0.25,,,,,,,
decision,70,340286,0.0-25.0-2.0,"""event"",""trial"",""time""
""fullscreenenter"",""1"",""4735""
","
","
","""event"",""trial"",""time""
""fullscreenenter"",""1"",""4735""
","
",,247,run_exp/static/images/task_images/land.jpg,76,,,,,,,1,,,1,,,,,,,,16836,1,2,TRUE,,,
travel,71,350055,0.0-26.0-0.0,"""event"",""trial"",""time""
""fullscreenenter"",""1"",""4735""
","
","
","""event"",""trial"",""time""
""fullscreenenter"",""1"",""4735""
","
",,,,,,,,,,,,"[{""stimulus"":""run_exp/static/images/task_images/rocket-01.jpg"",""time"":0.20000004768371582},{""stimulus"":""run_exp/static/images/task_images/rocket-02.jpg"",""time"":1093.1000001430511},{""stimulus"":""run_exp/static/images/task_images/rocket-03.jpg"",""time"":2182.7999999523163},{""stimulus"":""run_exp/static/images/task_images/rocket-04.jpg"",""time"":3252.9000000953674},{""stimulus"":""run_exp/static/images/task_images/rocket-05.jpg"",""time"":4344.5},{""stimulus"":""run_exp/static/images/task_images/rocket-06.jpg"",""time"":5419.400000095367},{""stimulus"":""run_exp/static/images/task_images/rocket-07.jpg"",""time"":6510.900000095367},{""stimulus"":""run_exp/static/images/task_images/rocket-08.jpg"",""time"":7598.5},{""stimulus"":""run_exp/static/images/task_images/rocket-09.jpg"",""time"":8670.700000047684}]",[],1,,,,,,,,,,,,,,
alien_welcome,72,355065,0.0-26.0-1.0,"""event"",""trial"",""time""
""fullscreenenter"",""1"",""4735""
","
","
","""event"",""trial"",""time""
""fullscreenenter"",""1"",""4735""
","
",,null,run_exp/static/images/task_images/aliens/old_aliens/planet/alien_planet-20.jpg,null,,,,,,,,,,,,,20,"16,20,55,56,34,80,22,54,44,51,23,48,49,7,24,2,1,71,40,41,52,33,60,69,47,14,10,68,29,78,70,77,5",,,,,,,,,,
land,73,355570,0.0-26.0-2.0,"""event"",""trial"",""time""
""fullscreenenter"",""1"",""4735""
","
","
","""event"",""trial"",""time""
""fullscreenenter"",""1"",""4735""
","
",,null,run_exp/static/images/task_images/land.jpg,null,,,,,,,96,,,2,,,,,,,,,,,,,,
dig,74,357583,0.0-26.0-3.0,"""event"",""trial"",""time""
""fullscreenenter"",""1"",""4735""
","
","
","""event"",""trial"",""time""
""fullscreenenter"",""1"",""4735""
","
",,,,,,,,,,,,"[{""stimulus"":""run_exp/static/images/task_images/dig.jpg"",""time"":0.40000009536743164},{""stimulus"":""run_exp/static/images/task_images/land.jpg"",""time"":675.2999999523163},{""stimulus"":""run_exp/static/images/task_images/dig.jpg"",""time"":1341.5}]",[],2,,,,,,,,,,,,,,
harvest,75,358597,0.0-26.0-4.0,"""event"",""trial"",""time""
""fullscreenenter"",""1"",""4735""
","
","
","""event"",""trial"",""time""
""fullscreenenter"",""1"",""4735""
","
",,null,run_exp/static/images/task_images/gems/96.jpg,null,,,,,,,15,,,2,,,,,96,0.156514181,0.15625,,,,,,,
decision,76,358938,0.0-26.0-5.0,"""event"",""trial"",""time""
""fullscreenenter"",""1"",""4735""
","
","
","""event"",""trial"",""time""
""fullscreenenter"",""1"",""4735""
","
",,339.1000001,run_exp/static/images/task_images/land.jpg,65,,,,,,,15,,,2,,,,,,,,35488,1,0,FALSE,,,
dig,77,361604,0.0-27.0-0.0,"""event"",""trial"",""time""
""fullscreenenter"",""1"",""4735""
","
","
","""event"",""trial"",""time""
""fullscreenenter"",""1"",""4735""
","
",,,,,,,,,,,,"[{""stimulus"":""run_exp/static/images/task_images/dig.jpg"",""time"":0.2999999523162842},{""stimulus"":""run_exp/static/images/task_images/land.jpg"",""time"":888.4000000953674},{""stimulus"":""run_exp/static/images/task_images/dig.jpg"",""time"":1785.5}]",[],2,,,,,,,,,,,,,,
harvest,78,362608,0.0-27.0-1.0,"""event"",""trial"",""time""
""fullscreenenter"",""1"",""4735""
","
","
","""event"",""trial"",""time""
""fullscreenenter"",""1"",""4735""
","
",,null,run_exp/static/images/task_images/gems/15.jpg,null,,,,,,,3,,,2,,,,,15,0.203571618,0.2,,,,,,,
decision,79,362847,0.0-27.0-2.0,"""event"",""trial"",""time""
""fullscreenenter"",""1"",""4735""
","
","
","""event"",""trial"",""time""
""fullscreenenter"",""1"",""4735""
","
",,236.5,run_exp/static/images/task_images/land.jpg,65,,,,,,,3,,,2,,,,,,,,39397,1,1,FALSE,,,
dig,80,365620,0.0-28.0-0.0,"""event"",""trial"",""time""
""fullscreenenter"",""1"",""4735""
","
","
","""event"",""trial"",""time""
""fullscreenenter"",""1"",""4735""
","
",,,,,,,,,,,,"[{""stimulus"":""run_exp/static/images/task_images/dig.jpg"",""time"":0.20000004768371582},{""stimulus"":""run_exp/static/images/task_images/land.jpg"",""time"":927.2999999523163},{""stimulus"":""run_exp/static/images/task_images/dig.jpg"",""time"":1847.7999999523163}]",[],2,,,,,,,,,,,,,,
harvest,81,366624,0.0-28.0-1.0,"""event"",""trial"",""time""
""fullscreenenter"",""1"",""4735""
","
","
","""event"",""trial"",""time""
""fullscreenenter"",""1"",""4735""
","
",,null,run_exp/static/images/task_images/gems/3.jpg,null,,,,,,,1,,,2,,,,,3,0.208428994,0.333333333,,,,,,,
decision,82,366927,0.0-28.0-2.0,"""event"",""trial"",""time""
""fullscreenenter"",""1"",""4735""
","
","
","""event"",""trial"",""time""
""fullscreenenter"",""1"",""4735""
","
",,299,run_exp/static/images/task_images/land.jpg,65,,,,,,,1,,,2,,,,,,,,43477,1,2,FALSE,,,
dig,83,369643,0.0-29.0-0.0,"""event"",""trial"",""time""
""fullscreenenter"",""1"",""4735""
","
","
","""event"",""trial"",""time""
""fullscreenenter"",""1"",""4735""
","
",,,,,,,,,,,,"[{""stimulus"":""run_exp/static/images/task_images/dig.jpg"",""time"":0.20000004768371582},{""stimulus"":""run_exp/static/images/task_images/land.jpg"",""time"":911.2000000476837},{""stimulus"":""run_exp/static/images/task_images/dig.jpg"",""time"":1809.5}]",[],2,,,,,,,,,,,,,,
harvest,84,370655,0.0-29.0-1.0,"""event"",""trial"",""time""
""fullscreenenter"",""1"",""4735""
","
","
","""event"",""trial"",""time""
""fullscreenenter"",""1"",""4735""
","
",,null,run_exp/static/images/task_images/gems/1.jpg,null,,,,,,,0,,,2,,,,,1,0.151958426,0,,,,,,,
decision,85,371447,0.0-29.0-2.0,"""event"",""trial"",""time""
""fullscreenenter"",""1"",""4735""
","
","
","""event"",""trial"",""time""
""fullscreenenter"",""1"",""4735""
","
",,790.1000001,run_exp/static/images/task_images/land.jpg,65,,,,,,,0,,,2,,,,,,,,47997,1,3,FALSE,,,
dig,86,373661,0.0-30.0-0.0,"""event"",""trial"",""time""
""fullscreenenter"",""1"",""4735""
","
","
","""event"",""trial"",""time""
""fullscreenenter"",""1"",""4735""
","
",,,,,,,,,,,,"[{""stimulus"":""run_exp/static/images/task_images/dig.jpg"",""time"":0.20000004768371582},{""stimulus"":""run_exp/static/images/task_images/land.jpg"",""time"":740.9000000953674},{""stimulus"":""run_exp/static/images/task_images/dig.jpg"",""time"":1477.7999999523163}]",[],2,,,,,,,,,,,,,,
harvest,87,374671,0.0-30.0-1.0,"""event"",""trial"",""time""
""fullscreenenter"",""1"",""4735""
","
","
","""event"",""trial"",""time""
""fullscreenenter"",""1"",""4735""
","
",,null,run_exp/static/images/task_images/gems/0.jpg,null,,,,,,,0,,,2,,,,,0,0.15301428,NaN,,,,,,,
decision,88,374806,0.0-30.0-2.0,"""event"",""trial"",""time""
""fullscreenenter"",""1"",""4735""
","
","
","""event"",""trial"",""time""
""fullscreenenter"",""1"",""4735""
","
",,133.6999998,run_exp/static/images/task_images/land.jpg,76,,,,,,,0,,,2,,,,,,,,51356,1,4,TRUE,,,
travel,89,384677,0.0-31.0-0.0,"""event"",""trial"",""time""
""fullscreenenter"",""1"",""4735""
","
","
","""event"",""trial"",""time""
""fullscreenenter"",""1"",""4735""
","
",,,,,,,,,,,,"[{""stimulus"":""run_exp/static/images/task_images/rocket-01.jpg"",""time"":0.20000004768371582},{""stimulus"":""run_exp/static/images/task_images/rocket-02.jpg"",""time"":1101.2999999523163},{""stimulus"":""run_exp/static/images/task_images/rocket-03.jpg"",""time"":2202.600000143051},{""stimulus"":""run_exp/static/images/task_images/rocket-04.jpg"",""time"":3301.600000143051},{""stimulus"":""run_exp/static/images/task_images/rocket-05.jpg"",""time"":4398.200000047684},{""stimulus"":""run_exp/static/images/task_images/rocket-06.jpg"",""time"":5489.100000143051},{""stimulus"":""run_exp/static/images/task_images/rocket-07.jpg"",""time"":6582.5},{""stimulus"":""run_exp/static/images/task_images/rocket-08.jpg"",""time"":7683.700000047684},{""stimulus"":""run_exp/static/images/task_images/rocket-09.jpg"",""time"":8781.400000095367}]",[],2,,,,,,,,,,,,,,
alien_welcome,90,389683,0.0-31.0-1.0,"""event"",""trial"",""time""
""fullscreenenter"",""1"",""4735""
","
","
","""event"",""trial"",""time""
""fullscreenenter"",""1"",""4735""
","
",,null,run_exp/static/images/task_images/aliens/old_aliens/planet/alien_planet-55.jpg,null,,,,,,,,,,,,,55,"16,20,55,56,34,80,22,54,44,51,23,48,49,7,24,2,1,71,40,41,52,33,60,69,47,14,10,68,29,78,70,77,5",,,,,,,,,,
land,91,390190,0.0-31.0-2.0,"""event"",""trial"",""time""
""fullscreenenter"",""1"",""4735""
","
","
","""event"",""trial"",""time""
""fullscreenenter"",""1"",""4735""
","
",,null,run_exp/static/images/task_images/land.jpg,null,,,,,,,99,,,3,,,,,,,,,,,,,,
dig,92,392209,0.0-31.0-3.0,"""event"",""trial"",""time""
""fullscreenenter"",""1"",""4735""
","
","
","""event"",""trial"",""time""
""fullscreenenter"",""1"",""4735""
","
",,,,,,,,,,,,"[{""stimulus"":""run_exp/static/images/task_images/dig.jpg"",""time"":0.40000009536743164},{""stimulus"":""run_exp/static/images/task_images/land.jpg"",""time"":679.5},{""stimulus"":""run_exp/static/images/task_images/dig.jpg"",""time"":1342}]",[],3,,,,,,,,,,,,,,
harvest,93,393223,0.0-31.0-4.0,"""event"",""trial"",""time""
""fullscreenenter"",""1"",""4735""
","
","
","""event"",""trial"",""time""
""fullscreenenter"",""1"",""4735""
","
",,null,run_exp/static/images/task_images/gems/99.jpg,null,,,,,,,58,,,3,,,,,99,0.588704624,0.585858586,,,,,,,
decision,94,393778,0.0-31.0-5.0,"""event"",""trial"",""time""
""fullscreenenter"",""1"",""4735""
","
","
","""event"",""trial"",""time""
""fullscreenenter"",""1"",""4735""
","
",,551.8,run_exp/static/images/task_images/land.jpg,65,,,,,,,58,,,3,,,,,,,,70329,1,0,FALSE,,,
dig,95,396240,0.0-32.0-0.0,"""event"",""trial"",""time""
""fullscreenenter"",""1"",""4735""
","
","
","""event"",""trial"",""time""
""fullscreenenter"",""1"",""4735""
","
",,,,,,,,,,,,"[{""stimulus"":""run_exp/static/images/task_images/dig.jpg"",""time"":0.40000009536743164},{""stimulus"":""run_exp/static/images/task_images/land.jpg"",""time"":833.5},{""stimulus"":""run_exp/static/images/task_images/dig.jpg"",""time"":1636.1000001430511}]",[],3,,,,,,,,,,,,,,
harvest,96,397245,0.0-32.0-1.0,"""event"",""trial"",""time""
""fullscreenenter"",""1"",""4735""
","
","
","""event"",""trial"",""time""
""fullscreenenter"",""1"",""4735""
","
",,null,run_exp/static/images/task_images/gems/58.jpg,null,,,,,,,26,,,3,,,,,58,0.450061023,0.448275862,,,,,,,
decision,97,397568,0.0-32.0-2.0,"""event"",""trial"",""time""
""fullscreenenter"",""1"",""4735""
","
","
","""event"",""trial"",""time""
""fullscreenenter"",""1"",""4735""
","
",,321.4000001,run_exp/static/images/task_images/land.jpg,65,,,,,,,26,,,3,,,,,,,,74118,1,1,FALSE,,,
dig,98,400257,0.0-33.0-0.0,"""event"",""trial"",""time""
""fullscreenenter"",""1"",""4735""
","
","
","""event"",""trial"",""time""
""fullscreenenter"",""1"",""4735""
","
",,,,,,,,,,,,"[{""stimulus"":""run_exp/static/images/task_images/dig.jpg"",""time"":0.20000004768371582},{""stimulus"":""run_exp/static/images/task_images/land.jpg"",""time"":898.2000000476837},{""stimulus"":""run_exp/static/images/task_images/dig.jpg"",""time"":1790.1000001430511}]",[],3,,,,,,,,,,,,,,
harvest,99,401259,0.0-33.0-1.0,"""event"",""trial"",""time""
""fullscreenenter"",""1"",""4735""
","
","
","""event"",""trial"",""time""
""fullscreenenter"",""1"",""4735""
","
",,null,run_exp/static/images/task_images/gems/26.jpg,null,,,,,,,13,,,3,,,,,26,0.492543687,0.5,,,,,,,
decision,100,401298,0.0-33.0-2.0,"""event"",""trial"",""time""
""fullscreenenter"",""1"",""4735""
","
","
","""event"",""trial"",""time""
""fullscreenenter"",""1"",""4735""
","
",,37.0999999,run_exp/static/images/task_images/land.jpg,65,,,,,,,13,,,3,,,,,,,,77848,1,2,FALSE,,,
dig,101,404265,0.0-34.0-0.0,"""event"",""trial"",""time""
""fullscreenenter"",""1"",""4735""
","
","
","""event"",""trial"",""time""
""fullscreenenter"",""1"",""4735""
","
",,,,,,,,,,,,"[{""stimulus"":""run_exp/static/images/task_images/dig.jpg"",""time"":0.2999999523162842},{""stimulus"":""run_exp/static/images/task_images/land.jpg"",""time"":988.9000000953674},{""stimulus"":""run_exp/static/images/task_images/dig.jpg"",""time"":1991.2999999523163}]",[],3,,,,,,,,,,,,,,
harvest,102,405283,0.0-34.0-1.0,"""event"",""trial"",""time""
""fullscreenenter"",""1"",""4735""
","
","
","""event"",""trial"",""time""
""fullscreenenter"",""1"",""4735""
","
",,null,run_exp/static/images/task_images/gems/13.jpg,null,,,,,,,8,,,3,,,,,13,0.589513276,0.615384615,,,,,,,
decision,103,405378,0.0-34.0-2.0,"""event"",""trial"",""time""
""fullscreenenter"",""1"",""4735""
","
","
","""event"",""trial"",""time""
""fullscreenenter"",""1"",""4735""
","
",,93.79999995,run_exp/static/images/task_images/land.jpg,76,,,,,,,8,,,3,,,,,,,,81928,1,3,TRUE,,,
travel,104,415287,0.0-35.0-0.0,"""event"",""trial"",""time""
""fullscreenenter"",""1"",""4735""
","
","
","""event"",""trial"",""time""
""fullscreenenter"",""1"",""4735""
","
",,,,,,,,,,,,"[{""stimulus"":""run_exp/static/images/task_images/rocket-01.jpg"",""time"":0.20000004768371582},{""stimulus"":""run_exp/static/images/task_images/rocket-02.jpg"",""time"":1106.3999998569489},{""stimulus"":""run_exp/static/images/task_images/rocket-03.jpg"",""time"":2209.399999856949},{""stimulus"":""run_exp/static/images/task_images/rocket-04.jpg"",""time"":3316.5999999046326},{""stimulus"":""run_exp/static/images/task_images/rocket-05.jpg"",""time"":4403.700000047684},{""stimulus"":""run_exp/static/images/task_images/rocket-06.jpg"",""time"":5509.099999904633},{""stimulus"":""run_exp/static/images/task_images/rocket-07.jpg"",""time"":6610.599999904633},{""stimulus"":""run_exp/static/images/task_images/rocket-08.jpg"",""time"":7714.399999856949},{""stimulus"":""run_exp/static/images/task_images/rocket-09.jpg"",""time"":8816.799999952316}]",[],3,,,,,,,,,,,,,,
alien_welcome,105,420295,0.0-35.0-1.0,"""event"",""trial"",""time""
""fullscreenenter"",""1"",""4735""
","
","
","""event"",""trial"",""time""
""fullscreenenter"",""1"",""4735""
","
",,null,run_exp/static/images/task_images/aliens/old_aliens/planet/alien_planet-56.jpg,null,,,,,,,,,,,,,56,"16,20,55,56,34,80,22,54,44,51,23,48,49,7,24,2,1,71,40,41,52,33,60,69,47,14,10,68,29,78,70,77,5",,,,,,,,,,
land,106,420799,0.0-35.0-2.0,"""event"",""trial"",""time""
""fullscreenenter"",""1"",""4735""
","
","
","""event"",""trial"",""time""
""fullscreenenter"",""1"",""4735""
","
",,null,run_exp/static/images/task_images/land.jpg,null,,,,,,,103,,,4,,,,,,,,,,,,,,
dig,107,422807,0.0-35.0-3.0,"""event"",""trial"",""time""
""fullscreenenter"",""1"",""4735""
","
","
","""event"",""trial"",""time""
""fullscreenenter"",""1"",""4735""
","
",,,,,,,,,,,,"[{""stimulus"":""run_exp/static/images/task_images/dig.jpg"",""time"":0.39999985694885254},{""stimulus"":""run_exp/static/images/task_images/land.jpg"",""time"":669.5},{""stimulus"":""run_exp/static/images/task_images/dig.jpg"",""time"":1338.0999999046326}]",[],4,,,,,,,,,,,,,,
harvest,108,423814,0.0-35.0-4.0,"""event"",""trial"",""time""
""fullscreenenter"",""1"",""4735""
","
","
","""event"",""trial"",""time""
""fullscreenenter"",""1"",""4735""
","
",,null,run_exp/static/images/task_images/gems/103.jpg,null,,,,,,,51,,,4,,,,,103,0.491881359,0.495145631,,,,,,,
decision,109,424108,0.0-35.0-5.0,"""event"",""trial"",""time""
""fullscreenenter"",""1"",""4735""
","
","
","""event"",""trial"",""time""
""fullscreenenter"",""1"",""4735""
","
",,291.5,run_exp/static/images/task_images/land.jpg,65,,,,,,,51,,,4,,,,,,,,100658,1,0,FALSE,,,
dig,110,426827,0.0-36.0-0.0,"""event"",""trial"",""time""
""fullscreenenter"",""1"",""4735""
","
","
","""event"",""trial"",""time""
""fullscreenenter"",""1"",""4735""
","
",,,,,,,,,,,,"[{""stimulus"":""run_exp/static/images/task_images/dig.jpg"",""time"":0.19999980926513672},{""stimulus"":""run_exp/static/images/task_images/land.jpg"",""time"":907},{""stimulus"":""run_exp/static/images/task_images/dig.jpg"",""time"":1814.7999999523163}]",[],4,,,,,,,,,,,,,,
harvest,111,427831,0.0-36.0-1.0,"""event"",""trial"",""time""
""fullscreenenter"",""1"",""4735""
","
","
","""event"",""trial"",""time""
""fullscreenenter"",""1"",""4735""
","
",,null,run_exp/static/images/task_images/gems/51.jpg,null,,,,,,,29,,,4,,,,,51,0.561880076,0.568627451,,,,,,,
decision,112,428338,0.0-36.0-2.0,"""event"",""trial"",""time""
""fullscreenenter"",""1"",""4735""
","
","
","""event"",""trial"",""time""
""fullscreenenter"",""1"",""4735""
","
",,505.4000001,run_exp/static/images/task_images/land.jpg,65,,,,,,,29,,,4,,,,,,,,104888,1,1,FALSE,,,
dig,113,430845,0.0-37.0-0.0,"""event"",""trial"",""time""
""fullscreenenter"",""1"",""4735""
","
","
","""event"",""trial"",""time""
""fullscreenenter"",""1"",""4735""
","
",,,,,,,,,,,,"[{""stimulus"":""run_exp/static/images/task_images/dig.jpg"",""time"":0.2999999523162842},{""stimulus"":""run_exp/static/images/task_images/land.jpg"",""time"":843.4000000953674},{""stimulus"":""run_exp/static/images/task_images/dig.jpg"",""time"":1676}]",[],4,,,,,,,,,,,,,,
harvest,114,431855,0.0-37.0-1.0,"""event"",""trial"",""time""
""fullscreenenter"",""1"",""4735""
","
","
","""event"",""trial"",""time""
""fullscreenenter"",""1"",""4735""
","
",,null,run_exp/static/images/task_images/gems/29.jpg,null,,,,,,,14,,,4,,,,,29,0.479320761,0.482758621,,,,,,,
decision,115,432158,0.0-37.0-2.0,"""event"",""trial"",""time""
""fullscreenenter"",""1"",""4735""
","
","
","""event"",""trial"",""time""
""fullscreenenter"",""1"",""4735""
","
",,301.6000001,run_exp/static/images/task_images/land.jpg,65,,,,,,,14,,,4,,,,,,,,108708,1,2,FALSE,,,
dig,116,434867,0.0-38.0-0.0,"""event"",""trial"",""time""
""fullscreenenter"",""1"",""4735""
","
","
","""event"",""trial"",""time""
""fullscreenenter"",""1"",""4735""
","
",,,,,,,,,,,,"[{""stimulus"":""run_exp/static/images/task_images/dig.jpg"",""time"":0.09999990463256836},{""stimulus"":""run_exp/static/images/task_images/land.jpg"",""time"":916.0999999046326},{""stimulus"":""run_exp/static/images/task_images/dig.jpg"",""time"":1807.2000000476837}]",[],4,,,,,,,,,,,,,,
harvest,117,435871,0.0-38.0-1.0,"""event"",""trial"",""time""
""fullscreenenter"",""1"",""4735""
","
","
","""event"",""trial"",""time""
""fullscreenenter"",""1"",""4735""
","
",,null,run_exp/static/images/task_images/gems/14.jpg,null,,,,,,,7,,,4,,,,,14,0.489716862,0.5,,,,,,,
decision,118,436008,0.0-38.0-2.0,"""event"",""trial"",""time""
""fullscreenenter"",""1"",""4735""
","
","
","""event"",""trial"",""time""
""fullscreenenter"",""1"",""4735""
","
",,135.5999999,run_exp/static/images/task_images/land.jpg,76,,,,,,,7,,,4,,,,,,,,112558,1,3,TRUE,,,
travel,119,445888,0.0-39.0-0.0,"""event"",""trial"",""time""
""fullscreenenter"",""1"",""4735""
","
","
","""event"",""trial"",""time""
""fullscreenenter"",""1"",""4735""
","
",,,,,,,,,,,,"[{""stimulus"":""run_exp/static/images/task_images/rocket-01.jpg"",""time"":0.2999999523162842},{""stimulus"":""run_exp/static/images/task_images/rocket-02.jpg"",""time"":1100.9000000953674},{""stimulus"":""run_exp/static/images/task_images/rocket-03.jpg"",""time"":2197.2000000476837},{""stimulus"":""run_exp/static/images/task_images/rocket-04.jpg"",""time"":3305.4000000953674},{""stimulus"":""run_exp/static/images/task_images/rocket-05.jpg"",""time"":4390.600000143051},{""stimulus"":""run_exp/static/images/task_images/rocket-06.jpg"",""time"":5483.799999952316},{""stimulus"":""run_exp/static/images/task_images/rocket-07.jpg"",""time"":6589.700000047684},{""stimulus"":""run_exp/static/images/task_images/rocket-08.jpg"",""time"":7689.400000095367},{""stimulus"":""run_exp/static/images/task_images/rocket-09.jpg"",""time"":8780.100000143051}]",[],4,,,,,,,,,,,,,,
alien_welcome,120,450893,0.0-39.0-1.0,"""event"",""trial"",""time""
""fullscreenenter"",""1"",""4735""
","
","
","""event"",""trial"",""time""
""fullscreenenter"",""1"",""4735""
","
",,null,run_exp/static/images/task_images/aliens/old_aliens/planet/alien_planet-34.jpg,null,,,,,,,,,,,,,34,"16,20,55,56,34,80,22,54,44,51,23,48,49,7,24,2,1,71,40,41,52,33,60,69,47,14,10,68,29,78,70,77,5",,,,,,,,,,
land,121,451400,0.0-39.0-2.0,"""event"",""trial"",""time""
""fullscreenenter"",""1"",""4735""
","
","
","""event"",""trial"",""time""
""fullscreenenter"",""1"",""4735""
","
",,null,run_exp/static/images/task_images/land.jpg,null,,,,,,,92,,,5,,,,,,,,,,,,,,
dig,122,453405,0.0-39.0-3.0,"""event"",""trial"",""time""
""fullscreenenter"",""1"",""4735""
","
","
","""event"",""trial"",""time""
""fullscreenenter"",""1"",""4735""
","
",,,,,,,,,,,,"[{""stimulus"":""run_exp/static/images/task_images/dig.jpg"",""time"":0.19999980926513672},{""stimulus"":""run_exp/static/images/task_images/land.jpg"",""time"":671.0999999046326},{""stimulus"":""run_exp/static/images/task_images/dig.jpg"",""time"":1343.2999999523163}]",[],5,,,,,,,,,,,,,,
harvest,123,454421,0.0-39.0-4.0,"""event"",""trial"",""time""
""fullscreenenter"",""1"",""4735""
","
","
","""event"",""trial"",""time""
""fullscreenenter"",""1"",""4735""
","
",,null,run_exp/static/images/task_images/gems/92.jpg,null,,,,,,,44,,,5,,,,,92,0.481099666,0.47826087,,,,,,,
decision,124,454918,0.0-39.0-5.0,"""event"",""trial"",""time""
""fullscreenenter"",""1"",""4735""
","
","
","""event"",""trial"",""time""
""fullscreenenter"",""1"",""4735""
","
",,495.5,run_exp/static/images/task_images/land.jpg,65,,,,,,,44,,,5,,,,,,,,131469,1,0,FALSE,,,
dig,125,457431,0.0-40.0-0.0,"""event"",""trial"",""time""
""fullscreenenter"",""1"",""4735""
","
","
","""event"",""trial"",""time""
""fullscreenenter"",""1"",""4735""
","
",,,,,,,,,,,,"[{""stimulus"":""run_exp/static/images/task_images/dig.jpg"",""time"":0.20000004768371582},{""stimulus"":""run_exp/static/images/task_images/land.jpg"",""time"":847.9000000953674},{""stimulus"":""run_exp/static/images/task_images/dig.jpg"",""time"":1670.7999999523163}]",[],5,,,,,,,,,,,,,,
harvest,126,458438,0.0-40.0-1.0,"""event"",""trial"",""time""
""fullscreenenter"",""1"",""4735""
","
","
","""event"",""trial"",""time""
""fullscreenenter"",""1"",""4735""
","
",,null,run_exp/static/images/task_images/gems/44.jpg,null,,,,,,,19,,,5,,,,,44,0.423769234,0.431818182,,,,,,,
decision,127,459398,0.0-40.0-2.0,"""event"",""trial"",""time""
""fullscreenenter"",""1"",""4735""
","
","
","""event"",""trial"",""time""
""fullscreenenter"",""1"",""4735""
","
",,957.3999999,run_exp/static/images/task_images/land.jpg,65,,,,,,,19,,,5,,,,,,,,135948,1,1,FALSE,,,
dig,128,461451,0.0-41.0-0.0,"""event"",""trial"",""time""
""fullscreenenter"",""1"",""4735""
","
","
","""event"",""trial"",""time""
""fullscreenenter"",""1"",""4735""
","
",,,,,,,,,,,,"[{""stimulus"":""run_exp/static/images/task_images/dig.jpg"",""time"":0.20000004768371582},{""stimulus"":""run_exp/static/images/task_images/land.jpg"",""time"":684.2000000476837},{""stimulus"":""run_exp/static/images/task_images/dig.jpg"",""time"":1374}]",[],5,,,,,,,,,,,,,,
harvest,129,462456,0.0-41.0-1.0,"""event"",""trial"",""time""
""fullscreenenter"",""1"",""4735""
","
","
","""event"",""trial"",""time""
""fullscreenenter"",""1"",""4735""
","
",,null,run_exp/static/images/task_images/gems/19.jpg,null,,,,,,,10,,,5,,,,,19,0.511348681,0.526315789,,,,,,,
decision,130,462888,0.0-41.0-2.0,"""event"",""trial"",""time""
""fullscreenenter"",""1"",""4735""
","
","
","""event"",""trial"",""time""
""fullscreenenter"",""1"",""4735""
","
",,431.1000001,run_exp/static/images/task_images/land.jpg,65,,,,,,,10,,,5,,,,,,,,139439,1,2,FALSE,,,
dig,131,465465,0.0-42.0-0.0,"""event"",""trial"",""time""
""fullscreenenter"",""1"",""4735""
","
","
","""event"",""trial"",""time""
""fullscreenenter"",""1"",""4735""
","
",,,,,,,,,,,,"[{""stimulus"":""run_exp/static/images/task_images/dig.jpg"",""time"":0.39999985694885254},{""stimulus"":""run_exp/static/images/task_images/land.jpg"",""time"":862.2000000476837},{""stimulus"":""run_exp/static/images/task_images/dig.jpg"",""time"":1723.7999999523163}]",[],5,,,,,,,,,,,,,,
harvest,132,466471,0.0-42.0-1.0,"""event"",""trial"",""time""
""fullscreenenter"",""1"",""4735""
","
","
","""event"",""trial"",""time""
""fullscreenenter"",""1"",""4735""
","
",,null,run_exp/static/images/task_images/gems/10.jpg,null,,,,,,,5,,,5,,,,,10,0.47585374,0.5,,,,,,,
decision,133,466768,0.0-42.0-2.0,"""event"",""trial"",""time""
""fullscreenenter"",""1"",""4735""
","
","
","""event"",""trial"",""time""
""fullscreenenter"",""1"",""4735""
","
",,295.6000001,run_exp/static/images/task_images/land.jpg,76,,,,,,,5,,,5,,,,,,,,143318,1,3,TRUE,,,
travel,134,476491,0.0-43.0-0.0,"""event"",""trial"",""time""
""fullscreenenter"",""1"",""4735""
","
","
","""event"",""trial"",""time""
""fullscreenenter"",""1"",""4735""
","
",,,,,,,,,,,,"[{""stimulus"":""run_exp/static/images/task_images/rocket-01.jpg"",""time"":0.20000004768371582},{""stimulus"":""run_exp/static/images/task_images/rocket-02.jpg"",""time"":1093},{""stimulus"":""run_exp/static/images/task_images/rocket-03.jpg"",""time"":2170.4000000953674},{""stimulus"":""run_exp/static/images/task_images/rocket-04.jpg"",""time"":3240},{""stimulus"":""run_exp/static/images/task_images/rocket-05.jpg"",""time"":4322.900000095367},{""stimulus"":""run_exp/static/images/task_images/rocket-06.jpg"",""time"":5405.900000095367},{""stimulus"":""run_exp/static/images/task_images/rocket-07.jpg"",""time"":6476.200000047684},{""stimulus"":""run_exp/static/images/task_images/rocket-08.jpg"",""time"":7560.400000095367},{""stimulus"":""run_exp/static/images/task_images/rocket-09.jpg"",""time"":8640.400000095367}]",[],5,,,,,,,,,,,,,,
alien_welcome,135,481502,0.0-43.0-1.0,"""event"",""trial"",""time""
""fullscreenenter"",""1"",""4735""
","
","
","""event"",""trial"",""time""
""fullscreenenter"",""1"",""4735""
","
",,null,run_exp/static/images/task_images/aliens/old_aliens/planet/alien_planet-80.jpg,null,,,,,,,,,,,,,80,"16,20,55,56,34,80,22,54,44,51,23,48,49,7,24,2,1,71,40,41,52,33,60,69,47,14,10,68,29,78,70,77,5",,,,,,,,,,
land,136,482011,0.0-43.0-2.0,"""event"",""trial"",""time""
""fullscreenenter"",""1"",""4735""
","
","
","""event"",""trial"",""time""
""fullscreenenter"",""1"",""4735""
","
",,null,run_exp/static/images/task_images/land.jpg,null,,,,,,,100,,,6,,,,,,,,,,,,,,
dig,137,484025,0.0-43.0-3.0,"""event"",""trial"",""time""
""fullscreenenter"",""1"",""4735""
","
","
","""event"",""trial"",""time""
""fullscreenenter"",""1"",""4735""
","
",,,,,,,,,,,,"[{""stimulus"":""run_exp/static/images/task_images/dig.jpg"",""time"":0.2999999523162842},{""stimulus"":""run_exp/static/images/task_images/land.jpg"",""time"":683.8999998569489},{""stimulus"":""run_exp/static/images/task_images/dig.jpg"",""time"":1338.6999998092651}]",[],6,,,,,,,,,,,,,,
harvest,138,485035,0.0-43.0-4.0,"""event"",""trial"",""time""
""fullscreenenter"",""1"",""4735""
","
","
","""event"",""trial"",""time""
""fullscreenenter"",""1"",""4735""
","
",,null,run_exp/static/images/task_images/gems/100.jpg,null,,,,,,,83,,,6,,,,,100,0.825057397,0.83,,,,,,,
decision,139,485549,0.0-43.0-5.0,"""event"",""trial"",""time""
""fullscreenenter"",""1"",""4735""
","
","
","""event"",""trial"",""time""
""fullscreenenter"",""1"",""4735""
","
",,511.7,run_exp/static/images/task_images/land.jpg,65,,,,,,,83,,,6,,,,,,,,162099,1,0,FALSE,,,
dig,140,488057,0.0-44.0-0.0,"""event"",""trial"",""time""
""fullscreenenter"",""1"",""4735""
","
","
","""event"",""trial"",""time""
""fullscreenenter"",""1"",""4735""
","
",,,,,,,,,,,,"[{""stimulus"":""run_exp/static/images/task_images/dig.jpg"",""time"":0.20000004768371582},{""stimulus"":""run_exp/static/images/task_images/land.jpg"",""time"":831.7999999523163},{""stimulus"":""run_exp/static/images/task_images/dig.jpg"",""time"":1668.7999999523163}]",[],6,,,,,,,,,,,,,,
harvest,141,489073,0.0-44.0-1.0,"""event"",""trial"",""time""
""fullscreenenter"",""1"",""4735""
","
","
","""event"",""trial"",""time""
""fullscreenenter"",""1"",""4735""
","
",,null,run_exp/static/images/task_images/gems/83.jpg,null,,,,,,,64,,,6,,,,,83,0.768921081,0.771084337,,,,,,,
decision,142,489579,0.0-44.0-2.0,"""event"",""trial"",""time""
""fullscreenenter"",""1"",""4735""
","
","
","""event"",""trial"",""time""
""fullscreenenter"",""1"",""4735""
","
",,503.9000001,run_exp/static/images/task_images/land.jpg,65,,,,,,,64,,,6,,,,,,,,166129,1,1,FALSE,,,
dig,143,492095,0.0-45.0-0.0,"""event"",""trial"",""time""
""fullscreenenter"",""1"",""4735""
","
","
","""event"",""trial"",""time""
""fullscreenenter"",""1"",""4735""
","
",,,,,,,,,,,,"[{""stimulus"":""run_exp/static/images/task_images/dig.jpg"",""time"":0.20000004768371582},{""stimulus"":""run_exp/static/images/task_images/land.jpg"",""time"":843.7000000476837},{""stimulus"":""run_exp/static/images/task_images/dig.jpg"",""time"":1669.2999999523163}]",[],6,,,,,,,,,,,,,,
harvest,144,493106,0.0-45.0-1.0,"""event"",""trial"",""time""
""fullscreenenter"",""1"",""4735""
","
","
","""event"",""trial"",""time""
""fullscreenenter"",""1"",""4735""
","
",,null,run_exp/static/images/task_images/gems/64.jpg,null,,,,,,,45,,,6,,,,,64,0.702404295,0.703125,,,,,,,
decision,145,493468,0.0-45.0-2.0,"""event"",""trial"",""time""
""fullscreenenter"",""1"",""4735""
","
","
","""event"",""trial"",""time""
""fullscreenenter"",""1"",""4735""
","
",,361.2,run_exp/static/images/task_images/land.jpg,65,,,,,,,45,,,6,,,,,,,,170018,1,2,FALSE,,,
dig,146,496126,0.0-46.0-0.0,"""event"",""trial"",""time""
""fullscreenenter"",""1"",""4735""
","
","
","""event"",""trial"",""time""
""fullscreenenter"",""1"",""4735""
","
",,,,,,,,,,,,"[{""stimulus"":""run_exp/static/images/task_images/dig.jpg"",""time"":0.19999980926513672},{""stimulus"":""run_exp/static/images/task_images/land.jpg"",""time"":891.3999998569489},{""stimulus"":""run_exp/static/images/task_images/dig.jpg"",""time"":1766.5}]",[],6,,,,,,,,,,,,,,
harvest,147,497141,0.0-46.0-1.0,"""event"",""trial"",""time""
""fullscreenenter"",""1"",""4735""
","
","
","""event"",""trial"",""time""
""fullscreenenter"",""1"",""4735""
","
",,null,run_exp/static/images/task_images/gems/45.jpg,null,,,,,,,40,,,6,,,,,45,0.893605672,0.888888889,,,,,,,
decision,148,497379,0.0-46.0-2.0,"""event"",""trial"",""time""
""fullscreenenter"",""1"",""4735""
","
","
","""event"",""trial"",""time""
""fullscreenenter"",""1"",""4735""
","
",,235.8,run_exp/static/images/task_images/land.jpg,65,,,,,,,40,,,6,,,,,,,,173929,1,3,FALSE,,,
dig,149,500157,0.0-47.0-0.0,"""event"",""trial"",""time""
""fullscreenenter"",""1"",""4735""
","
","
","""event"",""trial"",""time""
""fullscreenenter"",""1"",""4735""
","
",,,,,,,,,,,,"[{""stimulus"":""run_exp/static/images/task_images/dig.jpg"",""time"":0.2999999523162842},{""stimulus"":""run_exp/static/images/task_images/land.jpg"",""time"":927.9000000953674},{""stimulus"":""run_exp/static/images/task_images/dig.jpg"",""time"":1848.5}]",[],6,,,,,,,,,,,,,,
harvest,150,501168,0.0-47.0-1.0,"""event"",""trial"",""time""
""fullscreenenter"",""1"",""4735""
","
","
","""event"",""trial"",""time""
""fullscreenenter"",""1"",""4735""
","
",,null,run_exp/static/images/task_images/gems/40.jpg,null,,,,,,,34,,,6,,,,,40,0.843115409,0.85,,,,,,,
decision,151,501298,0.0-47.0-2.0,"""event"",""trial"",""time""
""fullscreenenter"",""1"",""4735""
","
","
","""event"",""trial"",""time""
""fullscreenenter"",""1"",""4735""
","
",,128.5,run_exp/static/images/task_images/land.jpg,65,,,,,,,34,,,6,,,,,,,,177849,1,4,FALSE,,,
dig,152,504186,0.0-48.0-0.0,"""event"",""trial"",""time""
""fullscreenenter"",""1"",""4735""
","
","
","""event"",""trial"",""time""
""fullscreenenter"",""1"",""4735""
","
",,,,,,,,,,,,"[{""stimulus"":""run_exp/static/images/task_images/dig.jpg"",""time"":0.19999980926513672},{""stimulus"":""run_exp/static/images/task_images/land.jpg"",""time"":964.2999999523163},{""stimulus"":""run_exp/static/images/task_images/dig.jpg"",""time"":1922.8999998569489}]",[],6,,,,,,,,,,,,,,
harvest,153,505189,0.0-48.0-1.0,"""event"",""trial"",""time""
""fullscreenenter"",""1"",""4735""
","
","
","""event"",""trial"",""time""
""fullscreenenter"",""1"",""4735""
","
",,null,run_exp/static/images/task_images/gems/34.jpg,null,,,,,,,27,,,6,,,,,34,0.802385341,0.794117647,,,,,,,
decision,154,505529,0.0-48.0-2.0,"""event"",""trial"",""time""
""fullscreenenter"",""1"",""4735""
","
","
","""event"",""trial"",""time""
""fullscreenenter"",""1"",""4735""
","
",,337.7,run_exp/static/images/task_images/land.jpg,65,,,,,,,27,,,6,,,,,,,,182079,1,5,FALSE,,,
dig,155,508198,0.0-49.0-0.0,"""event"",""trial"",""time""
""fullscreenenter"",""1"",""4735""
","
","
","""event"",""trial"",""time""
""fullscreenenter"",""1"",""4735""
","
",,,,,,,,,,,,"[{""stimulus"":""run_exp/static/images/task_images/dig.jpg"",""time"":0.20000004768371582},{""stimulus"":""run_exp/static/images/task_images/land.jpg"",""time"":901.5999999046326},{""stimulus"":""run_exp/static/images/task_images/dig.jpg"",""time"":1781.2000000476837}]",[],6,,,,,,,,,,,,,,
harvest,156,509202,0.0-49.0-1.0,"""event"",""trial"",""time""
""fullscreenenter"",""1"",""4735""
","
","
","""event"",""trial"",""time""
""fullscreenenter"",""1"",""4735""
","
",,null,run_exp/static/images/task_images/gems/27.jpg,null,,,,,,,22,,,6,,,,,27,0.807405514,0.814814815,,,,,,,
decision,157,509519,0.0-49.0-2.0,"""event"",""trial"",""time""
""fullscreenenter"",""1"",""4735""
","
","
","""event"",""trial"",""time""
""fullscreenenter"",""1"",""4735""
","
",,315.2,run_exp/static/images/task_images/land.jpg,65,,,,,,,22,,,6,,,,,,,,186069,1,6,FALSE,,,
dig,158,512208,0.0-50.0-0.0,"""event"",""trial"",""time""
""fullscreenenter"",""1"",""4735""
","
","
","""event"",""trial"",""time""
""fullscreenenter"",""1"",""4735""
","
",,,,,,,,,,,,"[{""stimulus"":""run_exp/static/images/task_images/dig.jpg"",""time"":0.3000001907348633},{""stimulus"":""run_exp/static/images/task_images/land.jpg"",""time"":902.7000000476837},{""stimulus"":""run_exp/static/images/task_images/dig.jpg"",""time"":1804}]",[],6,,,,,,,,,,,,,,
harvest,159,513225,0.0-50.0-1.0,"""event"",""trial"",""time""
""fullscreenenter"",""1"",""4735""
","
","
","""event"",""trial"",""time""
""fullscreenenter"",""1"",""4735""
","
",,null,run_exp/static/images/task_images/gems/22.jpg,null,,,,,,,18,,,6,,,,,22,0.81775045,0.818181818,,,,,,,
decision,160,513609,0.0-50.0-2.0,"""event"",""trial"",""time""
""fullscreenenter"",""1"",""4735""
","
","
","""event"",""trial"",""time""
""fullscreenenter"",""1"",""4735""
","
",,381.9000001,run_exp/static/images/task_images/land.jpg,65,,,,,,,18,,,6,,,,,,,,190159,1,7,FALSE,,,
dig,161,516231,0.0-51.0-0.0,"""event"",""trial"",""time""
""fullscreenenter"",""1"",""4735""
","
","
","""event"",""trial"",""time""
""fullscreenenter"",""1"",""4735""
","
",,,,,,,,,,,,"[{""stimulus"":""run_exp/static/images/task_images/dig.jpg"",""time"":0.20000004768371582},{""stimulus"":""run_exp/static/images/task_images/land.jpg"",""time"":880.4000000953674},{""stimulus"":""run_exp/static/images/task_images/dig.jpg"",""time"":1761.5}]",[],6,,,,,,,,,,,,,,
harvest,162,517239,0.0-51.0-1.0,"""event"",""trial"",""time""
""fullscreenenter"",""1"",""4735""
","
","
","""event"",""trial"",""time""
""fullscreenenter"",""1"",""4735""
","
",,null,run_exp/static/images/task_images/gems/18.jpg,null,,,,,,,14,,,6,,,,,18,0.77747748,0.777777778,,,,,,,
decision,163,517839,0.0-51.0-2.0,"""event"",""trial"",""time""
""fullscreenenter"",""1"",""4735""
","
","
","""event"",""trial"",""time""
""fullscreenenter"",""1"",""4735""
","
",,597,run_exp/static/images/task_images/land.jpg,65,,,,,,,14,,,6,,,,,,,,194389,1,8,FALSE,,,
dig,164,520261,0.0-52.0-0.0,"""event"",""trial"",""time""
""fullscreenenter"",""1"",""4735""
","
","
","""event"",""trial"",""time""
""fullscreenenter"",""1"",""4735""
","
",,,,,,,,,,,,"[{""stimulus"":""run_exp/static/images/task_images/dig.jpg"",""time"":0.2999999523162842},{""stimulus"":""run_exp/static/images/task_images/land.jpg"",""time"":812.5},{""stimulus"":""run_exp/static/images/task_images/dig.jpg"",""time"":1611.2999999523163}]",[],6,,,,,,,,,,,,,,
harvest,165,521276,0.0-52.0-1.0,"""event"",""trial"",""time""
""fullscreenenter"",""1"",""4735""
","
","
","""event"",""trial"",""time""
""fullscreenenter"",""1"",""4735""
","
",,null,run_exp/static/images/task_images/gems/14.jpg,null,,,,,,,10,,,6,,,,,14,0.720989158,0.714285714,,,,,,,
decision,166,521569,0.0-52.0-2.0,"""event"",""trial"",""time""
""fullscreenenter"",""1"",""4735""
","
","
","""event"",""trial"",""time""
""fullscreenenter"",""1"",""4735""
","
",,291.8,run_exp/static/images/task_images/land.jpg,76,,,,,,,10,,,6,,,,,,,,198119,1,9,TRUE,,,
travel,167,531287,0.0-53.0-0.0,"""event"",""trial"",""time""
""fullscreenenter"",""1"",""4735""
","
","
","""event"",""trial"",""time""
""fullscreenenter"",""1"",""4735""
","
",,,,,,,,,,,,"[{""stimulus"":""run_exp/static/images/task_images/rocket-01.jpg"",""time"":0.20000004768371582},{""stimulus"":""run_exp/static/images/task_images/rocket-02.jpg"",""time"":1090.8000001907349},{""stimulus"":""run_exp/static/images/task_images/rocket-03.jpg"",""time"":2162.7000000476837},{""stimulus"":""run_exp/static/images/task_images/rocket-04.jpg"",""time"":3247},{""stimulus"":""run_exp/static/images/task_images/rocket-05.jpg"",""time"":4317.400000095367},{""stimulus"":""run_exp/static/images/task_images/rocket-06.jpg"",""time"":5407.400000095367},{""stimulus"":""run_exp/static/images/task_images/rocket-07.jpg"",""time"":6479.300000190735},{""stimulus"":""run_exp/static/images/task_images/rocket-08.jpg"",""time"":7552.800000190735},{""stimulus"":""run_exp/static/images/task_images/rocket-09.jpg"",""time"":8638.600000143051}]",[],6,,,,,,,,,,,,,,
alien_welcome,168,536293,0.0-53.0-1.0,"""event"",""trial"",""time""
""fullscreenenter"",""1"",""4735""
","
","
","""event"",""trial"",""time""
""fullscreenenter"",""1"",""4735""
","
",,null,run_exp/static/images/task_images/aliens/old_aliens/planet/alien_planet-22.jpg,null,,,,,,,,,,,,,22,"16,20,55,56,34,80,22,54,44,51,23,48,49,7,24,2,1,71,40,41,52,33,60,69,47,14,10,68,29,78,70,77,5",,,,,,,,,,
land,169,536809,0.0-53.0-2.0,"""event"",""trial"",""time""
""fullscreenenter"",""1"",""4735""
","
","
","""event"",""trial"",""time""
""fullscreenenter"",""1"",""4735""
","
",,null,run_exp/static/images/task_images/land.jpg,null,,,,,,,106,,,7,,,,,,,,,,,,,,
dig,170,538820,0.0-53.0-3.0,"""event"",""trial"",""time""
""fullscreenenter"",""1"",""4735""
","
","
","""event"",""trial"",""time""
""fullscreenenter"",""1"",""4735""
","
",,,,,,,,,,,,"[{""stimulus"":""run_exp/static/images/task_images/dig.jpg"",""time"":0.19999980926513672},{""stimulus"":""run_exp/static/images/task_images/land.jpg"",""time"":679.5},{""stimulus"":""run_exp/static/images/task_images/dig.jpg"",""time"":1344.1999998092651}]",[],7,,,,,,,,,,,,,,
harvest,171,539833,0.0-53.0-4.0,"""event"",""trial"",""time""
""fullscreenenter"",""1"",""4735""
","
","
","""event"",""trial"",""time""
""fullscreenenter"",""1"",""4735""
","
",,null,run_exp/static/images/task_images/gems/106.jpg,null,,,,,,,90,,,7,,,,,106,0.844832753,0.849056604,,,,,,,
decision,172,541288,0.0-53.0-5.0,"""event"",""trial"",""time""
""fullscreenenter"",""1"",""4735""
","
","
","""event"",""trial"",""time""
""fullscreenenter"",""1"",""4735""
","
",,1453.6,run_exp/static/images/task_images/land.jpg,65,,,,,,,90,,,7,,,,,,,,217838,1,0,FALSE,,,
dig,173,542840,0.0-54.0-0.0,"""event"",""trial"",""time""
""fullscreenenter"",""1"",""4735""
","
","
","""event"",""trial"",""time""
""fullscreenenter"",""1"",""4735""
","
",,,,,,,,,,,,"[{""stimulus"":""run_exp/static/images/task_images/dig.jpg"",""time"":0.09999990463256836},{""stimulus"":""run_exp/static/images/task_images/land.jpg"",""time"":527.2000000476837},{""stimulus"":""run_exp/static/images/task_images/dig.jpg"",""time"":1046.0999999046326}]",[],7,,,,,,,,,,,,,,
harvest,174,543852,0.0-54.0-1.0,"""event"",""trial"",""time""
""fullscreenenter"",""1"",""4735""
","
","
","""event"",""trial"",""time""
""fullscreenenter"",""1"",""4735""
","
",,null,run_exp/static/images/task_images/gems/90.jpg,null,,,,,,,78,,,7,,,,,90,0.864253465,0.866666667,,,,,,,
decision,175,546861,0.0-54.0-2.0,"""event"",""trial"",""time""
""fullscreenenter"",""1"",""4735""
","
","
","""event"",""trial"",""time""
""fullscreenenter"",""1"",""4735""
","
",,null,run_exp/static/images/task_images/land.jpg,null,,,,,,,78,,,7,,,,,,,,223411,1,1,FALSE,,,
time_out,176,548877,0.0-55.0-0.0,"""event"",""trial"",""time""
""fullscreenenter"",""1"",""4735""
","
","
","""event"",""trial"",""time""
""fullscreenenter"",""1"",""4735""
","
",,null,run_exp/static/images/task_images/time_out.jpg,null,,,,,,,78,,,,,,,,,,,,,,,,,
decision,177,549418,0.0-55.0-1.0,"""event"",""trial"",""time""
""fullscreenenter"",""1"",""4735""
","
","
","""event"",""trial"",""time""
""fullscreenenter"",""1"",""4735""
","
",,539,run_exp/static/images/task_images/land.jpg,65,,,,,,,78,,,7,,,,,,,,225969,1,1,FALSE,,,
dig,178,551895,0.0-56.0-0.0,"""event"",""trial"",""time""
""fullscreenenter"",""1"",""4735""
","
","
","""event"",""trial"",""time""
""fullscreenenter"",""1"",""4735""
","
",,,,,,,,,,,,"[{""stimulus"":""run_exp/static/images/task_images/dig.jpg"",""time"":0.2999999523162842},{""stimulus"":""run_exp/static/images/task_images/land.jpg"",""time"":833.2000000476837},{""stimulus"":""run_exp/static/images/task_images/dig.jpg"",""time"":1642.7000000476837}]",[],7,,,,,,,,,,,,,,
harvest,179,552911,0.0-56.0-1.0,"""event"",""trial"",""time""
""fullscreenenter"",""1"",""4735""
","
","
","""event"",""trial"",""time""
""fullscreenenter"",""1"",""4735""
","
",,null,run_exp/static/images/task_images/gems/78.jpg,null,,,,,,,63,,,7,,,,,78,0.806123915,0.807692308,,,,,,,
decision,180,553219,0.0-56.0-2.0,"""event"",""trial"",""time""
""fullscreenenter"",""1"",""4735""
","
","
","""event"",""trial"",""time""
""fullscreenenter"",""1"",""4735""
","
",,306.0999999,run_exp/static/images/task_images/land.jpg,65,,,,,,,63,,,7,,,,,,,,229769,1,2,FALSE,,,
dig,181,555918,0.0-57.0-0.0,"""event"",""trial"",""time""
""fullscreenenter"",""1"",""4735""
","
","
","""event"",""trial"",""time""
""fullscreenenter"",""1"",""4735""
","
",,,,,,,,,,,,"[{""stimulus"":""run_exp/static/images/task_images/dig.jpg"",""time"":0.19999980926513672},{""stimulus"":""run_exp/static/images/task_images/land.jpg"",""time"":908.3999998569489},{""stimulus"":""run_exp/static/images/task_images/dig.jpg"",""time"":1808}]",[],7,,,,,,,,,,,,,,
harvest,182,556922,0.0-57.0-1.0,"""event"",""trial"",""time""
""fullscreenenter"",""1"",""4735""
","
","
","""event"",""trial"",""time""
""fullscreenenter"",""1"",""4735""
","
",,null,run_exp/static/images/task_images/gems/63.jpg,null,,,,,,,52,,,7,,,,,63,0.831907319,0.825396825,,,,,,,
decision,183,556931,0.0-57.0-2.0,"""event"",""trial"",""time""
""fullscreenenter"",""1"",""4735""
","
","
","""event"",""trial"",""time""
""fullscreenenter"",""1"",""4735""
","
",,6.700000048,run_exp/static/images/task_images/land.jpg,65,,,,,,,52,,,7,,,,,,,,233481,1,3,FALSE,,,
dig,184,559943,0.0-58.0-0.0,"""event"",""trial"",""time""
""fullscreenenter"",""1"",""4735""
","
","
","""event"",""trial"",""time""
""fullscreenenter"",""1"",""4735""
","
",,,,,,,,,,,,"[{""stimulus"":""run_exp/static/images/task_images/dig.jpg"",""time"":0.2999999523162842},{""stimulus"":""run_exp/static/images/task_images/land.jpg"",""time"":1013.4000000953674},{""stimulus"":""run_exp/static/images/task_images/dig.jpg"",""time"":2004.4000000953674}]",[],7,,,,,,,,,,,,,,
harvest,185,560955,0.0-58.0-1.0,"""event"",""trial"",""time""
""fullscreenenter"",""1"",""4735""
","
","
","""event"",""trial"",""time""
""fullscreenenter"",""1"",""4735""
","
",,null,run_exp/static/images/task_images/gems/52.jpg,null,,,,,,,40,,,7,,,,,52,0.775814922,0.769230769,,,,,,,
decision,186,563482,0.0-58.0-2.0,"""event"",""trial"",""time""
""fullscreenenter"",""1"",""4735""
","
","
","""event"",""trial"",""time""
""fullscreenenter"",""1"",""4735""
","
",,2524.7,run_exp/static/images/task_images/land.jpg,65,,,,,,,40,,,7,,,,,,,,240032,1,4,FALSE,,,
dig,187,563976,0.0-59.0-0.0,"""event"",""trial"",""time""
""fullscreenenter"",""1"",""4735""
","
","
","""event"",""trial"",""time""
""fullscreenenter"",""1"",""4735""
","
",,,,,,,,,,,,"[{""stimulus"":""run_exp/static/images/task_images/dig.jpg"",""time"":0.20000004768371582},{""stimulus"":""run_exp/static/images/task_images/land.jpg"",""time"":159.79999995231628},{""stimulus"":""run_exp/static/images/task_images/dig.jpg"",""time"":321.10000014305115}]",[],7,,,,,,,,,,,,,,
harvest,188,564991,0.0-59.0-1.0,"""event"",""trial"",""time""
""fullscreenenter"",""1"",""4735""
","
","
","""event"",""trial"",""time""
""fullscreenenter"",""1"",""4735""
","
",,null,run_exp/static/images/task_images/gems/40.jpg,null,,,,,,,30,,,7,,,,,40,0.739003832,0.75,,,,,,,
decision,189,568008,0.0-59.0-2.0,"""event"",""trial"",""time""
""fullscreenenter"",""1"",""4735""
","
","
","""event"",""trial"",""time""
""fullscreenenter"",""1"",""4735""
","
",,null,run_exp/static/images/task_images/land.jpg,null,,,,,,,30,,,7,,,,,,,,244559,1,5,FALSE,,,
time_out,190,570021,0.0-60.0-0.0,"""event"",""trial"",""time""
""fullscreenenter"",""1"",""4735""
","
","
","""event"",""trial"",""time""
""fullscreenenter"",""1"",""4735""
","
",,null,run_exp/static/images/task_images/time_out.jpg,null,,,,,,,30,,,,,,,,,,,,,,,,,
decision,191,570178,0.0-60.0-1.0,"""event"",""trial"",""time""
""fullscreenenter"",""1"",""4735""
","
","
","""event"",""trial"",""time""
""fullscreenenter"",""1"",""4735""
","
",,154.8999999,run_exp/static/images/task_images/land.jpg,65,,,,,,,30,,,7,,,,,,,,246729,1,5,FALSE,,,
dig,192,573048,0.0-61.0-0.0,"""event"",""trial"",""time""
""fullscreenenter"",""1"",""4735""
","
","
","""event"",""trial"",""time""
""fullscreenenter"",""1"",""4735""
","
",,,,,,,,,,,,"[{""stimulus"":""run_exp/static/images/task_images/dig.jpg"",""time"":0.20000004768371582},{""stimulus"":""run_exp/static/images/task_images/land.jpg"",""time"":951.8000001907349},{""stimulus"":""run_exp/static/images/task_images/dig.jpg"",""time"":1910.5}]",[],7,,,,,,,,,,,,,,
harvest,193,574064,0.0-61.0-1.0,"""event"",""trial"",""time""
""fullscreenenter"",""1"",""4735""
","
","
","""event"",""trial"",""time""
""fullscreenenter"",""1"",""4735""
","
",,null,run_exp/static/images/task_images/gems/30.jpg,null,,,,,,,25,,,7,,,,,30,0.823144535,0.833333333,,,,,,,
decision,194,574549,0.0-61.0-2.0,"""event"",""trial"",""time""
""fullscreenenter"",""1"",""4735""
","
","
","""event"",""trial"",""time""
""fullscreenenter"",""1"",""4735""
","
",,483,run_exp/static/images/task_images/land.jpg,65,,,,,,,25,,,7,,,,,,,,251099,1,6,FALSE,,,
dig,195,577082,0.0-62.0-0.0,"""event"",""trial"",""time""
""fullscreenenter"",""1"",""4735""
","
","
","""event"",""trial"",""time""
""fullscreenenter"",""1"",""4735""
","
",,,,,,,,,,,,"[{""stimulus"":""run_exp/static/images/task_images/dig.jpg"",""time"":0.20000004768371582},{""stimulus"":""run_exp/static/images/task_images/land.jpg"",""time"":843.3000001907349},{""stimulus"":""run_exp/static/images/task_images/dig.jpg"",""time"":1687}]",[],7,,,,,,,,,,,,,,
harvest,196,578086,0.0-62.0-1.0,"""event"",""trial"",""time""
""fullscreenenter"",""1"",""4735""
","
","
","""event"",""trial"",""time""
""fullscreenenter"",""1"",""4735""
","
",,null,run_exp/static/images/task_images/gems/25.jpg,null,,,,,,,19,,,7,,,,,25,0.766889459,0.76,,,,,,,
decision,197,578599,0.0-62.0-2.0,"""event"",""trial"",""time""
""fullscreenenter"",""1"",""4735""
","
","
","""event"",""trial"",""time""
""fullscreenenter"",""1"",""4735""
","
",,511.2,run_exp/static/images/task_images/land.jpg,65,,,,,,,19,,,7,,,,,,,,255149,1,7,FALSE,,,
dig,198,581097,0.0-63.0-0.0,"""event"",""trial"",""time""
""fullscreenenter"",""1"",""4735""
","
","
","""event"",""trial"",""time""
""fullscreenenter"",""1"",""4735""
","
",,,,,,,,,,,,"[{""stimulus"":""run_exp/static/images/task_images/dig.jpg"",""time"":0.19999980926513672},{""stimulus"":""run_exp/static/images/task_images/land.jpg"",""time"":836.5},{""stimulus"":""run_exp/static/images/task_images/dig.jpg"",""time"":1660.1999998092651}]",[],7,,,,,,,,,,,,,,
harvest,199,582106,0.0-63.0-1.0,"""event"",""trial"",""time""
""fullscreenenter"",""1"",""4735""
","
","
","""event"",""trial"",""time""
""fullscreenenter"",""1"",""4735""
","
",,null,run_exp/static/images/task_images/gems/19.jpg,null,,,,,,,14,,,7,,,,,19,0.739740995,0.736842105,,,,,,,
decision,200,582639,0.0-63.0-2.0,"""event"",""trial"",""time""
""fullscreenenter"",""1"",""4735""
","
","
","""event"",""trial"",""time""
""fullscreenenter"",""1"",""4735""
","
",,530.9000001,run_exp/static/images/task_images/land.jpg,65,,,,,,,14,,,7,,,,,,,,259189,1,8,FALSE,,,
dig,201,585125,0.0-64.0-0.0,"""event"",""trial"",""time""
""fullscreenenter"",""1"",""4735""
","
","
","""event"",""trial"",""time""
""fullscreenenter"",""1"",""4735""
","
",,,,,,,,,,,,"[{""stimulus"":""run_exp/static/images/task_images/dig.jpg"",""time"":0.19999980926513672},{""stimulus"":""run_exp/static/images/task_images/land.jpg"",""time"":824.7999999523163},{""stimulus"":""run_exp/static/images/task_images/dig.jpg"",""time"":1660.5}]",[],7,,,,,,,,,,,,,,
harvest,202,586143,0.0-64.0-1.0,"""event"",""trial"",""time""
""fullscreenenter"",""1"",""4735""
","
","
","""event"",""trial"",""time""
""fullscreenenter"",""1"",""4735""
","
",,null,run_exp/static/images/task_images/gems/14.jpg,null,,,,,,,11,,,7,,,,,14,0.786273737,0.785714286,,,,,,,
decision,203,586749,0.0-64.0-2.0,"""event"",""trial"",""time""
""fullscreenenter"",""1"",""4735""
","
","
","""event"",""trial"",""time""
""fullscreenenter"",""1"",""4735""
","
",,603.5,run_exp/static/images/task_images/land.jpg,76,,,,,,,11,,,7,,,,,,,,263299,1,9,TRUE,,,
travel,204,596161,0.0-65.0-0.0,"""event"",""trial"",""time""
""fullscreenenter"",""1"",""4735""
","
","
","""event"",""trial"",""time""
""fullscreenenter"",""1"",""4735""
","
",,,,,,,,,,,,"[{""stimulus"":""run_exp/static/images/task_images/rocket-01.jpg"",""time"":0.20000004768371582},{""stimulus"":""run_exp/static/images/task_images/rocket-02.jpg"",""time"":1048.5999999046326},{""stimulus"":""run_exp/static/images/task_images/rocket-03.jpg"",""time"":2098.5999999046326},{""stimulus"":""run_exp/static/images/task_images/rocket-04.jpg"",""time"":3138.5999999046326},{""stimulus"":""run_exp/static/images/task_images/rocket-05.jpg"",""time"":4193},{""stimulus"":""run_exp/static/images/task_images/rocket-06.jpg"",""time"":5227.200000047684},{""stimulus"":""run_exp/static/images/task_images/rocket-07.jpg"",""time"":6268.099999904633},{""stimulus"":""run_exp/static/images/task_images/rocket-08.jpg"",""time"":7309.799999952316},{""stimulus"":""run_exp/static/images/task_images/rocket-09.jpg"",""time"":8357.799999952316}]",[],7,,,,,,,,,,,,,,
alien_welcome,205,601172,0.0-65.0-1.0,"""event"",""trial"",""time""
""fullscreenenter"",""1"",""4735""
","
","
","""event"",""trial"",""time""
""fullscreenenter"",""1"",""4735""
","
",,null,run_exp/static/images/task_images/aliens/old_aliens/planet/alien_planet-54.jpg,null,,,,,,,,,,,,,54,"16,20,55,56,34,80,22,54,44,51,23,48,49,7,24,2,1,71,40,41,52,33,60,69,47,14,10,68,29,78,70,77,5",,,,,,,,,,
land,206,601686,0.0-65.0-2.0,"""event"",""trial"",""time""
""fullscreenenter"",""1"",""4735""
","
","
","""event"",""trial"",""time""
""fullscreenenter"",""1"",""4735""
","
",,null,run_exp/static/images/task_images/land.jpg,null,,,,,,,98,,,8,,,,,,,,,,,,,,
dig,207,603708,0.0-65.0-3.0,"""event"",""trial"",""time""
""fullscreenenter"",""1"",""4735""
","
","
","""event"",""trial"",""time""
""fullscreenenter"",""1"",""4735""
","
",,,,,,,,,,,,"[{""stimulus"":""run_exp/static/images/task_images/dig.jpg"",""time"":1.0999999046325684},{""stimulus"":""run_exp/static/images/task_images/land.jpg"",""time"":670.9000000953674},{""stimulus"":""run_exp/static/images/task_images/dig.jpg"",""time"":1345.2000000476837}]",[],8,,,,,,,,,,,,,,
harvest,208,604722,0.0-65.0-4.0,"""event"",""trial"",""time""
""fullscreenenter"",""1"",""4735""
","
","
","""event"",""trial"",""time""
""fullscreenenter"",""1"",""4735""
","
",,null,run_exp/static/images/task_images/gems/98.jpg,null,,,,,,,73,,,8,,,,,98,0.747382751,0.744897959,,,,,,,
decision,209,605069,0.0-65.0-5.0,"""event"",""trial"",""time""
""fullscreenenter"",""1"",""4735""
","
","
","""event"",""trial"",""time""
""fullscreenenter"",""1"",""4735""
","
",,344.2,run_exp/static/images/task_images/land.jpg,65,,,,,,,73,,,8,,,,,,,,281619,1,0,FALSE,,,
dig,210,607741,0.0-66.0-0.0,"""event"",""trial"",""time""
""fullscreenenter"",""1"",""4735""
","
","
","""event"",""trial"",""time""
""fullscreenenter"",""1"",""4735""
","
",,,,,,,,,,,,"[{""stimulus"":""run_exp/static/images/task_images/dig.jpg"",""time"":0.39999985694885254},{""stimulus"":""run_exp/static/images/task_images/land.jpg"",""time"":899.7999999523163},{""stimulus"":""run_exp/static/images/task_images/dig.jpg"",""time"":1779.2999999523163}]",[],8,,,,,,,,,,,,,,
harvest,211,608744,0.0-66.0-1.0,"""event"",""trial"",""time""
""fullscreenenter"",""1"",""4735""
","
","
","""event"",""trial"",""time""
""fullscreenenter"",""1"",""4735""
","
",,null,run_exp/static/images/task_images/gems/73.jpg,null,,,,,,,68,,,8,,,,,73,0.925562095,0.931506849,,,,,,,
decision,212,609979,0.0-66.0-2.0,"""event"",""trial"",""time""
""fullscreenenter"",""1"",""4735""
","
","
","""event"",""trial"",""time""
""fullscreenenter"",""1"",""4735""
","
",,1232.6,run_exp/static/images/task_images/land.jpg,65,,,,,,,68,,,8,,,,,,,,286529,1,1,FALSE,,,
dig,213,611763,0.0-67.0-0.0,"""event"",""trial"",""time""
""fullscreenenter"",""1"",""4735""
","
","
","""event"",""trial"",""time""
""fullscreenenter"",""1"",""4735""
","
",,,,,,,,,,,,"[{""stimulus"":""run_exp/static/images/task_images/dig.jpg"",""time"":0.20000004768371582},{""stimulus"":""run_exp/static/images/task_images/land.jpg"",""time"":604},{""stimulus"":""run_exp/static/images/task_images/dig.jpg"",""time"":1188.8000001907349}]",[],8,,,,,,,,,,,,,,
harvest,214,612781,0.0-67.0-1.0,"""event"",""trial"",""time""
""fullscreenenter"",""1"",""4735""
","
","
","""event"",""trial"",""time""
""fullscreenenter"",""1"",""4735""
","
",,null,run_exp/static/images/task_images/gems/68.jpg,null,,,,,,,54,,,8,,,,,68,0.797840245,0.794117647,,,,,,,
decision,215,613498,0.0-67.0-2.0,"""event"",""trial"",""time""
""fullscreenenter"",""1"",""4735""
","
","
","""event"",""trial"",""time""
""fullscreenenter"",""1"",""4735""
","
",,715.3000002,run_exp/static/images/task_images/land.jpg,65,,,,,,,54,,,8,,,,,,,,290048,1,2,FALSE,,,
dig,216,615794,0.0-68.0-0.0,"""event"",""trial"",""time""
""fullscreenenter"",""1"",""4735""
","
","
","""event"",""trial"",""time""
""fullscreenenter"",""1"",""4735""
","
",,,,,,,,,,,,"[{""stimulus"":""run_exp/static/images/task_images/dig.jpg"",""time"":0.10000014305114746},{""stimulus"":""run_exp/static/images/task_images/land.jpg"",""time"":770.3000001907349},{""stimulus"":""run_exp/static/images/task_images/dig.jpg"",""time"":1529.6000001430511}]",[],8,,,,,,,,,,,,,,
harvest,217,616800,0.0-68.0-1.0,"""event"",""trial"",""time""
""fullscreenenter"",""1"",""4735""
","
","
","""event"",""trial"",""time""
""fullscreenenter"",""1"",""4735""
","
",,null,run_exp/static/images/task_images/gems/54.jpg,null,,,,,,,43,,,8,,,,,54,0.796702829,0.796296296,,,,,,,
decision,218,619179,0.0-68.0-2.0,"""event"",""trial"",""time""
""fullscreenenter"",""1"",""4735""
","
","
","""event"",""trial"",""time""
""fullscreenenter"",""1"",""4735""
","
",,2377.1,run_exp/static/images/task_images/land.jpg,65,,,,,,,43,,,8,,,,,,,,295730,1,3,FALSE,,,
dig,219,619816,0.0-69.0-0.0,"""event"",""trial"",""time""
""fullscreenenter"",""1"",""4735""
","
","
","""event"",""trial"",""time""
""fullscreenenter"",""1"",""4735""
","
",,,,,,,,,,,,"[{""stimulus"":""run_exp/static/images/task_images/dig.jpg"",""time"":0.19999980926513672},{""stimulus"":""run_exp/static/images/task_images/land.jpg"",""time"":209.39999985694885},{""stimulus"":""run_exp/static/images/task_images/dig.jpg"",""time"":428.5}]",[],8,,,,,,,,,,,,,,
harvest,220,620831,0.0-69.0-1.0,"""event"",""trial"",""time""
""fullscreenenter"",""1"",""4735""
","
","
","""event"",""trial"",""time""
""fullscreenenter"",""1"",""4735""
","
",,null,run_exp/static/images/task_images/gems/43.jpg,null,,,,,,,33,,,8,,,,,43,0.767567869,0.76744186,,,,,,,
decision,221,621389,0.0-69.0-2.0,"""event"",""trial"",""time""
""fullscreenenter"",""1"",""4735""
","
","
","""event"",""trial"",""time""
""fullscreenenter"",""1"",""4735""
","
",,555.3,run_exp/static/images/task_images/land.jpg,65,,,,,,,33,,,8,,,,,,,,297939,1,4,FALSE,,,
dig,222,623846,0.0-70.0-0.0,"""event"",""trial"",""time""
""fullscreenenter"",""1"",""4735""
","
","
","""event"",""trial"",""time""
""fullscreenenter"",""1"",""4735""
","
",,,,,,,,,,,,"[{""stimulus"":""run_exp/static/images/task_images/dig.jpg"",""time"":0.2999999523162842},{""stimulus"":""run_exp/static/images/task_images/land.jpg"",""time"":830.2000000476837},{""stimulus"":""run_exp/static/images/task_images/dig.jpg"",""time"":1637}]",[],8,,,,,,,,,,,,,,
harvest,223,624856,0.0-70.0-1.0,"""event"",""trial"",""time""
""fullscreenenter"",""1"",""4735""
","
","
","""event"",""trial"",""time""
""fullscreenenter"",""1"",""4735""
","
",,null,run_exp/static/images/task_images/gems/33.jpg,null,,,,,,,27,,,8,,,,,33,0.826344887,0.818181818,,,,,,,
decision,224,626059,0.0-70.0-2.0,"""event"",""trial"",""time""
""fullscreenenter"",""1"",""4735""
","
","
","""event"",""trial"",""time""
""fullscreenenter"",""1"",""4735""
","
",,1200.6,run_exp/static/images/task_images/land.jpg,65,,,,,,,27,,,8,,,,,,,,302609,1,5,TRUE,,,
end_of_block_continue,225,634912,0.0-71.0-0.0,"""event"",""trial"",""time""
""fullscreenenter"",""1"",""4735""
","
","
","""event"",""trial"",""time""
""fullscreenenter"",""1"",""4735""
","
",,null,run_exp/static/audio/clip_32_block_end.m4a,,,,,,,null,,,,,,,,,,,,,,,,,,
alien_welcome,226,639938,0.0-72.0-0.0,"""event"",""trial"",""time""
""fullscreenenter"",""1"",""4735""
","
","
","""event"",""trial"",""time""
""fullscreenenter"",""1"",""4735""
","
",,null,run_exp/static/images/task_images/aliens/old_aliens/planet/alien_planet-44.jpg,null,,,,,,,,,,,,,44,"16,20,55,56,34,80,22,54,44,51,23,48,49,7,24,2,1,71,40,41,52,33,60,69,47,14,10,68,29,78,70,77,5",,,,,,,,,,
land,227,640442,0.0-72.0-1.0,"""event"",""trial"",""time""
""fullscreenenter"",""1"",""4735""
","
","
","""event"",""trial"",""time""
""fullscreenenter"",""1"",""4735""
","
",,null,run_exp/static/images/task_images/land.jpg,null,,,,,,,111,,,9,,,,,,,,,,,,,,
dig,228,642455,0.0-72.0-2.0,"""event"",""trial"",""time""
""fullscreenenter"",""1"",""4735""
","
","
","""event"",""trial"",""time""
""fullscreenenter"",""1"",""4735""
","
",,,,,,,,,,,,"[{""stimulus"":""run_exp/static/images/task_images/dig.jpg"",""time"":0.2999999523162842},{""stimulus"":""run_exp/static/images/task_images/land.jpg"",""time"":671.2999999523163},{""stimulus"":""run_exp/static/images/task_images/dig.jpg"",""time"":1339.3999998569489}]",[],9,,,,,,,,,,,,,,
harvest,229,643458,0.0-72.0-3.0,"""event"",""trial"",""time""
""fullscreenenter"",""1"",""4735""
","
","
","""event"",""trial"",""time""
""fullscreenenter"",""1"",""4735""
","
",,null,run_exp/static/images/task_images/gems/111.jpg,null,,,,,,,26,,,9,,,,,111,0.23596313,0.234234234,,,,,,,
decision,230,644079,0.0-72.0-4.0,"""event"",""trial"",""time""
""fullscreenenter"",""1"",""4735""
","
","
","""event"",""trial"",""time""
""fullscreenenter"",""1"",""4735""
","
",,619.4000001,run_exp/static/images/task_images/land.jpg,65,,,,,,,26,,,9,,,,,,,,9159,2,0,FALSE,,,
dig,231,646476,0.0-73.0-0.0,"""event"",""trial"",""time""
""fullscreenenter"",""1"",""4735""
","
","
","""event"",""trial"",""time""
""fullscreenenter"",""1"",""4735""
","
",,,,,,,,,,,,"[{""stimulus"":""run_exp/static/images/task_images/dig.jpg"",""time"":0.39999985694885254},{""stimulus"":""run_exp/static/images/task_images/land.jpg"",""time"":810.2999999523163},{""stimulus"":""run_exp/static/images/task_images/dig.jpg"",""time"":1595}]",[],9,,,,,,,,,,,,,,
harvest,232,647484,0.0-73.0-1.0,"""event"",""trial"",""time""
""fullscreenenter"",""1"",""4735""
","
","
","""event"",""trial"",""time""
""fullscreenenter"",""1"",""4735""
","
",,null,run_exp/static/images/task_images/gems/26.jpg,null,,,,,,,5,,,9,,,,,26,0.204786547,0.192307692,,,,,,,
decision,233,647788,0.0-73.0-2.0,"""event"",""trial"",""time""
""fullscreenenter"",""1"",""4735""
","
","
","""event"",""trial"",""time""
""fullscreenenter"",""1"",""4735""
","
",,302.9000001,run_exp/static/images/task_images/land.jpg,65,,,,,,,5,,,9,,,,,,,,12869,2,1,FALSE,,,
dig,234,650504,0.0-74.0-0.0,"""event"",""trial"",""time""
""fullscreenenter"",""1"",""4735""
","
","
","""event"",""trial"",""time""
""fullscreenenter"",""1"",""4735""
","
",,,,,,,,,,,,"[{""stimulus"":""run_exp/static/images/task_images/dig.jpg"",""time"":0.2999999523162842},{""stimulus"":""run_exp/static/images/task_images/land.jpg"",""time"":904.0999999046326},{""stimulus"":""run_exp/static/images/task_images/dig.jpg"",""time"":1816}]",[],9,,,,,,,,,,,,,,
harvest,235,651517,0.0-74.0-1.0,"""event"",""trial"",""time""
""fullscreenenter"",""1"",""4735""
","
","
","""event"",""trial"",""time""
""fullscreenenter"",""1"",""4735""
","
",,null,run_exp/static/images/task_images/gems/5.jpg,null,,,,,,,1,,,9,,,,,5,0.219074118,0.2,,,,,,,
decision,236,652388,0.0-74.0-2.0,"""event"",""trial"",""time""
""fullscreenenter"",""1"",""4735""
","
","
","""event"",""trial"",""time""
""fullscreenenter"",""1"",""4735""
","
",,870.3,run_exp/static/images/task_images/land.jpg,76,,,,,,,1,,,9,,,,,,,,17468,2,2,TRUE,,,
travel,237,661524,0.0-75.0-0.0,"""event"",""trial"",""time""
""fullscreenenter"",""1"",""4735""
","
","
","""event"",""trial"",""time""
""fullscreenenter"",""1"",""4735""
","
",,,,,,,,,,,,"[{""stimulus"":""run_exp/static/images/task_images/rocket-01.jpg"",""time"":0.3000001907348633},{""stimulus"":""run_exp/static/images/task_images/rocket-02.jpg"",""time"":1023.9000000953674},{""stimulus"":""run_exp/static/images/task_images/rocket-03.jpg"",""time"":2040.2000000476837},{""stimulus"":""run_exp/static/images/task_images/rocket-04.jpg"",""time"":3052.800000190735},{""stimulus"":""run_exp/static/images/task_images/rocket-05.jpg"",""time"":4072.300000190735},{""stimulus"":""run_exp/static/images/task_images/rocket-06.jpg"",""time"":5076.700000047684},{""stimulus"":""run_exp/static/images/task_images/rocket-07.jpg"",""time"":6093.600000143051},{""stimulus"":""run_exp/static/images/task_images/rocket-08.jpg"",""time"":7102.700000047684},{""stimulus"":""run_exp/static/images/task_images/rocket-09.jpg"",""time"":8127.700000047684}]",[],9,,,,,,,,,,,,,,
alien_welcome,238,666540,0.0-75.0-1.0,"""event"",""trial"",""time""
""fullscreenenter"",""1"",""4735""
","
","
","""event"",""trial"",""time""
""fullscreenenter"",""1"",""4735""
","
",,null,run_exp/static/images/task_images/aliens/old_aliens/planet/alien_planet-51.jpg,null,,,,,,,,,,,,,51,"16,20,55,56,34,80,22,54,44,51,23,48,49,7,24,2,1,71,40,41,52,33,60,69,47,14,10,68,29,78,70,77,5",,,,,,,,,,
land,239,667049,0.0-75.0-2.0,"""event"",""trial"",""time""
""fullscreenenter"",""1"",""4735""
","
","
","""event"",""trial"",""time""
""fullscreenenter"",""1"",""4735""
","
",,null,run_exp/static/images/task_images/land.jpg,null,,,,,,,103,,,10,,,,,,,,,,,,,,
dig,240,669062,0.0-75.0-3.0,"""event"",""trial"",""time""
""fullscreenenter"",""1"",""4735""
","
","
","""event"",""trial"",""time""
""fullscreenenter"",""1"",""4735""
","
",,,,,,,,,,,,"[{""stimulus"":""run_exp/static/images/task_images/dig.jpg"",""time"":0.39999985694885254},{""stimulus"":""run_exp/static/images/task_images/land.jpg"",""time"":676.2999999523163},{""stimulus"":""run_exp/static/images/task_images/dig.jpg"",""time"":1340.5}]",[],10,,,,,,,,,,,,,,
harvest,241,670080,0.0-75.0-4.0,"""event"",""trial"",""time""
""fullscreenenter"",""1"",""4735""
","
","
","""event"",""trial"",""time""
""fullscreenenter"",""1"",""4735""
","
",,null,run_exp/static/images/task_images/gems/103.jpg,null,,,,,,,20,,,10,,,,,103,0.196281901,0.194174757,,,,,,,
decision,242,670498,0.0-75.0-5.0,"""event"",""trial"",""time""
""fullscreenenter"",""1"",""4735""
","
","
","""event"",""trial"",""time""
""fullscreenenter"",""1"",""4735""
","
",,415.7,run_exp/static/images/task_images/land.jpg,65,,,,,,,20,,,10,,,,,,,,35578,2,0,FALSE,,,
dig,243,673100,0.0-76.0-0.0,"""event"",""trial"",""time""
""fullscreenenter"",""1"",""4735""
","
","
","""event"",""trial"",""time""
""fullscreenenter"",""1"",""4735""
","
",,,,,,,,,,,,"[{""stimulus"":""run_exp/static/images/task_images/dig.jpg"",""time"":0.2999999523162842},{""stimulus"":""run_exp/static/images/task_images/land.jpg"",""time"":872},{""stimulus"":""run_exp/static/images/task_images/dig.jpg"",""time"":1738.7999999523163}]",[],10,,,,,,,,,,,,,,
harvest,244,674109,0.0-76.0-1.0,"""event"",""trial"",""time""
""fullscreenenter"",""1"",""4735""
","
","
","""event"",""trial"",""time""
""fullscreenenter"",""1"",""4735""
","
",,null,run_exp/static/images/task_images/gems/20.jpg,null,,,,,,,5,,,10,,,,,20,0.273852209,0.25,,,,,,,
decision,245,674548,0.0-76.0-2.0,"""event"",""trial"",""time""
""fullscreenenter"",""1"",""4735""
","
","
","""event"",""trial"",""time""
""fullscreenenter"",""1"",""4735""
","
",,437,run_exp/static/images/task_images/land.jpg,76,,,,,,,5,,,10,,,,,,,,39628,2,1,TRUE,,,
travel,246,684125,0.0-77.0-0.0,"""event"",""trial"",""time""
""fullscreenenter"",""1"",""4735""
","
","
","""event"",""trial"",""time""
""fullscreenenter"",""1"",""4735""
","
",,,,,,,,,,,,"[{""stimulus"":""run_exp/static/images/task_images/rocket-01.jpg"",""time"":0.2999999523162842},{""stimulus"":""run_exp/static/images/task_images/rocket-02.jpg"",""time"":1075.2000000476837},{""stimulus"":""run_exp/static/images/task_images/rocket-03.jpg"",""time"":2141.2000000476837},{""stimulus"":""run_exp/static/images/task_images/rocket-04.jpg"",""time"":3195.2000000476837},{""stimulus"":""run_exp/static/images/task_images/rocket-05.jpg"",""time"":4258.400000095367},{""stimulus"":""run_exp/static/images/task_images/rocket-06.jpg"",""time"":5323},{""stimulus"":""run_exp/static/images/task_images/rocket-07.jpg"",""time"":6381.299999952316},{""stimulus"":""run_exp/static/images/task_images/rocket-08.jpg"",""time"":7445.200000047684},{""stimulus"":""run_exp/static/images/task_images/rocket-09.jpg"",""time"":8501.100000143051}]",[],10,,,,,,,,,,,,,,
alien_welcome,247,689140,0.0-77.0-1.0,"""event"",""trial"",""time""
""fullscreenenter"",""1"",""4735""
","
","
","""event"",""trial"",""time""
""fullscreenenter"",""1"",""4735""
","
",,null,run_exp/static/images/task_images/aliens/old_aliens/planet/alien_planet-23.jpg,null,,,,,,,,,,,,,23,"16,20,55,56,34,80,22,54,44,51,23,48,49,7,24,2,1,71,40,41,52,33,60,69,47,14,10,68,29,78,70,77,5",,,,,,,,,,
land,248,689650,0.0-77.0-2.0,"""event"",""trial"",""time""
""fullscreenenter"",""1"",""4735""
","
","
","""event"",""trial"",""time""
""fullscreenenter"",""1"",""4735""
","
",,null,run_exp/static/images/task_images/land.jpg,null,,,,,,,94,,,11,,,,,,,,,,,,,,
dig,249,691658,0.0-77.0-3.0,"""event"",""trial"",""time""
""fullscreenenter"",""1"",""4735""
","
","
","""event"",""trial"",""time""
""fullscreenenter"",""1"",""4735""
","
",,,,,,,,,,,,"[{""stimulus"":""run_exp/static/images/task_images/dig.jpg"",""time"":0.2999999523162842},{""stimulus"":""run_exp/static/images/task_images/land.jpg"",""time"":670.5},{""stimulus"":""run_exp/static/images/task_images/dig.jpg"",""time"":1339.7000000476837}]",[],11,,,,,,,,,,,,,,
harvest,250,692670,0.0-77.0-4.0,"""event"",""trial"",""time""
""fullscreenenter"",""1"",""4735""
","
","
