trial_type,trial_index,time_elapsed,internal_node_id,interactions,blur_events,focus_events,fullscreenenter_events,fullscreenexit_events,success,rt,stimulus,key_press,prompt,subject_id,participant_id,age,gender,button_pressed,next_reward,animation_sequence,responses,planet,curr_prac_trial,n_prac_rounds,alien,aliens,reward_received,decay_rate_actual,decay_rate_exp,time_in_block,block_num,prt,last_trial_on_planet,button_html,bonus,num_failures
pavlovia,0,2,0.0-0.0,"""event"",""trial"",""time""
""fullscreenenter"",""1"",""2300""
","
","
","""event"",""trial"",""time""
""fullscreenenter"",""1"",""2300""
","
",,,,,,,,,,,,,,,,,,,,,,,,,,,,
fullscreen,1,3288,0.0-1.0,"""event"",""trial"",""time""
""fullscreenenter"",""1"",""2300""
""fullscreenexit"",""2"",""4327""
","
","
","""event"",""trial"",""time""
""fullscreenenter"",""1"",""2300""
","""event"",""trial"",""time""
""fullscreenexit"",""2"",""4327""
",TRUE,,,,,,,,,,,,,,,,,,,,,,,,,,,
instruc_welcome,2,13015,0.0-2.0,"""event"",""trial"",""time""
""fullscreenenter"",""1"",""2300""
""fullscreenexit"",""2"",""4327""
","
","
","""event"",""trial"",""time""
""fullscreenenter"",""1"",""2300""
","""event"",""trial"",""time""
""fullscreenexit"",""2"",""4327""
",,null,run_exp/static/audio/clip_1_welcome.m4a,null,"<p>Howdy! In this experiment, you’ll be an explorer traveling through space to collect space treasure.</p><p>Your mission is to collect as much treasure as possible.</p><br><br><p><img src='run_exp/static/images/task_images/opening_img-01.jpg' height='300' width='auto'></p>",9507,3457,10.09,Female,,,,,,,,,,,,,,,,,,,
audio-keyboard-response,3,29596,0.0-3.0,"""event"",""trial"",""time""
""fullscreenenter"",""1"",""2300""
""fullscreenexit"",""2"",""4327""
","
","
","""event"",""trial"",""time""
""fullscreenenter"",""1"",""2300""
","""event"",""trial"",""time""
""fullscreenexit"",""2"",""4327""
",,null,run_exp/static/audio/clip_2_move.m4a,null,,,,,,,,,,,,,,,,,,,,,,,,
welcome_dec,4,30684,0.0-4.0,"""event"",""trial"",""time""
""fullscreenenter"",""1"",""2300""
""fullscreenexit"",""2"",""4327""
","
","
","""event"",""trial"",""time""
""fullscreenenter"",""1"",""2300""
","""event"",""trial"",""time""
""fullscreenexit"",""2"",""4327""
",,1082.9,"<p>Howdy! In this experiment, you’ll be an explorer traveling through space to collect space treasure.</p><p>Your mission is to collect as much treasure as possible.</p><br><br><p><img src='run_exp/static/images/task_images/opening_img-01.jpg' height='300' width='auto'></p>",,,,,,,1,,,,,,,,,,,,,,,,,,
html-keyboard-response,5,30952,0.0-5.0,"""event"",""trial"",""time""
""fullscreenenter"",""1"",""2300""
""fullscreenexit"",""2"",""4327""
","
","
","""event"",""trial"",""time""
""fullscreenenter"",""1"",""2300""
","""event"",""trial"",""time""
""fullscreenexit"",""2"",""4327""
",,267.2,"<p>Howdy! In this experiment, you’ll be an explorer traveling through space to collect space treasure.</p><p>Your mission is to collect as much treasure as possible.</p><br><br><p><img src='run_exp/static/images/task_images/opening_img-01.jpg' height='300' width='auto'></p><button class=""jspsych-html-btn-unchosen""><img src=""run_exp/static/images/task_images/planet-01.jpg"" height=""50""></button><button class=""jspsych-html-btn-chosen""><img src=""run_exp/static/images/task_images/planet-02.jpg"" height=""50""></button><p><b>[press the space bar to lock in your answer]<b><br></p>",32,,,,,,,,,,,,,,,,,,,,,,,,
instruc_goal,6,41016,0.0-6.0-0.0,"""event"",""trial"",""time""
""fullscreenenter"",""1"",""2300""
""fullscreenexit"",""2"",""4327""
","
","
","""event"",""trial"",""time""
""fullscreenenter"",""1"",""2300""
","""event"",""trial"",""time""
""fullscreenexit"",""2"",""4327""
",,null,run_exp/static/audio/clip_3_goal.m4a,null,"<p> As a space explorer, you’ll visit different planets to dig for space treasure, these pink gems.</p> <p> The more treasure you dig up, the more bonus money you’ll win! </p><br><br><p><img src='run_exp/static/images/task_images/pink_gem.jpg' height='300' width='auto'></p>",,,,,,,,,,,,,,,,,,,,,,,
instruc_goal,7,43276,0.0-6.0-1.0,"""event"",""trial"",""time""
""fullscreenenter"",""1"",""2300""
""fullscreenexit"",""2"",""4327""
","
","
","""event"",""trial"",""time""
""fullscreenenter"",""1"",""2300""
","""event"",""trial"",""time""
""fullscreenexit"",""2"",""4327""
",,2256.7,"<p> As a space explorer, you’ll visit different planets to dig for space treasure, these pink gems.</p> <p> The more treasure you dig up, the more bonus money you’ll win! </p><br><br><p><img src='run_exp/static/images/task_images/pink_gem.jpg' height='300' width='auto'></p>",,,,,,,1,,,,,,,,,,,,,,,,,,
html-keyboard-response,8,43375,0.0-6.0-2.0,"""event"",""trial"",""time""
""fullscreenenter"",""1"",""2300""
""fullscreenexit"",""2"",""4327""
","
","
","""event"",""trial"",""time""
""fullscreenenter"",""1"",""2300""
","""event"",""trial"",""time""
""fullscreenexit"",""2"",""4327""
",,97.80000001,"<p> As a space explorer, you’ll visit different planets to dig for space treasure, these pink gems.</p> <p> The more treasure you dig up, the more bonus money you’ll win! </p><br><br><p><img src='run_exp/static/images/task_images/pink_gem.jpg' height='300' width='auto'></p><button class=""jspsych-html-btn-unchosen""><img src=""run_exp/static/images/task_images/planet-01.jpg"" height=""50""></button><button class=""jspsych-html-btn-chosen""><img src=""run_exp/static/images/task_images/planet-02.jpg"" height=""50""></button><p><b>[press the space bar to lock in your answer]<b><br></p>",32,,,,,,,,,,,,,,,,,,,,,,,,
instruc_dig,9,59377,0.0-7.0-0.0,"""event"",""trial"",""time""
""fullscreenenter"",""1"",""2300""
""fullscreenexit"",""2"",""4327""
","
","
","""event"",""trial"",""time""
""fullscreenenter"",""1"",""2300""
","""event"",""trial"",""time""
""fullscreenexit"",""2"",""4327""
",,null,run_exp/static/audio/clip_4_dig.m4a,null,,,,,,,100,,,,,,,,,,,,,,,,,
instruc_dig_try,10,59536,0.0-7.0-1.0,"""event"",""trial"",""time""
""fullscreenenter"",""1"",""2300""
""fullscreenexit"",""2"",""4327""
","
","
","""event"",""trial"",""time""
""fullscreenenter"",""1"",""2300""
","""event"",""trial"",""time""
""fullscreenexit"",""2"",""4327""
",,157.2,"<p> When you’ve arrived at a new planet, you will dig once. </p> <p>Then, you get to decide if you want to stay on the planet and dig again or travel to a new planet and dig there.</p> <p> To stay and dig, press the letter <strong>‘A’</strong> on your keyboard. Try pressing it now! </p><p><img src='run_exp/static/images/task_images/land.jpg'  height='700' width='auto'></p>",65,"<p> When you’ve arrived at a new planet, you will dig once. </p> <p>Then, you get to decide if you want to stay on the planet and dig again or travel to a new planet and dig there.</p> <p> To stay and dig, press the letter <strong>‘A’</strong> on your keyboard. Try pressing it now! </p><p><img src='run_exp/static/images/task_images/land.jpg'  height='700' width='auto'></p>",,,,,,100,,,,,,,,,,,,,,,,,
dig_prac,11,61553,0.0-7.0-2.0,"""event"",""trial"",""time""
""fullscreenenter"",""1"",""2300""
""fullscreenexit"",""2"",""4327""
","
","
","""event"",""trial"",""time""
""fullscreenenter"",""1"",""2300""
","""event"",""trial"",""time""
""fullscreenexit"",""2"",""4327""
",,,,,,,,,,,,"[{""stimulus"":""run_exp/static/images/task_images/dig.jpg"",""time"":0.5999999940395355},{""stimulus"":""run_exp/static/images/task_images/land.jpg"",""time"":669.3000000119209},{""stimulus"":""run_exp/static/images/task_images/dig.jpg"",""time"":1336.699999988079}]",[],,,,,,,,,,,,,,,
instruc_travel,12,97799,0.0-7.0-3.0,"""event"",""trial"",""time""
""fullscreenenter"",""1"",""2300""
""fullscreenexit"",""2"",""4327""
","
","
","""event"",""trial"",""time""
""fullscreenenter"",""1"",""2300""
","""event"",""trial"",""time""
""fullscreenexit"",""2"",""4327""
",,null,run_exp/static/audio/clip_5_travel.m4a,null,"<p>Every time you dig up gems, there are less gems on the planet, so the more you dig on a planet the fewer gems you’ll get with each dig.</p><p>When gems are running low, you may want to travel to a new planet. </p> <p>  Planets are very far apart in this galaxy, so it will take some time to travel between them. </p> <br><p>There are lots and lots of planets for you to visit, so you won’t be able to return to any planets you’ve seen before. </p><br><p>To leave this planet and travel to a new one, press the letter <strong>‘L’</strong> on your keyboard. Try pressing it now! </p><p><img src='run_exp/static/images/task_images/rocket-01.jpg'  height='600' width='auto'></p>",,,,,,,,,,,,,,,,,,,,,,,
instruc_travel_try,13,98595,0.0-7.0-4.0,"""event"",""trial"",""time""
""fullscreenenter"",""1"",""2300""
""fullscreenexit"",""2"",""4327""
","
","
","""event"",""trial"",""time""
""fullscreenenter"",""1"",""2300""
","""event"",""trial"",""time""
""fullscreenexit"",""2"",""4327""
",,794.4,"<p>Every time you dig up gems, there are less gems on the planet, so the more you dig on a planet the fewer gems you’ll get with each dig.</p><p>When gems are running low, you may want to travel to a new planet. </p> <p>  Planets are very far apart in this galaxy, so it will take some time to travel between them. </p> <br><p>There are lots and lots of planets for you to visit, so you won’t be able to return to any planets you’ve seen before. </p><br><p>To leave this planet and travel to a new one, press the letter <strong>‘L’</strong> on your keyboard. Try pressing it now! </p><p><img src='run_exp/static/images/task_images/rocket-01.jpg'  height='600' width='auto'></p>",76,"<p>Every time you dig up gems, there are less gems on the planet, so the more you dig on a planet the fewer gems you’ll get with each dig.</p><p>When gems are running low, you may want to travel to a new planet. </p> <p>  Planets are very far apart in this galaxy, so it will take some time to travel between them. </p> <br><p>There are lots and lots of planets for you to visit, so you won’t be able to return to any planets you’ve seen before. </p><br><p>To leave this planet and travel to a new one, press the letter <strong>‘L’</strong> on your keyboard. Try pressing it now! </p><p><img src='run_exp/static/images/task_images/rocket-01.jpg'  height='600' width='auto'></p>",,,,,,,,,,,,,,,,,,,,,,,
travel_prac,14,108599,0.0-7.0-5.0,"""event"",""trial"",""time""
""fullscreenenter"",""1"",""2300""
""fullscreenexit"",""2"",""4327""
","
","
","""event"",""trial"",""time""
""fullscreenenter"",""1"",""2300""
","""event"",""trial"",""time""
""fullscreenexit"",""2"",""4327""
",,,,,,,,,,,,"[{""stimulus"":""run_exp/static/images/task_images/rocket-01.jpg"",""time"":0.5999999940395355},{""stimulus"":""run_exp/static/images/task_images/rocket-02.jpg"",""time"":1113.5},{""stimulus"":""run_exp/static/images/task_images/rocket-03.jpg"",""time"":2223.4000000059605},{""stimulus"":""run_exp/static/images/task_images/rocket-04.jpg"",""time"":3335.199999988079},{""stimulus"":""run_exp/static/images/task_images/rocket-05.jpg"",""time"":4446.799999982119},{""stimulus"":""run_exp/static/images/task_images/rocket-06.jpg"",""time"":5557.199999988079},{""stimulus"":""run_exp/static/images/task_images/rocket-07.jpg"",""time"":6667.799999982119},{""stimulus"":""run_exp/static/images/task_images/rocket-08.jpg"",""time"":7779.199999988079},{""stimulus"":""run_exp/static/images/task_images/rocket-09.jpg"",""time"":8890.40000000596}]",[],0,,,,,,,,,,,,,,
instruc_alien_greet,15,135770,0.0-7.0-6.0,"""event"",""trial"",""time""
""fullscreenenter"",""1"",""2300""
""fullscreenexit"",""2"",""4327""
","
","
","""event"",""trial"",""time""
""fullscreenenter"",""1"",""2300""
","""event"",""trial"",""time""
""fullscreenexit"",""2"",""4327""
",,null,run_exp/static/audio/clip_6_alien.m4a,null,"<p>When you arrive at a new planet, the alien who owns the treasure mine on that planet will greet you!</p><p>The better an alien takes care of their mine the easier it is to dig for gems. Some aliens take better care of their mine than others. So, you won’t get exactly the same amount of gems on each planet.</p><p>What the alien looks like does not tell you anything about how many gems there are on the planet.</p><br><p><img src=""run_exp/static/images/task_images/aliens/instructions_aliens/planet/alien_planet-1.jpg""  height=""600"" width=""auto""></p>",,,,,,,,,,,,,,,,,,,,,,,
instruc_alien_greet,16,137497,0.0-7.0-7.0,"""event"",""trial"",""time""
""fullscreenenter"",""1"",""2300""
""fullscreenexit"",""2"",""4327""
","
","
","""event"",""trial"",""time""
""fullscreenenter"",""1"",""2300""
","""event"",""trial"",""time""
""fullscreenexit"",""2"",""4327""
",,1725,"<p>When you arrive at a new planet, the alien who owns the treasure mine on that planet will greet you!</p><p>The better an alien takes care of their mine the easier it is to dig for gems. Some aliens take better care of their mine than others. So, you won’t get exactly the same amount of gems on each planet.</p><p>What the alien looks like does not tell you anything about how many gems there are on the planet.</p><br><p><img src=""run_exp/static/images/task_images/aliens/instructions_aliens/planet/alien_planet-1.jpg""  height=""600"" width=""auto""></p>",,,,,,,1,,,,,,,,,,,,,,,,,,
html-keyboard-response,17,138396,0.0-7.0-8.0,"""event"",""trial"",""time""
""fullscreenenter"",""1"",""2300""
""fullscreenexit"",""2"",""4327""
","
","
","""event"",""trial"",""time""
""fullscreenenter"",""1"",""2300""
","""event"",""trial"",""time""
""fullscreenexit"",""2"",""4327""
",,898.6,"<p>When you arrive at a new planet, the alien who owns the treasure mine on that planet will greet you!</p><p>The better an alien takes care of their mine the easier it is to dig for gems. Some aliens take better care of their mine than others. So, you won’t get exactly the same amount of gems on each planet.</p><p>What the alien looks like does not tell you anything about how many gems there are on the planet.</p><br><p><img src=""run_exp/static/images/task_images/aliens/instructions_aliens/planet/alien_planet-1.jpg""  height=""600"" width=""auto""></p><button class=""jspsych-html-btn-unchosen""><img src=""run_exp/static/images/task_images/planet-01.jpg"" height=""50""></button><button class=""jspsych-html-btn-chosen""><img src=""run_exp/static/images/task_images/planet-02.jpg"" height=""50""></button><p><b>[press the space bar to lock in your answer]<b><br></p>",32,,,,,,,,,,,,,,,,,,,,,,,,
time_out,18,149472,0.0-8.0-0.0,"""event"",""trial"",""time""
""fullscreenenter"",""1"",""2300""
""fullscreenexit"",""2"",""4327""
","
","
","""event"",""trial"",""time""
""fullscreenenter"",""1"",""2300""
","""event"",""trial"",""time""
""fullscreenexit"",""2"",""4327""
",,null,run_exp/static/audio/clip_7_timeout.m4a,null,"<p>If you don't make your choice fast enough, you’ll have to wait a few seconds before you can make another one.</p><p>You can’t dig for more gems or travel to new planets. You just have to sit and wait.</p><br><p><img src='run_exp/static/images/task_images/time_out.jpg'  height='600' width='auto'></p>",,,,,,,,,,,,,,,,,,,,,,,
time_out,19,151489,0.0-8.0-1.0,"""event"",""trial"",""time""
""fullscreenenter"",""1"",""2300""
""fullscreenexit"",""2"",""4327""
","
","
","""event"",""trial"",""time""
""fullscreenenter"",""1"",""2300""
","""event"",""trial"",""time""
""fullscreenexit"",""2"",""4327""
",,2015,"<p>If you don't make your choice fast enough, you’ll have to wait a few seconds before you can make another one.</p><p>You can’t dig for more gems or travel to new planets. You just have to sit and wait.</p><br><p><img src='run_exp/static/images/task_images/time_out.jpg'  height='600' width='auto'></p>",,,,,,,1,,,,,,,,,,,,,,,,,,
html-keyboard-response,20,151820,0.0-8.0-2.0,"""event"",""trial"",""time""
""fullscreenenter"",""1"",""2300""
""fullscreenexit"",""2"",""4327""
","
","
","""event"",""trial"",""time""
""fullscreenenter"",""1"",""2300""
","""event"",""trial"",""time""
""fullscreenexit"",""2"",""4327""
",,330.5,"<p>If you don't make your choice fast enough, you’ll have to wait a few seconds before you can make another one.</p><p>You can’t dig for more gems or travel to new planets. You just have to sit and wait.</p><br><p><img src='run_exp/static/images/task_images/time_out.jpg'  height='600' width='auto'></p><button class=""jspsych-html-btn-unchosen""><img src=""run_exp/static/images/task_images/planet-01.jpg"" height=""50""></button><button class=""jspsych-html-btn-chosen""><img src=""run_exp/static/images/task_images/planet-02.jpg"" height=""50""></button><p><b>[press the space bar to lock in your answer]<b><br></p>",32,,,,,,,,,,,,,,,,,,,,,,,,
instruc_break,21,167492,0.0-9.0-0.0,"""event"",""trial"",""time""
""fullscreenenter"",""1"",""2300""
""fullscreenexit"",""2"",""4327""
","
","
","""event"",""trial"",""time""
""fullscreenenter"",""1"",""2300""
","""event"",""trial"",""time""
""fullscreenexit"",""2"",""4327""
",,null,run_exp/static/audio/clip_8_break.m4a,null,"<p> After digging and traveling for a while, you’ll be able to take a break at home base. </p><p>The game will last 20 minutes no matter what.</p><p>You will visit home base every 5 minutes, so, you will visit home base three times during the game.</p><br><p><img src='run_exp/static/images/task_images/home_base.jpg' height='600' width='auto'></p>",,,,,,,,,,,,,,,,,,,,,,,
instruc_break,22,168385,0.0-9.0-1.0,"""event"",""trial"",""time""
""fullscreenenter"",""1"",""2300""
""fullscreenexit"",""2"",""4327""
","
","
","""event"",""trial"",""time""
""fullscreenenter"",""1"",""2300""
","""event"",""trial"",""time""
""fullscreenexit"",""2"",""4327""
",,890.1,"<p> After digging and traveling for a while, you’ll be able to take a break at home base. </p><p>The game will last 20 minutes no matter what.</p><p>You will visit home base every 5 minutes, so, you will visit home base three times during the game.</p><br><p><img src='run_exp/static/images/task_images/home_base.jpg' height='600' width='auto'></p>",,,,,,,1,,,,,,,,,,,,,,,,,,
html-keyboard-response,23,168668,0.0-9.0-2.0,"""event"",""trial"",""time""
""fullscreenenter"",""1"",""2300""
""fullscreenexit"",""2"",""4327""
","
","
","""event"",""trial"",""time""
""fullscreenenter"",""1"",""2300""
","""event"",""trial"",""time""
""fullscreenexit"",""2"",""4327""
",,282.2,"<p> After digging and traveling for a while, you’ll be able to take a break at home base. </p><p>The game will last 20 minutes no matter what.</p><p>You will visit home base every 5 minutes, so, you will visit home base three times during the game.</p><br><p><img src='run_exp/static/images/task_images/home_base.jpg' height='600' width='auto'></p><button class=""jspsych-html-btn-unchosen""><img src=""run_exp/static/images/task_images/planet-01.jpg"" height=""50""></button><button class=""jspsych-html-btn-chosen""><img src=""run_exp/static/images/task_images/planet-02.jpg"" height=""50""></button><p><b>[press the space bar to lock in your answer]<b><br></p>",32,,,,,,,,,,,,,,,,,,,,,,,,
instruc_prac_game,24,178792,0.0-10.0-0.0,"""event"",""trial"",""time""
""fullscreenenter"",""1"",""2300""
""fullscreenexit"",""2"",""4327""
","
","
","""event"",""trial"",""time""
""fullscreenenter"",""1"",""2300""
","""event"",""trial"",""time""
""fullscreenexit"",""2"",""4327""
",,null,run_exp/static/audio/clip_9_practice.m4a,null,"<p> Are you ready to play a practice game? </p> <p>In this practice game, you'll be digging up barrels of gems. But, in the real game, you'll be digging up the gems themselves. </p>",,,,,,,,,,,,,,,,,,,,,,,
html-button-response,25,187506,0.0-10.0-1.0,"""event"",""trial"",""time""
""fullscreenenter"",""1"",""2300""
""fullscreenexit"",""2"",""4327""
","
","
","""event"",""trial"",""time""
""fullscreenenter"",""1"",""2300""
","""event"",""trial"",""time""
""fullscreenexit"",""2"",""4327""
",,8712.8,"<p> Are you ready to play a practice game? </p> <p>In this practice game, you'll be digging up barrels of gems. But, in the real game, you'll be digging up the gems themselves. </p>",,,,,,,0,,,,,,,,,,,,,,,,,,
alien_welcome_prac,26,192509,0.0-11.0-0.0,"""event"",""trial"",""time""
""fullscreenenter"",""1"",""2300""
""fullscreenexit"",""2"",""4327""
","
","
","""event"",""trial"",""time""
""fullscreenenter"",""1"",""2300""
","""event"",""trial"",""time""
""fullscreenexit"",""2"",""4327""
",,null,run_exp/static/images/task_images/aliens/practice_aliens/planet/alien_planet-5.jpg,null,,,,,,,,,,,,,,,,,,,,,,,,
land_prac,27,193012,0.0-11.0-1.0,"""event"",""trial"",""time""
""fullscreenenter"",""1"",""2300""
""fullscreenexit"",""2"",""4327""
","
","
","""event"",""trial"",""time""
""fullscreenenter"",""1"",""2300""
","""event"",""trial"",""time""
""fullscreenexit"",""2"",""4327""
",,null,run_exp/static/images/task_images/land.jpg,null,,,,,,,111,,,0,,,,,,,,,,,,,,
dig_prac,28,195018,0.0-11.0-2.0,"""event"",""trial"",""time""
""fullscreenenter"",""1"",""2300""
""fullscreenexit"",""2"",""4327""
","
","
","""event"",""trial"",""time""
""fullscreenenter"",""1"",""2300""
","""event"",""trial"",""time""
""fullscreenexit"",""2"",""4327""
",,,,,,,,,,,,"[{""stimulus"":""run_exp/static/images/task_images/dig.jpg"",""time"":0.5},{""stimulus"":""run_exp/static/images/task_images/land.jpg"",""time"":670.0999999940395},{""stimulus"":""run_exp/static/images/task_images/dig.jpg"",""time"":1336.5999999940395}]",[],,,,,,,,,,,,,,,
harvest_prac,29,196020,0.0-11.0-3.0,"""event"",""trial"",""time""
""fullscreenenter"",""1"",""2300""
""fullscreenexit"",""2"",""4327""
","
","
","""event"",""trial"",""time""
""fullscreenenter"",""1"",""2300""
","""event"",""trial"",""time""
""fullscreenexit"",""2"",""4327""
",,null,run_exp/static/images/task_images/barrel_text.jpg,null,,,,,,,,,,,,,,,,,,,,,,,,
decision_prac,30,196582,0.0-11.0-4.0,"""event"",""trial"",""time""
""fullscreenenter"",""1"",""2300""
""fullscreenexit"",""2"",""4327""
","
","
","""event"",""trial"",""time""
""fullscreenenter"",""1"",""2300""
","""event"",""trial"",""time""
""fullscreenexit"",""2"",""4327""
",,559.4,run_exp/static/images/task_images/land.jpg,65,,,,,,,,,,,1,,,,,,,,,,,,,
dig_prac,31,198594,0.0-12.0-0.0,"""event"",""trial"",""time""
""fullscreenenter"",""1"",""2300""
""fullscreenexit"",""2"",""4327""
","
","
","""event"",""trial"",""time""
""fullscreenenter"",""1"",""2300""
","""event"",""trial"",""time""
""fullscreenexit"",""2"",""4327""
",,,,,,,,,,,,"[{""stimulus"":""run_exp/static/images/task_images/dig.jpg"",""time"":0.4000000059604645},{""stimulus"":""run_exp/static/images/task_images/land.jpg"",""time"":668.6999999880791},{""stimulus"":""run_exp/static/images/task_images/dig.jpg"",""time"":1336.0999999940395}]",[],,,,,,,,,,,,,,,
harvest_prac,32,199596,0.0-12.0-1.0,"""event"",""trial"",""time""
""fullscreenenter"",""1"",""2300""
""fullscreenexit"",""2"",""4327""
","
","
","""event"",""trial"",""time""
""fullscreenenter"",""1"",""2300""
","""event"",""trial"",""time""
""fullscreenexit"",""2"",""4327""
",,null,run_exp/static/images/task_images/barrel_text.jpg,null,,,,,,,,,,,,,,,,,,,,,,,,
decision_prac,33,200182,0.0-12.0-2.0,"""event"",""trial"",""time""
""fullscreenenter"",""1"",""2300""
""fullscreenexit"",""2"",""4327""
","
","
","""event"",""trial"",""time""
""fullscreenenter"",""1"",""2300""
","""event"",""trial"",""time""
""fullscreenexit"",""2"",""4327""
",,583.6,run_exp/static/images/task_images/land.jpg,65,,,,,,,,,,,2,,,,,,,,,,,,,
dig_prac,34,202189,0.0-13.0-0.0,"""event"",""trial"",""time""
""fullscreenenter"",""1"",""2300""
""fullscreenexit"",""2"",""4327""
","
","
","""event"",""trial"",""time""
""fullscreenenter"",""1"",""2300""
","""event"",""trial"",""time""
""fullscreenexit"",""2"",""4327""
",,,,,,,,,,,,"[{""stimulus"":""run_exp/static/images/task_images/dig.jpg"",""time"":0},{""stimulus"":""run_exp/static/images/task_images/land.jpg"",""time"":668.0999999940395},{""stimulus"":""run_exp/static/images/task_images/dig.jpg"",""time"":1335.300000011921}]",[],,,,,,,,,,,,,,,
harvest_prac,35,203192,0.0-13.0-1.0,"""event"",""trial"",""time""
""fullscreenenter"",""1"",""2300""
""fullscreenexit"",""2"",""4327""
","
","
","""event"",""trial"",""time""
""fullscreenenter"",""1"",""2300""
","""event"",""trial"",""time""
""fullscreenexit"",""2"",""4327""
",,null,run_exp/static/images/task_images/barrel_text.jpg,null,,,,,,,,,,,,,,,,,,,,,,,,
decision_prac,36,203613,0.0-13.0-2.0,"""event"",""trial"",""time""
""fullscreenenter"",""1"",""2300""
""fullscreenexit"",""2"",""4327""
","
","
","""event"",""trial"",""time""
""fullscreenenter"",""1"",""2300""
","""event"",""trial"",""time""
""fullscreenexit"",""2"",""4327""
",,419.6,run_exp/static/images/task_images/land.jpg,76,,,,,,,,,,,3,,,,,,,,,,,,,
travel,37,213197,0.0-14.0-0.0,"""event"",""trial"",""time""
""fullscreenenter"",""1"",""2300""
""fullscreenexit"",""2"",""4327""
","
","
","""event"",""trial"",""time""
""fullscreenenter"",""1"",""2300""
","""event"",""trial"",""time""
""fullscreenexit"",""2"",""4327""
",,,,,,,,,,,,"[{""stimulus"":""run_exp/static/images/task_images/rocket-01.jpg"",""time"":0.09999999403953552},{""stimulus"":""run_exp/static/images/task_images/rocket-02.jpg"",""time"":1066.2999999821186},{""stimulus"":""run_exp/static/images/task_images/rocket-03.jpg"",""time"":2129.7999999821186},{""stimulus"":""run_exp/static/images/task_images/rocket-04.jpg"",""time"":3193.2999999821186},{""stimulus"":""run_exp/static/images/task_images/rocket-05.jpg"",""time"":4258.4000000059605},{""stimulus"":""run_exp/static/images/task_images/rocket-06.jpg"",""time"":5321.4000000059605},{""stimulus"":""run_exp/static/images/task_images/rocket-07.jpg"",""time"":6385.699999988079},{""stimulus"":""run_exp/static/images/task_images/rocket-08.jpg"",""time"":7450.299999982119},{""stimulus"":""run_exp/static/images/task_images/rocket-09.jpg"",""time"":8514.199999988079}]",[],0,,,,,,,,,,,,,,
alien_welcome_prac,38,218201,0.0-14.0-1.0,"""event"",""trial"",""time""
""fullscreenenter"",""1"",""2300""
""fullscreenexit"",""2"",""4327""
","
","
","""event"",""trial"",""time""
""fullscreenenter"",""1"",""2300""
","""event"",""trial"",""time""
""fullscreenexit"",""2"",""4327""
",,null,run_exp/static/images/task_images/aliens/practice_aliens/planet/alien_planet-4.jpg,null,,,,,,,,,,,,,,,,,,,,,,,,
land_prac,39,218705,0.0-14.0-2.0,"""event"",""trial"",""time""
""fullscreenenter"",""1"",""2300""
""fullscreenexit"",""2"",""4327""
","
","
","""event"",""trial"",""time""
""fullscreenenter"",""1"",""2300""
","""event"",""trial"",""time""
""fullscreenexit"",""2"",""4327""
",,null,run_exp/static/images/task_images/land.jpg,null,,,,,,,95,,,0,,,,,,,,,,,,,,
dig_prac,40,220712,0.0-14.0-3.0,"""event"",""trial"",""time""
""fullscreenenter"",""1"",""2300""
""fullscreenexit"",""2"",""4327""
","
","
","""event"",""trial"",""time""
""fullscreenenter"",""1"",""2300""
","""event"",""trial"",""time""
""fullscreenexit"",""2"",""4327""
",,,,,,,,,,,,"[{""stimulus"":""run_exp/static/images/task_images/dig.jpg"",""time"":0.4000000059604645},{""stimulus"":""run_exp/static/images/task_images/land.jpg"",""time"":669.1000000238419},{""stimulus"":""run_exp/static/images/task_images/dig.jpg"",""time"":1336.6000000238419}]",[],,,,,,,,,,,,,,,
harvest_prac,41,221715,0.0-14.0-4.0,"""event"",""trial"",""time""
""fullscreenenter"",""1"",""2300""
""fullscreenexit"",""2"",""4327""
","
","
","""event"",""trial"",""time""
""fullscreenenter"",""1"",""2300""
","""event"",""trial"",""time""
""fullscreenexit"",""2"",""4327""
",,null,run_exp/static/images/task_images/barrel_text.jpg,null,,,,,,,,,,,,,,,,,,,,,,,,
decision_prac,42,221718,0.0-14.0-5.0,"""event"",""trial"",""time""
""fullscreenenter"",""1"",""2300""
""fullscreenexit"",""2"",""4327""
","
","
","""event"",""trial"",""time""
""fullscreenenter"",""1"",""2300""
","""event"",""trial"",""time""
""fullscreenexit"",""2"",""4327""
",,1.599999994,run_exp/static/images/task_images/land.jpg,65,,,,,,,,,,,4,,,,,,,,,,,,,
dig_prac,43,223722,0.0-15.0-0.0,"""event"",""trial"",""time""
""fullscreenenter"",""1"",""2300""
""fullscreenexit"",""2"",""4327""
","
","
","""event"",""trial"",""time""
""fullscreenenter"",""1"",""2300""
","""event"",""trial"",""time""
""fullscreenexit"",""2"",""4327""
",,,,,,,,,,,,"[{""stimulus"":""run_exp/static/images/task_images/dig.jpg"",""time"":0.20000001788139343},{""stimulus"":""run_exp/static/images/task_images/land.jpg"",""time"":669.3000000119209},{""stimulus"":""run_exp/static/images/task_images/dig.jpg"",""time"":1336.300000011921}]",[],,,,,,,,,,,,,,,
harvest_prac,44,224725,0.0-15.0-1.0,"""event"",""trial"",""time""
""fullscreenenter"",""1"",""2300""
""fullscreenexit"",""2"",""4327""
","
","
","""event"",""trial"",""time""
""fullscreenenter"",""1"",""2300""
","""event"",""trial"",""time""
""fullscreenexit"",""2"",""4327""
",,null,run_exp/static/images/task_images/barrel_text.jpg,null,,,,,,,,,,,,,,,,,,,,,,,,
decision_prac,45,224782,0.0-15.0-2.0,"""event"",""trial"",""time""
""fullscreenenter"",""1"",""2300""
""fullscreenexit"",""2"",""4327""
","
","
","""event"",""trial"",""time""
""fullscreenenter"",""1"",""2300""
","""event"",""trial"",""time""
""fullscreenexit"",""2"",""4327""
",,55.5,run_exp/static/images/task_images/land.jpg,76,,,,,,,,,,,,1,,,,,,,,,,,,
quiz_instruc,46,235572,0.0-16.0-0.0,"""event"",""trial"",""time""
""fullscreenenter"",""1"",""2300""
""fullscreenexit"",""2"",""4327""
","
","
","""event"",""trial"",""time""
""fullscreenenter"",""1"",""2300""
","""event"",""trial"",""time""
""fullscreenexit"",""2"",""4327""
",,10788.5,run_exp/static/audio/clip_10_quiz.m4a,,,,,,,0,,,,,,,,,,,,,,,,,,
instruc_repeat,47,278333,0.0-16.0-1.0,"""event"",""trial"",""time""
""fullscreenenter"",""1"",""2300""
""fullscreenexit"",""2"",""4327""
","
","
","""event"",""trial"",""time""
""fullscreenenter"",""1"",""2300""
","""event"",""trial"",""time""
""fullscreenexit"",""2"",""4327""
",,null,"<p> Are you ready to play a practice game? </p> <p>In this practice game, you'll be digging up barrels of gems. But, in the real game, you'll be digging up the gems themselves. </p>",null,"<p>In this game, your goal is to collect as many gems as you can. That’s how you will win bonus money. </p> <p>The entire game will last 20 minutes no matter how many gems you collect or how many planets you visit. </p><p>To stay on a planet and dig again, press the letter A on your keyboard. To leave for a new planet, press the letter L.</p><p>The more you dig on a planet, the fewer gems you’ll get with each dig which is why you might consider leaving for a new planet. </p><p>When you arrive at a new planet, you’ll be greeted by an alien. What the alien looks like does not tell you anything about how much treasure is on the planet. </p>",,,,,,,,,,,,,,,,,,,,,,,
instruc_repeat_continue,48,280189,0.0-16.0-2.0,"""event"",""trial"",""time""
""fullscreenenter"",""1"",""2300""
""fullscreenexit"",""2"",""4327""
","
","
","""event"",""trial"",""time""
""fullscreenenter"",""1"",""2300""
","""event"",""trial"",""time""
""fullscreenexit"",""2"",""4327""
",,1854.3,"<p> Are you ready to play a practice game? </p> <p>In this practice game, you'll be digging up barrels of gems. But, in the real game, you'll be digging up the gems themselves. </p>",,,,,,,0,,,,,,,,,,,,,,,,,,
quiz_q_1_ask,49,287814,0.0-16.0-3.0,"""event"",""trial"",""time""
""fullscreenenter"",""1"",""2300""
""fullscreenexit"",""2"",""4327""
","
","
","""event"",""trial"",""time""
""fullscreenenter"",""1"",""2300""
","""event"",""trial"",""time""
""fullscreenexit"",""2"",""4327""
",,7623.6,run_exp/static/audio/clip_11_q1_ask.m4a,,,,,,,2,,,,,,,,,,,,,,,,,,
quiz_q_1_fb_correct,50,291654,0.0-17.0-0.0,"""event"",""trial"",""time""
""fullscreenenter"",""1"",""2300""
""fullscreenexit"",""2"",""4327""
","
","
","""event"",""trial"",""time""
""fullscreenenter"",""1"",""2300""
","""event"",""trial"",""time""
""fullscreenexit"",""2"",""4327""
",,null,run_exp/static/audio/clip_12_q1_correct.m4a,null,<p>That’s correct. You win extra money by collecting more gems.</p>,,,,,,,,,,,,,,,,,,,,,,,
quiz_q_2_ask,51,296638,0.0-17.0-1.0,"""event"",""trial"",""time""
""fullscreenenter"",""1"",""2300""
""fullscreenexit"",""2"",""4327""
","
","
","""event"",""trial"",""time""
""fullscreenenter"",""1"",""2300""
","""event"",""trial"",""time""
""fullscreenexit"",""2"",""4327""
",,4981.3,run_exp/static/audio/clip_14_q2_ask.m4a,,,,,,,1,,,,,,,,,,,,,,,,,,
quiz_q_2_fb_correct,52,300634,0.0-18.0-0.0,"""event"",""trial"",""time""
""fullscreenenter"",""1"",""2300""
""fullscreenexit"",""2"",""4327""
","
","
","""event"",""trial"",""time""
""fullscreenenter"",""1"",""2300""
","""event"",""trial"",""time""
""fullscreenexit"",""2"",""4327""
",,null,run_exp/static/audio/clip_15_q2_correct.m4a,null,<p>That’s correct. The experiment is 20 minutes no matter what.</p>,,,,,,,,,,,,,,,,,,,,,,,
quiz_q_3_ask,53,303614,0.0-18.0-1.0,"""event"",""trial"",""time""
""fullscreenenter"",""1"",""2300""
""fullscreenexit"",""2"",""4327""
","
","
","""event"",""trial"",""time""
""fullscreenenter"",""1"",""2300""
","""event"",""trial"",""time""
""fullscreenexit"",""2"",""4327""
",,2978.6,run_exp/static/audio/clip_17_q3_ask.m4a,,,,,,,1,,,,,,,,,,,,,,,,,,
quiz_q_3_fb_correct,54,307594,0.0-19.0-0.0,"""event"",""trial"",""time""
""fullscreenenter"",""1"",""2300""
""fullscreenexit"",""2"",""4327""
","
","
","""event"",""trial"",""time""
""fullscreenenter"",""1"",""2300""
","""event"",""trial"",""time""
""fullscreenexit"",""2"",""4327""
",,null,run_exp/static/audio/clip_18_q3_correct.m4a,null,<p> That’s correct. You press the letter L to travel to a new planet.</p>,,,,,,,,,,,,,,,,,,,,,,,
quiz_q_4_ask,55,311599,0.0-19.0-1.0,"""event"",""trial"",""time""
""fullscreenenter"",""1"",""2300""
""fullscreenexit"",""2"",""4327""
","
","
","""event"",""trial"",""time""
""fullscreenenter"",""1"",""2300""
","""event"",""trial"",""time""
""fullscreenexit"",""2"",""4327""
",,4002.6,run_exp/static/audio/clip_20_q4_ask.m4a,,,,,,,0,,,,,,,,,,,,,,,,,,
quiz_q_4_fb_correct,56,316915,0.0-20.0-0.0,"""event"",""trial"",""time""
""fullscreenenter"",""1"",""2300""
""fullscreenexit"",""2"",""4327""
","
","
","""event"",""trial"",""time""
""fullscreenenter"",""1"",""2300""
","""event"",""trial"",""time""
""fullscreenexit"",""2"",""4327""
",,null,run_exp/static/audio/clip_21_q4_correct.m4a,null,<p> That’s correct. The more you dig on a planet the fewer gems you’ll get with each dig. </p>,,,,,,,,,,,,,,,,,,,,,,,
quiz_q_5_ask,57,321847,0.0-20.0-1.0,"""event"",""trial"",""time""
""fullscreenenter"",""1"",""2300""
""fullscreenexit"",""2"",""4327""
","
","
","""event"",""trial"",""time""
""fullscreenenter"",""1"",""2300""
","""event"",""trial"",""time""
""fullscreenexit"",""2"",""4327""
",,4930.4,run_exp/static/audio/clip_23_q5_ask.m4a,,,,,,,1,,,,,,,,,,,,,,,,,,
quiz_q_5_fb_correct,58,326855,0.0-21.0-0.0,"""event"",""trial"",""time""
""fullscreenenter"",""1"",""2300""
""fullscreenexit"",""2"",""4327""
","
","
","""event"",""trial"",""time""
""fullscreenenter"",""1"",""2300""
","""event"",""trial"",""time""
""fullscreenexit"",""2"",""4327""
",,null,run_exp/static/audio/clip_24_q5_correct.m4a,null,<p> That’s correct. The alien tells you nothing about how much treasure is on the planet.</p>,,,,,,,,,,,,,,,,,,,,,,,
quiz_correct,59,330315,0.0-22.0-0.0,"""event"",""trial"",""time""
""fullscreenenter"",""1"",""2300""
""fullscreenexit"",""2"",""4327""
","
","
","""event"",""trial"",""time""
""fullscreenenter"",""1"",""2300""
","""event"",""trial"",""time""
""fullscreenexit"",""2"",""4327""
",,null,run_exp/static/audio/clip_26_correct_quiz.m4a,null,,,,,,,,,,,,,,,,,,,,,,,,
quiz_correct_continue,60,336079,0.0-22.0-1.0,"""event"",""trial"",""time""
""fullscreenenter"",""1"",""2300""
""fullscreenexit"",""2"",""4327""
","
","
","""event"",""trial"",""time""
""fullscreenenter"",""1"",""2300""
","""event"",""trial"",""time""
""fullscreenexit"",""2"",""4327""
",,5763.5,<p>Good job! You're now ready to move on to the real game!</p>,,,,,,,0,,,,,,,,,,,,,,,,,,
audio-keyboard-response,61,346195,0.0-22.0-2.0,"""event"",""trial"",""time""
""fullscreenenter"",""1"",""2300""
""fullscreenexit"",""2"",""4327""
","
","
","""event"",""trial"",""time""
""fullscreenenter"",""1"",""2300""
","""event"",""trial"",""time""
""fullscreenexit"",""2"",""4327""
",,null,run_exp/static/audio/clip_28_real_game.m4a,null,,,,,,,,,,,,,,,,,,,,,,,,
instruc_begin_exp_contine,62,348007,0.0-22.0-3.0,"""event"",""trial"",""time""
""fullscreenenter"",""1"",""2300""
""fullscreenexit"",""2"",""4327""
","
","
","""event"",""trial"",""time""
""fullscreenenter"",""1"",""2300""
","""event"",""trial"",""time""
""fullscreenexit"",""2"",""4327""
",,1810.3,"<p>Now that you know how  to dig for space treasure and travel to new planets,you can start exploring! </p><p>Do you want to go over the instructions again or get started with the real game?</p>",,,,,,,1,,,,,,1,,,,,,,,,,,,
alien_welcome,63,353009,0.0-23.0-0.0,"""event"",""trial"",""time""
""fullscreenenter"",""1"",""2300""
""fullscreenexit"",""2"",""4327""
","
","
","""event"",""trial"",""time""
""fullscreenenter"",""1"",""2300""
","""event"",""trial"",""time""
""fullscreenexit"",""2"",""4327""
",,null,run_exp/static/images/task_images/aliens/old_aliens/planet/alien_planet-7.jpg,null,,,,,,,,,,,,,7,"7,24,57,27,76,47,49,37,54,13,75,25,26,3,56,78,2,69,14,34,33,32,10,45,22,73,67,48,63,20,59,51,74,77,46,71,4,44,64,38,19,60,53,23,29,30,80,36,41,18,65,62,9,31,11,16,58",,,,,,,,,,
land,64,353512,0.0-23.0-1.0,"""event"",""trial"",""time""
""fullscreenenter"",""1"",""2300""
""fullscreenexit"",""2"",""4327""
","
","
","""event"",""trial"",""time""
""fullscreenenter"",""1"",""2300""
","""event"",""trial"",""time""
""fullscreenexit"",""2"",""4327""
",,null,run_exp/static/images/task_images/land.jpg,null,,,,,,,97,,,1,,,,,,,,,,,,,,
dig,65,355517,0.0-23.0-2.0,"""event"",""trial"",""time""
""fullscreenenter"",""1"",""2300""
""fullscreenexit"",""2"",""4327""
","
","
","""event"",""trial"",""time""
""fullscreenenter"",""1"",""2300""
","""event"",""trial"",""time""
""fullscreenexit"",""2"",""4327""
",,,,,,,,,,,,"[{""stimulus"":""run_exp/static/images/task_images/dig.jpg"",""time"":0.3999999761581421},{""stimulus"":""run_exp/static/images/task_images/land.jpg"",""time"":669.2999999821186},{""stimulus"":""run_exp/static/images/task_images/dig.jpg"",""time"":1336}]",[],1,,,,,,,,,,,,,,
harvest,66,356519,0.0-23.0-3.0,"""event"",""trial"",""time""
""fullscreenenter"",""1"",""2300""
""fullscreenexit"",""2"",""4327""
","
","
","""event"",""trial"",""time""
""fullscreenenter"",""1"",""2300""
","""event"",""trial"",""time""
""fullscreenexit"",""2"",""4327""
",,null,run_exp/static/images/task_images/gems/97.jpg,null,,,,,,,14,,,1,,,,,97,0.146552868,0.144329897,,,,,,,
decision,67,358164,0.0-23.0-4.0,"""event"",""trial"",""time""
""fullscreenenter"",""1"",""2300""
""fullscreenexit"",""2"",""4327""
","
","
","""event"",""trial"",""time""
""fullscreenenter"",""1"",""2300""
","""event"",""trial"",""time""
""fullscreenexit"",""2"",""4327""
",,1643.6,run_exp/static/images/task_images/land.jpg,65,,,,,,,14,,,1,,,,,,,,10156,1,0,FALSE,,,
dig,68,359527,0.0-24.0-0.0,"""event"",""trial"",""time""
""fullscreenenter"",""1"",""2300""
""fullscreenexit"",""2"",""4327""
","
","
","""event"",""trial"",""time""
""fullscreenenter"",""1"",""2300""
","""event"",""trial"",""time""
""fullscreenexit"",""2"",""4327""
",,,,,,,,,,,,"[{""stimulus"":""run_exp/static/images/task_images/dig.jpg"",""time"":0.09999999403953552},{""stimulus"":""run_exp/static/images/task_images/land.jpg"",""time"":454.5},{""stimulus"":""run_exp/static/images/task_images/dig.jpg"",""time"":905.5999999940395}]",[],1,,,,,,,,,,,,,,
harvest,69,360529,0.0-24.0-1.0,"""event"",""trial"",""time""
""fullscreenenter"",""1"",""2300""
""fullscreenexit"",""2"",""4327""
","
","
","""event"",""trial"",""time""
""fullscreenenter"",""1"",""2300""
","""event"",""trial"",""time""
""fullscreenexit"",""2"",""4327""
",,null,run_exp/static/images/task_images/gems/14.jpg,null,,,,,,,2,,,1,,,,,14,0.158054619,0.142857143,,,,,,,
decision,70,361786,0.0-24.0-2.0,"""event"",""trial"",""time""
""fullscreenenter"",""1"",""2300""
""fullscreenexit"",""2"",""4327""
","
","
","""event"",""trial"",""time""
""fullscreenenter"",""1"",""2300""
","""event"",""trial"",""time""
""fullscreenexit"",""2"",""4327""
",,1254.7,run_exp/static/images/task_images/land.jpg,76,,,,,,,2,,,1,,,,,,,,13778,1,1,TRUE,,,
travel,71,370528,0.0-25.0-0.0,"""event"",""trial"",""time""
""fullscreenenter"",""1"",""2300""
""fullscreenexit"",""2"",""4327""
","
","
","""event"",""trial"",""time""
""fullscreenenter"",""1"",""2300""
","""event"",""trial"",""time""
""fullscreenexit"",""2"",""4327""
",,,,,,,,,,,,"[{""stimulus"":""run_exp/static/images/task_images/rocket-01.jpg"",""time"":0.09999999403953552},{""stimulus"":""run_exp/static/images/task_images/rocket-02.jpg"",""time"":972},{""stimulus"":""run_exp/static/images/task_images/rocket-03.jpg"",""time"":1944.199999988079},{""stimulus"":""run_exp/static/images/task_images/rocket-04.jpg"",""time"":2915},{""stimulus"":""run_exp/static/images/task_images/rocket-05.jpg"",""time"":3885.9000000059605},{""stimulus"":""run_exp/static/images/task_images/rocket-06.jpg"",""time"":4856.9000000059605},{""stimulus"":""run_exp/static/images/task_images/rocket-07.jpg"",""time"":5827.5999999940395},{""stimulus"":""run_exp/static/images/task_images/rocket-08.jpg"",""time"":6798.699999988079},{""stimulus"":""run_exp/static/images/task_images/rocket-09.jpg"",""time"":7770}]",[],1,,,,,,,,,,,,,,
alien_welcome,72,375531,0.0-25.0-1.0,"""event"",""trial"",""time""
""fullscreenenter"",""1"",""2300""
""fullscreenexit"",""2"",""4327""
","
","
","""event"",""trial"",""time""
""fullscreenenter"",""1"",""2300""
","""event"",""trial"",""time""
""fullscreenexit"",""2"",""4327""
",,null,run_exp/static/images/task_images/aliens/old_aliens/planet/alien_planet-24.jpg,null,,,,,,,,,,,,,24,"7,24,57,27,76,47,49,37,54,13,75,25,26,3,56,78,2,69,14,34,33,32,10,45,22,73,67,48,63,20,59,51,74,77,46,71,4,44,64,38,19,60,53,23,29,30,80,36,41,18,65,62,9,31,11,16,58",,,,,,,,,,
land,73,376033,0.0-25.0-2.0,"""event"",""trial"",""time""
""fullscreenenter"",""1"",""2300""
""fullscreenexit"",""2"",""4327""
","
","
","""event"",""trial"",""time""
""fullscreenenter"",""1"",""2300""
","""event"",""trial"",""time""
""fullscreenexit"",""2"",""4327""
",,null,run_exp/static/images/task_images/land.jpg,null,,,,,,,90,,,2,,,,,,,,,,,,,,
dig,74,378039,0.0-25.0-3.0,"""event"",""trial"",""time""
""fullscreenenter"",""1"",""2300""
""fullscreenexit"",""2"",""4327""
","
","
","""event"",""trial"",""time""
""fullscreenenter"",""1"",""2300""
","""event"",""trial"",""time""
""fullscreenexit"",""2"",""4327""
",,,,,,,,,,,,"[{""stimulus"":""run_exp/static/images/task_images/dig.jpg"",""time"":0.5},{""stimulus"":""run_exp/static/images/task_images/land.jpg"",""time"":669.6999999880791},{""stimulus"":""run_exp/static/images/task_images/dig.jpg"",""time"":1336.3999999761581}]",[],2,,,,,,,,,,,,,,
harvest,75,379041,0.0-25.0-4.0,"""event"",""trial"",""time""
""fullscreenenter"",""1"",""2300""
""fullscreenexit"",""2"",""4327""
","
","
","""event"",""trial"",""time""
""fullscreenenter"",""1"",""2300""
","""event"",""trial"",""time""
""fullscreenexit"",""2"",""4327""
",,null,run_exp/static/images/task_images/gems/90.jpg,null,,,,,,,18,,,2,,,,,90,0.203026191,0.2,,,,,,,
decision,76,381156,0.0-25.0-5.0,"""event"",""trial"",""time""
""fullscreenenter"",""1"",""2300""
""fullscreenexit"",""2"",""4327""
","
","
","""event"",""trial"",""time""
""fullscreenenter"",""1"",""2300""
","""event"",""trial"",""time""
""fullscreenexit"",""2"",""4327""
",,2113,run_exp/static/images/task_images/land.jpg,76,,,,,,,18,,,2,,,,,,,,33148,1,0,TRUE,,,
travel,77,389047,0.0-26.0-0.0,"""event"",""trial"",""time""
""fullscreenenter"",""1"",""2300""
""fullscreenexit"",""2"",""4327""
","
","
","""event"",""trial"",""time""
""fullscreenenter"",""1"",""2300""
","""event"",""trial"",""time""
""fullscreenexit"",""2"",""4327""
",,,,,,,,,,,,"[{""stimulus"":""run_exp/static/images/task_images/rocket-01.jpg"",""time"":0.20000001788139343},{""stimulus"":""run_exp/static/images/task_images/rocket-02.jpg"",""time"":877.5},{""stimulus"":""run_exp/static/images/task_images/rocket-03.jpg"",""time"":1753.0999999940395},{""stimulus"":""run_exp/static/images/task_images/rocket-04.jpg"",""time"":2629.0999999940395},{""stimulus"":""run_exp/static/images/task_images/rocket-05.jpg"",""time"":3505.7000000178814},{""stimulus"":""run_exp/static/images/task_images/rocket-06.jpg"",""time"":4381.300000011921},{""stimulus"":""run_exp/static/images/task_images/rocket-07.jpg"",""time"":5258.5},{""stimulus"":""run_exp/static/images/task_images/rocket-08.jpg"",""time"":6133.300000011921},{""stimulus"":""run_exp/static/images/task_images/rocket-09.jpg"",""time"":7020.700000017881}]",[],2,,,,,,,,,,,,,,
alien_welcome,78,394049,0.0-26.0-1.0,"""event"",""trial"",""time""
""fullscreenenter"",""1"",""2300""
""fullscreenexit"",""2"",""4327""
","
","
","""event"",""trial"",""time""
""fullscreenenter"",""1"",""2300""
","""event"",""trial"",""time""
""fullscreenexit"",""2"",""4327""
",,null,run_exp/static/images/task_images/aliens/old_aliens/planet/alien_planet-57.jpg,null,,,,,,,,,,,,,57,"7,24,57,27,76,47,49,37,54,13,75,25,26,3,56,78,2,69,14,34,33,32,10,45,22,73,67,48,63,20,59,51,74,77,46,71,4,44,64,38,19,60,53,23,29,30,80,36,41,18,65,62,9,31,11,16,58",,,,,,,,,,
land,79,394552,0.0-26.0-2.0,"""event"",""trial"",""time""
""fullscreenenter"",""1"",""2300""
""fullscreenexit"",""2"",""4327""
","
","
","""event"",""trial"",""time""
""fullscreenenter"",""1"",""2300""
","""event"",""trial"",""time""
""fullscreenexit"",""2"",""4327""
",,null,run_exp/static/images/task_images/land.jpg,null,,,,,,,98,,,3,,,,,,,,,,,,,,
dig,80,396558,0.0-26.0-3.0,"""event"",""trial"",""time""
""fullscreenenter"",""1"",""2300""
""fullscreenexit"",""2"",""4327""
","
","
","""event"",""trial"",""time""
""fullscreenenter"",""1"",""2300""
","""event"",""trial"",""time""
""fullscreenexit"",""2"",""4327""
",,,,,,,,,,,,"[{""stimulus"":""run_exp/static/images/task_images/dig.jpg"",""time"":0.3999999761581421},{""stimulus"":""run_exp/static/images/task_images/land.jpg"",""time"":669.6999999880791},{""stimulus"":""run_exp/static/images/task_images/dig.jpg"",""time"":1336.5}]",[],3,,,,,,,,,,,,,,
harvest,81,397560,0.0-26.0-4.0,"""event"",""trial"",""time""
""fullscreenenter"",""1"",""2300""
""fullscreenexit"",""2"",""4327""
","
","
","""event"",""trial"",""time""
""fullscreenenter"",""1"",""2300""
","""event"",""trial"",""time""
""fullscreenexit"",""2"",""4327""
",,null,run_exp/static/images/task_images/gems/98.jpg,null,,,,,,,44,,,3,,,,,98,0.447403133,0.448979592,,,,,,,
decision,82,398763,0.0-26.0-5.0,"""event"",""trial"",""time""
""fullscreenenter"",""1"",""2300""
""fullscreenexit"",""2"",""4327""
","
","
","""event"",""trial"",""time""
""fullscreenenter"",""1"",""2300""
","""event"",""trial"",""time""
""fullscreenexit"",""2"",""4327""
",,1201.1,run_exp/static/images/task_images/land.jpg,65,,,,,,,44,,,3,,,,,,,,50755,1,0,FALSE,,,
dig,83,400563,0.0-27.0-0.0,"""event"",""trial"",""time""
""fullscreenenter"",""1"",""2300""
""fullscreenexit"",""2"",""4327""
","
","
","""event"",""trial"",""time""
""fullscreenenter"",""1"",""2300""
","""event"",""trial"",""time""
""fullscreenexit"",""2"",""4327""
",,,,,,,,,,,,"[{""stimulus"":""run_exp/static/images/task_images/dig.jpg"",""time"":0.09999999403953552},{""stimulus"":""run_exp/static/images/task_images/land.jpg"",""time"":601},{""stimulus"":""run_exp/static/images/task_images/dig.jpg"",""time"":1198.800000011921}]",[],3,,,,,,,,,,,,,,
harvest,84,401565,0.0-27.0-1.0,"""event"",""trial"",""time""
""fullscreenenter"",""1"",""2300""
""fullscreenexit"",""2"",""4327""
","
","
","""event"",""trial"",""time""
""fullscreenenter"",""1"",""2300""
","""event"",""trial"",""time""
""fullscreenexit"",""2"",""4327""
",,null,run_exp/static/images/task_images/gems/44.jpg,null,,,,,,,25,,,3,,,,,44,0.569775856,0.568181818,,,,,,,
decision,85,401861,0.0-27.0-2.0,"""event"",""trial"",""time""
""fullscreenenter"",""1"",""2300""
""fullscreenexit"",""2"",""4327""
","
","
","""event"",""trial"",""time""
""fullscreenenter"",""1"",""2300""
","""event"",""trial"",""time""
""fullscreenexit"",""2"",""4327""
",,293.6,run_exp/static/images/task_images/land.jpg,76,,,,,,,25,,,3,,,,,,,,53853,1,1,TRUE,,,
travel,86,411583,0.0-28.0-0.0,"""event"",""trial"",""time""
""fullscreenenter"",""1"",""2300""
""fullscreenexit"",""2"",""4327""
","
","
","""event"",""trial"",""time""
""fullscreenenter"",""1"",""2300""
","""event"",""trial"",""time""
""fullscreenexit"",""2"",""4327""
",,,,,,,,,,,,"[{""stimulus"":""run_exp/static/images/task_images/rocket-01.jpg"",""time"":0},{""stimulus"":""run_exp/static/images/task_images/rocket-02.jpg"",""time"":1079.300000011921},{""stimulus"":""run_exp/static/images/task_images/rocket-03.jpg"",""time"":2157.5},{""stimulus"":""run_exp/static/images/task_images/rocket-04.jpg"",""time"":3235.300000011921},{""stimulus"":""run_exp/static/images/task_images/rocket-05.jpg"",""time"":4313.100000023842},{""stimulus"":""run_exp/static/images/task_images/rocket-06.jpg"",""time"":5391.600000023842},{""stimulus"":""run_exp/static/images/task_images/rocket-07.jpg"",""time"":6469.600000023842},{""stimulus"":""run_exp/static/images/task_images/rocket-08.jpg"",""time"":7547.600000023842},{""stimulus"":""run_exp/static/images/task_images/rocket-09.jpg"",""time"":8626.700000017881}]",[],3,,,,,,,,,,,,,,
alien_welcome,87,416586,0.0-28.0-1.0,"""event"",""trial"",""time""
""fullscreenenter"",""1"",""2300""
""fullscreenexit"",""2"",""4327""
","
","
","""event"",""trial"",""time""
""fullscreenenter"",""1"",""2300""
","""event"",""trial"",""time""
""fullscreenexit"",""2"",""4327""
",,null,run_exp/static/images/task_images/aliens/old_aliens/planet/alien_planet-27.jpg,null,,,,,,,,,,,,,27,"7,24,57,27,76,47,49,37,54,13,75,25,26,3,56,78,2,69,14,34,33,32,10,45,22,73,67,48,63,20,59,51,74,77,46,71,4,44,64,38,19,60,53,23,29,30,80,36,41,18,65,62,9,31,11,16,58",,,,,,,,,,
land,88,417088,0.0-28.0-2.0,"""event"",""trial"",""time""
""fullscreenenter"",""1"",""2300""
""fullscreenexit"",""2"",""4327""
","
","
","""event"",""trial"",""time""
""fullscreenenter"",""1"",""2300""
","""event"",""trial"",""time""
""fullscreenexit"",""2"",""4327""
",,null,run_exp/static/images/task_images/land.jpg,null,,,,,,,103,,,4,,,,,,,,,,,,,,
dig,89,419093,0.0-28.0-3.0,"""event"",""trial"",""time""
""fullscreenenter"",""1"",""2300""
""fullscreenexit"",""2"",""4327""
","
","
","""event"",""trial"",""time""
""fullscreenenter"",""1"",""2300""
","""event"",""trial"",""time""
""fullscreenexit"",""2"",""4327""
",,,,,,,,,,,,"[{""stimulus"":""run_exp/static/images/task_images/dig.jpg"",""time"":0.5},{""stimulus"":""run_exp/static/images/task_images/land.jpg"",""time"":668.3999999761581},{""stimulus"":""run_exp/static/images/task_images/dig.jpg"",""time"":1336.2999999821186}]",[],4,,,,,,,,,,,,,,
harvest,90,420095,0.0-28.0-4.0,"""event"",""trial"",""time""
""fullscreenenter"",""1"",""2300""
""fullscreenexit"",""2"",""4327""
","
","
","""event"",""trial"",""time""
""fullscreenenter"",""1"",""2300""
","""event"",""trial"",""time""
""fullscreenexit"",""2"",""4327""
",,null,run_exp/static/images/task_images/gems/103.jpg,null,,,,,,,48,,,4,,,,,103,0.468512115,0.466019417,,,,,,,
decision,91,420630,0.0-28.0-5.0,"""event"",""trial"",""time""
""fullscreenenter"",""1"",""2300""
""fullscreenexit"",""2"",""4327""
","
","
","""event"",""trial"",""time""
""fullscreenenter"",""1"",""2300""
","""event"",""trial"",""time""
""fullscreenexit"",""2"",""4327""
",,532.4,run_exp/static/images/task_images/land.jpg,65,,,,,,,48,,,4,,,,,,,,72622,1,0,FALSE,,,
dig,92,423103,0.0-29.0-0.0,"""event"",""trial"",""time""
""fullscreenenter"",""1"",""2300""
""fullscreenexit"",""2"",""4327""
","
","
","""event"",""trial"",""time""
""fullscreenenter"",""1"",""2300""
","""event"",""trial"",""time""
""fullscreenexit"",""2"",""4327""
",,,,,,,,,,,,"[{""stimulus"":""run_exp/static/images/task_images/dig.jpg"",""time"":0.4000000059604645},{""stimulus"":""run_exp/static/images/task_images/land.jpg"",""time"":824.4000000059605},{""stimulus"":""run_exp/static/images/task_images/dig.jpg"",""time"":1646.800000011921}]",[],4,,,,,,,,,,,,,,
harvest,93,424105,0.0-29.0-1.0,"""event"",""trial"",""time""
""fullscreenenter"",""1"",""2300""
""fullscreenexit"",""2"",""4327""
","
","
","""event"",""trial"",""time""
""fullscreenenter"",""1"",""2300""
","""event"",""trial"",""time""
""fullscreenexit"",""2"",""4327""
",,null,run_exp/static/images/task_images/gems/48.jpg,null,,,,,,,25,,,4,,,,,48,0.524008809,0.520833333,,,,,,,
decision,94,424214,0.0-29.0-2.0,"""event"",""trial"",""time""
""fullscreenenter"",""1"",""2300""
""fullscreenexit"",""2"",""4327""
","
","
","""event"",""trial"",""time""
""fullscreenenter"",""1"",""2300""
","""event"",""trial"",""time""
""fullscreenexit"",""2"",""4327""
",,106.4,run_exp/static/images/task_images/land.jpg,76,,,,,,,25,,,4,,,,,,,,76206,1,1,TRUE,,,
travel,95,434108,0.0-30.0-0.0,"""event"",""trial"",""time""
""fullscreenenter"",""1"",""2300""
""fullscreenexit"",""2"",""4327""
","
","
","""event"",""trial"",""time""
""fullscreenenter"",""1"",""2300""
","""event"",""trial"",""time""
""fullscreenexit"",""2"",""4327""
",,,,,,,,,,,,"[{""stimulus"":""run_exp/static/images/task_images/rocket-01.jpg"",""time"":0.09999999403953552},{""stimulus"":""run_exp/static/images/task_images/rocket-02.jpg"",""time"":1100.800000011921},{""stimulus"":""run_exp/static/images/task_images/rocket-03.jpg"",""time"":2199.5},{""stimulus"":""run_exp/static/images/task_images/rocket-04.jpg"",""time"":3298.5999999940395},{""stimulus"":""run_exp/static/images/task_images/rocket-05.jpg"",""time"":4398},{""stimulus"":""run_exp/static/images/task_images/rocket-06.jpg"",""time"":5499.5},{""stimulus"":""run_exp/static/images/task_images/rocket-07.jpg"",""time"":6603.4000000059605},{""stimulus"":""run_exp/static/images/task_images/rocket-08.jpg"",""time"":7695.4000000059605},{""stimulus"":""run_exp/static/images/task_images/rocket-09.jpg"",""time"":8793.5}]",[],4,,,,,,,,,,,,,,
alien_welcome,96,439113,0.0-30.0-1.0,"""event"",""trial"",""time""
""fullscreenenter"",""1"",""2300""
""fullscreenexit"",""2"",""4327""
","
","
","""event"",""trial"",""time""
""fullscreenenter"",""1"",""2300""
","""event"",""trial"",""time""
""fullscreenexit"",""2"",""4327""
",,null,run_exp/static/images/task_images/aliens/old_aliens/planet/alien_planet-76.jpg,null,,,,,,,,,,,,,76,"7,24,57,27,76,47,49,37,54,13,75,25,26,3,56,78,2,69,14,34,33,32,10,45,22,73,67,48,63,20,59,51,74,77,46,71,4,44,64,38,19,60,53,23,29,30,80,36,41,18,65,62,9,31,11,16,58",,,,,,,,,,
land,97,439617,0.0-30.0-2.0,"""event"",""trial"",""time""
""fullscreenenter"",""1"",""2300""
""fullscreenexit"",""2"",""4327""
","
","
","""event"",""trial"",""time""
""fullscreenenter"",""1"",""2300""
","""event"",""trial"",""time""
""fullscreenexit"",""2"",""4327""
",,null,run_exp/static/images/task_images/land.jpg,null,,,,,,,96,,,5,,,,,,,,,,,,,,
dig,98,441622,0.0-30.0-3.0,"""event"",""trial"",""time""
""fullscreenenter"",""1"",""2300""
""fullscreenexit"",""2"",""4327""
","
","
","""event"",""trial"",""time""
""fullscreenenter"",""1"",""2300""
","""event"",""trial"",""time""
""fullscreenexit"",""2"",""4327""
",,,,,,,,,,,,"[{""stimulus"":""run_exp/static/images/task_images/dig.jpg"",""time"":0.30000001192092896},{""stimulus"":""run_exp/static/images/task_images/land.jpg"",""time"":669.5999999940395},{""stimulus"":""run_exp/static/images/task_images/dig.jpg"",""time"":1336}]",[],5,,,,,,,,,,,,,,
harvest,99,442624,0.0-30.0-4.0,"""event"",""trial"",""time""
""fullscreenenter"",""1"",""2300""
""fullscreenexit"",""2"",""4327""
","
","
","""event"",""trial"",""time""
""fullscreenenter"",""1"",""2300""
","""event"",""trial"",""time""
""fullscreenexit"",""2"",""4327""
",,null,run_exp/static/images/task_images/gems/96.jpg,null,,,,,,,41,,,5,,,,,96,0.428397493,0.427083333,,,,,,,
decision,100,443735,0.0-30.0-5.0,"""event"",""trial"",""time""
""fullscreenenter"",""1"",""2300""
""fullscreenexit"",""2"",""4327""
","
","
","""event"",""trial"",""time""
""fullscreenenter"",""1"",""2300""
","""event"",""trial"",""time""
""fullscreenexit"",""2"",""4327""
",,1108.7,run_exp/static/images/task_images/land.jpg,76,,,,,,,41,,,5,,,,,,,,95727,1,0,TRUE,,,
travel,101,452621,0.0-31.0-0.0,"""event"",""trial"",""time""
""fullscreenenter"",""1"",""2300""
""fullscreenexit"",""2"",""4327""
","
","
","""event"",""trial"",""time""
""fullscreenenter"",""1"",""2300""
","""event"",""trial"",""time""
""fullscreenexit"",""2"",""4327""
",,,,,,,,,,,,"[{""stimulus"":""run_exp/static/images/task_images/rocket-01.jpg"",""time"":0},{""stimulus"":""run_exp/static/images/task_images/rocket-02.jpg"",""time"":988.4000000059605},{""stimulus"":""run_exp/static/images/task_images/rocket-03.jpg"",""time"":1975.5999999940395},{""stimulus"":""run_exp/static/images/task_images/rocket-04.jpg"",""time"":2962.5},{""stimulus"":""run_exp/static/images/task_images/rocket-05.jpg"",""time"":3949.9000000059605},{""stimulus"":""run_exp/static/images/task_images/rocket-06.jpg"",""time"":4936.299999982119},{""stimulus"":""run_exp/static/images/task_images/rocket-07.jpg"",""time"":5924.0999999940395},{""stimulus"":""run_exp/static/images/task_images/rocket-08.jpg"",""time"":6911.299999982119},{""stimulus"":""run_exp/static/images/task_images/rocket-09.jpg"",""time"":7897.9000000059605}]",[],5,,,,,,,,,,,,,,
alien_welcome,102,457624,0.0-31.0-1.0,"""event"",""trial"",""time""
""fullscreenenter"",""1"",""2300""
""fullscreenexit"",""2"",""4327""
","
","
","""event"",""trial"",""time""
""fullscreenenter"",""1"",""2300""
","""event"",""trial"",""time""
""fullscreenexit"",""2"",""4327""
",,null,run_exp/static/images/task_images/aliens/old_aliens/planet/alien_planet-47.jpg,null,,,,,,,,,,,,,47,"7,24,57,27,76,47,49,37,54,13,75,25,26,3,56,78,2,69,14,34,33,32,10,45,22,73,67,48,63,20,59,51,74,77,46,71,4,44,64,38,19,60,53,23,29,30,80,36,41,18,65,62,9,31,11,16,58",,,,,,,,,,
land,103,458127,0.0-31.0-2.0,"""event"",""trial"",""time""
""fullscreenenter"",""1"",""2300""
""fullscreenexit"",""2"",""4327""
","
","
","""event"",""trial"",""time""
""fullscreenenter"",""1"",""2300""
","""event"",""trial"",""time""
""fullscreenexit"",""2"",""4327""
",,null,run_exp/static/images/task_images/land.jpg,null,,,,,,,94,,,6,,,,,,,,,,,,,,
dig,104,460132,0.0-31.0-3.0,"""event"",""trial"",""time""
""fullscreenenter"",""1"",""2300""
""fullscreenexit"",""2"",""4327""
","
","
","""event"",""trial"",""time""
""fullscreenenter"",""1"",""2300""
","""event"",""trial"",""time""
""fullscreenexit"",""2"",""4327""
",,,,,,,,,,,,"[{""stimulus"":""run_exp/static/images/task_images/dig.jpg"",""time"":0.30000001192092896},{""stimulus"":""run_exp/static/images/task_images/land.jpg"",""time"":668.8000000119209},{""stimulus"":""run_exp/static/images/task_images/dig.jpg"",""time"":1337.1000000238419}]",[],6,,,,,,,,,,,,,,
harvest,105,461135,0.0-31.0-4.0,"""event"",""trial"",""time""
""fullscreenenter"",""1"",""2300""
""fullscreenexit"",""2"",""4327""
","
","
","""event"",""trial"",""time""
""fullscreenenter"",""1"",""2300""
","""event"",""trial"",""time""
""fullscreenexit"",""2"",""4327""
",,null,run_exp/static/images/task_images/gems/94.jpg,null,,,,,,,76,,,6,,,,,94,0.806214741,0.808510638,,,,,,,
decision,106,461663,0.0-31.0-5.0,"""event"",""trial"",""time""
""fullscreenenter"",""1"",""2300""
""fullscreenexit"",""2"",""4327""
","
","
","""event"",""trial"",""time""
""fullscreenenter"",""1"",""2300""
","""event"",""trial"",""time""
""fullscreenexit"",""2"",""4327""
",,525.6,run_exp/static/images/task_images/land.jpg,76,,,,,,,76,,,6,,,,,,,,113655,1,0,TRUE,,,
travel,107,471137,0.0-32.0-0.0,"""event"",""trial"",""time""
""fullscreenenter"",""1"",""2300""
""fullscreenexit"",""2"",""4327""
","
","
","""event"",""trial"",""time""
""fullscreenenter"",""1"",""2300""
","""event"",""trial"",""time""
""fullscreenexit"",""2"",""4327""
",,,,,,,,,,,,"[{""stimulus"":""run_exp/static/images/task_images/rocket-01.jpg"",""time"":0.09999999403953552},{""stimulus"":""run_exp/static/images/task_images/rocket-02.jpg"",""time"":1053.199999988079},{""stimulus"":""run_exp/static/images/task_images/rocket-03.jpg"",""time"":2104.699999988079},{""stimulus"":""run_exp/static/images/task_images/rocket-04.jpg"",""time"":3157.4000000059605},{""stimulus"":""run_exp/static/images/task_images/rocket-05.jpg"",""time"":4209.5999999940395},{""stimulus"":""run_exp/static/images/task_images/rocket-06.jpg"",""time"":5261.699999988079},{""stimulus"":""run_exp/static/images/task_images/rocket-07.jpg"",""time"":6313.9000000059605},{""stimulus"":""run_exp/static/images/task_images/rocket-08.jpg"",""time"":7366},{""stimulus"":""run_exp/static/images/task_images/rocket-09.jpg"",""time"":8417.799999982119}]",[],6,,,,,,,,,,,,,,
alien_welcome,108,476140,0.0-32.0-1.0,"""event"",""trial"",""time""
""fullscreenenter"",""1"",""2300""
""fullscreenexit"",""2"",""4327""
","
","
","""event"",""trial"",""time""
""fullscreenenter"",""1"",""2300""
","""event"",""trial"",""time""
""fullscreenexit"",""2"",""4327""
",,null,run_exp/static/images/task_images/aliens/old_aliens/planet/alien_planet-49.jpg,null,,,,,,,,,,,,,49,"7,24,57,27,76,47,49,37,54,13,75,25,26,3,56,78,2,69,14,34,33,32,10,45,22,73,67,48,63,20,59,51,74,77,46,71,4,44,64,38,19,60,53,23,29,30,80,36,41,18,65,62,9,31,11,16,58",,,,,,,,,,
land,109,476652,0.0-32.0-2.0,"""event"",""trial"",""time""
""fullscreenenter"",""1"",""2300""
""fullscreenexit"",""2"",""4327""
","
","
","""event"",""trial"",""time""
""fullscreenenter"",""1"",""2300""
","""event"",""trial"",""time""
""fullscreenexit"",""2"",""4327""
",,null,run_exp/static/images/task_images/land.jpg,null,,,,,,,101,,,7,,,,,,,,,,,,,,
dig,110,478656,0.0-32.0-3.0,"""event"",""trial"",""time""
""fullscreenenter"",""1"",""2300""
""fullscreenexit"",""2"",""4327""
","
","
","""event"",""trial"",""time""
""fullscreenenter"",""1"",""2300""
","""event"",""trial"",""time""
""fullscreenexit"",""2"",""4327""
",,,,,,,,,,,,"[{""stimulus"":""run_exp/static/images/task_images/dig.jpg"",""time"":0.4000000059604645},{""stimulus"":""run_exp/static/images/task_images/land.jpg"",""time"":669.3000000119209},{""stimulus"":""run_exp/static/images/task_images/dig.jpg"",""time"":1336.199999988079}]",[],7,,,,,,,,,,,,,,
harvest,111,479658,0.0-32.0-4.0,"""event"",""trial"",""time""
""fullscreenenter"",""1"",""2300""
""fullscreenexit"",""2"",""4327""
","
","
","""event"",""trial"",""time""
""fullscreenenter"",""1"",""2300""
","""event"",""trial"",""time""
""fullscreenexit"",""2"",""4327""
",,null,run_exp/static/images/task_images/gems/101.jpg,null,,,,,,,81,,,7,,,,,101,0.800113167,0.801980198,,,,,,,
decision,112,481158,0.0-32.0-5.0,"""event"",""trial"",""time""
""fullscreenenter"",""1"",""2300""
""fullscreenexit"",""2"",""4327""
","
","
","""event"",""trial"",""time""
""fullscreenenter"",""1"",""2300""
","""event"",""trial"",""time""
""fullscreenexit"",""2"",""4327""
",,1496.5,run_exp/static/images/task_images/land.jpg,65,,,,,,,81,,,7,,,,,,,,133150,1,0,FALSE,,,
dig,113,482663,0.0-33.0-0.0,"""event"",""trial"",""time""
""fullscreenenter"",""1"",""2300""
""fullscreenexit"",""2"",""4327""
","
","
","""event"",""trial"",""time""
""fullscreenenter"",""1"",""2300""
","""event"",""trial"",""time""
""fullscreenexit"",""2"",""4327""
",,,,,,,,,,,,"[{""stimulus"":""run_exp/static/images/task_images/dig.jpg"",""time"":0},{""stimulus"":""run_exp/static/images/task_images/land.jpg"",""time"":504.40000000596046},{""stimulus"":""run_exp/static/images/task_images/dig.jpg"",""time"":1003.4000000059605}]",[],7,,,,,,,,,,,,,,
harvest,114,483666,0.0-33.0-1.0,"""event"",""trial"",""time""
""fullscreenenter"",""1"",""2300""
""fullscreenexit"",""2"",""4327""
","
","
","""event"",""trial"",""time""
""fullscreenenter"",""1"",""2300""
","""event"",""trial"",""time""
""fullscreenexit"",""2"",""4327""
",,null,run_exp/static/images/task_images/gems/81.jpg,null,,,,,,,64,,,7,,,,,81,0.787953349,0.790123457,,,,,,,
decision,115,484055,0.0-33.0-2.0,"""event"",""trial"",""time""
""fullscreenenter"",""1"",""2300""
""fullscreenexit"",""2"",""4327""
","
","
","""event"",""trial"",""time""
""fullscreenenter"",""1"",""2300""
","""event"",""trial"",""time""
""fullscreenexit"",""2"",""4327""
",,389,run_exp/static/images/task_images/land.jpg,65,,,,,,,64,,,7,,,,,,,,136047,1,1,FALSE,,,
dig,116,486672,0.0-34.0-0.0,"""event"",""trial"",""time""
""fullscreenenter"",""1"",""2300""
""fullscreenexit"",""2"",""4327""
","
","
","""event"",""trial"",""time""
""fullscreenenter"",""1"",""2300""
","""event"",""trial"",""time""
""fullscreenexit"",""2"",""4327""
",,,,,,,,,,,,"[{""stimulus"":""run_exp/static/images/task_images/dig.jpg"",""time"":0},{""stimulus"":""run_exp/static/images/task_images/land.jpg"",""time"":872.3000000119209},{""stimulus"":""run_exp/static/images/task_images/dig.jpg"",""time"":1741.5}]",[],7,,,,,,,,,,,,,,
harvest,117,487674,0.0-34.0-1.0,"""event"",""trial"",""time""
""fullscreenenter"",""1"",""2300""
""fullscreenexit"",""2"",""4327""
","
","
","""event"",""trial"",""time""
""fullscreenenter"",""1"",""2300""
","""event"",""trial"",""time""
""fullscreenexit"",""2"",""4327""
",,null,run_exp/static/images/task_images/gems/64.jpg,null,,,,,,,55,,,7,,,,,64,0.859685718,0.859375,,,,,,,
decision,118,488903,0.0-34.0-2.0,"""event"",""trial"",""time""
""fullscreenenter"",""1"",""2300""
""fullscreenexit"",""2"",""4327""
","
","
","""event"",""trial"",""time""
""fullscreenenter"",""1"",""2300""
","""event"",""trial"",""time""
""fullscreenexit"",""2"",""4327""
",,1227.8,run_exp/static/images/task_images/land.jpg,65,,,,,,,55,,,7,,,,,,,,140896,1,2,FALSE,,,
dig,119,490680,0.0-35.0-0.0,"""event"",""trial"",""time""
""fullscreenenter"",""1"",""2300""
""fullscreenexit"",""2"",""4327""
","
","
","""event"",""trial"",""time""
""fullscreenenter"",""1"",""2300""
","""event"",""trial"",""time""
""fullscreenexit"",""2"",""4327""
",,,,,,,,,,,,"[{""stimulus"":""run_exp/static/images/task_images/dig.jpg"",""time"":0},{""stimulus"":""run_exp/static/images/task_images/land.jpg"",""time"":591.5},{""stimulus"":""run_exp/static/images/task_images/dig.jpg"",""time"":1181.5}]",[],7,,,,,,,,,,,,,,
harvest,120,491682,0.0-35.0-1.0,"""event"",""trial"",""time""
""fullscreenenter"",""1"",""2300""
""fullscreenexit"",""2"",""4327""
","
","
","""event"",""trial"",""time""
""fullscreenenter"",""1"",""2300""
","""event"",""trial"",""time""
""fullscreenexit"",""2"",""4327""
",,null,run_exp/static/images/task_images/gems/55.jpg,null,,,,,,,44,,,7,,,,,55,0.799686703,0.8,,,,,,,
decision,121,491944,0.0-35.0-2.0,"""event"",""trial"",""time""
""fullscreenenter"",""1"",""2300""
""fullscreenexit"",""2"",""4327""
","
","
","""event"",""trial"",""time""
""fullscreenenter"",""1"",""2300""
","""event"",""trial"",""time""
""fullscreenexit"",""2"",""4327""
",,259.9,run_exp/static/images/task_images/land.jpg,65,,,,,,,44,,,7,,,,,,,,143936,1,3,FALSE,,,
dig,122,494689,0.0-36.0-0.0,"""event"",""trial"",""time""
""fullscreenenter"",""1"",""2300""
""fullscreenexit"",""2"",""4327""
","
","
","""event"",""trial"",""time""
""fullscreenenter"",""1"",""2300""
","""event"",""trial"",""time""
""fullscreenexit"",""2"",""4327""
",,,,,,,,,,,,"[{""stimulus"":""run_exp/static/images/task_images/dig.jpg"",""time"":0.09999999403953552},{""stimulus"":""run_exp/static/images/task_images/land.jpg"",""time"":913.7999999821186},{""stimulus"":""run_exp/static/images/task_images/dig.jpg"",""time"":1827.0999999940395}]",[],7,,,,,,,,,,,,,,
harvest,123,495692,0.0-36.0-1.0,"""event"",""trial"",""time""
""fullscreenenter"",""1"",""2300""
""fullscreenexit"",""2"",""4327""
","
","
","""event"",""trial"",""time""
""fullscreenenter"",""1"",""2300""
","""event"",""trial"",""time""
""fullscreenexit"",""2"",""4327""
",,null,run_exp/static/images/task_images/gems/44.jpg,null,,,,,,,36,,,7,,,,,44,0.824335878,0.818181818,,,,,,,
decision,124,496064,0.0-36.0-2.0,"""event"",""trial"",""time""
""fullscreenenter"",""1"",""2300""
""fullscreenexit"",""2"",""4327""
","
","
","""event"",""trial"",""time""
""fullscreenenter"",""1"",""2300""
","""event"",""trial"",""time""
""fullscreenexit"",""2"",""4327""
",,370.1,run_exp/static/images/task_images/land.jpg,76,,,,,,,36,,,7,,,,,,,,148056,1,4,TRUE,,,
travel,125,505690,0.0-37.0-0.0,"""event"",""trial"",""time""
""fullscreenenter"",""1"",""2300""
""fullscreenexit"",""2"",""4327""
","
","
","""event"",""trial"",""time""
""fullscreenenter"",""1"",""2300""
","""event"",""trial"",""time""
""fullscreenexit"",""2"",""4327""
",,,,,,,,,,,,"[{""stimulus"":""run_exp/static/images/task_images/rocket-01.jpg"",""time"":0.10000002384185791},{""stimulus"":""run_exp/static/images/task_images/rocket-02.jpg"",""time"":1071.300000011921},{""stimulus"":""run_exp/static/images/task_images/rocket-03.jpg"",""time"":2140.2000000178814},{""stimulus"":""run_exp/static/images/task_images/rocket-04.jpg"",""time"":3208.800000011921},{""stimulus"":""run_exp/static/images/task_images/rocket-05.jpg"",""time"":4277.700000017881},{""stimulus"":""run_exp/static/images/task_images/rocket-06.jpg"",""time"":5346.800000011921},{""stimulus"":""run_exp/static/images/task_images/rocket-07.jpg"",""time"":6414.300000011921},{""stimulus"":""run_exp/static/images/task_images/rocket-08.jpg"",""time"":7484.100000023842},{""stimulus"":""run_exp/static/images/task_images/rocket-09.jpg"",""time"":8553.90000000596}]",[],7,,,,,,,,,,,,,,
alien_welcome,126,510693,0.0-37.0-1.0,"""event"",""trial"",""time""
""fullscreenenter"",""1"",""2300""
""fullscreenexit"",""2"",""4327""
","
","
","""event"",""trial"",""time""
""fullscreenenter"",""1"",""2300""
","""event"",""trial"",""time""
""fullscreenexit"",""2"",""4327""
",,null,run_exp/static/images/task_images/aliens/old_aliens/planet/alien_planet-37.jpg,null,,,,,,,,,,,,,37,"7,24,57,27,76,47,49,37,54,13,75,25,26,3,56,78,2,69,14,34,33,32,10,45,22,73,67,48,63,20,59,51,74,77,46,71,4,44,64,38,19,60,53,23,29,30,80,36,41,18,65,62,9,31,11,16,58",,,,,,,,,,
land,127,511196,0.0-37.0-2.0,"""event"",""trial"",""time""
""fullscreenenter"",""1"",""2300""
""fullscreenexit"",""2"",""4327""
","
","
","""event"",""trial"",""time""
""fullscreenenter"",""1"",""2300""
","""event"",""trial"",""time""
""fullscreenexit"",""2"",""4327""
",,null,run_exp/static/images/task_images/land.jpg,null,,,,,,,98,,,8,,,,,,,,,,,,,,
dig,128,513200,0.0-37.0-3.0,"""event"",""trial"",""time""
""fullscreenenter"",""1"",""2300""
""fullscreenexit"",""2"",""4327""
","
","
","""event"",""trial"",""time""
""fullscreenenter"",""1"",""2300""
","""event"",""trial"",""time""
""fullscreenexit"",""2"",""4327""
",,,,,,,,,,,,"[{""stimulus"":""run_exp/static/images/task_images/dig.jpg"",""time"":0.5},{""stimulus"":""run_exp/static/images/task_images/land.jpg"",""time"":669.8000000119209},{""stimulus"":""run_exp/static/images/task_images/dig.jpg"",""time"":1335.5}]",[],8,,,,,,,,,,,,,,
harvest,129,514203,0.0-37.0-4.0,"""event"",""trial"",""time""
""fullscreenenter"",""1"",""2300""
""fullscreenexit"",""2"",""4327""
","
","
","""event"",""trial"",""time""
""fullscreenenter"",""1"",""2300""
","""event"",""trial"",""time""
""fullscreenexit"",""2"",""4327""
",,null,run_exp/static/images/task_images/gems/98.jpg,null,,,,,,,78,,,8,,,,,98,0.792495311,0.795918367,,,,,,,
decision,130,514841,0.0-37.0-5.0,"""event"",""trial"",""time""
""fullscreenenter"",""1"",""2300""
""fullscreenexit"",""2"",""4327""
","
","
","""event"",""trial"",""time""
""fullscreenenter"",""1"",""2300""
","""event"",""trial"",""time""
""fullscreenexit"",""2"",""4327""
",,636,run_exp/static/images/task_images/land.jpg,76,,,,,,,78,,,8,,,,,,,,166833,1,0,TRUE,,,
travel,131,524206,0.0-38.0-0.0,"""event"",""trial"",""time""
""fullscreenenter"",""1"",""2300""
""fullscreenexit"",""2"",""4327""
","
","
","""event"",""trial"",""time""
""fullscreenenter"",""1"",""2300""
","""event"",""trial"",""time""
""fullscreenexit"",""2"",""4327""
",,,,,,,,,,,,"[{""stimulus"":""run_exp/static/images/task_images/rocket-01.jpg"",""time"":0},{""stimulus"":""run_exp/static/images/task_images/rocket-02.jpg"",""time"":1041.0999999940395},{""stimulus"":""run_exp/static/images/task_images/rocket-03.jpg"",""time"":2081.5},{""stimulus"":""run_exp/static/images/task_images/rocket-04.jpg"",""time"":3121.899999976158},{""stimulus"":""run_exp/static/images/task_images/rocket-05.jpg"",""time"":4161.5999999940395},{""stimulus"":""run_exp/static/images/task_images/rocket-06.jpg"",""time"":5201.0999999940395},{""stimulus"":""run_exp/static/images/task_images/rocket-07.jpg"",""time"":6241.5999999940395},{""stimulus"":""run_exp/static/images/task_images/rocket-08.jpg"",""time"":7281.899999976158},{""stimulus"":""run_exp/static/images/task_images/rocket-09.jpg"",""time"":8321.5}]",[],8,,,,,,,,,,,,,,
alien_welcome,132,529209,0.0-38.0-1.0,"""event"",""trial"",""time""
""fullscreenenter"",""1"",""2300""
""fullscreenexit"",""2"",""4327""
","
","
","""event"",""trial"",""time""
""fullscreenenter"",""1"",""2300""
","""event"",""trial"",""time""
""fullscreenexit"",""2"",""4327""
",,null,run_exp/static/images/task_images/aliens/old_aliens/planet/alien_planet-54.jpg,null,,,,,,,,,,,,,54,"7,24,57,27,76,47,49,37,54,13,75,25,26,3,56,78,2,69,14,34,33,32,10,45,22,73,67,48,63,20,59,51,74,77,46,71,4,44,64,38,19,60,53,23,29,30,80,36,41,18,65,62,9,31,11,16,58",,,,,,,,,,
land,133,529712,0.0-38.0-2.0,"""event"",""trial"",""time""
""fullscreenenter"",""1"",""2300""
""fullscreenexit"",""2"",""4327""
","
","
","""event"",""trial"",""time""
""fullscreenenter"",""1"",""2300""
","""event"",""trial"",""time""
""fullscreenexit"",""2"",""4327""
",,null,run_exp/static/images/task_images/land.jpg,null,,,,,,,98,,,9,,,,,,,,,,,,,,
dig,134,531717,0.0-38.0-3.0,"""event"",""trial"",""time""
""fullscreenenter"",""1"",""2300""
""fullscreenexit"",""2"",""4327""
","
","
","""event"",""trial"",""time""
""fullscreenenter"",""1"",""2300""
","""event"",""trial"",""time""
""fullscreenexit"",""2"",""4327""
",,,,,,,,,,,,"[{""stimulus"":""run_exp/static/images/task_images/dig.jpg"",""time"":0.5},{""stimulus"":""run_exp/static/images/task_images/land.jpg"",""time"":669.1999999880791},{""stimulus"":""run_exp/static/images/task_images/dig.jpg"",""time"":1336.199999988079}]",[],9,,,,,,,,,,,,,,
harvest,135,532732,0.0-38.0-4.0,"""event"",""trial"",""time""
""fullscreenenter"",""1"",""2300""
""fullscreenexit"",""2"",""4327""
","
","
","""event"",""trial"",""time""
""fullscreenenter"",""1"",""2300""
","""event"",""trial"",""time""
""fullscreenexit"",""2"",""4327""
",,null,run_exp/static/images/task_images/gems/98.jpg,null,,,,,,,21,,,9,,,,,98,0.217211509,0.214285714,,,,,,,
decision,136,533345,0.0-38.0-5.0,"""event"",""trial"",""time""
""fullscreenenter"",""1"",""2300""
""fullscreenexit"",""2"",""4327""
","
","
","""event"",""trial"",""time""
""fullscreenenter"",""1"",""2300""
","""event"",""trial"",""time""
""fullscreenexit"",""2"",""4327""
",,610.7,run_exp/static/images/task_images/land.jpg,76,,,,,,,21,,,9,,,,,,,,185338,1,0,TRUE,,,
travel,137,542739,0.0-39.0-0.0,"""event"",""trial"",""time""
""fullscreenenter"",""1"",""2300""
""fullscreenexit"",""2"",""4327""
","
","
","""event"",""trial"",""time""
""fullscreenenter"",""1"",""2300""
","""event"",""trial"",""time""
""fullscreenexit"",""2"",""4327""
",,,,,,,,,,,,"[{""stimulus"":""run_exp/static/images/task_images/rocket-01.jpg"",""time"":0.10000002384185791},{""stimulus"":""run_exp/static/images/task_images/rocket-02.jpg"",""time"":1044.300000011921},{""stimulus"":""run_exp/static/images/task_images/rocket-03.jpg"",""time"":2087.100000023842},{""stimulus"":""run_exp/static/images/task_images/rocket-04.jpg"",""time"":3137.800000011921},{""stimulus"":""run_exp/static/images/task_images/rocket-05.jpg"",""time"":4173.300000011921},{""stimulus"":""run_exp/static/images/task_images/rocket-06.jpg"",""time"":5217},{""stimulus"":""run_exp/static/images/task_images/rocket-07.jpg"",""time"":6259.9000000059605},{""stimulus"":""run_exp/static/images/task_images/rocket-08.jpg"",""time"":7302.800000011921},{""stimulus"":""run_exp/static/images/task_images/rocket-09.jpg"",""time"":8345.700000017881}]",[],9,,,,,,,,,,,,,,
alien_welcome,138,547741,0.0-39.0-1.0,"""event"",""trial"",""time""
""fullscreenenter"",""1"",""2300""
""fullscreenexit"",""2"",""4327""
","
","
","""event"",""trial"",""time""
""fullscreenenter"",""1"",""2300""
","""event"",""trial"",""time""
""fullscreenexit"",""2"",""4327""
",,null,run_exp/static/images/task_images/aliens/old_aliens/planet/alien_planet-13.jpg,null,,,,,,,,,,,,,13,"7,24,57,27,76,47,49,37,54,13,75,25,26,3,56,78,2,69,14,34,33,32,10,45,22,73,67,48,63,20,59,51,74,77,46,71,4,44,64,38,19,60,53,23,29,30,80,36,41,18,65,62,9,31,11,16,58",,,,,,,,,,
land,139,548243,0.0-39.0-2.0,"""event"",""trial"",""time""
""fullscreenenter"",""1"",""2300""
""fullscreenexit"",""2"",""4327""
","
","
","""event"",""trial"",""time""
""fullscreenenter"",""1"",""2300""
","""event"",""trial"",""time""
""fullscreenexit"",""2"",""4327""
",,null,run_exp/static/images/task_images/land.jpg,null,,,,,,,95,,,10,,,,,,,,,,,,,,
dig,140,550248,0.0-39.0-3.0,"""event"",""trial"",""time""
""fullscreenenter"",""1"",""2300""
""fullscreenexit"",""2"",""4327""
","
","
","""event"",""trial"",""time""
""fullscreenenter"",""1"",""2300""
","""event"",""trial"",""time""
""fullscreenexit"",""2"",""4327""
",,,,,,,,,,,,"[{""stimulus"":""run_exp/static/images/task_images/dig.jpg"",""time"":0.5},{""stimulus"":""run_exp/static/images/task_images/land.jpg"",""time"":669.5},{""stimulus"":""run_exp/static/images/task_images/dig.jpg"",""time"":1336.4000000059605}]",[],10,,,,,,,,,,,,,,
harvest,141,551249,0.0-39.0-4.0,"""event"",""trial"",""time""
""fullscreenenter"",""1"",""2300""
""fullscreenexit"",""2"",""4327""
","
","
","""event"",""trial"",""time""
""fullscreenenter"",""1"",""2300""
","""event"",""trial"",""time""
""fullscreenexit"",""2"",""4327""
",,null,run_exp/static/images/task_images/gems/95.jpg,null,,,,,,,18,,,10,,,,,95,0.190944467,0.189473684,,,,,,,
decision,142,552098,0.0-39.0-5.0,"""event"",""trial"",""time""
""fullscreenenter"",""1"",""2300""
""fullscreenexit"",""2"",""4327""
","
","
","""event"",""trial"",""time""
""fullscreenenter"",""1"",""2300""
","""event"",""trial"",""time""
""fullscreenexit"",""2"",""4327""
",,846.8,run_exp/static/images/task_images/land.jpg,76,,,,,,,18,,,10,,,,,,,,204090,1,0,TRUE,,,
travel,143,561259,0.0-40.0-0.0,"""event"",""trial"",""time""
""fullscreenenter"",""1"",""2300""
""fullscreenexit"",""2"",""4327""
","
","
","""event"",""trial"",""time""
""fullscreenenter"",""1"",""2300""
","""event"",""trial"",""time""
""fullscreenexit"",""2"",""4327""
",,,,,,,,,,,,"[{""stimulus"":""run_exp/static/images/task_images/rocket-01.jpg"",""time"":0},{""stimulus"":""run_exp/static/images/task_images/rocket-02.jpg"",""time"":1018.8000000119209},{""stimulus"":""run_exp/static/images/task_images/rocket-03.jpg"",""time"":2034.5},{""stimulus"":""run_exp/static/images/task_images/rocket-04.jpg"",""time"":3052.4000000059605},{""stimulus"":""run_exp/static/images/task_images/rocket-05.jpg"",""time"":4069.2000000178814},{""stimulus"":""run_exp/static/images/task_images/rocket-06.jpg"",""time"":5086.5},{""stimulus"":""run_exp/static/images/task_images/rocket-07.jpg"",""time"":6104},{""stimulus"":""run_exp/static/images/task_images/rocket-08.jpg"",""time"":7120.5},{""stimulus"":""run_exp/static/images/task_images/rocket-09.jpg"",""time"":8137.600000023842}]",[],10,,,,,,,,,,,,,,
alien_welcome,144,566262,0.0-40.0-1.0,"""event"",""trial"",""time""
""fullscreenenter"",""1"",""2300""
""fullscreenexit"",""2"",""4327""
","
","
","""event"",""trial"",""time""
""fullscreenenter"",""1"",""2300""
","""event"",""trial"",""time""
""fullscreenexit"",""2"",""4327""
",,null,run_exp/static/images/task_images/aliens/old_aliens/planet/alien_planet-75.jpg,null,,,,,,,,,,,,,75,"7,24,57,27,76,47,49,37,54,13,75,25,26,3,56,78,2,69,14,34,33,32,10,45,22,73,67,48,63,20,59,51,74,77,46,71,4,44,64,38,19,60,53,23,29,30,80,36,41,18,65,62,9,31,11,16,58",,,,,,,,,,
land,145,566765,0.0-40.0-2.0,"""event"",""trial"",""time""
""fullscreenenter"",""1"",""2300""
""fullscreenexit"",""2"",""4327""
","
","
","""event"",""trial"",""time""
""fullscreenenter"",""1"",""2300""
","""event"",""trial"",""time""
""fullscreenexit"",""2"",""4327""
",,null,run_exp/static/images/task_images/land.jpg,null,,,,,,,103,,,11,,,,,,,,,,,,,,
dig,146,568768,0.0-40.0-3.0,"""event"",""trial"",""time""
""fullscreenenter"",""1"",""2300""
""fullscreenexit"",""2"",""4327""
","
","
","""event"",""trial"",""time""
""fullscreenenter"",""1"",""2300""
","""event"",""trial"",""time""
""fullscreenexit"",""2"",""4327""
",,,,,,,,,,,,"[{""stimulus"":""run_exp/static/images/task_images/dig.jpg"",""time"":0},{""stimulus"":""run_exp/static/images/task_images/land.jpg"",""time"":668.8000000119209},{""stimulus"":""run_exp/static/images/task_images/dig.jpg"",""time"":1335.5}]",[],11,,,,,,,,,,,,,,
harvest,147,569770,0.0-40.0-4.0,"""event"",""trial"",""time""
""fullscreenenter"",""1"",""2300""
""fullscreenexit"",""2"",""4327""
","
","
","""event"",""trial"",""time""
""fullscreenenter"",""1"",""2300""
","""event"",""trial"",""time""
""fullscreenexit"",""2"",""4327""
",,null,run_exp/static/images/task_images/gems/103.jpg,null,,,,,,,21,,,11,,,,,103,0.202600134,0.203883495,,,,,,,
decision,148,569777,0.0-40.0-5.0,"""event"",""trial"",""time""
""fullscreenenter"",""1"",""2300""
""fullscreenexit"",""2"",""4327""
","
","
","""event"",""trial"",""time""
""fullscreenenter"",""1"",""2300""
","""event"",""trial"",""time""
""fullscreenexit"",""2"",""4327""
",,6,run_exp/static/images/task_images/land.jpg,65,,,,,,,21,,,11,,,,,,,,221769,1,0,FALSE,,,
dig,149,572773,0.0-41.0-0.0,"""event"",""trial"",""time""
""fullscreenenter"",""1"",""2300""
""fullscreenexit"",""2"",""4327""
","
","
","""event"",""trial"",""time""
""fullscreenenter"",""1"",""2300""
","""event"",""trial"",""time""
""fullscreenexit"",""2"",""4327""
",,,,,,,,,,,,"[{""stimulus"":""run_exp/static/images/task_images/dig.jpg"",""time"":0.09999999403953552},{""stimulus"":""run_exp/static/images/task_images/land.jpg"",""time"":998.9000000059605},{""stimulus"":""run_exp/static/images/task_images/dig.jpg"",""time"":1997.4000000059605}]",[],11,,,,,,,,,,,,,,
harvest,150,573775,0.0-41.0-1.0,"""event"",""trial"",""time""
""fullscreenenter"",""1"",""2300""
""fullscreenexit"",""2"",""4327""
","
","
","""event"",""trial"",""time""
""fullscreenenter"",""1"",""2300""
","""event"",""trial"",""time""
""fullscreenexit"",""2"",""4327""
",,null,run_exp/static/images/task_images/gems/21.jpg,null,,,,,,,2,,,11,,,,,21,0.10865119,0.095238095,,,,,,,
decision,151,574273,0.0-41.0-2.0,"""event"",""trial"",""time""
""fullscreenenter"",""1"",""2300""
""fullscreenexit"",""2"",""4327""
","
","
","""event"",""trial"",""time""
""fullscreenenter"",""1"",""2300""
","""event"",""trial"",""time""
""fullscreenexit"",""2"",""4327""
",,497.2,run_exp/static/images/task_images/land.jpg,76,,,,,,,2,,,11,,,,,,,,226265,1,1,TRUE,,,
travel,152,583771,0.0-42.0-0.0,"""event"",""trial"",""time""
""fullscreenenter"",""1"",""2300""
""fullscreenexit"",""2"",""4327""
","
","
","""event"",""trial"",""time""
""fullscreenenter"",""1"",""2300""
","""event"",""trial"",""time""
""fullscreenexit"",""2"",""4327""
",,,,,,,,,,,,"[{""stimulus"":""run_exp/static/images/task_images/rocket-01.jpg"",""time"":0.09999999403953552},{""stimulus"":""run_exp/static/images/task_images/rocket-02.jpg"",""time"":1056.7000000178814},{""stimulus"":""run_exp/static/images/task_images/rocket-03.jpg"",""time"":2111.2000000178814},{""stimulus"":""run_exp/static/images/task_images/rocket-04.jpg"",""time"":3166.4000000059605},{""stimulus"":""run_exp/static/images/task_images/rocket-05.jpg"",""time"":4221.700000017881},{""stimulus"":""run_exp/static/images/task_images/rocket-06.jpg"",""time"":5275.9000000059605},{""stimulus"":""run_exp/static/images/task_images/rocket-07.jpg"",""time"":6331.9000000059605},{""stimulus"":""run_exp/static/images/task_images/rocket-08.jpg"",""time"":7386.300000011921},{""stimulus"":""run_exp/static/images/task_images/rocket-09.jpg"",""time"":8442.40000000596}]",[],11,,,,,,,,,,,,,,
alien_welcome,153,588772,0.0-42.0-1.0,"""event"",""trial"",""time""
""fullscreenenter"",""1"",""2300""
""fullscreenexit"",""2"",""4327""
","
","
","""event"",""trial"",""time""
""fullscreenenter"",""1"",""2300""
","""event"",""trial"",""time""
""fullscreenexit"",""2"",""4327""
",,null,run_exp/static/images/task_images/aliens/old_aliens/planet/alien_planet-25.jpg,null,,,,,,,,,,,,,25,"7,24,57,27,76,47,49,37,54,13,75,25,26,3,56,78,2,69,14,34,33,32,10,45,22,73,67,48,63,20,59,51,74,77,46,71,4,44,64,38,19,60,53,23,29,30,80,36,41,18,65,62,9,31,11,16,58",,,,,,,,,,
land,154,589274,0.0-42.0-2.0,"""event"",""trial"",""time""
""fullscreenenter"",""1"",""2300""
""fullscreenexit"",""2"",""4327""
","
","
","""event"",""trial"",""time""
""fullscreenenter"",""1"",""2300""
","""event"",""trial"",""time""
""fullscreenexit"",""2"",""4327""
",,null,run_exp/static/images/task_images/land.jpg,null,,,,,,,104,,,12,,,,,,,,,,,,,,
dig,155,591279,0.0-42.0-3.0,"""event"",""trial"",""time""
""fullscreenenter"",""1"",""2300""
""fullscreenexit"",""2"",""4327""
","
","
","""event"",""trial"",""time""
""fullscreenenter"",""1"",""2300""
","""event"",""trial"",""time""
""fullscreenexit"",""2"",""4327""
",,,,,,,,,,,,"[{""stimulus"":""run_exp/static/images/task_images/dig.jpg"",""time"":0.5},{""stimulus"":""run_exp/static/images/task_images/land.jpg"",""time"":669.1000000238419},{""stimulus"":""run_exp/static/images/task_images/dig.jpg"",""time"":1336.4000000059605}]",[],12,,,,,,,,,,,,,,
harvest,156,592282,0.0-42.0-4.0,"""event"",""trial"",""time""
""fullscreenenter"",""1"",""2300""
""fullscreenexit"",""2"",""4327""
","
","
","""event"",""trial"",""time""
""fullscreenenter"",""1"",""2300""
","""event"",""trial"",""time""
""fullscreenexit"",""2"",""4327""
",,null,run_exp/static/images/task_images/gems/104.jpg,null,,,,,,,13,,,12,,,,,104,0.126518088,0.125,,,,,,,
decision,157,592355,0.0-42.0-5.0,"""event"",""trial"",""time""
""fullscreenenter"",""1"",""2300""
""fullscreenexit"",""2"",""4327""
","
","
","""event"",""trial"",""time""
""fullscreenenter"",""1"",""2300""
","""event"",""trial"",""time""
""fullscreenexit"",""2"",""4327""
",,71.30000001,run_exp/static/images/task_images/land.jpg,65,,,,,,,13,,,12,,,,,,,,244347,1,0,FALSE,,,
dig,158,595291,0.0-43.0-0.0,"""event"",""trial"",""time""
""fullscreenenter"",""1"",""2300""
""fullscreenexit"",""2"",""4327""
","
","
","""event"",""trial"",""time""
""fullscreenenter"",""1"",""2300""
","""event"",""trial"",""time""
""fullscreenexit"",""2"",""4327""
",,,,,,,,,,,,"[{""stimulus"":""run_exp/static/images/task_images/dig.jpg"",""time"":0.30000001192092896},{""stimulus"":""run_exp/static/images/task_images/land.jpg"",""time"":979.0999999940395},{""stimulus"":""run_exp/static/images/task_images/dig.jpg"",""time"":1953.5}]",[],12,,,,,,,,,,,,,,
harvest,159,596294,0.0-43.0-1.0,"""event"",""trial"",""time""
""fullscreenenter"",""1"",""2300""
""fullscreenexit"",""2"",""4327""
","
","
","""event"",""trial"",""time""
""fullscreenenter"",""1"",""2300""
","""event"",""trial"",""time""
""fullscreenexit"",""2"",""4327""
",,null,run_exp/static/images/task_images/gems/13.jpg,null,,,,,,,3,,,12,,,,,13,0.222183509,0.230769231,,,,,,,
decision,160,596300,0.0-43.0-2.0,"""event"",""trial"",""time""
""fullscreenenter"",""1"",""2300""
""fullscreenexit"",""2"",""4327""
","
","
","""event"",""trial"",""time""
""fullscreenenter"",""1"",""2300""
","""event"",""trial"",""time""
""fullscreenexit"",""2"",""4327""
",,4,run_exp/static/images/task_images/land.jpg,76,,,,,,,3,,,12,,,,,,,,248292,1,1,TRUE,,,
travel,161,606297,0.0-44.0-0.0,"""event"",""trial"",""time""
""fullscreenenter"",""1"",""2300""
""fullscreenexit"",""2"",""4327""
","
","
","""event"",""trial"",""time""
""fullscreenenter"",""1"",""2300""
","""event"",""trial"",""time""
""fullscreenexit"",""2"",""4327""
",,,,,,,,,,,,"[{""stimulus"":""run_exp/static/images/task_images/rocket-01.jpg"",""time"":0.10000002384185791},{""stimulus"":""run_exp/static/images/task_images/rocket-02.jpg"",""time"":1111.7000000178814},{""stimulus"":""run_exp/static/images/task_images/rocket-03.jpg"",""time"":2221.100000023842},{""stimulus"":""run_exp/static/images/task_images/rocket-04.jpg"",""time"":3331.300000011921},{""stimulus"":""run_exp/static/images/task_images/rocket-05.jpg"",""time"":4441.300000011921},{""stimulus"":""run_exp/static/images/task_images/rocket-06.jpg"",""time"":5552.700000017881},{""stimulus"":""run_exp/static/images/task_images/rocket-07.jpg"",""time"":6661.600000023842},{""stimulus"":""run_exp/static/images/task_images/rocket-08.jpg"",""time"":7771.600000023842},{""stimulus"":""run_exp/static/images/task_images/rocket-09.jpg"",""time"":8881.100000023842}]",[],12,,,,,,,,,,,,,,
alien_welcome,162,611300,0.0-44.0-1.0,"""event"",""trial"",""time""
""fullscreenenter"",""1"",""2300""
""fullscreenexit"",""2"",""4327""
","
","
","""event"",""trial"",""time""
""fullscreenenter"",""1"",""2300""
","""event"",""trial"",""time""
""fullscreenexit"",""2"",""4327""
",,null,run_exp/static/images/task_images/aliens/old_aliens/planet/alien_planet-26.jpg,null,,,,,,,,,,,,,26,"7,24,57,27,76,47,49,37,54,13,75,25,26,3,56,78,2,69,14,34,33,32,10,45,22,73,67,48,63,20,59,51,74,77,46,71,4,44,64,38,19,60,53,23,29,30,80,36,41,18,65,62,9,31,11,16,58",,,,,,,,,,
land,163,611802,0.0-44.0-2.0,"""event"",""trial"",""time""
""fullscreenenter"",""1"",""2300""
""fullscreenexit"",""2"",""4327""
","
","
","""event"",""trial"",""time""
""fullscreenenter"",""1"",""2300""
","""event"",""trial"",""time""
""fullscreenexit"",""2"",""4327""
",,null,run_exp/static/images/task_images/land.jpg,null,,,,,,,107,,,13,,,,,,,,,,,,,,
dig,164,613806,0.0-44.0-3.0,"""event"",""trial"",""time""
""fullscreenenter"",""1"",""2300""
""fullscreenexit"",""2"",""4327""
","
","
","""event"",""trial"",""time""
""fullscreenenter"",""1"",""2300""
","""event"",""trial"",""time""
""fullscreenexit"",""2"",""4327""
",,,,,,,,,,,,"[{""stimulus"":""run_exp/static/images/task_images/dig.jpg"",""time"":0.4000000059604645},{""stimulus"":""run_exp/static/images/task_images/land.jpg"",""time"":669},{""stimulus"":""run_exp/static/images/task_images/dig.jpg"",""time"":1336.5}]",[],13,,,,,,,,,,,,,,
harvest,165,614808,0.0-44.0-4.0,"""event"",""trial"",""time""
""fullscreenenter"",""1"",""2300""
""fullscreenexit"",""2"",""4327""
","
","
","""event"",""trial"",""time""
""fullscreenenter"",""1"",""2300""
","""event"",""trial"",""time""
""fullscreenexit"",""2"",""4327""
",,null,run_exp/static/images/task_images/gems/107.jpg,null,,,,,,,30,,,13,,,,,107,0.276111558,0.280373832,,,,,,,
decision,166,614852,0.0-44.0-5.0,"""event"",""trial"",""time""
""fullscreenenter"",""1"",""2300""
""fullscreenexit"",""2"",""4327""
","
","
","""event"",""trial"",""time""
""fullscreenenter"",""1"",""2300""
","""event"",""trial"",""time""
""fullscreenexit"",""2"",""4327""
",,42.90000001,run_exp/static/images/task_images/land.jpg,65,,,,,,,30,,,13,,,,,,,,266844,1,0,FALSE,,,
dig,167,617813,0.0-45.0-0.0,"""event"",""trial"",""time""
""fullscreenenter"",""1"",""2300""
""fullscreenexit"",""2"",""4327""
","
","
","""event"",""trial"",""time""
""fullscreenenter"",""1"",""2300""
","""event"",""trial"",""time""
""fullscreenexit"",""2"",""4327""
",,,,,,,,,,,,"[{""stimulus"":""run_exp/static/images/task_images/dig.jpg"",""time"":0.09999999403953552},{""stimulus"":""run_exp/static/images/task_images/land.jpg"",""time"":986.9000000059605},{""stimulus"":""run_exp/static/images/task_images/dig.jpg"",""time"":1971.9000000059605}]",[],13,,,,,,,,,,,,,,
harvest,168,618816,0.0-45.0-1.0,"""event"",""trial"",""time""
""fullscreenenter"",""1"",""2300""
""fullscreenexit"",""2"",""4327""
","
","
","""event"",""trial"",""time""
""fullscreenenter"",""1"",""2300""
","""event"",""trial"",""time""
""fullscreenexit"",""2"",""4327""
",,null,run_exp/static/images/task_images/gems/30.jpg,null,,,,,,,8,,,13,,,,,30,0.269252325,0.266666667,,,,,,,
decision,169,618892,0.0-45.0-2.0,"""event"",""trial"",""time""
""fullscreenenter"",""1"",""2300""
""fullscreenexit"",""2"",""4327""
","
","
","""event"",""trial"",""time""
""fullscreenenter"",""1"",""2300""
","""event"",""trial"",""time""
""fullscreenexit"",""2"",""4327""
",,74.80000001,run_exp/static/images/task_images/land.jpg,76,,,,,,,8,,,13,,,,,,,,270884,1,1,TRUE,,,
travel,170,628816,0.0-46.0-0.0,"""event"",""trial"",""time""
""fullscreenenter"",""1"",""2300""
""fullscreenexit"",""2"",""4327""
","
","
","""event"",""trial"",""time""
""fullscreenenter"",""1"",""2300""
","""event"",""trial"",""time""
""fullscreenexit"",""2"",""4327""
",,,,,,,,,,,,"[{""stimulus"":""run_exp/static/images/task_images/rocket-01.jpg"",""time"":0},{""stimulus"":""run_exp/static/images/task_images/rocket-02.jpg"",""time"":1103.800000011921},{""stimulus"":""run_exp/static/images/task_images/rocket-03.jpg"",""time"":2205.300000011921},{""stimulus"":""run_exp/static/images/task_images/rocket-04.jpg"",""time"":3307.800000011921},{""stimulus"":""run_exp/static/images/task_images/rocket-05.jpg"",""time"":4410.100000023842},{""stimulus"":""run_exp/static/images/task_images/rocket-06.jpg"",""time"":5512.300000011921},{""stimulus"":""run_exp/static/images/task_images/rocket-07.jpg"",""time"":6613.600000023842},{""stimulus"":""run_exp/static/images/task_images/rocket-08.jpg"",""time"":7715.4000000059605},{""stimulus"":""run_exp/static/images/task_images/rocket-09.jpg"",""time"":8817.5}]",[],13,,,,,,,,,,,,,,
alien_welcome,171,633820,0.0-46.0-1.0,"""event"",""trial"",""time""
""fullscreenenter"",""1"",""2300""
""fullscreenexit"",""2"",""4327""
","
","
","""event"",""trial"",""time""
""fullscreenenter"",""1"",""2300""
","""event"",""trial"",""time""
""fullscreenexit"",""2"",""4327""
",,null,run_exp/static/images/task_images/aliens/old_aliens/planet/alien_planet-3.jpg,null,,,,,,,,,,,,,3,"7,24,57,27,76,47,49,37,54,13,75,25,26,3,56,78,2,69,14,34,33,32,10,45,22,73,67,48,63,20,59,51,74,77,46,71,4,44,64,38,19,60,53,23,29,30,80,36,41,18,65,62,9,31,11,16,58",,,,,,,,,,
land,172,634323,0.0-46.0-2.0,"""event"",""trial"",""time""
""fullscreenenter"",""1"",""2300""
""fullscreenexit"",""2"",""4327""
","
","
","""event"",""trial"",""time""
""fullscreenenter"",""1"",""2300""
","""event"",""trial"",""time""
""fullscreenexit"",""2"",""4327""
",,null,run_exp/static/images/task_images/land.jpg,null,,,,,,,103,,,14,,,,,,,,,,,,,,
dig,173,636328,0.0-46.0-3.0,"""event"",""trial"",""time""
""fullscreenenter"",""1"",""2300""
""fullscreenexit"",""2"",""4327""
","
","
","""event"",""trial"",""time""
""fullscreenenter"",""1"",""2300""
","""event"",""trial"",""time""
""fullscreenexit"",""2"",""4327""
",,,,,,,,,,,,"[{""stimulus"":""run_exp/static/images/task_images/dig.jpg"",""time"":0.4000000059604645},{""stimulus"":""run_exp/static/images/task_images/land.jpg"",""time"":669.8000000119209},{""stimulus"":""run_exp/static/images/task_images/dig.jpg"",""time"":1342.699999988079}]",[],14,,,,,,,,,,,,,,
harvest,174,637331,0.0-46.0-4.0,"""event"",""trial"",""time""
""fullscreenenter"",""1"",""2300""
""fullscreenexit"",""2"",""4327""
","
","
","""event"",""trial"",""time""
""fullscreenenter"",""1"",""2300""
","""event"",""trial"",""time""
""fullscreenexit"",""2"",""4327""
",,null,run_exp/static/images/task_images/gems/103.jpg,null,,,,,,,88,,,14,,,,,103,0.853917649,0.854368932,,,,,,,
decision,175,638595,0.0-46.0-5.0,"""event"",""trial"",""time""
""fullscreenenter"",""1"",""2300""
""fullscreenexit"",""2"",""4327""
","
","
","""event"",""trial"",""time""
""fullscreenenter"",""1"",""2300""
","""event"",""trial"",""time""
""fullscreenexit"",""2"",""4327""
",,1262.5,run_exp/static/images/task_images/land.jpg,65,,,,,,,88,,,14,,,,,,,,290587,1,0,FALSE,,,
dig,176,640336,0.0-47.0-0.0,"""event"",""trial"",""time""
""fullscreenenter"",""1"",""2300""
""fullscreenexit"",""2"",""4327""
","
","
","""event"",""trial"",""time""
""fullscreenenter"",""1"",""2300""
","""event"",""trial"",""time""
""fullscreenexit"",""2"",""4327""
",,,,,,,,,,,,"[{""stimulus"":""run_exp/static/images/task_images/dig.jpg"",""time"":0.19999998807907104},{""stimulus"":""run_exp/static/images/task_images/land.jpg"",""time"":580.4000000059605},{""stimulus"":""run_exp/static/images/task_images/dig.jpg"",""time"":1159.0999999940395}]",[],14,,,,,,,,,,,,,,
harvest,177,641338,0.0-47.0-1.0,"""event"",""trial"",""time""
""fullscreenenter"",""1"",""2300""
""fullscreenexit"",""2"",""4327""
","
","
","""event"",""trial"",""time""
""fullscreenenter"",""1"",""2300""
","""event"",""trial"",""time""
""fullscreenexit"",""2"",""4327""
",,null,run_exp/static/images/task_images/gems/88.jpg,null,,,,,,,70,,,14,,,,,88,0.796136846,0.795454545,,,,,,,
decision,178,641629,0.0-47.0-2.0,"""event"",""trial"",""time""
""fullscreenenter"",""1"",""2300""
""fullscreenexit"",""2"",""4327""
","
","
","""event"",""trial"",""time""
""fullscreenenter"",""1"",""2300""
","""event"",""trial"",""time""
""fullscreenexit"",""2"",""4327""
",,289,run_exp/static/images/task_images/land.jpg,65,,,,,,,70,,,14,,,,,,,,293621,1,1,FALSE,,,
dig,179,644344,0.0-48.0-0.0,"""event"",""trial"",""time""
""fullscreenenter"",""1"",""2300""
""fullscreenexit"",""2"",""4327""
","
","
","""event"",""trial"",""time""
""fullscreenenter"",""1"",""2300""
","""event"",""trial"",""time""
""fullscreenexit"",""2"",""4327""
",,,,,,,,,,,,"[{""stimulus"":""run_exp/static/images/task_images/dig.jpg"",""time"":0},{""stimulus"":""run_exp/static/images/task_images/land.jpg"",""time"":904.8000000119209},{""stimulus"":""run_exp/static/images/task_images/dig.jpg"",""time"":1808.1000000238419}]",[],14,,,,,,,,,,,,,,
harvest,180,645347,0.0-48.0-1.0,"""event"",""trial"",""time""
""fullscreenenter"",""1"",""2300""
""fullscreenexit"",""2"",""4327""
","
","
","""event"",""trial"",""time""
""fullscreenenter"",""1"",""2300""
","""event"",""trial"",""time""
""fullscreenexit"",""2"",""4327""
",,null,run_exp/static/images/task_images/gems/70.jpg,null,,,,,,,53,,,14,,,,,70,0.752551771,0.757142857,,,,,,,
decision,181,645629,0.0-48.0-2.0,"""event"",""trial"",""time""
""fullscreenenter"",""1"",""2300""
""fullscreenexit"",""2"",""4327""
","
","
","""event"",""trial"",""time""
""fullscreenenter"",""1"",""2300""
","""event"",""trial"",""time""
""fullscreenexit"",""2"",""4327""
",,280.4,run_exp/static/images/task_images/land.jpg,65,,,,,,,53,,,14,,,,,,,,297621,1,2,FALSE,,,
dig,182,648356,0.0-49.0-0.0,"""event"",""trial"",""time""
""fullscreenenter"",""1"",""2300""
""fullscreenexit"",""2"",""4327""
","
","
","""event"",""trial"",""time""
""fullscreenenter"",""1"",""2300""
","""event"",""trial"",""time""
""fullscreenexit"",""2"",""4327""
",,,,,,,,,,,,"[{""stimulus"":""run_exp/static/images/task_images/dig.jpg"",""time"":0.20000001788139343},{""stimulus"":""run_exp/static/images/task_images/land.jpg"",""time"":907.9000000059605},{""stimulus"":""run_exp/static/images/task_images/dig.jpg"",""time"":1813.0999999940395}]",[],14,,,,,,,,,,,,,,
harvest,183,649359,0.0-49.0-1.0,"""event"",""trial"",""time""
""fullscreenenter"",""1"",""2300""
""fullscreenexit"",""2"",""4327""
","
","
","""event"",""trial"",""time""
""fullscreenenter"",""1"",""2300""
","""event"",""trial"",""time""
""fullscreenexit"",""2"",""4327""
",,null,run_exp/static/images/task_images/gems/53.jpg,null,,,,,,,37,,,14,,,,,53,0.703671233,0.698113208,,,,,,,
decision,184,649900,0.0-49.0-2.0,"""event"",""trial"",""time""
""fullscreenenter"",""1"",""2300""
""fullscreenexit"",""2"",""4327""
","
","
","""event"",""trial"",""time""
""fullscreenenter"",""1"",""2300""
","""event"",""trial"",""time""
""fullscreenexit"",""2"",""4327""
",,539,run_exp/static/images/task_images/land.jpg,65,,,,,,,37,,,14,,,,,,,,301892,1,3,TRUE,,,
end_of_block_continue,185,658727,0.0-50.0-0.0,"""event"",""trial"",""time""
""fullscreenenter"",""1"",""2300""
""fullscreenexit"",""2"",""4327""
","
","
","""event"",""trial"",""time""
""fullscreenenter"",""1"",""2300""
","""event"",""trial"",""time""
""fullscreenexit"",""2"",""4327""
",,null,run_exp/static/audio/clip_32_block_end.m4a,,,,,,,null,,,,,,,,,,,,,,,,,,
alien_welcome,186,663734,0.0-51.0-0.0,"""event"",""trial"",""time""
