trial_type,trial_index,time_elapsed,internal_node_id,interactions,blur_events,focus_events,fullscreenenter_events,fullscreenexit_events,success,rt,stimulus,key_press,prompt,subject_id,participant_id,age,gender,button_pressed,next_reward,animation_sequence,responses,planet,curr_prac_trial,n_prac_rounds,alien,aliens,reward_received,decay_rate_actual,decay_rate_exp,time_in_block,block_num,prt,last_trial_on_planet,button_html,bonus,num_failures
pavlovia,0,4,0.0-0.0,"""event"",""trial"",""time""
""fullscreenenter"",""1"",""19609""
","
","
","""event"",""trial"",""time""
""fullscreenenter"",""1"",""19609""
","
",,,,,,,,,,,,,,,,,,,,,,,,,,,,
fullscreen,1,20569,0.0-1.0,"""event"",""trial"",""time""
""fullscreenenter"",""1"",""19609""
","
","
","""event"",""trial"",""time""
""fullscreenenter"",""1"",""19609""
","
",TRUE,,,,,,,,,,,,,,,,,,,,,,,,,,,
instruc_welcome,2,30398,0.0-2.0,"""event"",""trial"",""time""
""fullscreenenter"",""1"",""19609""
""fullscreenexit"",""3"",""45197""
","
","
","""event"",""trial"",""time""
""fullscreenenter"",""1"",""19609""
","""event"",""trial"",""time""
""fullscreenexit"",""3"",""45197""
",,null,run_exp/static/audio/clip_1_welcome.m4a,null,"<p>Howdy! In this experiment, you’ll be an explorer traveling through space to collect space treasure.</p><p>Your mission is to collect as much treasure as possible.</p><br><br><p><img src='run_exp/static/images/task_images/opening_img-01.jpg' height='300' width='auto'></p>",9527,2039,14.68,Male,,,,,,,,,,,,,,,,,,,
audio-keyboard-response,3,47023,0.0-3.0,"""event"",""trial"",""time""
""fullscreenenter"",""1"",""19609""
""fullscreenexit"",""3"",""45197""
","
","
","""event"",""trial"",""time""
""fullscreenenter"",""1"",""19609""
","""event"",""trial"",""time""
""fullscreenexit"",""3"",""45197""
",,null,run_exp/static/audio/clip_2_move.m4a,null,,,,,,,,,,,,,,,,,,,,,,,,
welcome_dec,4,49660,0.0-4.0,"""event"",""trial"",""time""
""fullscreenenter"",""1"",""19609""
""fullscreenexit"",""3"",""45197""
","
","
","""event"",""trial"",""time""
""fullscreenenter"",""1"",""19609""
","""event"",""trial"",""time""
""fullscreenexit"",""3"",""45197""
",,2634.6,"<p>Howdy! In this experiment, you’ll be an explorer traveling through space to collect space treasure.</p><p>Your mission is to collect as much treasure as possible.</p><br><br><p><img src='run_exp/static/images/task_images/opening_img-01.jpg' height='300' width='auto'></p>",,,,,,,0,,,,,,,,,,,,,,,,,,
html-keyboard-response,5,50745,0.0-5.0,"""event"",""trial"",""time""
""fullscreenenter"",""1"",""19609""
""fullscreenexit"",""3"",""45197""
","
","
","""event"",""trial"",""time""
""fullscreenenter"",""1"",""19609""
","""event"",""trial"",""time""
""fullscreenexit"",""3"",""45197""
",,1081.8,"<p>Howdy! In this experiment, you’ll be an explorer traveling through space to collect space treasure.</p><p>Your mission is to collect as much treasure as possible.</p><br><br><p><img src='run_exp/static/images/task_images/opening_img-01.jpg' height='300' width='auto'></p><button class=""jspsych-html-btn-chosen""><img src=""run_exp/static/images/task_images/planet-01.jpg"" height=""50""></button><button class=""jspsych-html-btn-unchosen""><img src=""run_exp/static/images/task_images/planet-02.jpg"" height=""50""></button><p><b>[press the space bar to lock in your answer]<b><br></p>",32,,,,,,,,,,,,,,,,,,,,,,,,
instruc_welcome,6,60491,0.0-6.0-0.0,"""event"",""trial"",""time""
""fullscreenenter"",""1"",""19609""
""fullscreenexit"",""3"",""45197""
","
","
","""event"",""trial"",""time""
""fullscreenenter"",""1"",""19609""
","""event"",""trial"",""time""
""fullscreenexit"",""3"",""45197""
",,null,run_exp/static/audio/clip_1_welcome.m4a,null,"<p>Howdy! In this experiment, you’ll be an explorer traveling through space to collect space treasure.</p><p>Your mission is to collect as much treasure as possible.</p><br><br><p><img src='run_exp/static/images/task_images/opening_img-01.jpg' height='300' width='auto'></p>",9527,2039,14.68,Male,,,,,,,,,,,,,,,,,,,
audio-keyboard-response,7,77092,0.0-6.0-1.0,"""event"",""trial"",""time""
""fullscreenenter"",""1"",""19609""
""fullscreenexit"",""3"",""45197""
","
","
","""event"",""trial"",""time""
""fullscreenenter"",""1"",""19609""
","""event"",""trial"",""time""
""fullscreenexit"",""3"",""45197""
",,null,run_exp/static/audio/clip_2_move.m4a,null,,,,,,,,,,,,,,,,,,,,,,,,
welcome_dec,8,80740,0.0-6.0-2.0,"""event"",""trial"",""time""
""fullscreenenter"",""1"",""19609""
""fullscreenexit"",""3"",""45197""
","
","
","""event"",""trial"",""time""
""fullscreenenter"",""1"",""19609""
","""event"",""trial"",""time""
""fullscreenexit"",""3"",""45197""
",,3644.9,"<p>Howdy! In this experiment, you’ll be an explorer traveling through space to collect space treasure.</p><p>Your mission is to collect as much treasure as possible.</p><br><br><p><img src='run_exp/static/images/task_images/opening_img-01.jpg' height='300' width='auto'></p>",,,,,,,1,,,,,,,,,,,,,,,,,,
html-keyboard-response,9,81877,0.0-6.0-3.0,"""event"",""trial"",""time""
""fullscreenenter"",""1"",""19609""
""fullscreenexit"",""3"",""45197""
","
","
","""event"",""trial"",""time""
""fullscreenenter"",""1"",""19609""
","""event"",""trial"",""time""
""fullscreenexit"",""3"",""45197""
",,1134.7,"<p>Howdy! In this experiment, you’ll be an explorer traveling through space to collect space treasure.</p><p>Your mission is to collect as much treasure as possible.</p><br><br><p><img src='run_exp/static/images/task_images/opening_img-01.jpg' height='300' width='auto'></p><button class=""jspsych-html-btn-unchosen""><img src=""run_exp/static/images/task_images/planet-01.jpg"" height=""50""></button><button class=""jspsych-html-btn-chosen""><img src=""run_exp/static/images/task_images/planet-02.jpg"" height=""50""></button><p><b>[press the space bar to lock in your answer]<b><br></p>",32,,,,,,,,,,,,,,,,,,,,,,,,
instruc_goal,10,91953,0.0-7.0-0.0,"""event"",""trial"",""time""
""fullscreenenter"",""1"",""19609""
""fullscreenexit"",""3"",""45197""
","
","
","""event"",""trial"",""time""
""fullscreenenter"",""1"",""19609""
","""event"",""trial"",""time""
""fullscreenexit"",""3"",""45197""
",,null,run_exp/static/audio/clip_3_goal.m4a,null,"<p> As a space explorer, you’ll visit different planets to dig for space treasure, these pink gems.</p> <p> The more treasure you dig up, the more bonus money you’ll win! </p><br><br><p><img src='run_exp/static/images/task_images/pink_gem.jpg' height='300' width='auto'></p>",,,,,,,,,,,,,,,,,,,,,,,
instruc_goal,11,94269,0.0-7.0-1.0,"""event"",""trial"",""time""
""fullscreenenter"",""1"",""19609""
""fullscreenexit"",""3"",""45197""
","
","
","""event"",""trial"",""time""
""fullscreenenter"",""1"",""19609""
","""event"",""trial"",""time""
""fullscreenexit"",""3"",""45197""
",,2313.6,"<p> As a space explorer, you’ll visit different planets to dig for space treasure, these pink gems.</p> <p> The more treasure you dig up, the more bonus money you’ll win! </p><br><br><p><img src='run_exp/static/images/task_images/pink_gem.jpg' height='300' width='auto'></p>",,,,,,,1,,,,,,,,,,,,,,,,,,
html-keyboard-response,12,95291,0.0-7.0-2.0,"""event"",""trial"",""time""
""fullscreenenter"",""1"",""19609""
""fullscreenexit"",""3"",""45197""
","
","
","""event"",""trial"",""time""
""fullscreenenter"",""1"",""19609""
","""event"",""trial"",""time""
""fullscreenexit"",""3"",""45197""
",,1018.6,"<p> As a space explorer, you’ll visit different planets to dig for space treasure, these pink gems.</p> <p> The more treasure you dig up, the more bonus money you’ll win! </p><br><br><p><img src='run_exp/static/images/task_images/pink_gem.jpg' height='300' width='auto'></p><button class=""jspsych-html-btn-unchosen""><img src=""run_exp/static/images/task_images/planet-01.jpg"" height=""50""></button><button class=""jspsych-html-btn-chosen""><img src=""run_exp/static/images/task_images/planet-02.jpg"" height=""50""></button><p><b>[press the space bar to lock in your answer]<b><br></p>",32,,,,,,,,,,,,,,,,,,,,,,,,
instruc_dig,13,111318,0.0-8.0-0.0,"""event"",""trial"",""time""
""fullscreenenter"",""1"",""19609""
""fullscreenexit"",""3"",""45197""
","
","
","""event"",""trial"",""time""
""fullscreenenter"",""1"",""19609""
","""event"",""trial"",""time""
""fullscreenexit"",""3"",""45197""
",,null,run_exp/static/audio/clip_4_dig.m4a,null,,,,,,,100,,,,,,,,,,,,,,,,,
instruc_dig_try,14,111511,0.0-8.0-1.0,"""event"",""trial"",""time""
""fullscreenenter"",""1"",""19609""
""fullscreenexit"",""3"",""45197""
","
","
","""event"",""trial"",""time""
""fullscreenenter"",""1"",""19609""
","""event"",""trial"",""time""
""fullscreenexit"",""3"",""45197""
",,191.8,"<p> When you’ve arrived at a new planet, you will dig once. </p> <p>Then, you get to decide if you want to stay on the planet and dig again or travel to a new planet and dig there.</p> <p> To stay and dig, press the letter <strong>‘A’</strong> on your keyboard. Try pressing it now! </p><p><img src='run_exp/static/images/task_images/land.jpg'  height='700' width='auto'></p>",65,"<p> When you’ve arrived at a new planet, you will dig once. </p> <p>Then, you get to decide if you want to stay on the planet and dig again or travel to a new planet and dig there.</p> <p> To stay and dig, press the letter <strong>‘A’</strong> on your keyboard. Try pressing it now! </p><p><img src='run_exp/static/images/task_images/land.jpg'  height='700' width='auto'></p>",,,,,,100,,,,,,,,,,,,,,,,,
dig_prac,15,113540,0.0-8.0-2.0,"""event"",""trial"",""time""
""fullscreenenter"",""1"",""19609""
""fullscreenexit"",""3"",""45197""
","
","
","""event"",""trial"",""time""
""fullscreenenter"",""1"",""19609""
","""event"",""trial"",""time""
""fullscreenexit"",""3"",""45197""
",,,,,,,,,,,,"[{""stimulus"":""run_exp/static/images/task_images/dig.jpg"",""time"":0.3999999985098839},{""stimulus"":""run_exp/static/images/task_images/land.jpg"",""time"":669.5},{""stimulus"":""run_exp/static/images/task_images/dig.jpg"",""time"":1342.6000000014901}]",[],,,,,,,,,,,,,,,
instruc_travel,16,149793,0.0-8.0-3.0,"""event"",""trial"",""time""
""fullscreenenter"",""1"",""19609""
""fullscreenexit"",""3"",""45197""
","
","
","""event"",""trial"",""time""
""fullscreenenter"",""1"",""19609""
","""event"",""trial"",""time""
""fullscreenexit"",""3"",""45197""
",,null,run_exp/static/audio/clip_5_travel.m4a,null,"<p>Every time you dig up gems, there are less gems on the planet, so the more you dig on a planet the fewer gems you’ll get with each dig.</p><p>When gems are running low, you may want to travel to a new planet. </p> <p>  Planets are very far apart in this galaxy, so it will take some time to travel between them. </p> <br><p>There are lots and lots of planets for you to visit, so you won’t be able to return to any planets you’ve seen before. </p><br><p>To leave this planet and travel to a new one, press the letter <strong>‘L’</strong> on your keyboard. Try pressing it now! </p><p><img src='run_exp/static/images/task_images/rocket-01.jpg'  height='600' width='auto'></p>",,,,,,,,,,,,,,,,,,,,,,,
instruc_travel_try,17,149842,0.0-8.0-4.0,"""event"",""trial"",""time""
""fullscreenenter"",""1"",""19609""
""fullscreenexit"",""3"",""45197""
","
","
","""event"",""trial"",""time""
""fullscreenenter"",""1"",""19609""
","""event"",""trial"",""time""
""fullscreenexit"",""3"",""45197""
",,44.2,"<p>Every time you dig up gems, there are less gems on the planet, so the more you dig on a planet the fewer gems you’ll get with each dig.</p><p>When gems are running low, you may want to travel to a new planet. </p> <p>  Planets are very far apart in this galaxy, so it will take some time to travel between them. </p> <br><p>There are lots and lots of planets for you to visit, so you won’t be able to return to any planets you’ve seen before. </p><br><p>To leave this planet and travel to a new one, press the letter <strong>‘L’</strong> on your keyboard. Try pressing it now! </p><p><img src='run_exp/static/images/task_images/rocket-01.jpg'  height='600' width='auto'></p>",76,"<p>Every time you dig up gems, there are less gems on the planet, so the more you dig on a planet the fewer gems you’ll get with each dig.</p><p>When gems are running low, you may want to travel to a new planet. </p> <p>  Planets are very far apart in this galaxy, so it will take some time to travel between them. </p> <br><p>There are lots and lots of planets for you to visit, so you won’t be able to return to any planets you’ve seen before. </p><br><p>To leave this planet and travel to a new one, press the letter <strong>‘L’</strong> on your keyboard. Try pressing it now! </p><p><img src='run_exp/static/images/task_images/rocket-01.jpg'  height='600' width='auto'></p>",,,,,,,,,,,,,,,,,,,,,,,
travel_prac,18,159847,0.0-8.0-5.0,"""event"",""trial"",""time""
""fullscreenenter"",""1"",""19609""
""fullscreenexit"",""3"",""45197""
","
","
","""event"",""trial"",""time""
""fullscreenenter"",""1"",""19609""
","""event"",""trial"",""time""
""fullscreenexit"",""3"",""45197""
",,,,,,,,,,,,"[{""stimulus"":""run_exp/static/images/task_images/rocket-01.jpg"",""time"":0.30000000447034836},{""stimulus"":""run_exp/static/images/task_images/rocket-02.jpg"",""time"":1115.8999999985099},{""stimulus"":""run_exp/static/images/task_images/rocket-03.jpg"",""time"":2230.10000000149},{""stimulus"":""run_exp/static/images/task_images/rocket-04.jpg"",""time"":3344.7000000029802},{""stimulus"":""run_exp/static/images/task_images/rocket-05.jpg"",""time"":4453},{""stimulus"":""run_exp/static/images/task_images/rocket-06.jpg"",""time"":5556.60000000149},{""stimulus"":""run_exp/static/images/task_images/rocket-07.jpg"",""time"":6671},{""stimulus"":""run_exp/static/images/task_images/rocket-08.jpg"",""time"":7779.80000000447},{""stimulus"":""run_exp/static/images/task_images/rocket-09.jpg"",""time"":8894.30000000447}]",[],0,,,,,,,,,,,,,,
instruc_alien_greet,19,187060,0.0-8.0-6.0,"""event"",""trial"",""time""
""fullscreenenter"",""1"",""19609""
""fullscreenexit"",""3"",""45197""
","
","
","""event"",""trial"",""time""
""fullscreenenter"",""1"",""19609""
","""event"",""trial"",""time""
""fullscreenexit"",""3"",""45197""
",,null,run_exp/static/audio/clip_6_alien.m4a,null,"<p>When you arrive at a new planet, the alien who owns the treasure mine on that planet will greet you!</p><p>The better an alien takes care of their mine the easier it is to dig for gems. Some aliens take better care of their mine than others. So, you won’t get exactly the same amount of gems on each planet.</p><p>What the alien looks like does not tell you anything about how many gems there are on the planet.</p><br><p><img src=""run_exp/static/images/task_images/aliens/instructions_aliens/planet/alien_planet-1.jpg""  height=""600"" width=""auto""></p>",,,,,,,,,,,,,,,,,,,,,,,
instruc_alien_greet,20,194960,0.0-8.0-7.0,"""event"",""trial"",""time""
""fullscreenenter"",""1"",""19609""
""fullscreenexit"",""3"",""45197""
","
","
","""event"",""trial"",""time""
""fullscreenenter"",""1"",""19609""
","""event"",""trial"",""time""
""fullscreenexit"",""3"",""45197""
",,7898,"<p>When you arrive at a new planet, the alien who owns the treasure mine on that planet will greet you!</p><p>The better an alien takes care of their mine the easier it is to dig for gems. Some aliens take better care of their mine than others. So, you won’t get exactly the same amount of gems on each planet.</p><p>What the alien looks like does not tell you anything about how many gems there are on the planet.</p><br><p><img src=""run_exp/static/images/task_images/aliens/instructions_aliens/planet/alien_planet-1.jpg""  height=""600"" width=""auto""></p>",,,,,,,1,,,,,,,,,,,,,,,,,,
html-keyboard-response,21,196630,0.0-8.0-8.0,"""event"",""trial"",""time""
""fullscreenenter"",""1"",""19609""
""fullscreenexit"",""3"",""45197""
","
","
","""event"",""trial"",""time""
""fullscreenenter"",""1"",""19609""
","""event"",""trial"",""time""
""fullscreenexit"",""3"",""45197""
",,1667.2,"<p>When you arrive at a new planet, the alien who owns the treasure mine on that planet will greet you!</p><p>The better an alien takes care of their mine the easier it is to dig for gems. Some aliens take better care of their mine than others. So, you won’t get exactly the same amount of gems on each planet.</p><p>What the alien looks like does not tell you anything about how many gems there are on the planet.</p><br><p><img src=""run_exp/static/images/task_images/aliens/instructions_aliens/planet/alien_planet-1.jpg""  height=""600"" width=""auto""></p><button class=""jspsych-html-btn-unchosen""><img src=""run_exp/static/images/task_images/planet-01.jpg"" height=""50""></button><button class=""jspsych-html-btn-chosen""><img src=""run_exp/static/images/task_images/planet-02.jpg"" height=""50""></button><p><b>[press the space bar to lock in your answer]<b><br></p>",32,,,,,,,,,,,,,,,,,,,,,,,,
time_out,22,207749,0.0-9.0-0.0,"""event"",""trial"",""time""
""fullscreenenter"",""1"",""19609""
""fullscreenexit"",""3"",""45197""
","
","
","""event"",""trial"",""time""
""fullscreenenter"",""1"",""19609""
","""event"",""trial"",""time""
""fullscreenexit"",""3"",""45197""
",,null,run_exp/static/audio/clip_7_timeout.m4a,null,"<p>If you don't make your choice fast enough, you’ll have to wait a few seconds before you can make another one.</p><p>You can’t dig for more gems or travel to new planets. You just have to sit and wait.</p><br><p><img src='run_exp/static/images/task_images/time_out.jpg'  height='600' width='auto'></p>",,,,,,,,,,,,,,,,,,,,,,,
time_out,23,215460,0.0-9.0-1.0,"""event"",""trial"",""time""
""fullscreenenter"",""1"",""19609""
""fullscreenexit"",""3"",""45197""
","
","
","""event"",""trial"",""time""
""fullscreenenter"",""1"",""19609""
","""event"",""trial"",""time""
""fullscreenexit"",""3"",""45197""
",,7708.4,"<p>If you don't make your choice fast enough, you’ll have to wait a few seconds before you can make another one.</p><p>You can’t dig for more gems or travel to new planets. You just have to sit and wait.</p><br><p><img src='run_exp/static/images/task_images/time_out.jpg'  height='600' width='auto'></p>",,,,,,,1,,,,,,,,,,,,,,,,,,
html-keyboard-response,24,216928,0.0-9.0-2.0,"""event"",""trial"",""time""
""fullscreenenter"",""1"",""19609""
""fullscreenexit"",""3"",""45197""
","
","
","""event"",""trial"",""time""
""fullscreenenter"",""1"",""19609""
","""event"",""trial"",""time""
""fullscreenexit"",""3"",""45197""
",,1466.1,"<p>If you don't make your choice fast enough, you’ll have to wait a few seconds before you can make another one.</p><p>You can’t dig for more gems or travel to new planets. You just have to sit and wait.</p><br><p><img src='run_exp/static/images/task_images/time_out.jpg'  height='600' width='auto'></p><button class=""jspsych-html-btn-unchosen""><img src=""run_exp/static/images/task_images/planet-01.jpg"" height=""50""></button><button class=""jspsych-html-btn-chosen""><img src=""run_exp/static/images/task_images/planet-02.jpg"" height=""50""></button><p><b>[press the space bar to lock in your answer]<b><br></p>",32,,,,,,,,,,,,,,,,,,,,,,,,
instruc_break,25,232617,0.0-10.0-0.0,"""event"",""trial"",""time""
""fullscreenenter"",""1"",""19609""
""fullscreenexit"",""3"",""45197""
","
","
","""event"",""trial"",""time""
""fullscreenenter"",""1"",""19609""
","""event"",""trial"",""time""
""fullscreenexit"",""3"",""45197""
",,null,run_exp/static/audio/clip_8_break.m4a,null,"<p> After digging and traveling for a while, you’ll be able to take a break at home base. </p><p>The game will last 20 minutes no matter what.</p><p>You will visit home base every 5 minutes, so, you will visit home base three times during the game.</p><br><p><img src='run_exp/static/images/task_images/home_base.jpg' height='600' width='auto'></p>",,,,,,,,,,,,,,,,,,,,,,,
instruc_break,26,241148,0.0-10.0-1.0,"""event"",""trial"",""time""
""fullscreenenter"",""1"",""19609""
""fullscreenexit"",""3"",""45197""
","
","
","""event"",""trial"",""time""
""fullscreenenter"",""1"",""19609""
","""event"",""trial"",""time""
""fullscreenexit"",""3"",""45197""
",,8528.7,"<p> After digging and traveling for a while, you’ll be able to take a break at home base. </p><p>The game will last 20 minutes no matter what.</p><p>You will visit home base every 5 minutes, so, you will visit home base three times during the game.</p><br><p><img src='run_exp/static/images/task_images/home_base.jpg' height='600' width='auto'></p>",,,,,,,1,,,,,,,,,,,,,,,,,,
html-keyboard-response,27,241703,0.0-10.0-2.0,"""event"",""trial"",""time""
""fullscreenenter"",""1"",""19609""
""fullscreenexit"",""3"",""45197""
","
","
","""event"",""trial"",""time""
""fullscreenenter"",""1"",""19609""
","""event"",""trial"",""time""
""fullscreenexit"",""3"",""45197""
",,552.7,"<p> After digging and traveling for a while, you’ll be able to take a break at home base. </p><p>The game will last 20 minutes no matter what.</p><p>You will visit home base every 5 minutes, so, you will visit home base three times during the game.</p><br><p><img src='run_exp/static/images/task_images/home_base.jpg' height='600' width='auto'></p><button class=""jspsych-html-btn-unchosen""><img src=""run_exp/static/images/task_images/planet-01.jpg"" height=""50""></button><button class=""jspsych-html-btn-chosen""><img src=""run_exp/static/images/task_images/planet-02.jpg"" height=""50""></button><p><b>[press the space bar to lock in your answer]<b><br></p>",32,,,,,,,,,,,,,,,,,,,,,,,,
instruc_prac_game,28,251843,0.0-11.0-0.0,"""event"",""trial"",""time""
""fullscreenenter"",""1"",""19609""
""fullscreenexit"",""3"",""45197""
","
","
","""event"",""trial"",""time""
""fullscreenenter"",""1"",""19609""
","""event"",""trial"",""time""
""fullscreenexit"",""3"",""45197""
",,null,run_exp/static/audio/clip_9_practice.m4a,null,"<p> Are you ready to play a practice game? </p> <p>In this practice game, you'll be digging up barrels of gems. But, in the real game, you'll be digging up the gems themselves. </p>",,,,,,,,,,,,,,,,,,,,,,,
html-button-response,29,278625,0.0-11.0-1.0,"""event"",""trial"",""time""
""fullscreenenter"",""1"",""19609""
""fullscreenexit"",""3"",""45197""
","
","
","""event"",""trial"",""time""
""fullscreenenter"",""1"",""19609""
","""event"",""trial"",""time""
""fullscreenexit"",""3"",""45197""
",,26781,"<p> Are you ready to play a practice game? </p> <p>In this practice game, you'll be digging up barrels of gems. But, in the real game, you'll be digging up the gems themselves. </p>",,,,,,,0,,,,,,,,,,,,,,,,,,
alien_welcome_prac,30,283641,0.0-12.0-0.0,"""event"",""trial"",""time""
""fullscreenenter"",""1"",""19609""
""fullscreenexit"",""3"",""45197""
","
","
","""event"",""trial"",""time""
""fullscreenenter"",""1"",""19609""
","""event"",""trial"",""time""
""fullscreenexit"",""3"",""45197""
",,null,run_exp/static/images/task_images/aliens/practice_aliens/planet/alien_planet-5.jpg,null,,,,,,,,,,,,,,,,,,,,,,,,
land_prac,31,284151,0.0-12.0-1.0,"""event"",""trial"",""time""
""fullscreenenter"",""1"",""19609""
""fullscreenexit"",""3"",""45197""
","
","
","""event"",""trial"",""time""
""fullscreenenter"",""1"",""19609""
","""event"",""trial"",""time""
""fullscreenexit"",""3"",""45197""
",,null,run_exp/static/images/task_images/land.jpg,null,,,,,,,107,,,0,,,,,,,,,,,,,,
dig_prac,32,286160,0.0-12.0-2.0,"""event"",""trial"",""time""
""fullscreenenter"",""1"",""19609""
""fullscreenexit"",""3"",""45197""
","
","
","""event"",""trial"",""time""
""fullscreenenter"",""1"",""19609""
","""event"",""trial"",""time""
""fullscreenexit"",""3"",""45197""
",,,,,,,,,,,,"[{""stimulus"":""run_exp/static/images/task_images/dig.jpg"",""time"":0.20000000298023224},{""stimulus"":""run_exp/static/images/task_images/land.jpg"",""time"":672.8999999985099},{""stimulus"":""run_exp/static/images/task_images/dig.jpg"",""time"":1342.6000000014901}]",[],,,,,,,,,,,,,,,
harvest_prac,33,287165,0.0-12.0-3.0,"""event"",""trial"",""time""
""fullscreenenter"",""1"",""19609""
""fullscreenexit"",""3"",""45197""
","
","
","""event"",""trial"",""time""
""fullscreenenter"",""1"",""19609""
","""event"",""trial"",""time""
""fullscreenexit"",""3"",""45197""
",,null,run_exp/static/images/task_images/barrel_text.jpg,null,,,,,,,,,,,,,,,,,,,,,,,,
decision_prac,34,288478,0.0-12.0-4.0,"""event"",""trial"",""time""
""fullscreenenter"",""1"",""19609""
""fullscreenexit"",""3"",""45197""
","
","
","""event"",""trial"",""time""
""fullscreenenter"",""1"",""19609""
","""event"",""trial"",""time""
""fullscreenexit"",""3"",""45197""
",,1312,run_exp/static/images/task_images/land.jpg,65,,,,,,,,,,,1,,,,,,,,,,,,,
dig_prac,35,290486,0.0-13.0-0.0,"""event"",""trial"",""time""
""fullscreenenter"",""1"",""19609""
""fullscreenexit"",""3"",""45197""
","
","
","""event"",""trial"",""time""
""fullscreenenter"",""1"",""19609""
","""event"",""trial"",""time""
""fullscreenexit"",""3"",""45197""
",,,,,,,,,,,,"[{""stimulus"":""run_exp/static/images/task_images/dig.jpg"",""time"":0.10000000149011612},{""stimulus"":""run_exp/static/images/task_images/land.jpg"",""time"":668.8000000044703},{""stimulus"":""run_exp/static/images/task_images/dig.jpg"",""time"":1343.2000000029802}]",[],,,,,,,,,,,,,,,
harvest_prac,36,291495,0.0-13.0-1.0,"""event"",""trial"",""time""
""fullscreenenter"",""1"",""19609""
""fullscreenexit"",""3"",""45197""
","
","
","""event"",""trial"",""time""
""fullscreenenter"",""1"",""19609""
","""event"",""trial"",""time""
""fullscreenexit"",""3"",""45197""
",,null,run_exp/static/images/task_images/barrel_text.jpg,null,,,,,,,,,,,,,,,,,,,,,,,,
decision_prac,37,293253,0.0-13.0-2.0,"""event"",""trial"",""time""
""fullscreenenter"",""1"",""19609""
""fullscreenexit"",""3"",""45197""
","
","
","""event"",""trial"",""time""
""fullscreenenter"",""1"",""19609""
","""event"",""trial"",""time""
""fullscreenexit"",""3"",""45197""
",,1757.4,run_exp/static/images/task_images/land.jpg,65,,,,,,,,,,,2,,,,,,,,,,,,,
dig_prac,38,295262,0.0-14.0-0.0,"""event"",""trial"",""time""
""fullscreenenter"",""1"",""19609""
""fullscreenexit"",""3"",""45197""
","
","
","""event"",""trial"",""time""
""fullscreenenter"",""1"",""19609""
","""event"",""trial"",""time""
""fullscreenexit"",""3"",""45197""
",,,,,,,,,,,,"[{""stimulus"":""run_exp/static/images/task_images/dig.jpg"",""time"":0.10000000149011612},{""stimulus"":""run_exp/static/images/task_images/land.jpg"",""time"":673.2000000029802},{""stimulus"":""run_exp/static/images/task_images/dig.jpg"",""time"":1336.6000000014901}]",[],,,,,,,,,,,,,,,
harvest_prac,39,296272,0.0-14.0-1.0,"""event"",""trial"",""time""
""fullscreenenter"",""1"",""19609""
""fullscreenexit"",""3"",""45197""
","
","
","""event"",""trial"",""time""
""fullscreenenter"",""1"",""19609""
","""event"",""trial"",""time""
""fullscreenexit"",""3"",""45197""
",,null,run_exp/static/images/task_images/barrel_text.jpg,null,,,,,,,,,,,,,,,,,,,,,,,,
decision_prac,40,299085,0.0-14.0-2.0,"""event"",""trial"",""time""
""fullscreenenter"",""1"",""19609""
""fullscreenexit"",""3"",""45197""
","
","
","""event"",""trial"",""time""
""fullscreenenter"",""1"",""19609""
","""event"",""trial"",""time""
""fullscreenexit"",""3"",""45197""
",,2811.6,run_exp/static/images/task_images/land.jpg,65,,,,,,,,,,,3,,,,,,,,,,,,,
dig_prac,41,301095,0.0-15.0-0.0,"""event"",""trial"",""time""
""fullscreenenter"",""1"",""19609""
""fullscreenexit"",""3"",""45197""
","
","
","""event"",""trial"",""time""
""fullscreenenter"",""1"",""19609""
","""event"",""trial"",""time""
""fullscreenexit"",""3"",""45197""
",,,,,,,,,,,,"[{""stimulus"":""run_exp/static/images/task_images/dig.jpg"",""time"":0.20000000298023224},{""stimulus"":""run_exp/static/images/task_images/land.jpg"",""time"":668.6000000014901},{""stimulus"":""run_exp/static/images/task_images/dig.jpg"",""time"":1341.1000000014901}]",[],,,,,,,,,,,,,,,
harvest_prac,42,302097,0.0-15.0-1.0,"""event"",""trial"",""time""
""fullscreenenter"",""1"",""19609""
""fullscreenexit"",""3"",""45197""
","
","
","""event"",""trial"",""time""
""fullscreenenter"",""1"",""19609""
","""event"",""trial"",""time""
""fullscreenexit"",""3"",""45197""
",,null,run_exp/static/images/task_images/barrel_text.jpg,null,,,,,,,,,,,,,,,,,,,,,,,,
decision_prac,43,304044,0.0-15.0-2.0,"""event"",""trial"",""time""
""fullscreenenter"",""1"",""19609""
""fullscreenexit"",""3"",""45197""
","
","
","""event"",""trial"",""time""
""fullscreenenter"",""1"",""19609""
","""event"",""trial"",""time""
""fullscreenexit"",""3"",""45197""
",,1945.6,run_exp/static/images/task_images/land.jpg,76,,,,,,,,,,,4,,,,,,,,,,,,,
travel,44,312104,0.0-16.0-0.0,"""event"",""trial"",""time""
""fullscreenenter"",""1"",""19609""
""fullscreenexit"",""3"",""45197""
","
","
","""event"",""trial"",""time""
""fullscreenenter"",""1"",""19609""
","""event"",""trial"",""time""
""fullscreenexit"",""3"",""45197""
",,,,,,,,,,,,"[{""stimulus"":""run_exp/static/images/task_images/rocket-01.jpg"",""time"":0.29999999701976776},{""stimulus"":""run_exp/static/images/task_images/rocket-02.jpg"",""time"":903.7999999970198},{""stimulus"":""run_exp/static/images/task_images/rocket-03.jpg"",""time"":1794.1000000014901},{""stimulus"":""run_exp/static/images/task_images/rocket-04.jpg"",""time"":2687},{""stimulus"":""run_exp/static/images/task_images/rocket-05.jpg"",""time"":3585},{""stimulus"":""run_exp/static/images/task_images/rocket-06.jpg"",""time"":4479.29999999702},{""stimulus"":""run_exp/static/images/task_images/rocket-07.jpg"",""time"":5367.89999999851},{""stimulus"":""run_exp/static/images/task_images/rocket-08.jpg"",""time"":6262},{""stimulus"":""run_exp/static/images/task_images/rocket-09.jpg"",""time"":7160.39999999851}]",[],0,,,,,,,,,,,,,,
alien_welcome_prac,45,317108,0.0-16.0-1.0,"""event"",""trial"",""time""
""fullscreenenter"",""1"",""19609""
""fullscreenexit"",""3"",""45197""
","
","
","""event"",""trial"",""time""
""fullscreenenter"",""1"",""19609""
","""event"",""trial"",""time""
""fullscreenexit"",""3"",""45197""
",,null,run_exp/static/images/task_images/aliens/practice_aliens/planet/alien_planet-4.jpg,null,,,,,,,,,,,,,,,,,,,,,,,,
land_prac,46,317614,0.0-16.0-2.0,"""event"",""trial"",""time""
""fullscreenenter"",""1"",""19609""
""fullscreenexit"",""3"",""45197""
","
","
","""event"",""trial"",""time""
""fullscreenenter"",""1"",""19609""
","""event"",""trial"",""time""
""fullscreenexit"",""3"",""45197""
",,null,run_exp/static/images/task_images/land.jpg,null,,,,,,,103,,,0,,,,,,,,,,,,,,
dig_prac,47,319620,0.0-16.0-3.0,"""event"",""trial"",""time""
""fullscreenenter"",""1"",""19609""
""fullscreenexit"",""3"",""45197""
","
","
","""event"",""trial"",""time""
""fullscreenenter"",""1"",""19609""
","""event"",""trial"",""time""
""fullscreenexit"",""3"",""45197""
",,,,,,,,,,,,"[{""stimulus"":""run_exp/static/images/task_images/dig.jpg"",""time"":0.30000000447034836},{""stimulus"":""run_exp/static/images/task_images/land.jpg"",""time"":668.6000000014901},{""stimulus"":""run_exp/static/images/task_images/dig.jpg"",""time"":1335.2000000029802}]",[],,,,,,,,,,,,,,,
harvest_prac,48,320630,0.0-16.0-4.0,"""event"",""trial"",""time""
""fullscreenenter"",""1"",""19609""
""fullscreenexit"",""3"",""45197""
","
","
","""event"",""trial"",""time""
""fullscreenenter"",""1"",""19609""
","""event"",""trial"",""time""
""fullscreenexit"",""3"",""45197""
",,null,run_exp/static/images/task_images/barrel_text.jpg,null,,,,,,,,,,,,,,,,,,,,,,,,
decision_prac,49,323636,0.0-16.0-5.0,"""event"",""trial"",""time""
""fullscreenenter"",""1"",""19609""
""fullscreenexit"",""3"",""45197""
","
","
","""event"",""trial"",""time""
""fullscreenenter"",""1"",""19609""
","""event"",""trial"",""time""
""fullscreenexit"",""3"",""45197""
",,null,run_exp/static/images/task_images/land.jpg,null,,,,,,,,,,,,1,,,,,,,,,,,,
quiz_instruc,50,325911,0.0-17.0-0.0,"""event"",""trial"",""time""
""fullscreenenter"",""1"",""19609""
""fullscreenexit"",""3"",""45197""
","
","
","""event"",""trial"",""time""
""fullscreenenter"",""1"",""19609""
","""event"",""trial"",""time""
""fullscreenexit"",""3"",""45197""
",,2270,run_exp/static/audio/clip_10_quiz.m4a,,,,,,,0,,,,,,,,,,,,,,,,,,
instruc_repeat,51,368690,0.0-17.0-1.0,"""event"",""trial"",""time""
""fullscreenenter"",""1"",""19609""
""fullscreenexit"",""3"",""45197""
","
","
","""event"",""trial"",""time""
""fullscreenenter"",""1"",""19609""
","""event"",""trial"",""time""
""fullscreenexit"",""3"",""45197""
",,null,"<p> Are you ready to play a practice game? </p> <p>In this practice game, you'll be digging up barrels of gems. But, in the real game, you'll be digging up the gems themselves. </p>",null,"<p>In this game, your goal is to collect as many gems as you can. That’s how you will win bonus money. </p> <p>The entire game will last 20 minutes no matter how many gems you collect or how many planets you visit. </p><p>To stay on a planet and dig again, press the letter A on your keyboard. To leave for a new planet, press the letter L.</p><p>The more you dig on a planet, the fewer gems you’ll get with each dig which is why you might consider leaving for a new planet. </p><p>When you arrive at a new planet, you’ll be greeted by an alien. What the alien looks like does not tell you anything about how much treasure is on the planet. </p>",,,,,,,,,,,,,,,,,,,,,,,
instruc_repeat_continue,52,373417,0.0-17.0-2.0,"""event"",""trial"",""time""
""fullscreenenter"",""1"",""19609""
""fullscreenexit"",""3"",""45197""
","
","
","""event"",""trial"",""time""
""fullscreenenter"",""1"",""19609""
","""event"",""trial"",""time""
""fullscreenexit"",""3"",""45197""
",,4710.3,"<p> Are you ready to play a practice game? </p> <p>In this practice game, you'll be digging up barrels of gems. But, in the real game, you'll be digging up the gems themselves. </p>",,,,,,,0,,,,,,,,,,,,,,,,,,
quiz_q_1_ask,53,377016,0.0-17.0-3.0,"""event"",""trial"",""time""
""fullscreenenter"",""1"",""19609""
""fullscreenexit"",""3"",""45197""
","
","
","""event"",""trial"",""time""
""fullscreenenter"",""1"",""19609""
","""event"",""trial"",""time""
""fullscreenexit"",""3"",""45197""
",,3596.8,run_exp/static/audio/clip_11_q1_ask.m4a,,,,,,,2,,,,,,,,,,,,,,,,,,
quiz_q_1_fb_correct,54,380880,0.0-18.0-0.0,"""event"",""trial"",""time""
""fullscreenenter"",""1"",""19609""
""fullscreenexit"",""3"",""45197""
","
","
","""event"",""trial"",""time""
""fullscreenenter"",""1"",""19609""
","""event"",""trial"",""time""
""fullscreenexit"",""3"",""45197""
",,null,run_exp/static/audio/clip_12_q1_correct.m4a,null,<p>That’s correct. You win extra money by collecting more gems.</p>,,,,,,,,,,,,,,,,,,,,,,,
quiz_q_2_ask,55,392719,0.0-18.0-1.0,"""event"",""trial"",""time""
""fullscreenenter"",""1"",""19609""
""fullscreenexit"",""3"",""45197""
","
","
","""event"",""trial"",""time""
""fullscreenenter"",""1"",""19609""
","""event"",""trial"",""time""
""fullscreenexit"",""3"",""45197""
",,11836.6,run_exp/static/audio/clip_14_q2_ask.m4a,,,,,,,1,,,,,,,,,,,,,,,,,,
quiz_q_2_fb_correct,56,396693,0.0-19.0-0.0,"""event"",""trial"",""time""
""fullscreenenter"",""1"",""19609""
""fullscreenexit"",""3"",""45197""
","
","
","""event"",""trial"",""time""
""fullscreenenter"",""1"",""19609""
","""event"",""trial"",""time""
""fullscreenexit"",""3"",""45197""
",,null,run_exp/static/audio/clip_15_q2_correct.m4a,null,<p>That’s correct. The experiment is 20 minutes no matter what.</p>,,,,,,,,,,,,,,,,,,,,,,,
quiz_q_3_ask,57,406216,0.0-19.0-1.0,"""event"",""trial"",""time""
""fullscreenenter"",""1"",""19609""
""fullscreenexit"",""3"",""45197""
","
","
","""event"",""trial"",""time""
""fullscreenenter"",""1"",""19609""
","""event"",""trial"",""time""
""fullscreenexit"",""3"",""45197""
",,9521.1,run_exp/static/audio/clip_17_q3_ask.m4a,,,,,,,1,,,,,,,,,,,,,,,,,,
quiz_q_3_fb_correct,58,410206,0.0-20.0-0.0,"""event"",""trial"",""time""
""fullscreenenter"",""1"",""19609""
""fullscreenexit"",""3"",""45197""
","
","
","""event"",""trial"",""time""
""fullscreenenter"",""1"",""19609""
","""event"",""trial"",""time""
""fullscreenexit"",""3"",""45197""
",,null,run_exp/static/audio/clip_18_q3_correct.m4a,null,<p> That’s correct. You press the letter L to travel to a new planet.</p>,,,,,,,,,,,,,,,,,,,,,,,
quiz_q_4_ask,59,420915,0.0-20.0-1.0,"""event"",""trial"",""time""
""fullscreenenter"",""1"",""19609""
""fullscreenexit"",""3"",""45197""
","
","
","""event"",""trial"",""time""
""fullscreenenter"",""1"",""19609""
","""event"",""trial"",""time""
""fullscreenexit"",""3"",""45197""
",,10707.6,run_exp/static/audio/clip_20_q4_ask.m4a,,,,,,,0,,,,,,,,,,,,,,,,,,
quiz_q_4_fb_correct,60,426274,0.0-21.0-0.0,"""event"",""trial"",""time""
""fullscreenenter"",""1"",""19609""
""fullscreenexit"",""3"",""45197""
","
","
","""event"",""trial"",""time""
""fullscreenenter"",""1"",""19609""
","""event"",""trial"",""time""
""fullscreenexit"",""3"",""45197""
",,null,run_exp/static/audio/clip_21_q4_correct.m4a,null,<p> That’s correct. The more you dig on a planet the fewer gems you’ll get with each dig. </p>,,,,,,,,,,,,,,,,,,,,,,,
quiz_q_5_ask,61,431478,0.0-21.0-1.0,"""event"",""trial"",""time""
""fullscreenenter"",""1"",""19609""
""fullscreenexit"",""3"",""45197""
","
","
","""event"",""trial"",""time""
""fullscreenenter"",""1"",""19609""
","""event"",""trial"",""time""
""fullscreenexit"",""3"",""45197""
",,5201.6,run_exp/static/audio/clip_23_q5_ask.m4a,,,,,,,1,,,,,,,,,,,,,,,,,,
quiz_q_5_fb_correct,62,436492,0.0-22.0-0.0,"""event"",""trial"",""time""
""fullscreenenter"",""1"",""19609""
""fullscreenexit"",""3"",""45197""
","
","
","""event"",""trial"",""time""
""fullscreenenter"",""1"",""19609""
","""event"",""trial"",""time""
""fullscreenexit"",""3"",""45197""
",,null,run_exp/static/audio/clip_24_q5_correct.m4a,null,<p> That’s correct. The alien tells you nothing about how much treasure is on the planet.</p>,,,,,,,,,,,,,,,,,,,,,,,
quiz_correct,63,439951,0.0-23.0-0.0,"""event"",""trial"",""time""
""fullscreenenter"",""1"",""19609""
""fullscreenexit"",""3"",""45197""
","
","
","""event"",""trial"",""time""
""fullscreenenter"",""1"",""19609""
","""event"",""trial"",""time""
""fullscreenexit"",""3"",""45197""
",,null,run_exp/static/audio/clip_26_correct_quiz.m4a,null,,,,,,,,,,,,,,,,,,,,,,,,
quiz_correct_continue,64,442531,0.0-23.0-1.0,"""event"",""trial"",""time""
""fullscreenenter"",""1"",""19609""
""fullscreenexit"",""3"",""45197""
","
","
","""event"",""trial"",""time""
""fullscreenenter"",""1"",""19609""
","""event"",""trial"",""time""
""fullscreenexit"",""3"",""45197""
",,2579.5,<p>Good job! You're now ready to move on to the real game!</p>,,,,,,,0,,,,,,,,,,,,,,,,,,
audio-keyboard-response,65,452677,0.0-23.0-2.0,"""event"",""trial"",""time""
""fullscreenenter"",""1"",""19609""
""fullscreenexit"",""3"",""45197""
","
","
","""event"",""trial"",""time""
""fullscreenenter"",""1"",""19609""
","""event"",""trial"",""time""
""fullscreenexit"",""3"",""45197""
",,null,run_exp/static/audio/clip_28_real_game.m4a,null,,,,,,,,,,,,,,,,,,,,,,,,
instruc_begin_exp_contine,66,453839,0.0-23.0-3.0,"""event"",""trial"",""time""
""fullscreenenter"",""1"",""19609""
""fullscreenexit"",""3"",""45197""
","
","
","""event"",""trial"",""time""
""fullscreenenter"",""1"",""19609""
","""event"",""trial"",""time""
""fullscreenexit"",""3"",""45197""
",,1159.9,"<p>Now that you know how  to dig for space treasure and travel to new planets,you can start exploring! </p><p>Do you want to go over the instructions again or get started with the real game?</p>",,,,,,,1,,,,,,1,,,,,,,,,,,,
alien_welcome,67,458854,0.0-24.0-0.0,"""event"",""trial"",""time""
""fullscreenenter"",""1"",""19609""
""fullscreenexit"",""3"",""45197""
","
","
","""event"",""trial"",""time""
""fullscreenenter"",""1"",""19609""
","""event"",""trial"",""time""
""fullscreenexit"",""3"",""45197""
",,null,run_exp/static/images/task_images/aliens/old_aliens/planet/alien_planet-17.jpg,null,,,,,,,,,,,,,17,"17,2,56,23,13,42,47,66,50,29,24,20,33,60,15,14,34,38,19,26,48,8,43,31,21,9,36,27,22,63,10,54,16,51,53,37,41,79,65,11,71",,,,,,,,,,
land,68,459357,0.0-24.0-1.0,"""event"",""trial"",""time""
""fullscreenenter"",""1"",""19609""
""fullscreenexit"",""3"",""45197""
","
","
","""event"",""trial"",""time""
""fullscreenenter"",""1"",""19609""
","""event"",""trial"",""time""
""fullscreenexit"",""3"",""45197""
",,null,run_exp/static/images/task_images/land.jpg,null,,,,,,,97,,,1,,,,,,,,,,,,,,
dig,69,461363,0.0-24.0-2.0,"""event"",""trial"",""time""
""fullscreenenter"",""1"",""19609""
""fullscreenexit"",""3"",""45197""
","
","
","""event"",""trial"",""time""
""fullscreenenter"",""1"",""19609""
","""event"",""trial"",""time""
""fullscreenexit"",""3"",""45197""
",,,,,,,,,,,,"[{""stimulus"":""run_exp/static/images/task_images/dig.jpg"",""time"":0.29999999701976776},{""stimulus"":""run_exp/static/images/task_images/land.jpg"",""time"":678.2999999970198},{""stimulus"":""run_exp/static/images/task_images/dig.jpg"",""time"":1343.5}]",[],1,,,,,,,,,,,,,,
harvest,70,462374,0.0-24.0-3.0,"""event"",""trial"",""time""
""fullscreenenter"",""1"",""19609""
""fullscreenexit"",""3"",""45197""
","
","
","""event"",""trial"",""time""
""fullscreenenter"",""1"",""19609""
","""event"",""trial"",""time""
""fullscreenexit"",""3"",""45197""
",,null,run_exp/static/images/task_images/gems/97.jpg,null,,,,,,,23,,,1,,,,,97,0.241403041,0.237113402,,,,,,,
decision,71,464000,0.0-24.0-4.0,"""event"",""trial"",""time""
""fullscreenenter"",""1"",""19609""
""fullscreenexit"",""3"",""45197""
","
","
","""event"",""trial"",""time""
""fullscreenenter"",""1"",""19609""
","""event"",""trial"",""time""
""fullscreenexit"",""3"",""45197""
",,1624.4,run_exp/static/images/task_images/land.jpg,65,,,,,,,23,,,1,,,,,,,,10159,1,0,FALSE,,,
dig,72,465380,0.0-25.0-0.0,"""event"",""trial"",""time""
""fullscreenenter"",""1"",""19609""
""fullscreenexit"",""3"",""45197""
","
","
","""event"",""trial"",""time""
""fullscreenenter"",""1"",""19609""
","""event"",""trial"",""time""
""fullscreenexit"",""3"",""45197""
",,,,,,,,,,,,"[{""stimulus"":""run_exp/static/images/task_images/dig.jpg"",""time"":0.20000000298023224},{""stimulus"":""run_exp/static/images/task_images/land.jpg"",""time"":465.79999999701977},{""stimulus"":""run_exp/static/images/task_images/dig.jpg"",""time"":918.6000000014901}]",[],1,,,,,,,,,,,,,,
harvest,73,466391,0.0-25.0-1.0,"""event"",""trial"",""time""
""fullscreenenter"",""1"",""19609""
""fullscreenexit"",""3"",""45197""
","
","
","""event"",""trial"",""time""
""fullscreenenter"",""1"",""19609""
","""event"",""trial"",""time""
""fullscreenexit"",""3"",""45197""
",,null,run_exp/static/images/task_images/gems/23.jpg,null,,,,,,,5,,,1,,,,,23,0.212541736,0.217391304,,,,,,,
decision,74,466960,0.0-25.0-2.0,"""event"",""trial"",""time""
""fullscreenenter"",""1"",""19609""
""fullscreenexit"",""3"",""45197""
","
","
","""event"",""trial"",""time""
""fullscreenenter"",""1"",""19609""
","""event"",""trial"",""time""
""fullscreenexit"",""3"",""45197""
",,568,run_exp/static/images/task_images/land.jpg,65,,,,,,,5,,,1,,,,,,,,13119,1,1,FALSE,,,
dig,75,469398,0.0-26.0-0.0,"""event"",""trial"",""time""
""fullscreenenter"",""1"",""19609""
""fullscreenexit"",""3"",""45197""
","
","
","""event"",""trial"",""time""
""fullscreenenter"",""1"",""19609""
","""event"",""trial"",""time""
""fullscreenexit"",""3"",""45197""
",,,,,,,,,,,,"[{""stimulus"":""run_exp/static/images/task_images/dig.jpg"",""time"":0.20000000298023224},{""stimulus"":""run_exp/static/images/task_images/land.jpg"",""time"":814.8000000044703},{""stimulus"":""run_exp/static/images/task_images/dig.jpg"",""time"":1624.5}]",[],1,,,,,,,,,,,,,,
harvest,76,470403,0.0-26.0-1.0,"""event"",""trial"",""time""
""fullscreenenter"",""1"",""19609""
""fullscreenexit"",""3"",""45197""
","
","
","""event"",""trial"",""time""
""fullscreenenter"",""1"",""19609""
","""event"",""trial"",""time""
""fullscreenexit"",""3"",""45197""
",,null,run_exp/static/images/task_images/gems/5.jpg,null,,,,,,,1,,,1,,,,,5,0.140801613,0.2,,,,,,,
decision,77,471347,0.0-26.0-2.0,"""event"",""trial"",""time""
""fullscreenenter"",""1"",""19609""
""fullscreenexit"",""3"",""45197""
","
","
","""event"",""trial"",""time""
""fullscreenenter"",""1"",""19609""
","""event"",""trial"",""time""
""fullscreenexit"",""3"",""45197""
",,942.1,run_exp/static/images/task_images/land.jpg,76,,,,,,,1,,,1,,,,,,,,17506,1,2,TRUE,,,
travel,78,480412,0.0-27.0-0.0,"""event"",""trial"",""time""
""fullscreenenter"",""1"",""19609""
""fullscreenexit"",""3"",""45197""
","
","
","""event"",""trial"",""time""
""fullscreenenter"",""1"",""19609""
","""event"",""trial"",""time""
""fullscreenexit"",""3"",""45197""
",,,,,,,,,,,,"[{""stimulus"":""run_exp/static/images/task_images/rocket-01.jpg"",""time"":0.10000000149011612},{""stimulus"":""run_exp/static/images/task_images/rocket-02.jpg"",""time"":1008.9000000059605},{""stimulus"":""run_exp/static/images/task_images/rocket-03.jpg"",""time"":2025.7000000029802},{""stimulus"":""run_exp/static/images/task_images/rocket-04.jpg"",""time"":3024},{""stimulus"":""run_exp/static/images/task_images/rocket-05.jpg"",""time"":4033.8000000044703},{""stimulus"":""run_exp/static/images/task_images/rocket-06.jpg"",""time"":5038},{""stimulus"":""run_exp/static/images/task_images/rocket-07.jpg"",""time"":6036.9000000059605},{""stimulus"":""run_exp/static/images/task_images/rocket-08.jpg"",""time"":7046.60000000149},{""stimulus"":""run_exp/static/images/task_images/rocket-09.jpg"",""time"":8054.80000000447}]",[],1,,,,,,,,,,,,,,
alien_welcome,79,485419,0.0-27.0-1.0,"""event"",""trial"",""time""
""fullscreenenter"",""1"",""19609""
""fullscreenexit"",""3"",""45197""
","
","
","""event"",""trial"",""time""
""fullscreenenter"",""1"",""19609""
","""event"",""trial"",""time""
""fullscreenexit"",""3"",""45197""
",,null,run_exp/static/images/task_images/aliens/old_aliens/planet/alien_planet-2.jpg,null,,,,,,,,,,,,,2,"17,2,56,23,13,42,47,66,50,29,24,20,33,60,15,14,34,38,19,26,48,8,43,31,21,9,36,27,22,63,10,54,16,51,53,37,41,79,65,11,71",,,,,,,,,,
land,80,485925,0.0-27.0-2.0,"""event"",""trial"",""time""
""fullscreenenter"",""1"",""19609""
""fullscreenexit"",""3"",""45197""
","
","
","""event"",""trial"",""time""
""fullscreenenter"",""1"",""19609""
","""event"",""trial"",""time""
""fullscreenexit"",""3"",""45197""
",,null,run_exp/static/images/task_images/land.jpg,null,,,,,,,105,,,2,,,,,,,,,,,,,,
dig,81,487932,0.0-27.0-3.0,"""event"",""trial"",""time""
""fullscreenenter"",""1"",""19609""
""fullscreenexit"",""3"",""45197""
","
","
","""event"",""trial"",""time""
""fullscreenenter"",""1"",""19609""
","""event"",""trial"",""time""
""fullscreenexit"",""3"",""45197""
",,,,,,,,,,,,"[{""stimulus"":""run_exp/static/images/task_images/dig.jpg"",""time"":0.4000000059604645},{""stimulus"":""run_exp/static/images/task_images/land.jpg"",""time"":676.2000000029802},{""stimulus"":""run_exp/static/images/task_images/dig.jpg"",""time"":1337.2000000029802}]",[],2,,,,,,,,,,,,,,
harvest,82,488942,0.0-27.0-4.0,"""event"",""trial"",""time""
""fullscreenenter"",""1"",""19609""
""fullscreenexit"",""3"",""45197""
","
","
","""event"",""trial"",""time""
""fullscreenenter"",""1"",""19609""
","""event"",""trial"",""time""
""fullscreenexit"",""3"",""45197""
",,null,run_exp/static/images/task_images/gems/105.jpg,null,,,,,,,22,,,2,,,,,105,0.207366567,0.20952381,,,,,,,
decision,83,490332,0.0-27.0-5.0,"""event"",""trial"",""time""
""fullscreenenter"",""1"",""19609""
""fullscreenexit"",""3"",""45197""
","
","
","""event"",""trial"",""time""
""fullscreenenter"",""1"",""19609""
","""event"",""trial"",""time""
""fullscreenexit"",""3"",""45197""
",,1388.8,run_exp/static/images/task_images/land.jpg,65,,,,,,,22,,,2,,,,,,,,36491,1,0,FALSE,,,
dig,84,491949,0.0-28.0-0.0,"""event"",""trial"",""time""
""fullscreenenter"",""1"",""19609""
""fullscreenexit"",""3"",""45197""
","
","
","""event"",""trial"",""time""
""fullscreenenter"",""1"",""19609""
","""event"",""trial"",""time""
""fullscreenexit"",""3"",""45197""
",,,,,,,,,,,,"[{""stimulus"":""run_exp/static/images/task_images/dig.jpg"",""time"":0.19999999552965164},{""stimulus"":""run_exp/static/images/task_images/land.jpg"",""time"":539.2999999970198},{""stimulus"":""run_exp/static/images/task_images/dig.jpg"",""time"":1086.7999999970198}]",[],2,,,,,,,,,,,,,,
harvest,85,492953,0.0-28.0-1.0,"""event"",""trial"",""time""
""fullscreenenter"",""1"",""19609""
""fullscreenexit"",""3"",""45197""
","
","
","""event"",""trial"",""time""
""fullscreenenter"",""1"",""19609""
","""event"",""trial"",""time""
""fullscreenexit"",""3"",""45197""
",,null,run_exp/static/images/task_images/gems/22.jpg,null,,,,,,,7,,,2,,,,,22,0.323146778,0.318181818,,,,,,,
decision,86,494923,0.0-28.0-2.0,"""event"",""trial"",""time""
""fullscreenenter"",""1"",""19609""
""fullscreenexit"",""3"",""45197""
","
","
","""event"",""trial"",""time""
""fullscreenenter"",""1"",""19609""
","""event"",""trial"",""time""
""fullscreenexit"",""3"",""45197""
",,1968.9,run_exp/static/images/task_images/land.jpg,65,,,,,,,7,,,2,,,,,,,,41082,1,1,FALSE,,,
dig,87,495962,0.0-29.0-0.0,"""event"",""trial"",""time""
""fullscreenenter"",""1"",""19609""
""fullscreenexit"",""3"",""45197""
","
","
","""event"",""trial"",""time""
""fullscreenenter"",""1"",""19609""
","""event"",""trial"",""time""
""fullscreenexit"",""3"",""45197""
",,,,,,,,,,,,"[{""stimulus"":""run_exp/static/images/task_images/dig.jpg"",""time"":0.19999999552965164},{""stimulus"":""run_exp/static/images/task_images/land.jpg"",""time"":349.19999999552965},{""stimulus"":""run_exp/static/images/task_images/dig.jpg"",""time"":691.5999999940395}]",[],2,,,,,,,,,,,,,,
harvest,88,496971,0.0-29.0-1.0,"""event"",""trial"",""time""
""fullscreenenter"",""1"",""19609""
""fullscreenexit"",""3"",""45197""
","
","
","""event"",""trial"",""time""
""fullscreenenter"",""1"",""19609""
","""event"",""trial"",""time""
""fullscreenexit"",""3"",""45197""
",,null,run_exp/static/images/task_images/gems/7.jpg,null,,,,,,,1,,,2,,,,,7,0.160211333,0.142857143,,,,,,,
decision,89,498580,0.0-29.0-2.0,"""event"",""trial"",""time""
""fullscreenenter"",""1"",""19609""
""fullscreenexit"",""3"",""45197""
","
","
","""event"",""trial"",""time""
""fullscreenenter"",""1"",""19609""
","""event"",""trial"",""time""
""fullscreenexit"",""3"",""45197""
",,1607.8,run_exp/static/images/task_images/land.jpg,65,,,,,,,1,,,2,,,,,,,,44739,1,2,FALSE,,,
dig,90,499978,0.0-30.0-0.0,"""event"",""trial"",""time""
""fullscreenenter"",""1"",""19609""
""fullscreenexit"",""3"",""45197""
","
","
","""event"",""trial"",""time""
""fullscreenenter"",""1"",""19609""
","""event"",""trial"",""time""
""fullscreenexit"",""3"",""45197""
",,,,,,,,,,,,"[{""stimulus"":""run_exp/static/images/task_images/dig.jpg"",""time"":0.20000000298023224},{""stimulus"":""run_exp/static/images/task_images/land.jpg"",""time"":467.70000000298023},{""stimulus"":""run_exp/static/images/task_images/dig.jpg"",""time"":930.2999999970198}]",[],2,,,,,,,,,,,,,,
harvest,91,500988,0.0-30.0-1.0,"""event"",""trial"",""time""
""fullscreenenter"",""1"",""19609""
""fullscreenexit"",""3"",""45197""
","
","
","""event"",""trial"",""time""
""fullscreenenter"",""1"",""19609""
","""event"",""trial"",""time""
""fullscreenexit"",""3"",""45197""
",,null,run_exp/static/images/task_images/gems/1.jpg,null,,,,,,,0,,,2,,,,,1,0.182474471,0,,,,,,,
decision,92,501359,0.0-30.0-2.0,"""event"",""trial"",""time""
""fullscreenenter"",""1"",""19609""
""fullscreenexit"",""3"",""45197""
","
","
","""event"",""trial"",""time""
""fullscreenenter"",""1"",""19609""
","""event"",""trial"",""time""
""fullscreenexit"",""3"",""45197""
",,369.6,run_exp/static/images/task_images/land.jpg,76,,,,,,,0,,,2,,,,,,,,47518,1,3,TRUE,,,
travel,93,511002,0.0-31.0-0.0,"""event"",""trial"",""time""
""fullscreenenter"",""1"",""19609""
""fullscreenexit"",""3"",""45197""
","
","
","""event"",""trial"",""time""
""fullscreenenter"",""1"",""19609""
","""event"",""trial"",""time""
""fullscreenexit"",""3"",""45197""
",,,,,,,,,,,,"[{""stimulus"":""run_exp/static/images/task_images/rocket-01.jpg"",""time"":0.19999999552965164},{""stimulus"":""run_exp/static/images/task_images/rocket-02.jpg"",""time"":1082.1999999955297},{""stimulus"":""run_exp/static/images/task_images/rocket-03.jpg"",""time"":2145.1999999955297},{""stimulus"":""run_exp/static/images/task_images/rocket-04.jpg"",""time"":3216.6999999955297},{""stimulus"":""run_exp/static/images/task_images/rocket-05.jpg"",""time"":4287.5},{""stimulus"":""run_exp/static/images/task_images/rocket-06.jpg"",""time"":5360.29999999702},{""stimulus"":""run_exp/static/images/task_images/rocket-07.jpg"",""time"":6423.39999999851},{""stimulus"":""run_exp/static/images/task_images/rocket-08.jpg"",""time"":7499.29999999702},{""stimulus"":""run_exp/static/images/task_images/rocket-09.jpg"",""time"":8571.19999999553}]",[],2,,,,,,,,,,,,,,
alien_welcome,94,516011,0.0-31.0-1.0,"""event"",""trial"",""time""
""fullscreenenter"",""1"",""19609""
""fullscreenexit"",""3"",""45197""
","
","
","""event"",""trial"",""time""
""fullscreenenter"",""1"",""19609""
","""event"",""trial"",""time""
""fullscreenexit"",""3"",""45197""
",,null,run_exp/static/images/task_images/aliens/old_aliens/planet/alien_planet-56.jpg,null,,,,,,,,,,,,,56,"17,2,56,23,13,42,47,66,50,29,24,20,33,60,15,14,34,38,19,26,48,8,43,31,21,9,36,27,22,63,10,54,16,51,53,37,41,79,65,11,71",,,,,,,,,,
land,95,516515,0.0-31.0-2.0,"""event"",""trial"",""time""
""fullscreenenter"",""1"",""19609""
""fullscreenexit"",""3"",""45197""
","
","
","""event"",""trial"",""time""
""fullscreenenter"",""1"",""19609""
","""event"",""trial"",""time""
""fullscreenexit"",""3"",""45197""
",,null,run_exp/static/images/task_images/land.jpg,null,,,,,,,97,,,3,,,,,,,,,,,,,,
dig,96,518524,0.0-31.0-3.0,"""event"",""trial"",""time""
""fullscreenenter"",""1"",""19609""
""fullscreenexit"",""3"",""45197""
","
","
","""event"",""trial"",""time""
""fullscreenenter"",""1"",""19609""
","""event"",""trial"",""time""
""fullscreenexit"",""3"",""45197""
",,,,,,,,,,,,"[{""stimulus"":""run_exp/static/images/task_images/dig.jpg"",""time"":0.19999999552965164},{""stimulus"":""run_exp/static/images/task_images/land.jpg"",""time"":673},{""stimulus"":""run_exp/static/images/task_images/dig.jpg"",""time"":1340.8999999985099}]",[],3,,,,,,,,,,,,,,
harvest,97,519528,0.0-31.0-4.0,"""event"",""trial"",""time""
""fullscreenenter"",""1"",""19609""
""fullscreenexit"",""3"",""45197""
","
","
","""event"",""trial"",""time""
""fullscreenenter"",""1"",""19609""
","""event"",""trial"",""time""
""fullscreenexit"",""3"",""45197""
",,null,run_exp/static/images/task_images/gems/97.jpg,null,,,,,,,50,,,3,,,,,97,0.513238326,0.515463918,,,,,,,
decision,98,520204,0.0-31.0-5.0,"""event"",""trial"",""time""
""fullscreenenter"",""1"",""19609""
""fullscreenexit"",""3"",""45197""
","
","
","""event"",""trial"",""time""
""fullscreenenter"",""1"",""19609""
","""event"",""trial"",""time""
""fullscreenexit"",""3"",""45197""
",,674.4,run_exp/static/images/task_images/land.jpg,65,,,,,,,50,,,3,,,,,,,,66363,1,0,FALSE,,,
dig,99,522541,0.0-32.0-0.0,"""event"",""trial"",""time""
""fullscreenenter"",""1"",""19609""
""fullscreenexit"",""3"",""45197""
","
","
","""event"",""trial"",""time""
""fullscreenenter"",""1"",""19609""
","""event"",""trial"",""time""
""fullscreenexit"",""3"",""45197""
",,,,,,,,,,,,"[{""stimulus"":""run_exp/static/images/task_images/dig.jpg"",""time"":0.30000000447034836},{""stimulus"":""run_exp/static/images/task_images/land.jpg"",""time"":778.6000000014901},{""stimulus"":""run_exp/static/images/task_images/dig.jpg"",""time"":1556.2000000029802}]",[],3,,,,,,,,,,,,,,
harvest,100,523547,0.0-32.0-1.0,"""event"",""trial"",""time""
""fullscreenenter"",""1"",""19609""
""fullscreenexit"",""3"",""45197""
","
","
","""event"",""trial"",""time""
""fullscreenenter"",""1"",""19609""
","""event"",""trial"",""time""
""fullscreenexit"",""3"",""45197""
",,null,run_exp/static/images/task_images/gems/50.jpg,null,,,,,,,27,,,3,,,,,50,0.545579052,0.54,,,,,,,
decision,101,524272,0.0-32.0-2.0,"""event"",""trial"",""time""
""fullscreenenter"",""1"",""19609""
""fullscreenexit"",""3"",""45197""
","
","
","""event"",""trial"",""time""
""fullscreenenter"",""1"",""19609""
","""event"",""trial"",""time""
""fullscreenexit"",""3"",""45197""
",,722.9,run_exp/static/images/task_images/land.jpg,65,,,,,,,27,,,3,,,,,,,,70431,1,1,FALSE,,,
dig,102,526552,0.0-33.0-0.0,"""event"",""trial"",""time""
""fullscreenenter"",""1"",""19609""
""fullscreenexit"",""3"",""45197""
","
","
","""event"",""trial"",""time""
""fullscreenenter"",""1"",""19609""
","""event"",""trial"",""time""
""fullscreenexit"",""3"",""45197""
",,,,,,,,,,,,"[{""stimulus"":""run_exp/static/images/task_images/dig.jpg"",""time"":0.10000000149011612},{""stimulus"":""run_exp/static/images/task_images/land.jpg"",""time"":762.8999999985099},{""stimulus"":""run_exp/static/images/task_images/dig.jpg"",""time"":1529.3999999985099}]",[],3,,,,,,,,,,,,,,
harvest,103,527563,0.0-33.0-1.0,"""event"",""trial"",""time""
""fullscreenenter"",""1"",""19609""
""fullscreenexit"",""3"",""45197""
","
","
","""event"",""trial"",""time""
""fullscreenenter"",""1"",""19609""
","""event"",""trial"",""time""
""fullscreenexit"",""3"",""45197""
",,null,run_exp/static/images/task_images/gems/27.jpg,null,,,,,,,16,,,3,,,,,27,0.590434689,0.592592593,,,,,,,
decision,104,528398,0.0-33.0-2.0,"""event"",""trial"",""time""
""fullscreenenter"",""1"",""19609""
""fullscreenexit"",""3"",""45197""
","
","
","""event"",""trial"",""time""
""fullscreenenter"",""1"",""19609""
","""event"",""trial"",""time""
""fullscreenexit"",""3"",""45197""
",,834.2,run_exp/static/images/task_images/land.jpg,65,,,,,,,16,,,3,,,,,,,,74557,1,2,FALSE,,,
dig,105,530569,0.0-34.0-0.0,"""event"",""trial"",""time""
""fullscreenenter"",""1"",""19609""
""fullscreenexit"",""3"",""45197""
","
","
","""event"",""trial"",""time""
""fullscreenenter"",""1"",""19609""
","""event"",""trial"",""time""
""fullscreenexit"",""3"",""45197""
",,,,,,,,,,,,"[{""stimulus"":""run_exp/static/images/task_images/dig.jpg"",""time"":0.19999999552965164},{""stimulus"":""run_exp/static/images/task_images/land.jpg"",""time"":727.3999999985099},{""stimulus"":""run_exp/static/images/task_images/dig.jpg"",""time"":1447.2999999970198}]",[],3,,,,,,,,,,,,,,
harvest,106,531579,0.0-34.0-1.0,"""event"",""trial"",""time""
""fullscreenenter"",""1"",""19609""
""fullscreenexit"",""3"",""45197""
","
","
","""event"",""trial"",""time""
""fullscreenenter"",""1"",""19609""
","""event"",""trial"",""time""
""fullscreenexit"",""3"",""45197""
",,null,run_exp/static/images/task_images/gems/16.jpg,null,,,,,,,9,,,3,,,,,16,0.570558796,0.5625,,,,,,,
decision,107,532743,0.0-34.0-2.0,"""event"",""trial"",""time""
""fullscreenenter"",""1"",""19609""
""fullscreenexit"",""3"",""45197""
","
","
","""event"",""trial"",""time""
""fullscreenenter"",""1"",""19609""
","""event"",""trial"",""time""
""fullscreenexit"",""3"",""45197""
",,1162.4,run_exp/static/images/task_images/land.jpg,76,,,,,,,9,,,3,,,,,,,,78902,1,3,TRUE,,,
travel,108,541587,0.0-35.0-0.0,"""event"",""trial"",""time""
""fullscreenenter"",""1"",""19609""
""fullscreenexit"",""3"",""45197""
","
","
","""event"",""trial"",""time""
""fullscreenenter"",""1"",""19609""
","""event"",""trial"",""time""
""fullscreenexit"",""3"",""45197""
",,,,,,,,,,,,"[{""stimulus"":""run_exp/static/images/task_images/rocket-01.jpg"",""time"":0.19999999552965164},{""stimulus"":""run_exp/static/images/task_images/rocket-02.jpg"",""time"":992},{""stimulus"":""run_exp/static/images/task_images/rocket-03.jpg"",""time"":1966.7999999970198},{""stimulus"":""run_exp/static/images/task_images/rocket-04.jpg"",""time"":2951.60000000149},{""stimulus"":""run_exp/static/images/task_images/rocket-05.jpg"",""time"":3929.89999999851},{""stimulus"":""run_exp/static/images/task_images/rocket-06.jpg"",""time"":4911},{""stimulus"":""run_exp/static/images/task_images/rocket-07.jpg"",""time"":5897.79999999702},{""stimulus"":""run_exp/static/images/task_images/rocket-08.jpg"",""time"":6871.79999999702},{""stimulus"":""run_exp/static/images/task_images/rocket-09.jpg"",""time"":7854.10000000149}]",[],3,,,,,,,,,,,,,,
alien_welcome,109,546597,0.0-35.0-1.0,"""event"",""trial"",""time""
""fullscreenenter"",""1"",""19609""
""fullscreenexit"",""3"",""45197""
","
","
","""event"",""trial"",""time""
""fullscreenenter"",""1"",""19609""
","""event"",""trial"",""time""
""fullscreenexit"",""3"",""45197""
",,null,run_exp/static/images/task_images/aliens/old_aliens/planet/alien_planet-23.jpg,null,,,,,,,,,,,,,23,"17,2,56,23,13,42,47,66,50,29,24,20,33,60,15,14,34,38,19,26,48,8,43,31,21,9,36,27,22,63,10,54,16,51,53,37,41,79,65,11,71",,,,,,,,,,
land,110,547108,0.0-35.0-2.0,"""event"",""trial"",""time""
""fullscreenenter"",""1"",""19609""
""fullscreenexit"",""3"",""45197""
","
","
","""event"",""trial"",""time""
""fullscreenenter"",""1"",""19609""
","""event"",""trial"",""time""
""fullscreenexit"",""3"",""45197""
",,null,run_exp/static/images/task_images/land.jpg,null,,,,,,,100,,,4,,,,,,,,,,,,,,
dig,111,549116,0.0-35.0-3.0,"""event"",""trial"",""time""
""fullscreenenter"",""1"",""19609""
""fullscreenexit"",""3"",""45197""
","
","
","""event"",""trial"",""time""
""fullscreenenter"",""1"",""19609""
","""event"",""trial"",""time""
""fullscreenexit"",""3"",""45197""
",,,,,,,,,,,,"[{""stimulus"":""run_exp/static/images/task_images/dig.jpg"",""time"":0.3999999985098839},{""stimulus"":""run_exp/static/images/task_images/land.jpg"",""time"":678.1000000014901},{""stimulus"":""run_exp/static/images/task_images/dig.jpg"",""time"":1339.8000000044703}]",[],4,,,,,,,,,,,,,,
harvest,112,550121,0.0-35.0-4.0,"""event"",""trial"",""time""
""fullscreenenter"",""1"",""19609""
""fullscreenexit"",""3"",""45197""
","
","
","""event"",""trial"",""time""
""fullscreenenter"",""1"",""19609""
","""event"",""trial"",""time""
""fullscreenexit"",""3"",""45197""
",,null,run_exp/static/images/task_images/gems/100.jpg,null,,,,,,,50,,,4,,,,,100,0.499612608,0.5,,,,,,,
decision,113,550354,0.0-35.0-5.0,"""event"",""trial"",""time""
""fullscreenenter"",""1"",""19609""
""fullscreenexit"",""3"",""45197""
","
","
","""event"",""trial"",""time""
""fullscreenenter"",""1"",""19609""
","""event"",""trial"",""time""
""fullscreenexit"",""3"",""45197""
",,232.2,run_exp/static/images/task_images/land.jpg,65,,,,,,,50,,,4,,,,,,,,96513,1,0,FALSE,,,
dig,114,553132,0.0-36.0-0.0,"""event"",""trial"",""time""
""fullscreenenter"",""1"",""19609""
""fullscreenexit"",""3"",""45197""
","
","
","""event"",""trial"",""time""
""fullscreenenter"",""1"",""19609""
","""event"",""trial"",""time""
""fullscreenexit"",""3"",""45197""
",,,,,,,,,,,,"[{""stimulus"":""run_exp/static/images/task_images/dig.jpg"",""time"":0.20000000298023224},{""stimulus"":""run_exp/static/images/task_images/land.jpg"",""time"":935.5},{""stimulus"":""run_exp/static/images/task_images/dig.jpg"",""time"":1851.8000000044703}]",[],4,,,,,,,,,,,,,,
harvest,115,554140,0.0-36.0-1.0,"""event"",""trial"",""time""
""fullscreenenter"",""1"",""19609""
""fullscreenexit"",""3"",""45197""
","
","
","""event"",""trial"",""time""
""fullscreenenter"",""1"",""19609""
","""event"",""trial"",""time""
""fullscreenexit"",""3"",""45197""
",,null,run_exp/static/images/task_images/gems/50.jpg,null,,,,,,,24,,,4,,,,,50,0.488736548,0.48,,,,,,,
decision,116,554356,0.0-36.0-2.0,"""event"",""trial"",""time""
""fullscreenenter"",""1"",""19609""
""fullscreenexit"",""3"",""45197""
","
","
","""event"",""trial"",""time""
""fullscreenenter"",""1"",""19609""
","""event"",""trial"",""time""
""fullscreenexit"",""3"",""45197""
",,213.2,run_exp/static/images/task_images/land.jpg,65,,,,,,,24,,,4,,,,,,,,100515,1,1,FALSE,,,
dig,117,557156,0.0-37.0-0.0,"""event"",""trial"",""time""
""fullscreenenter"",""1"",""19609""
""fullscreenexit"",""3"",""45197""
","
","
","""event"",""trial"",""time""
""fullscreenenter"",""1"",""19609""
","""event"",""trial"",""time""
""fullscreenexit"",""3"",""45197""
",,,,,,,,,,,,"[{""stimulus"":""run_exp/static/images/task_images/dig.jpg"",""time"":0.20000000298023224},{""stimulus"":""run_exp/static/images/task_images/land.jpg"",""time"":940.4000000059605},{""stimulus"":""run_exp/static/images/task_images/dig.jpg"",""time"":1868.3000000044703}]",[],4,,,,,,,,,,,,,,
harvest,118,558163,0.0-37.0-1.0,"""event"",""trial"",""time""
""fullscreenenter"",""1"",""19609""
""fullscreenexit"",""3"",""45197""
","
","
","""event"",""trial"",""time""
""fullscreenenter"",""1"",""19609""
","""event"",""trial"",""time""
""fullscreenexit"",""3"",""45197""
",,null,run_exp/static/images/task_images/gems/24.jpg,null,,,,,,,12,,,4,,,,,24,0.484770009,0.5,,,,,,,
decision,119,558418,0.0-37.0-2.0,"""event"",""trial"",""time""
""fullscreenenter"",""1"",""19609""
""fullscreenexit"",""3"",""45197""
","
","
","""event"",""trial"",""time""
""fullscreenenter"",""1"",""19609""
","""event"",""trial"",""time""
""fullscreenexit"",""3"",""45197""
",,253.4,run_exp/static/images/task_images/land.jpg,65,,,,,,,12,,,4,,,,,,,,104577,1,2,FALSE,,,
dig,120,561173,0.0-38.0-0.0,"""event"",""trial"",""time""
""fullscreenenter"",""1"",""19609""
""fullscreenexit"",""3"",""45197""
","
","
","""event"",""trial"",""time""
""fullscreenenter"",""1"",""19609""
","""event"",""trial"",""time""
""fullscreenexit"",""3"",""45197""
",,,,,,,,,,,,"[{""stimulus"":""run_exp/static/images/task_images/dig.jpg"",""time"":0.29999999701976776},{""stimulus"":""run_exp/static/images/task_images/land.jpg"",""time"":922.7000000029802},{""stimulus"":""run_exp/static/images/task_images/dig.jpg"",""time"":1834.1000000014901}]",[],4,,,,,,,,,,,,,,
harvest,121,562177,0.0-38.0-1.0,"""event"",""trial"",""time""
""fullscreenenter"",""1"",""19609""
""fullscreenexit"",""3"",""45197""
","
","
","""event"",""trial"",""time""
""fullscreenenter"",""1"",""19609""
","""event"",""trial"",""time""
""fullscreenexit"",""3"",""45197""
",,null,run_exp/static/images/task_images/gems/12.jpg,null,,,,,,,6,,,4,,,,,12,0.530494085,0.5,,,,,,,
decision,122,563629,0.0-38.0-2.0,"""event"",""trial"",""time""
""fullscreenenter"",""1"",""19609""
""fullscreenexit"",""3"",""45197""
","
","
","""event"",""trial"",""time""
""fullscreenenter"",""1"",""19609""
","""event"",""trial"",""time""
""fullscreenexit"",""3"",""45197""
",,1450.6,run_exp/static/images/task_images/land.jpg,76,,,,,,,6,,,4,,,,,,,,109788,1,3,TRUE,,,
travel,123,572185,0.0-39.0-0.0,"""event"",""trial"",""time""
""fullscreenenter"",""1"",""19609""
""fullscreenexit"",""3"",""45197""
","
","
","""event"",""trial"",""time""
""fullscreenenter"",""1"",""19609""
","""event"",""trial"",""time""
""fullscreenexit"",""3"",""45197""
",,,,,,,,,,,,"[{""stimulus"":""run_exp/static/images/task_images/rocket-01.jpg"",""time"":0.5},{""stimulus"":""run_exp/static/images/task_images/rocket-02.jpg"",""time"":958.7999999970198},{""stimulus"":""run_exp/static/images/task_images/rocket-03.jpg"",""time"":1904.3999999985099},{""stimulus"":""run_exp/static/images/task_images/rocket-04.jpg"",""time"":2856.39999999851},{""stimulus"":""run_exp/static/images/task_images/rocket-05.jpg"",""time"":3802.6999999955297},{""stimulus"":""run_exp/static/images/task_images/rocket-06.jpg"",""time"":4754.69999999553},{""stimulus"":""run_exp/static/images/task_images/rocket-07.jpg"",""time"":5706.69999999553},{""stimulus"":""run_exp/static/images/task_images/rocket-08.jpg"",""time"":6647},{""stimulus"":""run_exp/static/images/task_images/rocket-09.jpg"",""time"":7599.10000000149}]",[],4,,,,,,,,,,,,,,
alien_welcome,124,577195,0.0-39.0-1.0,"""event"",""trial"",""time""
""fullscreenenter"",""1"",""19609""
""fullscreenexit"",""3"",""45197""
","
","
","""event"",""trial"",""time""
""fullscreenenter"",""1"",""19609""
","""event"",""trial"",""time""
""fullscreenexit"",""3"",""45197""
",,null,run_exp/static/images/task_images/aliens/old_aliens/planet/alien_planet-13.jpg,null,,,,,,,,,,,,,13,"17,2,56,23,13,42,47,66,50,29,24,20,33,60,15,14,34,38,19,26,48,8,43,31,21,9,36,27,22,63,10,54,16,51,53,37,41,79,65,11,71",,,,,,,,,,
land,125,577705,0.0-39.0-2.0,"""event"",""trial"",""time""
""fullscreenenter"",""1"",""19609""
""fullscreenexit"",""3"",""45197""
","
","
","""event"",""trial"",""time""
""fullscreenenter"",""1"",""19609""
","""event"",""trial"",""time""
""fullscreenexit"",""3"",""45197""
",,null,run_exp/static/images/task_images/land.jpg,null,,,,,,,100,,,5,,,,,,,,,,,,,,
dig,126,579713,0.0-39.0-3.0,"""event"",""trial"",""time""
""fullscreenenter"",""1"",""19609""
""fullscreenexit"",""3"",""45197""
","
","
","""event"",""trial"",""time""
""fullscreenenter"",""1"",""19609""
","""event"",""trial"",""time""
""fullscreenexit"",""3"",""45197""
",,,,,,,,,,,,"[{""stimulus"":""run_exp/static/images/task_images/dig.jpg"",""time"":0.20000000298023224},{""stimulus"":""run_exp/static/images/task_images/land.jpg"",""time"":672.1000000014901},{""stimulus"":""run_exp/static/images/task_images/dig.jpg"",""time"":1345.3999999985099}]",[],5,,,,,,,,,,,,,,
harvest,127,580723,0.0-39.0-4.0,"""event"",""trial"",""time""
""fullscreenenter"",""1"",""19609""
""fullscreenexit"",""3"",""45197""
","
","
","""event"",""trial"",""time""
""fullscreenenter"",""1"",""19609""
","""event"",""trial"",""time""
""fullscreenexit"",""3"",""45197""
",,null,run_exp/static/images/task_images/gems/100.jpg,null,,,,,,,40,,,5,,,,,100,0.403444666,0.4,,,,,,,
decision,128,582409,0.0-39.0-5.0,"""event"",""trial"",""time""
""fullscreenenter"",""1"",""19609""
""fullscreenexit"",""3"",""45197""
","
","
","""event"",""trial"",""time""
""fullscreenenter"",""1"",""19609""
","""event"",""trial"",""time""
""fullscreenexit"",""3"",""45197""
",,1685.2,run_exp/static/images/task_images/land.jpg,65,,,,,,,40,,,5,,,,,,,,128568,1,0,FALSE,,,
dig,129,583736,0.0-40.0-0.0,"""event"",""trial"",""time""
""fullscreenenter"",""1"",""19609""
""fullscreenexit"",""3"",""45197""
","
","
","""event"",""trial"",""time""
""fullscreenenter"",""1"",""19609""
","""event"",""trial"",""time""
""fullscreenexit"",""3"",""45197""
",,,,,,,,,,,,"[{""stimulus"":""run_exp/static/images/task_images/dig.jpg"",""time"":0.20000000298023224},{""stimulus"":""run_exp/static/images/task_images/land.jpg"",""time"":446.1000000014901},{""stimulus"":""run_exp/static/images/task_images/dig.jpg"",""time"":885.3000000044703}]",[],5,,,,,,,,,,,,,,
harvest,130,584746,0.0-40.0-1.0,"""event"",""trial"",""time""
""fullscreenenter"",""1"",""19609""
""fullscreenexit"",""3"",""45197""
","
","
","""event"",""trial"",""time""
""fullscreenenter"",""1"",""19609""
","""event"",""trial"",""time""
""fullscreenexit"",""3"",""45197""
",,null,run_exp/static/images/task_images/gems/40.jpg,null,,,,,,,19,,,5,,,,,40,0.477628594,0.475,,,,,,,
decision,131,585930,0.0-40.0-2.0,"""event"",""trial"",""time""
""fullscreenenter"",""1"",""19609""
""fullscreenexit"",""3"",""45197""
","
","
","""event"",""trial"",""time""
""fullscreenenter"",""1"",""19609""
","""event"",""trial"",""time""
""fullscreenexit"",""3"",""45197""
",,1182.2,run_exp/static/images/task_images/land.jpg,65,,,,,,,19,,,5,,,,,,,,132089,1,1,FALSE,,,
dig,132,587753,0.0-41.0-0.0,"""event"",""trial"",""time""
""fullscreenenter"",""1"",""19609""
""fullscreenexit"",""3"",""45197""
","
","
","""event"",""trial"",""time""
""fullscreenenter"",""1"",""19609""
","""event"",""trial"",""time""
""fullscreenexit"",""3"",""45197""
",,,,,,,,,,,,"[{""stimulus"":""run_exp/static/images/task_images/dig.jpg"",""time"":0.30000000447034836},{""stimulus"":""run_exp/static/images/task_images/land.jpg"",""time"":612.2000000029802},{""stimulus"":""run_exp/static/images/task_images/dig.jpg"",""time"":1222.2000000029802}]",[],5,,,,,,,,,,,,,,
harvest,133,588764,0.0-41.0-1.0,"""event"",""trial"",""time""
""fullscreenenter"",""1"",""19609""
""fullscreenexit"",""3"",""45197""
","
","
","""event"",""trial"",""time""
""fullscreenenter"",""1"",""19609""
","""event"",""trial"",""time""
""fullscreenexit"",""3"",""45197""
",,null,run_exp/static/images/task_images/gems/19.jpg,null,,,,,,,9,,,5,,,,,19,0.466041477,0.473684211,,,,,,,
decision,134,589209,0.0-41.0-2.0,"""event"",""trial"",""time""
""fullscreenenter"",""1"",""19609""
""fullscreenexit"",""3"",""45197""
","
","
","""event"",""trial"",""time""
""fullscreenenter"",""1"",""19609""
","""event"",""trial"",""time""
""fullscreenexit"",""3"",""45197""
",,443.2,run_exp/static/images/task_images/land.jpg,76,,,,,,,9,,,5,,,,,,,,135368,1,2,TRUE,,,
travel,135,598771,0.0-42.0-0.0,"""event"",""trial"",""time""
""fullscreenenter"",""1"",""19609""
""fullscreenexit"",""3"",""45197""
","
","
","""event"",""trial"",""time""
""fullscreenenter"",""1"",""19609""
","""event"",""trial"",""time""
""fullscreenexit"",""3"",""45197""
",,,,,,,,,,,,"[{""stimulus"":""run_exp/static/images/task_images/rocket-01.jpg"",""time"":0.20000000298023224},{""stimulus"":""run_exp/static/images/task_images/rocket-02.jpg"",""time"":1069.7000000029802},{""stimulus"":""run_exp/static/images/task_images/rocket-03.jpg"",""time"":2124.2000000029802},{""stimulus"":""run_exp/static/images/task_images/rocket-04.jpg"",""time"":3187.2000000029802},{""stimulus"":""run_exp/static/images/task_images/rocket-05.jpg"",""time"":4253.20000000298},{""stimulus"":""run_exp/static/images/task_images/rocket-06.jpg"",""time"":5308.5},{""stimulus"":""run_exp/static/images/task_images/rocket-07.jpg"",""time"":6372.20000000298},{""stimulus"":""run_exp/static/images/task_images/rocket-08.jpg"",""time"":7440},{""stimulus"":""run_exp/static/images/task_images/rocket-09.jpg"",""time"":8491.20000000298}]",[],5,,,,,,,,,,,,,,
alien_welcome,136,603779,0.0-42.0-1.0,"""event"",""trial"",""time""
""fullscreenenter"",""1"",""19609""
""fullscreenexit"",""3"",""45197""
","
","
","""event"",""trial"",""time""
""fullscreenenter"",""1"",""19609""
","""event"",""trial"",""time""
""fullscreenexit"",""3"",""45197""
",,null,run_exp/static/images/task_images/aliens/old_aliens/planet/alien_planet-42.jpg,null,,,,,,,,,,,,,42,"17,2,56,23,13,42,47,66,50,29,24,20,33,60,15,14,34,38,19,26,48,8,43,31,21,9,36,27,22,63,10,54,16,51,53,37,41,79,65,11,71",,,,,,,,,,
land,137,604292,0.0-42.0-2.0,"""event"",""trial"",""time""
""fullscreenenter"",""1"",""19609""
""fullscreenexit"",""3"",""45197""
","
","
","""event"",""trial"",""time""
""fullscreenenter"",""1"",""19609""
","""event"",""trial"",""time""
""fullscreenexit"",""3"",""45197""
",,null,run_exp/static/images/task_images/land.jpg,null,,,,,,,97,,,6,,,,,,,,,,,,,,
dig,138,606300,0.0-42.0-3.0,"""event"",""trial"",""time""
""fullscreenenter"",""1"",""19609""
""fullscreenexit"",""3"",""45197""
","
","
","""event"",""trial"",""time""
""fullscreenenter"",""1"",""19609""
","""event"",""trial"",""time""
""fullscreenexit"",""3"",""45197""
",,,,,,,,,,,,"[{""stimulus"":""run_exp/static/images/task_images/dig.jpg"",""time"":0.30000000447034836},{""stimulus"":""run_exp/static/images/task_images/land.jpg"",""time"":677.8000000044703},{""stimulus"":""run_exp/static/images/task_images/dig.jpg"",""time"":1339.3000000044703}]",[],6,,,,,,,,,,,,,,
harvest,139,607304,0.0-42.0-4.0,"""event"",""trial"",""time""
""fullscreenenter"",""1"",""19609""
""fullscreenexit"",""3"",""45197""
","
","
","""event"",""trial"",""time""
""fullscreenenter"",""1"",""19609""
","""event"",""trial"",""time""
""fullscreenexit"",""3"",""45197""
",,null,run_exp/static/images/task_images/gems/97.jpg,null,,,,,,,73,,,6,,,,,97,0.750046006,0.75257732,,,,,,,
decision,140,607349,0.0-42.0-5.0,"""event"",""trial"",""time""
""fullscreenenter"",""1"",""19609""
""fullscreenexit"",""3"",""45197""
","
","
","""event"",""trial"",""time""
""fullscreenenter"",""1"",""19609""
","""event"",""trial"",""time""
""fullscreenexit"",""3"",""45197""
",,43.3,run_exp/static/images/task_images/land.jpg,65,,,,,,,73,,,6,,,,,,,,153508,1,0,FALSE,,,
dig,141,610314,0.0-43.0-0.0,"""event"",""trial"",""time""
""fullscreenenter"",""1"",""19609""
""fullscreenexit"",""3"",""45197""
","
","
","""event"",""trial"",""time""
""fullscreenenter"",""1"",""19609""
","""event"",""trial"",""time""
""fullscreenexit"",""3"",""45197""
",,,,,,,,,,,,"[{""stimulus"":""run_exp/static/images/task_images/dig.jpg"",""time"":0.19999999552965164},{""stimulus"":""run_exp/static/images/task_images/land.jpg"",""time"":991.1000000014901},{""stimulus"":""run_exp/static/images/task_images/dig.jpg"",""time"":1977.6000000014901}]",[],6,,,,,,,,,,,,,,
harvest,142,611322,0.0-43.0-1.0,"""event"",""trial"",""time""
""fullscreenenter"",""1"",""19609""
""fullscreenexit"",""3"",""45197""
","
","
","""event"",""trial"",""time""
""fullscreenenter"",""1"",""19609""
","""event"",""trial"",""time""
""fullscreenexit"",""3"",""45197""
",,null,run_exp/static/images/task_images/gems/73.jpg,null,,,,,,,50,,,6,,,,,73,0.67990145,0.684931507,,,,,,,
decision,143,611407,0.0-43.0-2.0,"""event"",""trial"",""time""
""fullscreenenter"",""1"",""19609""
""fullscreenexit"",""3"",""45197""
","
","
","""event"",""trial"",""time""
""fullscreenenter"",""1"",""19609""
","""event"",""trial"",""time""
""fullscreenexit"",""3"",""45197""
",,83.7,run_exp/static/images/task_images/land.jpg,65,,,,,,,50,,,6,,,,,,,,157566,1,1,FALSE,,,
dig,144,614340,0.0-44.0-0.0,"""event"",""trial"",""time""
""fullscreenenter"",""1"",""19609""
""fullscreenexit"",""3"",""45197""
","
","
","""event"",""trial"",""time""
""fullscreenenter"",""1"",""19609""
","""event"",""trial"",""time""
""fullscreenexit"",""3"",""45197""
",,,,,,,,,,,,"[{""stimulus"":""run_exp/static/images/task_images/dig.jpg"",""time"":0.19999999552965164},{""stimulus"":""run_exp/static/images/task_images/land.jpg"",""time"":984.1999999955297},{""stimulus"":""run_exp/static/images/task_images/dig.jpg"",""time"":1950.7999999970198}]",[],6,,,,,,,,,,,,,,
harvest,145,615347,0.0-44.0-1.0,"""event"",""trial"",""time""
""fullscreenenter"",""1"",""19609""
""fullscreenexit"",""3"",""45197""
","
","
","""event"",""trial"",""time""
""fullscreenenter"",""1"",""19609""
","""event"",""trial"",""time""
""fullscreenexit"",""3"",""45197""
",,null,run_exp/static/images/task_images/gems/50.jpg,null,,,,,,,40,,,6,,,,,50,0.794135069,0.8,,,,,,,
decision,146,615377,0.0-44.0-2.0,"""event"",""trial"",""time""
""fullscreenenter"",""1"",""19609""
""fullscreenexit"",""3"",""45197""
","
","
","""event"",""trial"",""time""
""fullscreenenter"",""1"",""19609""
","""event"",""trial"",""time""
""fullscreenexit"",""3"",""45197""
",,29.09999999,run_exp/static/images/task_images/land.jpg,65,,,,,,,40,,,6,,,,,,,,161536,1,2,FALSE,,,
dig,147,618362,0.0-45.0-0.0,"""event"",""trial"",""time""
""fullscreenenter"",""1"",""19609""
""fullscreenexit"",""3"",""45197""
","
","
","""event"",""trial"",""time""
""fullscreenenter"",""1"",""19609""
","""event"",""trial"",""time""
""fullscreenexit"",""3"",""45197""
",,,,,,,,,,,,"[{""stimulus"":""run_exp/static/images/task_images/dig.jpg"",""time"":0.20000000298023224},{""stimulus"":""run_exp/static/images/task_images/land.jpg"",""time"":997.1000000014901},{""stimulus"":""run_exp/static/images/task_images/dig.jpg"",""time"":1989.8000000044703}]",[],6,,,,,,,,,,,,,,
harvest,148,619371,0.0-45.0-1.0,"""event"",""trial"",""time""
""fullscreenenter"",""1"",""19609""
""fullscreenexit"",""3"",""45197""
","
","
","""event"",""trial"",""time""
""fullscreenenter"",""1"",""19609""
","""event"",""trial"",""time""
""fullscreenexit"",""3"",""45197""
",,null,run_exp/static/images/task_images/gems/40.jpg,null,,,,,,,35,,,6,,,,,40,0.867379944,0.875,,,,,,,
decision,149,620354,0.0-45.0-2.0,"""event"",""trial"",""time""
""fullscreenenter"",""1"",""19609""
""fullscreenexit"",""3"",""45197""
","
","
","""event"",""trial"",""time""
""fullscreenenter"",""1"",""19609""
","""event"",""trial"",""time""
""fullscreenexit"",""3"",""45197""
",,981.6,run_exp/static/images/task_images/land.jpg,65,,,,,,,35,,,6,,,,,,,,166513,1,3,FALSE,,,
dig,150,622384,0.0-46.0-0.0,"""event"",""trial"",""time""
""fullscreenenter"",""1"",""19609""
""fullscreenexit"",""3"",""45197""
","
","
","""event"",""trial"",""time""
""fullscreenenter"",""1"",""19609""
","""event"",""trial"",""time""
""fullscreenexit"",""3"",""45197""
",,,,,,,,,,,,"[{""stimulus"":""run_exp/static/images/task_images/dig.jpg"",""time"":0.30000000447034836},{""stimulus"":""run_exp/static/images/task_images/land.jpg"",""time"":684.3000000044703},{""stimulus"":""run_exp/static/images/task_images/dig.jpg"",""time"":1353.3000000044703}]",[],6,,,,,,,,,,,,,,
harvest,151,623395,0.0-46.0-1.0,"""event"",""trial"",""time""
""fullscreenenter"",""1"",""19609""
""fullscreenexit"",""3"",""45197""
","
","
","""event"",""trial"",""time""
""fullscreenenter"",""1"",""19609""
","""event"",""trial"",""time""
""fullscreenexit"",""3"",""45197""
",,null,run_exp/static/images/task_images/gems/35.jpg,null,,,,,,,27,,,6,,,,,35,0.760272726,0.771428571,,,,,,,
decision,152,624756,0.0-46.0-2.0,"""event"",""trial"",""time""
""fullscreenenter"",""1"",""19609""
""fullscreenexit"",""3"",""45197""
","
","
","""event"",""trial"",""time""
""fullscreenenter"",""1"",""19609""
","""event"",""trial"",""time""
""fullscreenexit"",""3"",""45197""
",,1359.7,run_exp/static/images/task_images/land.jpg,76,,,,,,,27,,,6,,,,,,,,170915,1,4,TRUE,,,
travel,153,633408,0.0-47.0-0.0,"""event"",""trial"",""time""
""fullscreenenter"",""1"",""19609""
""fullscreenexit"",""3"",""45197""
","
","
","""event"",""trial"",""time""
""fullscreenenter"",""1"",""19609""
","""event"",""trial"",""time""
""fullscreenexit"",""3"",""45197""
",,,,,,,,,,,,"[{""stimulus"":""run_exp/static/images/task_images/rocket-01.jpg"",""time"":0.20000000298023224},{""stimulus"":""run_exp/static/images/task_images/rocket-02.jpg"",""time"":967.8999999985099},{""stimulus"":""run_exp/static/images/task_images/rocket-03.jpg"",""time"":1927.1000000014901},{""stimulus"":""run_exp/static/images/task_images/rocket-04.jpg"",""time"":2890.8000000044703},{""stimulus"":""run_exp/static/images/task_images/rocket-05.jpg"",""time"":3848.2000000029802},{""stimulus"":""run_exp/static/images/task_images/rocket-06.jpg"",""time"":4809.80000000447},{""stimulus"":""run_exp/static/images/task_images/rocket-07.jpg"",""time"":5768.60000000149},{""stimulus"":""run_exp/static/images/task_images/rocket-08.jpg"",""time"":6727.30000000447},{""stimulus"":""run_exp/static/images/task_images/rocket-09.jpg"",""time"":7691.39999999851}]",[],6,,,,,,,,,,,,,,
alien_welcome,154,638418,0.0-47.0-1.0,"""event"",""trial"",""time""
""fullscreenenter"",""1"",""19609""
""fullscreenexit"",""3"",""45197""
","
","
","""event"",""trial"",""time""
""fullscreenenter"",""1"",""19609""
","""event"",""trial"",""time""
""fullscreenexit"",""3"",""45197""
",,null,run_exp/static/images/task_images/aliens/old_aliens/planet/alien_planet-47.jpg,null,,,,,,,,,,,,,47,"17,2,56,23,13,42,47,66,50,29,24,20,33,60,15,14,34,38,19,26,48,8,43,31,21,9,36,27,22,63,10,54,16,51,53,37,41,79,65,11,71",,,,,,,,,,
land,155,638929,0.0-47.0-2.0,"""event"",""trial"",""time""
""fullscreenenter"",""1"",""19609""
""fullscreenexit"",""3"",""45197""
","
","
","""event"",""trial"",""time""
""fullscreenenter"",""1"",""19609""
","""event"",""trial"",""time""
""fullscreenexit"",""3"",""45197""
",,null,run_exp/static/images/task_images/land.jpg,null,,,,,,,102,,,7,,,,,,,,,,,,,,
dig,156,640938,0.0-47.0-3.0,"""event"",""trial"",""time""
""fullscreenenter"",""1"",""19609""
""fullscreenexit"",""3"",""45197""
","
","
","""event"",""trial"",""time""
""fullscreenenter"",""1"",""19609""
","""event"",""trial"",""time""
""fullscreenexit"",""3"",""45197""
",,,,,,,,,,,,"[{""stimulus"":""run_exp/static/images/task_images/dig.jpg"",""time"":0.4000000059604645},{""stimulus"":""run_exp/static/images/task_images/land.jpg"",""time"":677.5},{""stimulus"":""run_exp/static/images/task_images/dig.jpg"",""time"":1340.9000000059605}]",[],7,,,,,,,,,,,,,,
harvest,157,641944,0.0-47.0-4.0,"""event"",""trial"",""time""
""fullscreenenter"",""1"",""19609""
""fullscreenexit"",""3"",""45197""
","
","
","""event"",""trial"",""time""
""fullscreenenter"",""1"",""19609""
","""event"",""trial"",""time""
""fullscreenexit"",""3"",""45197""
",,null,run_exp/static/images/task_images/gems/102.jpg,null,,,,,,,81,,,7,,,,,102,0.790016043,0.794117647,,,,,,,
decision,158,644154,0.0-47.0-5.0,"""event"",""trial"",""time""
""fullscreenenter"",""1"",""19609""
""fullscreenexit"",""3"",""45197""
","
","
","""event"",""trial"",""time""
""fullscreenenter"",""1"",""19609""
","""event"",""trial"",""time""
""fullscreenexit"",""3"",""45197""
",,2208.7,run_exp/static/images/task_images/land.jpg,65,,,,,,,81,,,7,,,,,,,,190313,1,0,FALSE,,,
dig,159,644951,0.0-48.0-0.0,"""event"",""trial"",""time""
""fullscreenenter"",""1"",""19609""
""fullscreenexit"",""3"",""45197""
","
","
","""event"",""trial"",""time""
""fullscreenenter"",""1"",""19609""
","""event"",""trial"",""time""
""fullscreenexit"",""3"",""45197""
",,,,,,,,,,,,"[{""stimulus"":""run_exp/static/images/task_images/dig.jpg"",""time"":0.10000000149011612},{""stimulus"":""run_exp/static/images/task_images/land.jpg"",""time"":269.1000000014901},{""stimulus"":""run_exp/static/images/task_images/dig.jpg"",""time"":530.6999999955297}]",[],7,,,,,,,,,,,,,,
harvest,160,645958,0.0-48.0-1.0,"""event"",""trial"",""time""
""fullscreenenter"",""1"",""19609""
""fullscreenexit"",""3"",""45197""
","
","
","""event"",""trial"",""time""
""fullscreenenter"",""1"",""19609""
","""event"",""trial"",""time""
""fullscreenexit"",""3"",""45197""
",,null,run_exp/static/images/task_images/gems/81.jpg,null,,,,,,,57,,,7,,,,,81,0.700615415,0.703703704,,,,,,,
decision,161,645982,0.0-48.0-2.0,"""event"",""trial"",""time""
""fullscreenenter"",""1"",""19609""
""fullscreenexit"",""3"",""45197""
","
","
","""event"",""trial"",""time""
""fullscreenenter"",""1"",""19609""
","""event"",""trial"",""time""
""fullscreenexit"",""3"",""45197""
",,21.4,run_exp/static/images/task_images/land.jpg,65,,,,,,,57,,,7,,,,,,,,192141,1,1,FALSE,,,
dig,162,648966,0.0-49.0-0.0,"""event"",""trial"",""time""
""fullscreenenter"",""1"",""19609""
""fullscreenexit"",""3"",""45197""
","
","
","""event"",""trial"",""time""
""fullscreenenter"",""1"",""19609""
","""event"",""trial"",""time""
""fullscreenexit"",""3"",""45197""
",,,,,,,,,,,,"[{""stimulus"":""run_exp/static/images/task_images/dig.jpg"",""time"":0.8999999985098839},{""stimulus"":""run_exp/static/images/task_images/land.jpg"",""time"":1000.5999999940395},{""stimulus"":""run_exp/static/images/task_images/dig.jpg"",""time"":1991.2999999970198}]",[],7,,,,,,,,,,,,,,
harvest,163,649975,0.0-49.0-1.0,"""event"",""trial"",""time""
""fullscreenenter"",""1"",""19609""
""fullscreenexit"",""3"",""45197""
","
","
","""event"",""trial"",""time""
""fullscreenenter"",""1"",""19609""
","""event"",""trial"",""time""
""fullscreenexit"",""3"",""45197""
",,null,run_exp/static/images/task_images/gems/57.jpg,null,,,,,,,46,,,7,,,,,57,0.804991549,0.807017544,,,,,,,
decision,164,651033,0.0-49.0-2.0,"""event"",""trial"",""time""
""fullscreenenter"",""1"",""19609""
""fullscreenexit"",""3"",""45197""
","
","
","""event"",""trial"",""time""
""fullscreenenter"",""1"",""19609""
","""event"",""trial"",""time""
""fullscreenexit"",""3"",""45197""
",,1055.2,run_exp/static/images/task_images/land.jpg,65,,,,,,,46,,,7,,,,,,,,197192,1,2,FALSE,,,
dig,165,652983,0.0-50.0-0.0,"""event"",""trial"",""time""
""fullscreenenter"",""1"",""19609""
""fullscreenexit"",""3"",""45197""
","
","
","""event"",""trial"",""time""
""fullscreenenter"",""1"",""19609""
","""event"",""trial"",""time""
""fullscreenexit"",""3"",""45197""
",,,,,,,,,,,,"[{""stimulus"":""run_exp/static/images/task_images/dig.jpg"",""time"":0.20000000298023224},{""stimulus"":""run_exp/static/images/task_images/land.jpg"",""time"":652.2999999970198},{""stimulus"":""run_exp/static/images/task_images/dig.jpg"",""time"":1301.2999999970198}]",[],7,,,,,,,,,,,,,,
harvest,166,653993,0.0-50.0-1.0,"""event"",""trial"",""time""
""fullscreenenter"",""1"",""19609""
""fullscreenexit"",""3"",""45197""
","
","
","""event"",""trial"",""time""
""fullscreenenter"",""1"",""19609""
","""event"",""trial"",""time""
""fullscreenexit"",""3"",""45197""
",,null,run_exp/static/images/task_images/gems/46.jpg,null,,,,,,,35,,,7,,,,,46,0.76633137,0.760869565,,,,,,,
decision,167,654563,0.0-50.0-2.0,"""event"",""trial"",""time""
""fullscreenenter"",""1"",""19609""
""fullscreenexit"",""3"",""45197""
","
","
","""event"",""trial"",""time""
""fullscreenenter"",""1"",""19609""
","""event"",""trial"",""time""
""fullscreenexit"",""3"",""45197""
",,568.5,run_exp/static/images/task_images/land.jpg,65,,,,,,,35,,,7,,,,,,,,200722,1,3,FALSE,,,
dig,168,656999,0.0-51.0-0.0,"""event"",""trial"",""time""
""fullscreenenter"",""1"",""19609""
""fullscreenexit"",""3"",""45197""
","
","
","""event"",""trial"",""time""
""fullscreenenter"",""1"",""19609""
","""event"",""trial"",""time""
""fullscreenexit"",""3"",""45197""
",,,,,,,,,,,,"[{""stimulus"":""run_exp/static/images/task_images/dig.jpg"",""time"":0.29999999701976776},{""stimulus"":""run_exp/static/images/task_images/land.jpg"",""time"":821},{""stimulus"":""run_exp/static/images/task_images/dig.jpg"",""time"":1626.2000000029802}]",[],7,,,,,,,,,,,,,,
harvest,169,658010,0.0-51.0-1.0,"""event"",""trial"",""time""
""fullscreenenter"",""1"",""19609""
""fullscreenexit"",""3"",""45197""
","
","
","""event"",""trial"",""time""
""fullscreenenter"",""1"",""19609""
","""event"",""trial"",""time""
""fullscreenexit"",""3"",""45197""
",,null,run_exp/static/images/task_images/gems/35.jpg,null,,,,,,,29,,,7,,,,,35,0.824590012,0.828571429,,,,,,,
decision,170,659976,0.0-51.0-2.0,"""event"",""trial"",""time""
""fullscreenenter"",""1"",""19609""
""fullscreenexit"",""3"",""45197""
","
","
","""event"",""trial"",""time""
""fullscreenenter"",""1"",""19609""
","""event"",""trial"",""time""
""fullscreenexit"",""3"",""45197""
",,1965.1,run_exp/static/images/task_images/land.jpg,65,,,,,,,29,,,7,,,,,,,,206135,1,4,FALSE,,,
dig,171,661017,0.0-52.0-0.0,"""event"",""trial"",""time""
""fullscreenenter"",""1"",""19609""
""fullscreenexit"",""3"",""45197""
","
","
","""event"",""trial"",""time""
""fullscreenenter"",""1"",""19609""
","""event"",""trial"",""time""
""fullscreenexit"",""3"",""45197""
",,,,,,,,,,,,"[{""stimulus"":""run_exp/static/images/task_images/dig.jpg"",""time"":0.10000000149011612},{""stimulus"":""run_exp/static/images/task_images/land.jpg"",""time"":345.70000000298023},{""stimulus"":""run_exp/static/images/task_images/dig.jpg"",""time"":694.1000000014901}]",[],7,,,,,,,,,,,,,,
harvest,172,662027,0.0-52.0-1.0,"""event"",""trial"",""time""
""fullscreenenter"",""1"",""19609""
""fullscreenexit"",""3"",""45197""
","
","
","""event"",""trial"",""time""
""fullscreenenter"",""1"",""19609""
","""event"",""trial"",""time""
""fullscreenexit"",""3"",""45197""
",,null,run_exp/static/images/task_images/gems/29.jpg,null,,,,,,,22,,,7,,,,,29,0.762769448,0.75862069,,,,,,,
decision,173,662051,0.0-52.0-2.0,"""event"",""trial"",""time""
""fullscreenenter"",""1"",""19609""
""fullscreenexit"",""3"",""45197""
","
","
","""event"",""trial"",""time""
""fullscreenenter"",""1"",""19609""
","""event"",""trial"",""time""
""fullscreenexit"",""3"",""45197""
",,22.90000001,run_exp/static/images/task_images/land.jpg,65,,,,,,,22,,,7,,,,,,,,208210,1,5,FALSE,,,
dig,174,665040,0.0-53.0-0.0,"""event"",""trial"",""time""
""fullscreenenter"",""1"",""19609""
""fullscreenexit"",""3"",""45197""
","
","
","""event"",""trial"",""time""
""fullscreenenter"",""1"",""19609""
","""event"",""trial"",""time""
""fullscreenexit"",""3"",""45197""
",,,,,,,,,,,,"[{""stimulus"":""run_exp/static/images/task_images/dig.jpg"",""time"":0.19999999552965164},{""stimulus"":""run_exp/static/images/task_images/land.jpg"",""time"":1000.2999999970198},{""stimulus"":""run_exp/static/images/task_images/dig.jpg"",""time"":1993}]",[],7,,,,,,,,,,,,,,
harvest,175,666050,0.0-53.0-1.0,"""event"",""trial"",""time""
""fullscreenenter"",""1"",""19609""
""fullscreenexit"",""3"",""45197""
","
","
","""event"",""trial"",""time""
""fullscreenenter"",""1"",""19609""
","""event"",""trial"",""time""
""fullscreenexit"",""3"",""45197""
",,null,run_exp/static/images/task_images/gems/22.jpg,null,,,,,,,17,,,7,,,,,22,0.788535308,0.772727273,,,,,,,
decision,176,666179,0.0-53.0-2.0,"""event"",""trial"",""time""
""fullscreenenter"",""1"",""19609""
""fullscreenexit"",""3"",""45197""
","
","
","""event"",""trial"",""time""
""fullscreenenter"",""1"",""19609""
","""event"",""trial"",""time""
""fullscreenexit"",""3"",""45197""
",,127.4,run_exp/static/images/task_images/land.jpg,76,,,,,,,17,,,7,,,,,,,,212338,1,6,TRUE,,,
travel,177,676057,0.0-54.0-0.0,"""event"",""trial"",""time""
""fullscreenenter"",""1"",""19609""
""fullscreenexit"",""3"",""45197""
","
","
","""event"",""trial"",""time""
""fullscreenenter"",""1"",""19609""
","""event"",""trial"",""time""
""fullscreenexit"",""3"",""45197""
",,,,,,,,,,,,"[{""stimulus"":""run_exp/static/images/task_images/rocket-01.jpg"",""time"":0.10000000149011612},{""stimulus"":""run_exp/static/images/task_images/rocket-02.jpg"",""time"":1105.2999999970198},{""stimulus"":""run_exp/static/images/task_images/rocket-03.jpg"",""time"":2201.60000000149},{""stimulus"":""run_exp/static/images/task_images/rocket-04.jpg"",""time"":3298.60000000149},{""stimulus"":""run_exp/static/images/task_images/rocket-05.jpg"",""time"":4395.70000000298},{""stimulus"":""run_exp/static/images/task_images/rocket-06.jpg"",""time"":5492.89999999851},{""stimulus"":""run_exp/static/images/task_images/rocket-07.jpg"",""time"":6584.20000000298},{""stimulus"":""run_exp/static/images/task_images/rocket-08.jpg"",""time"":7681.20000000298},{""stimulus"":""run_exp/static/images/task_images/rocket-09.jpg"",""time"":8770}]",[],7,,,,,,,,,,,,,,
alien_welcome,178,681062,0.0-54.0-1.0,"""event"",""trial"",""time""
""fullscreenenter"",""1"",""19609""
""fullscreenexit"",""3"",""45197""
","
","
","""event"",""trial"",""time""
""fullscreenenter"",""1"",""19609""
","""event"",""trial"",""time""
""fullscreenexit"",""3"",""45197""
",,null,run_exp/static/images/task_images/aliens/old_aliens/planet/alien_planet-66.jpg,null,,,,,,,,,,,,,66,"17,2,56,23,13,42,47,66,50,29,24,20,33,60,15,14,34,38,19,26,48,8,43,31,21,9,36,27,22,63,10,54,16,51,53,37,41,79,65,11,71",,,,,,,,,,
land,179,681566,0.0-54.0-2.0,"""event"",""trial"",""time""
""fullscreenenter"",""1"",""19609""
""fullscreenexit"",""3"",""45197""
","
","
","""event"",""trial"",""time""
""fullscreenenter"",""1"",""19609""
","""event"",""trial"",""time""
""fullscreenexit"",""3"",""45197""
",,null,run_exp/static/images/task_images/land.jpg,null,,,,,,,101,,,8,,,,,,,,,,,,,,
dig,180,683575,0.0-54.0-3.0,"""event"",""trial"",""time""
""fullscreenenter"",""1"",""19609""
""fullscreenexit"",""3"",""45197""
","
","
","""event"",""trial"",""time""
""fullscreenenter"",""1"",""19609""
","""event"",""trial"",""time""
""fullscreenexit"",""3"",""45197""
",,,,,,,,,,,,"[{""stimulus"":""run_exp/static/images/task_images/dig.jpg"",""time"":0.20000000298023224},{""stimulus"":""run_exp/static/images/task_images/land.jpg"",""time"":672.4000000059605},{""stimulus"":""run_exp/static/images/task_images/dig.jpg"",""time"":1345.7000000029802}]",[],8,,,,,,,,,,,,,,
harvest,181,684585,0.0-54.0-4.0,"""event"",""trial"",""time""
""fullscreenenter"",""1"",""19609""
""fullscreenexit"",""3"",""45197""
","
","
","""event"",""trial"",""time""
""fullscreenenter"",""1"",""19609""
","""event"",""trial"",""time""
""fullscreenexit"",""3"",""45197""
",,null,run_exp/static/images/task_images/gems/101.jpg,null,,,,,,,83,,,8,,,,,101,0.817997434,0.821782178,,,,,,,
decision,182,685190,0.0-54.0-5.0,"""event"",""trial"",""time""
""fullscreenenter"",""1"",""19609""
""fullscreenexit"",""3"",""45197""
","
","
","""event"",""trial"",""time""
""fullscreenenter"",""1"",""19609""
","""event"",""trial"",""time""
""fullscreenexit"",""3"",""45197""
",,604.4,run_exp/static/images/task_images/land.jpg,65,,,,,,,83,,,8,,,,,,,,231350,1,0,FALSE,,,
dig,183,687592,0.0-55.0-0.0,"""event"",""trial"",""time""
""fullscreenenter"",""1"",""19609""
""fullscreenexit"",""3"",""45197""
","
","
","""event"",""trial"",""time""
""fullscreenenter"",""1"",""19609""
","""event"",""trial"",""time""
""fullscreenexit"",""3"",""45197""
",,,,,,,,,,,,"[{""stimulus"":""run_exp/static/images/task_images/dig.jpg"",""time"":0.19999999552965164},{""stimulus"":""run_exp/static/images/task_images/land.jpg"",""time"":808.6999999955297},{""stimulus"":""run_exp/static/images/task_images/dig.jpg"",""time"":1608.5}]",[],8,,,,,,,,,,,,,,
harvest,184,688602,0.0-55.0-1.0,"""event"",""trial"",""time""
""fullscreenenter"",""1"",""19609""
""fullscreenexit"",""3"",""45197""
","
","
","""event"",""trial"",""time""
""fullscreenenter"",""1"",""19609""
","""event"",""trial"",""time""
""fullscreenexit"",""3"",""45197""
",,null,run_exp/static/images/task_images/gems/83.jpg,null,,,,,,,71,,,8,,,,,83,0.855344432,0.855421687,,,,,,,
decision,185,690915,0.0-55.0-2.0,"""event"",""trial"",""time""
""fullscreenenter"",""1"",""19609""
""fullscreenexit"",""3"",""45197""
","
","
","""event"",""trial"",""time""
""fullscreenenter"",""1"",""19609""
","""event"",""trial"",""time""
""fullscreenexit"",""3"",""45197""
",,2311.7,run_exp/static/images/task_images/land.jpg,65,,,,,,,71,,,8,,,,,,,,237074,1,1,FALSE,,,
dig,186,691615,0.0-56.0-0.0,"""event"",""trial"",""time""
""fullscreenenter"",""1"",""19609""
""fullscreenexit"",""3"",""45197""
","
","
","""event"",""trial"",""time""
""fullscreenenter"",""1"",""19609""
","""event"",""trial"",""time""
""fullscreenexit"",""3"",""45197""
",,,,,,,,,,,,"[{""stimulus"":""run_exp/static/images/task_images/dig.jpg"",""time"":0.20000000298023224},{""stimulus"":""run_exp/static/images/task_images/land.jpg"",""time"":231.60000000149012},{""stimulus"":""run_exp/static/images/task_images/dig.jpg"",""time"":465.80000000447035}]",[],8,,,,,,,,,,,,,,
harvest,187,692624,0.0-56.0-1.0,"""event"",""trial"",""time""
""fullscreenenter"",""1"",""19609""
""fullscreenexit"",""3"",""45197""
","
","
","""event"",""trial"",""time""
""fullscreenenter"",""1"",""19609""
","""event"",""trial"",""time""
""fullscreenexit"",""3"",""45197""
",,null,run_exp/static/images/task_images/gems/71.jpg,null,,,,,,,57,,,8,,,,,71,0.796081691,0.802816901,,,,,,,
decision,188,695631,0.0-56.0-2.0,"""event"",""trial"",""time""
""fullscreenenter"",""1"",""19609""
""fullscreenexit"",""3"",""45197""
","
","
","""event"",""trial"",""time""
""fullscreenenter"",""1"",""19609""
","""event"",""trial"",""time""
""fullscreenexit"",""3"",""45197""
",,null,run_exp/static/images/task_images/land.jpg,null,,,,,,,57,,,8,,,,,,,,241791,1,2,FALSE,,,
time_out,189,697639,0.0-57.0-0.0,"""event"",""trial"",""time""
""fullscreenenter"",""1"",""19609""
""fullscreenexit"",""3"",""45197""
","
","
","""event"",""trial"",""time""
""fullscreenenter"",""1"",""19609""
","""event"",""trial"",""time""
""fullscreenexit"",""3"",""45197""
",,null,run_exp/static/images/task_images/time_out.jpg,null,,,,,,,57,,,,,,,,,,,,,,,,,
decision,190,697708,0.0-57.0-1.0,"""event"",""trial"",""time""
""fullscreenenter"",""1"",""19609""
""fullscreenexit"",""3"",""45197""
","
","
","""event"",""trial"",""time""
""fullscreenenter"",""1"",""19609""
","""event"",""trial"",""time""
""fullscreenexit"",""3"",""45197""
",,67.7,run_exp/static/images/task_images/land.jpg,65,,,,,,,57,,,8,,,,,,,,243867,1,2,FALSE,,,
dig,191,700646,0.0-58.0-0.0,"""event"",""trial"",""time""
""fullscreenenter"",""1"",""19609""
""fullscreenexit"",""3"",""45197""
","
","
","""event"",""trial"",""time""
""fullscreenenter"",""1"",""19609""
","""event"",""trial"",""time""
""fullscreenexit"",""3"",""45197""
",,,,,,,,,,,,"[{""stimulus"":""run_exp/static/images/task_images/dig.jpg"",""time"":0.29999999701976776},{""stimulus"":""run_exp/static/images/task_images/land.jpg"",""time"":984.5},{""stimulus"":""run_exp/static/images/task_images/dig.jpg"",""time"":1958.2999999970198}]",[],8,,,,,,,,,,,,,,
harvest,192,701656,0.0-58.0-1.0,"""event"",""trial"",""time""
""fullscreenenter"",""1"",""19609""
""fullscreenexit"",""3"",""45197""
","
","
","""event"",""trial"",""time""
""fullscreenenter"",""1"",""19609""
","""event"",""trial"",""time""
""fullscreenexit"",""3"",""45197""
",,null,run_exp/static/images/task_images/gems/57.jpg,null,,,,,,,46,,,8,,,,,57,0.805861142,0.807017544,,,,,,,
decision,193,701708,0.0-58.0-2.0,"""event"",""trial"",""time""
""fullscreenenter"",""1"",""19609""
""fullscreenexit"",""3"",""45197""
","
","
","""event"",""trial"",""time""
