trial_type,trial_index,time_elapsed,internal_node_id,interactions,blur_events,focus_events,fullscreenenter_events,fullscreenexit_events,success,rt,stimulus,key_press,prompt,subject_id,participant_id,age,gender,button_pressed,next_reward,animation_sequence,responses,planet,curr_prac_trial,n_prac_rounds,alien,aliens,reward_received,decay_rate_actual,decay_rate_exp,time_in_block,block_num,prt,last_trial_on_planet,button_html,bonus,num_failures
pavlovia,0,94,0.0-0.0,"""event"",""trial"",""time""
""fullscreenenter"",""1"",""4659""
","
","
","""event"",""trial"",""time""
""fullscreenenter"",""1"",""4659""
","
",,,,,,,,,,,,,,,,,,,,,,,,,,,,
fullscreen,1,5606,0.0-1.0,"""event"",""trial"",""time""
""fullscreenenter"",""1"",""4659""
","
","
","""event"",""trial"",""time""
""fullscreenenter"",""1"",""4659""
","
",TRUE,,,,,,,,,,,,,,,,,,,,,,,,,,,
instruc_welcome,2,15789,0.0-2.0,"""event"",""trial"",""time""
""fullscreenenter"",""1"",""4659""
","
","
","""event"",""trial"",""time""
""fullscreenenter"",""1"",""4659""
","
",,null,run_exp/static/audio/clip_1_welcome.m4a,null,"<p>Howdy! In this experiment, you’ll be an explorer traveling through space to collect space treasure.</p><p>Your mission is to collect as much treasure as possible.</p><br><br><p><img src='run_exp/static/images/task_images/opening_img-01.jpg' height='300' width='auto'></p>",10253,3169,18.83,Other,,,,,,,,,,,,,,,,,,,
audio-keyboard-response,3,32617,0.0-3.0,"""event"",""trial"",""time""
""fullscreenenter"",""1"",""4659""
","
","
","""event"",""trial"",""time""
""fullscreenenter"",""1"",""4659""
","
",,null,run_exp/static/audio/clip_2_move.m4a,null,,,,,,,,,,,,,,,,,,,,,,,,
welcome_dec,4,37570,0.0-4.0,"""event"",""trial"",""time""
""fullscreenenter"",""1"",""4659""
","
","
","""event"",""trial"",""time""
""fullscreenenter"",""1"",""4659""
","
",,4944,"<p>Howdy! In this experiment, you’ll be an explorer traveling through space to collect space treasure.</p><p>Your mission is to collect as much treasure as possible.</p><br><br><p><img src='run_exp/static/images/task_images/opening_img-01.jpg' height='300' width='auto'></p>",,,,,,,1,,,,,,,,,,,,,,,,,,
html-keyboard-response,5,38393,0.0-5.0,"""event"",""trial"",""time""
""fullscreenenter"",""1"",""4659""
","
","
","""event"",""trial"",""time""
""fullscreenenter"",""1"",""4659""
","
",,815.7999997,"<p>Howdy! In this experiment, you’ll be an explorer traveling through space to collect space treasure.</p><p>Your mission is to collect as much treasure as possible.</p><br><br><p><img src='run_exp/static/images/task_images/opening_img-01.jpg' height='300' width='auto'></p><button class=""jspsych-html-btn-unchosen""><img src=""run_exp/static/images/task_images/planet-01.jpg"" height=""50""></button><button class=""jspsych-html-btn-chosen""><img src=""run_exp/static/images/task_images/planet-02.jpg"" height=""50""></button><p><b>[press the space bar to lock in your answer]<b><br></p>",32,,,,,,,,,,,,,,,,,,,,,,,,
instruc_goal,6,48517,0.0-6.0-0.0,"""event"",""trial"",""time""
""fullscreenenter"",""1"",""4659""
","
","
","""event"",""trial"",""time""
""fullscreenenter"",""1"",""4659""
","
",,null,run_exp/static/audio/clip_3_goal.m4a,null,"<p> As a space explorer, you’ll visit different planets to dig for space treasure, these pink gems.</p> <p> The more treasure you dig up, the more bonus money you’ll win! </p><br><br><p><img src='run_exp/static/images/task_images/pink_gem.jpg' height='300' width='auto'></p>",,,,,,,,,,,,,,,,,,,,,,,
instruc_goal,7,52752,0.0-6.0-1.0,"""event"",""trial"",""time""
""fullscreenenter"",""1"",""4659""
","
","
","""event"",""trial"",""time""
""fullscreenenter"",""1"",""4659""
","
",,4226.3,"<p> As a space explorer, you’ll visit different planets to dig for space treasure, these pink gems.</p> <p> The more treasure you dig up, the more bonus money you’ll win! </p><br><br><p><img src='run_exp/static/images/task_images/pink_gem.jpg' height='300' width='auto'></p>",,,,,,,1,,,,,,,,,,,,,,,,,,
html-keyboard-response,8,53411,0.0-6.0-2.0,"""event"",""trial"",""time""
""fullscreenenter"",""1"",""4659""
","
","
","""event"",""trial"",""time""
""fullscreenenter"",""1"",""4659""
","
",,653.3000002,"<p> As a space explorer, you’ll visit different planets to dig for space treasure, these pink gems.</p> <p> The more treasure you dig up, the more bonus money you’ll win! </p><br><br><p><img src='run_exp/static/images/task_images/pink_gem.jpg' height='300' width='auto'></p><button class=""jspsych-html-btn-unchosen""><img src=""run_exp/static/images/task_images/planet-01.jpg"" height=""50""></button><button class=""jspsych-html-btn-chosen""><img src=""run_exp/static/images/task_images/planet-02.jpg"" height=""50""></button><p><b>[press the space bar to lock in your answer]<b><br></p>",32,,,,,,,,,,,,,,,,,,,,,,,,
instruc_dig,9,69561,0.0-7.0-0.0,"""event"",""trial"",""time""
""fullscreenenter"",""1"",""4659""
","
","
","""event"",""trial"",""time""
""fullscreenenter"",""1"",""4659""
","
",,null,run_exp/static/audio/clip_4_dig.m4a,null,,,,,,,100,,,,,,,,,,,,,,,,,
instruc_dig_try,10,70600,0.0-7.0-1.0,"""event"",""trial"",""time""
""fullscreenenter"",""1"",""4659""
","
","
","""event"",""trial"",""time""
""fullscreenenter"",""1"",""4659""
","
",,1034.9,"<p> When you’ve arrived at a new planet, you will dig once. </p> <p>Then, you get to decide if you want to stay on the planet and dig again or travel to a new planet and dig there.</p> <p> To stay and dig, press the letter <strong>‘A’</strong> on your keyboard. Try pressing it now! </p><p><img src='run_exp/static/images/task_images/land.jpg'  height='700' width='auto'></p>",65,"<p> When you’ve arrived at a new planet, you will dig once. </p> <p>Then, you get to decide if you want to stay on the planet and dig again or travel to a new planet and dig there.</p> <p> To stay and dig, press the letter <strong>‘A’</strong> on your keyboard. Try pressing it now! </p><p><img src='run_exp/static/images/task_images/land.jpg'  height='700' width='auto'></p>",,,,,,100,,,,,,,,,,,,,,,,,
dig_prac,11,72733,0.0-7.0-2.0,"""event"",""trial"",""time""
""fullscreenenter"",""1"",""4659""
","
","
","""event"",""trial"",""time""
""fullscreenenter"",""1"",""4659""
","
",,,,,,,,,,,,"[{""stimulus"":""run_exp/static/images/task_images/dig.jpg"",""time"":1},{""stimulus"":""run_exp/static/images/task_images/land.jpg"",""time"":709.5999999046326},{""stimulus"":""run_exp/static/images/task_images/dig.jpg"",""time"":1355.1999998092651}]",[],,,,,,,,,,,,,,,
instruc_travel,12,109038,0.0-7.0-3.0,"""event"",""trial"",""time""
""fullscreenenter"",""1"",""4659""
","
","
","""event"",""trial"",""time""
""fullscreenenter"",""1"",""4659""
","
",,null,run_exp/static/audio/clip_5_travel.m4a,null,"<p>Every time you dig up gems, there are less gems on the planet, so the more you dig on a planet the fewer gems you’ll get with each dig.</p><p>When gems are running low, you may want to travel to a new planet. </p> <p>  Planets are very far apart in this galaxy, so it will take some time to travel between them. </p> <br><p>There are lots and lots of planets for you to visit, so you won’t be able to return to any planets you’ve seen before. </p><br><p>To leave this planet and travel to a new one, press the letter <strong>‘L’</strong> on your keyboard. Try pressing it now! </p><p><img src='run_exp/static/images/task_images/rocket-01.jpg'  height='600' width='auto'></p>",,,,,,,,,,,,,,,,,,,,,,,
instruc_travel_try,13,110858,0.0-7.0-4.0,"""event"",""trial"",""time""
""fullscreenenter"",""1"",""4659""
","
","
","""event"",""trial"",""time""
""fullscreenenter"",""1"",""4659""
","
",,1816.7,"<p>Every time you dig up gems, there are less gems on the planet, so the more you dig on a planet the fewer gems you’ll get with each dig.</p><p>When gems are running low, you may want to travel to a new planet. </p> <p>  Planets are very far apart in this galaxy, so it will take some time to travel between them. </p> <br><p>There are lots and lots of planets for you to visit, so you won’t be able to return to any planets you’ve seen before. </p><br><p>To leave this planet and travel to a new one, press the letter <strong>‘L’</strong> on your keyboard. Try pressing it now! </p><p><img src='run_exp/static/images/task_images/rocket-01.jpg'  height='600' width='auto'></p>",76,"<p>Every time you dig up gems, there are less gems on the planet, so the more you dig on a planet the fewer gems you’ll get with each dig.</p><p>When gems are running low, you may want to travel to a new planet. </p> <p>  Planets are very far apart in this galaxy, so it will take some time to travel between them. </p> <br><p>There are lots and lots of planets for you to visit, so you won’t be able to return to any planets you’ve seen before. </p><br><p>To leave this planet and travel to a new one, press the letter <strong>‘L’</strong> on your keyboard. Try pressing it now! </p><p><img src='run_exp/static/images/task_images/rocket-01.jpg'  height='600' width='auto'></p>",,,,,,,,,,,,,,,,,,,,,,,
travel_prac,14,120883,0.0-7.0-5.0,"""event"",""trial"",""time""
""fullscreenenter"",""1"",""4659""
","
","
","""event"",""trial"",""time""
""fullscreenenter"",""1"",""4659""
","
",,,,,,,,,,,,"[{""stimulus"":""run_exp/static/images/task_images/rocket-01.jpg"",""time"":0.5999999046325684},{""stimulus"":""run_exp/static/images/task_images/rocket-02.jpg"",""time"":1127.1999998092651},{""stimulus"":""run_exp/static/images/task_images/rocket-03.jpg"",""time"":2226},{""stimulus"":""run_exp/static/images/task_images/rocket-04.jpg"",""time"":3351.2999997138977},{""stimulus"":""run_exp/static/images/task_images/rocket-05.jpg"",""time"":4478.900000095367},{""stimulus"":""run_exp/static/images/task_images/rocket-06.jpg"",""time"":5567.900000095367},{""stimulus"":""run_exp/static/images/task_images/rocket-07.jpg"",""time"":6709.5},{""stimulus"":""run_exp/static/images/task_images/rocket-08.jpg"",""time"":7787.900000095367},{""stimulus"":""run_exp/static/images/task_images/rocket-09.jpg"",""time"":8914.799999713898}]",[],0,,,,,,,,,,,,,,
instruc_alien_greet,15,148197,0.0-7.0-6.0,"""event"",""trial"",""time""
""fullscreenenter"",""1"",""4659""
","
","
","""event"",""trial"",""time""
""fullscreenenter"",""1"",""4659""
","
",,null,run_exp/static/audio/clip_6_alien.m4a,null,"<p>When you arrive at a new planet, the alien who owns the treasure mine on that planet will greet you!</p><p>The better an alien takes care of their mine the easier it is to dig for gems. Some aliens take better care of their mine than others. So, you won’t get exactly the same amount of gems on each planet.</p><p>What the alien looks like does not tell you anything about how many gems there are on the planet.</p><br><p><img src=""run_exp/static/images/task_images/aliens/instructions_aliens/planet/alien_planet-1.jpg""  height=""600"" width=""auto""></p>",,,,,,,,,,,,,,,,,,,,,,,
instruc_alien_greet,16,150695,0.0-7.0-7.0,"""event"",""trial"",""time""
""fullscreenenter"",""1"",""4659""
","
","
","""event"",""trial"",""time""
""fullscreenenter"",""1"",""4659""
","
",,2484.5,"<p>When you arrive at a new planet, the alien who owns the treasure mine on that planet will greet you!</p><p>The better an alien takes care of their mine the easier it is to dig for gems. Some aliens take better care of their mine than others. So, you won’t get exactly the same amount of gems on each planet.</p><p>What the alien looks like does not tell you anything about how many gems there are on the planet.</p><br><p><img src=""run_exp/static/images/task_images/aliens/instructions_aliens/planet/alien_planet-1.jpg""  height=""600"" width=""auto""></p>",,,,,,,1,,,,,,,,,,,,,,,,,,
html-keyboard-response,17,151710,0.0-7.0-8.0,"""event"",""trial"",""time""
""fullscreenenter"",""1"",""4659""
","
","
","""event"",""trial"",""time""
""fullscreenenter"",""1"",""4659""
","
",,1011.9,"<p>When you arrive at a new planet, the alien who owns the treasure mine on that planet will greet you!</p><p>The better an alien takes care of their mine the easier it is to dig for gems. Some aliens take better care of their mine than others. So, you won’t get exactly the same amount of gems on each planet.</p><p>What the alien looks like does not tell you anything about how many gems there are on the planet.</p><br><p><img src=""run_exp/static/images/task_images/aliens/instructions_aliens/planet/alien_planet-1.jpg""  height=""600"" width=""auto""></p><button class=""jspsych-html-btn-unchosen""><img src=""run_exp/static/images/task_images/planet-01.jpg"" height=""50""></button><button class=""jspsych-html-btn-chosen""><img src=""run_exp/static/images/task_images/planet-02.jpg"" height=""50""></button><p><b>[press the space bar to lock in your answer]<b><br></p>",32,,,,,,,,,,,,,,,,,,,,,,,,
time_out,18,162978,0.0-8.0-0.0,"""event"",""trial"",""time""
""fullscreenenter"",""1"",""4659""
","
","
","""event"",""trial"",""time""
""fullscreenenter"",""1"",""4659""
","
",,null,run_exp/static/audio/clip_7_timeout.m4a,null,"<p>If you don't make your choice fast enough, you’ll have to wait a few seconds before you can make another one.</p><p>You can’t dig for more gems or travel to new planets. You just have to sit and wait.</p><br><p><img src='run_exp/static/images/task_images/time_out.jpg'  height='600' width='auto'></p>",,,,,,,,,,,,,,,,,,,,,,,
time_out,19,165281,0.0-8.0-1.0,"""event"",""trial"",""time""
""fullscreenenter"",""1"",""4659""
","
","
","""event"",""trial"",""time""
""fullscreenenter"",""1"",""4659""
","
",,2293.7,"<p>If you don't make your choice fast enough, you’ll have to wait a few seconds before you can make another one.</p><p>You can’t dig for more gems or travel to new planets. You just have to sit and wait.</p><br><p><img src='run_exp/static/images/task_images/time_out.jpg'  height='600' width='auto'></p>",,,,,,,1,,,,,,,,,,,,,,,,,,
html-keyboard-response,20,166654,0.0-8.0-2.0,"""event"",""trial"",""time""
""fullscreenenter"",""1"",""4659""
","
","
","""event"",""trial"",""time""
""fullscreenenter"",""1"",""4659""
","
",,1368.5,"<p>If you don't make your choice fast enough, you’ll have to wait a few seconds before you can make another one.</p><p>You can’t dig for more gems or travel to new planets. You just have to sit and wait.</p><br><p><img src='run_exp/static/images/task_images/time_out.jpg'  height='600' width='auto'></p><button class=""jspsych-html-btn-unchosen""><img src=""run_exp/static/images/task_images/planet-01.jpg"" height=""50""></button><button class=""jspsych-html-btn-chosen""><img src=""run_exp/static/images/task_images/planet-02.jpg"" height=""50""></button><p><b>[press the space bar to lock in your answer]<b><br></p>",32,,,,,,,,,,,,,,,,,,,,,,,,
instruc_break,21,182442,0.0-9.0-0.0,"""event"",""trial"",""time""
""fullscreenenter"",""1"",""4659""
","
","
","""event"",""trial"",""time""
""fullscreenenter"",""1"",""4659""
","
",,null,run_exp/static/audio/clip_8_break.m4a,null,"<p> After digging and traveling for a while, you’ll be able to take a break at home base. </p><p>The game will last 20 minutes no matter what.</p><p>You will visit home base every 5 minutes, so, you will visit home base three times during the game.</p><br><p><img src='run_exp/static/images/task_images/home_base.jpg' height='600' width='auto'></p>",,,,,,,,,,,,,,,,,,,,,,,
instruc_break,22,184760,0.0-9.0-1.0,"""event"",""trial"",""time""
""fullscreenenter"",""1"",""4659""
","
","
","""event"",""trial"",""time""
""fullscreenenter"",""1"",""4659""
","
",,2315,"<p> After digging and traveling for a while, you’ll be able to take a break at home base. </p><p>The game will last 20 minutes no matter what.</p><p>You will visit home base every 5 minutes, so, you will visit home base three times during the game.</p><br><p><img src='run_exp/static/images/task_images/home_base.jpg' height='600' width='auto'></p>",,,,,,,1,,,,,,,,,,,,,,,,,,
html-keyboard-response,23,185732,0.0-9.0-2.0,"""event"",""trial"",""time""
""fullscreenenter"",""1"",""4659""
","
","
","""event"",""trial"",""time""
""fullscreenenter"",""1"",""4659""
","
",,968.5,"<p> After digging and traveling for a while, you’ll be able to take a break at home base. </p><p>The game will last 20 minutes no matter what.</p><p>You will visit home base every 5 minutes, so, you will visit home base three times during the game.</p><br><p><img src='run_exp/static/images/task_images/home_base.jpg' height='600' width='auto'></p><button class=""jspsych-html-btn-unchosen""><img src=""run_exp/static/images/task_images/planet-01.jpg"" height=""50""></button><button class=""jspsych-html-btn-chosen""><img src=""run_exp/static/images/task_images/planet-02.jpg"" height=""50""></button><p><b>[press the space bar to lock in your answer]<b><br></p>",32,,,,,,,,,,,,,,,,,,,,,,,,
instruc_prac_game,24,195896,0.0-10.0-0.0,"""event"",""trial"",""time""
""fullscreenenter"",""1"",""4659""
","
","
","""event"",""trial"",""time""
""fullscreenenter"",""1"",""4659""
","
",,null,run_exp/static/audio/clip_9_practice.m4a,null,"<p> Are you ready to play a practice game? </p> <p>In this practice game, you'll be digging up barrels of gems. But, in the real game, you'll be digging up the gems themselves. </p>",,,,,,,,,,,,,,,,,,,,,,,
html-button-response,25,197671,0.0-10.0-1.0,"""event"",""trial"",""time""
""fullscreenenter"",""1"",""4659""
","
","
","""event"",""trial"",""time""
""fullscreenenter"",""1"",""4659""
","
",,1742.6,"<p> Are you ready to play a practice game? </p> <p>In this practice game, you'll be digging up barrels of gems. But, in the real game, you'll be digging up the gems themselves. </p>",,,,,,,0,,,,,,,,,,,,,,,,,,
alien_welcome_prac,26,202692,0.0-11.0-0.0,"""event"",""trial"",""time""
""fullscreenenter"",""1"",""4659""
","
","
","""event"",""trial"",""time""
""fullscreenenter"",""1"",""4659""
","
",,null,run_exp/static/images/task_images/aliens/practice_aliens/planet/alien_planet-5.jpg,null,,,,,,,,,,,,,,,,,,,,,,,,
land_prac,27,203215,0.0-11.0-1.0,"""event"",""trial"",""time""
""fullscreenenter"",""1"",""4659""
","
","
","""event"",""trial"",""time""
""fullscreenenter"",""1"",""4659""
","
",,null,run_exp/static/images/task_images/land.jpg,null,,,,,,,97,,,0,,,,,,,,,,,,,,
dig_prac,28,205275,0.0-11.0-2.0,"""event"",""trial"",""time""
""fullscreenenter"",""1"",""4659""
","
","
","""event"",""trial"",""time""
""fullscreenenter"",""1"",""4659""
","
",,,,,,,,,,,,"[{""stimulus"":""run_exp/static/images/task_images/dig.jpg"",""time"":0.5999999046325684},{""stimulus"":""run_exp/static/images/task_images/land.jpg"",""time"":697.0999999046326},{""stimulus"":""run_exp/static/images/task_images/dig.jpg"",""time"":1349.8000001907349}]",[],,,,,,,,,,,,,,,
harvest_prac,29,206327,0.0-11.0-3.0,"""event"",""trial"",""time""
""fullscreenenter"",""1"",""4659""
","
","
","""event"",""trial"",""time""
""fullscreenenter"",""1"",""4659""
","
",,null,run_exp/static/images/task_images/barrel_text.jpg,null,,,,,,,,,,,,,,,,,,,,,,,,
decision_prac,30,206572,0.0-11.0-4.0,"""event"",""trial"",""time""
""fullscreenenter"",""1"",""4659""
","
","
","""event"",""trial"",""time""
""fullscreenenter"",""1"",""4659""
","
",,242.7999997,run_exp/static/images/task_images/land.jpg,65,,,,,,,,,,,1,,,,,,,,,,,,,
dig_prac,31,208649,0.0-12.0-0.0,"""event"",""trial"",""time""
""fullscreenenter"",""1"",""4659""
","
","
","""event"",""trial"",""time""
""fullscreenenter"",""1"",""4659""
","
",,,,,,,,,,,,"[{""stimulus"":""run_exp/static/images/task_images/dig.jpg"",""time"":0.5999999046325684},{""stimulus"":""run_exp/static/images/task_images/land.jpg"",""time"":670.3000001907349},{""stimulus"":""run_exp/static/images/task_images/dig.jpg"",""time"":1381.2000002861023}]",[],,,,,,,,,,,,,,,
harvest_prac,32,209684,0.0-12.0-1.0,"""event"",""trial"",""time""
""fullscreenenter"",""1"",""4659""
","
","
","""event"",""trial"",""time""
""fullscreenenter"",""1"",""4659""
","
",,null,run_exp/static/images/task_images/barrel_text.jpg,null,,,,,,,,,,,,,,,,,,,,,,,,
decision_prac,33,212687,0.0-12.0-2.0,"""event"",""trial"",""time""
""fullscreenenter"",""1"",""4659""
","
","
","""event"",""trial"",""time""
""fullscreenenter"",""1"",""4659""
","
",,null,run_exp/static/images/task_images/land.jpg,null,,,,,,,,,,,2,,,,,,,,,,,,,
time_out,34,214748,0.0-13.0-0.0,"""event"",""trial"",""time""
""fullscreenenter"",""1"",""4659""
","
","
","""event"",""trial"",""time""
""fullscreenenter"",""1"",""4659""
","
",,null,run_exp/static/images/task_images/time_out.jpg,null,,,,,,,,,,,,,,,,,,,,,,,,
decision_prac,35,215263,0.0-13.0-1.0,"""event"",""trial"",""time""
""fullscreenenter"",""1"",""4659""
","
","
","""event"",""trial"",""time""
""fullscreenenter"",""1"",""4659""
","
",,511.6000004,run_exp/static/images/task_images/land.jpg,65,,,,,,,,,,,3,,,,,,,,,,,,,
dig_prac,36,217362,0.0-14.0-0.0,"""event"",""trial"",""time""
""fullscreenenter"",""1"",""4659""
","
","
","""event"",""trial"",""time""
""fullscreenenter"",""1"",""4659""
","
",,,,,,,,,,,,"[{""stimulus"":""run_exp/static/images/task_images/dig.jpg"",""time"":0.7000002861022949},{""stimulus"":""run_exp/static/images/task_images/land.jpg"",""time"":687.4000000953674},{""stimulus"":""run_exp/static/images/task_images/dig.jpg"",""time"":1592}]",[],,,,,,,,,,,,,,,
harvest_prac,37,218432,0.0-14.0-1.0,"""event"",""trial"",""time""
""fullscreenenter"",""1"",""4659""
","
","
","""event"",""trial"",""time""
""fullscreenenter"",""1"",""4659""
","
",,null,run_exp/static/images/task_images/barrel_text.jpg,null,,,,,,,,,,,,,,,,,,,,,,,,
decision_prac,38,220438,0.0-14.0-2.0,"""event"",""trial"",""time""
""fullscreenenter"",""1"",""4659""
","
","
","""event"",""trial"",""time""
""fullscreenenter"",""1"",""4659""
","
",,2003,run_exp/static/images/task_images/land.jpg,65,,,,,,,,,,,4,,,,,,,,,,,,,
dig_prac,39,222489,0.0-15.0-0.0,"""event"",""trial"",""time""
""fullscreenenter"",""1"",""4659""
","
","
","""event"",""trial"",""time""
""fullscreenenter"",""1"",""4659""
","
",,,,,,,,,,,,"[{""stimulus"":""run_exp/static/images/task_images/dig.jpg"",""time"":1.3000001907348633},{""stimulus"":""run_exp/static/images/task_images/land.jpg"",""time"":696.6999998092651},{""stimulus"":""run_exp/static/images/task_images/dig.jpg"",""time"":1352.5}]",[],,,,,,,,,,,,,,,
harvest_prac,40,223537,0.0-15.0-1.0,"""event"",""trial"",""time""
""fullscreenenter"",""1"",""4659""
","
","
","""event"",""trial"",""time""
""fullscreenenter"",""1"",""4659""
","
",,null,run_exp/static/images/task_images/barrel_text.jpg,null,,,,,,,,,,,,,,,,,,,,,,,,
decision_prac,41,224489,0.0-15.0-2.0,"""event"",""trial"",""time""
""fullscreenenter"",""1"",""4659""
","
","
","""event"",""trial"",""time""
""fullscreenenter"",""1"",""4659""
","
",,948.9000001,run_exp/static/images/task_images/land.jpg,65,,,,,,,,,,,,1,,,,,,,,,,,,
quiz_instruc,42,238049,0.0-16.0-0.0,"""event"",""trial"",""time""
""fullscreenenter"",""1"",""4659""
","
","
","""event"",""trial"",""time""
""fullscreenenter"",""1"",""4659""
","
",,13550.1,run_exp/static/audio/clip_10_quiz.m4a,,,,,,,0,,,,,,,,,,,,,,,,,,
instruc_repeat,43,281056,0.0-16.0-1.0,"""event"",""trial"",""time""
""fullscreenenter"",""1"",""4659""
","
","
","""event"",""trial"",""time""
""fullscreenenter"",""1"",""4659""
","
",,null,"<p> Are you ready to play a practice game? </p> <p>In this practice game, you'll be digging up barrels of gems. But, in the real game, you'll be digging up the gems themselves. </p>",null,"<p>In this game, your goal is to collect as many gems as you can. That’s how you will win bonus money. </p> <p>The entire game will last 20 minutes no matter how many gems you collect or how many planets you visit. </p><p>To stay on a planet and dig again, press the letter A on your keyboard. To leave for a new planet, press the letter L.</p><p>The more you dig on a planet, the fewer gems you’ll get with each dig which is why you might consider leaving for a new planet. </p><p>When you arrive at a new planet, you’ll be greeted by an alien. What the alien looks like does not tell you anything about how much treasure is on the planet. </p>",,,,,,,,,,,,,,,,,,,,,,,
instruc_repeat_continue,44,282642,0.0-16.0-2.0,"""event"",""trial"",""time""
""fullscreenenter"",""1"",""4659""
","
","
","""event"",""trial"",""time""
""fullscreenenter"",""1"",""4659""
","
",,1583.1,"<p> Are you ready to play a practice game? </p> <p>In this practice game, you'll be digging up barrels of gems. But, in the real game, you'll be digging up the gems themselves. </p>",,,,,,,0,,,,,,,,,,,,,,,,,,
quiz_q_1_ask,45,293603,0.0-16.0-3.0,"""event"",""trial"",""time""
""fullscreenenter"",""1"",""4659""
","
","
","""event"",""trial"",""time""
""fullscreenenter"",""1"",""4659""
","
",,10950.7,run_exp/static/audio/clip_11_q1_ask.m4a,,,,,,,2,,,,,,,,,,,,,,,,,,
quiz_q_1_fb_correct,46,297477,0.0-17.0-0.0,"""event"",""trial"",""time""
""fullscreenenter"",""1"",""4659""
","
","
","""event"",""trial"",""time""
""fullscreenenter"",""1"",""4659""
","
",,null,run_exp/static/audio/clip_12_q1_correct.m4a,null,<p>That’s correct. You win extra money by collecting more gems.</p>,,,,,,,,,,,,,,,,,,,,,,,
quiz_q_2_ask,47,310517,0.0-17.0-1.0,"""event"",""trial"",""time""
""fullscreenenter"",""1"",""4659""
","
","
","""event"",""trial"",""time""
""fullscreenenter"",""1"",""4659""
","
",,13028.9,run_exp/static/audio/clip_14_q2_ask.m4a,,,,,,,1,,,,,,,,,,,,,,,,,,
quiz_q_2_fb_correct,48,314676,0.0-18.0-0.0,"""event"",""trial"",""time""
""fullscreenenter"",""1"",""4659""
","
","
","""event"",""trial"",""time""
""fullscreenenter"",""1"",""4659""
","
",,null,run_exp/static/audio/clip_15_q2_correct.m4a,null,<p>That’s correct. The experiment is 20 minutes no matter what.</p>,,,,,,,,,,,,,,,,,,,,,,,
quiz_q_3_ask,49,319760,0.0-18.0-1.0,"""event"",""trial"",""time""
""fullscreenenter"",""1"",""4659""
","
","
","""event"",""trial"",""time""
""fullscreenenter"",""1"",""4659""
","
",,5079.6,run_exp/static/audio/clip_17_q3_ask.m4a,,,,,,,1,,,,,,,,,,,,,,,,,,
quiz_q_3_fb_correct,50,324377,0.0-19.0-0.0,"""event"",""trial"",""time""
""fullscreenenter"",""1"",""4659""
","
","
","""event"",""trial"",""time""
""fullscreenenter"",""1"",""4659""
","
",,null,run_exp/static/audio/clip_18_q3_correct.m4a,null,<p> That’s correct. You press the letter L to travel to a new planet.</p>,,,,,,,,,,,,,,,,,,,,,,,
quiz_q_4_ask,51,329375,0.0-19.0-1.0,"""event"",""trial"",""time""
""fullscreenenter"",""1"",""4659""
","
","
","""event"",""trial"",""time""
""fullscreenenter"",""1"",""4659""
","
",,4993.7,run_exp/static/audio/clip_20_q4_ask.m4a,,,,,,,0,,,,,,,,,,,,,,,,,,
quiz_q_4_fb_correct,52,334721,0.0-20.0-0.0,"""event"",""trial"",""time""
""fullscreenenter"",""1"",""4659""
","
","
","""event"",""trial"",""time""
""fullscreenenter"",""1"",""4659""
","
",,null,run_exp/static/audio/clip_21_q4_correct.m4a,null,<p> That’s correct. The more you dig on a planet the fewer gems you’ll get with each dig. </p>,,,,,,,,,,,,,,,,,,,,,,,
quiz_q_5_ask,53,344935,0.0-20.0-1.0,"""event"",""trial"",""time""
""fullscreenenter"",""1"",""4659""
","
","
","""event"",""trial"",""time""
""fullscreenenter"",""1"",""4659""
","
",,10166.1,run_exp/static/audio/clip_23_q5_ask.m4a,,,,,,,1,,,,,,,,,,,,,,,,,,
quiz_q_5_fb_correct,54,349937,0.0-21.0-0.0,"""event"",""trial"",""time""
""fullscreenenter"",""1"",""4659""
","
","
","""event"",""trial"",""time""
""fullscreenenter"",""1"",""4659""
","
",,null,run_exp/static/audio/clip_24_q5_correct.m4a,null,<p> That’s correct. The alien tells you nothing about how much treasure is on the planet.</p>,,,,,,,,,,,,,,,,,,,,,,,
quiz_correct,55,353557,0.0-22.0-0.0,"""event"",""trial"",""time""
""fullscreenenter"",""1"",""4659""
","
","
","""event"",""trial"",""time""
""fullscreenenter"",""1"",""4659""
","
",,null,run_exp/static/audio/clip_26_correct_quiz.m4a,null,,,,,,,,,,,,,,,,,,,,,,,,
quiz_correct_continue,56,355044,0.0-22.0-1.0,"""event"",""trial"",""time""
""fullscreenenter"",""1"",""4659""
","
","
","""event"",""trial"",""time""
""fullscreenenter"",""1"",""4659""
","
",,1484.5,<p>Good job! You're now ready to move on to the real game!</p>,,,,,,,0,,,,,,,,,,,,,,,,,,
audio-keyboard-response,57,365241,0.0-22.0-2.0,"""event"",""trial"",""time""
""fullscreenenter"",""1"",""4659""
","
","
","""event"",""trial"",""time""
""fullscreenenter"",""1"",""4659""
","
",,null,run_exp/static/audio/clip_28_real_game.m4a,null,,,,,,,,,,,,,,,,,,,,,,,,
instruc_begin_exp_contine,58,370305,0.0-22.0-3.0,"""event"",""trial"",""time""
""fullscreenenter"",""1"",""4659""
","
","
","""event"",""trial"",""time""
""fullscreenenter"",""1"",""4659""
","
",,5061,"<p>Now that you know how  to dig for space treasure and travel to new planets,you can start exploring! </p><p>Do you want to go over the instructions again or get started with the real game?</p>",,,,,,,1,,,,,,1,,,,,,,,,,,,
alien_welcome,59,375342,0.0-23.0-0.0,"""event"",""trial"",""time""
""fullscreenenter"",""1"",""4659""
","
","
","""event"",""trial"",""time""
""fullscreenenter"",""1"",""4659""
","
",,null,run_exp/static/images/task_images/aliens/old_aliens/planet/alien_planet-68.jpg,null,,,,,,,,,,,,,68,"68,17,13,62,69,55,56,37,26,6,32,2,50,8,40,48,3,64,61,20,58,28,45",,,,,,,,,,
land,60,375869,0.0-23.0-1.0,"""event"",""trial"",""time""
""fullscreenenter"",""1"",""4659""
","
","
","""event"",""trial"",""time""
""fullscreenenter"",""1"",""4659""
","
",,null,run_exp/static/images/task_images/land.jpg,null,,,,,,,104,,,1,,,,,,,,,,,,,,
dig,61,377919,0.0-23.0-2.0,"""event"",""trial"",""time""
""fullscreenenter"",""1"",""4659""
","
","
","""event"",""trial"",""time""
""fullscreenenter"",""1"",""4659""
","
",,,,,,,,,,,,"[{""stimulus"":""run_exp/static/images/task_images/dig.jpg"",""time"":0.5999999046325684},{""stimulus"":""run_exp/static/images/task_images/land.jpg"",""time"":706.4000000953674},{""stimulus"":""run_exp/static/images/task_images/dig.jpg"",""time"":1348.8000001907349}]",[],1,,,,,,,,,,,,,,
harvest,62,378960,0.0-23.0-3.0,"""event"",""trial"",""time""
""fullscreenenter"",""1"",""4659""
","
","
","""event"",""trial"",""time""
""fullscreenenter"",""1"",""4659""
","
",,null,run_exp/static/images/task_images/gems/104.jpg,null,,,,,,,20,,,1,,,,,104,0.190065788,0.192307692,,,,,,,
decision,63,381384,0.0-23.0-4.0,"""event"",""trial"",""time""
""fullscreenenter"",""1"",""4659""
","
","
","""event"",""trial"",""time""
""fullscreenenter"",""1"",""4659""
","
",,2276.2,run_exp/static/images/task_images/land.jpg,65,,,,,,,20,,,1,,,,,,,,11065,1,0,FALSE,,,
dig,64,382145,0.0-24.0-0.0,"""event"",""trial"",""time""
""fullscreenenter"",""1"",""4659""
","
","
","""event"",""trial"",""time""
""fullscreenenter"",""1"",""4659""
","
",,,,,,,,,,,,"[{""stimulus"":""run_exp/static/images/task_images/dig.jpg"",""time"":0.9000000953674316},{""stimulus"":""run_exp/static/images/task_images/land.jpg"",""time"":259.40000009536743},{""stimulus"":""run_exp/static/images/task_images/dig.jpg"",""time"":546}]",[],1,,,,,,,,,,,,,,
harvest,65,383168,0.0-24.0-1.0,"""event"",""trial"",""time""
""fullscreenenter"",""1"",""4659""
","
","
","""event"",""trial"",""time""
""fullscreenenter"",""1"",""4659""
","
",,null,run_exp/static/images/task_images/gems/20.jpg,null,,,,,,,3,,,1,,,,,20,0.163323939,0.15,,,,,,,
decision,66,385273,0.0-24.0-2.0,"""event"",""trial"",""time""
""fullscreenenter"",""1"",""4659""
","
","
","""event"",""trial"",""time""
""fullscreenenter"",""1"",""4659""
","
",,2102.1,run_exp/static/images/task_images/land.jpg,65,,,,,,,3,,,1,,,,,,,,14952,1,1,FALSE,,,
dig,67,386201,0.0-25.0-0.0,"""event"",""trial"",""time""
""fullscreenenter"",""1"",""4659""
","
","
","""event"",""trial"",""time""
""fullscreenenter"",""1"",""4659""
","
",,,,,,,,,,,,"[{""stimulus"":""run_exp/static/images/task_images/dig.jpg"",""time"":0.9000000953674316},{""stimulus"":""run_exp/static/images/task_images/land.jpg"",""time"":314.2000002861023},{""stimulus"":""run_exp/static/images/task_images/dig.jpg"",""time"":632.5}]",[],1,,,,,,,,,,,,,,
harvest,68,387225,0.0-25.0-1.0,"""event"",""trial"",""time""
""fullscreenenter"",""1"",""4659""
","
","
","""event"",""trial"",""time""
""fullscreenenter"",""1"",""4659""
","
",,null,run_exp/static/images/task_images/gems/3.jpg,null,,,,,,,1,,,1,,,,,3,0.219176182,0.333333333,,,,,,,
decision,69,389443,0.0-25.0-2.0,"""event"",""trial"",""time""
""fullscreenenter"",""1"",""4659""
","
","
","""event"",""trial"",""time""
""fullscreenenter"",""1"",""4659""
","
",,2216.3,run_exp/static/images/task_images/land.jpg,76,,,,,,,1,,,1,,,,,,,,19123,1,2,TRUE,,,
travel,70,397245,0.0-26.0-0.0,"""event"",""trial"",""time""
""fullscreenenter"",""1"",""4659""
","
","
","""event"",""trial"",""time""
""fullscreenenter"",""1"",""4659""
","
",,,,,,,,,,,,"[{""stimulus"":""run_exp/static/images/task_images/rocket-01.jpg"",""time"":0.6999998092651367},{""stimulus"":""run_exp/static/images/task_images/rocket-02.jpg"",""time"":889.5},{""stimulus"":""run_exp/static/images/task_images/rocket-03.jpg"",""time"":1742.0999999046326},{""stimulus"":""run_exp/static/images/task_images/rocket-04.jpg"",""time"":2607.800000190735},{""stimulus"":""run_exp/static/images/task_images/rocket-05.jpg"",""time"":3473.5999999046326},{""stimulus"":""run_exp/static/images/task_images/rocket-06.jpg"",""time"":4339.300000190735},{""stimulus"":""run_exp/static/images/task_images/rocket-07.jpg"",""time"":5216.5},{""stimulus"":""run_exp/static/images/task_images/rocket-08.jpg"",""time"":6089},{""stimulus"":""run_exp/static/images/task_images/rocket-09.jpg"",""time"":6924.199999809265}]",[],1,,,,,,,,,,,,,,
alien_welcome,71,402279,0.0-26.0-1.0,"""event"",""trial"",""time""
""fullscreenenter"",""1"",""4659""
","
","
","""event"",""trial"",""time""
""fullscreenenter"",""1"",""4659""
","
",,null,run_exp/static/images/task_images/aliens/old_aliens/planet/alien_planet-17.jpg,null,,,,,,,,,,,,,17,"68,17,13,62,69,55,56,37,26,6,32,2,50,8,40,48,3,64,61,20,58,28,45",,,,,,,,,,
land,72,402804,0.0-26.0-2.0,"""event"",""trial"",""time""
""fullscreenenter"",""1"",""4659""
","
","
","""event"",""trial"",""time""
""fullscreenenter"",""1"",""4659""
","
",,null,run_exp/static/images/task_images/land.jpg,null,,,,,,,97,,,2,,,,,,,,,,,,,,
dig,73,404838,0.0-26.0-3.0,"""event"",""trial"",""time""
""fullscreenenter"",""1"",""4659""
","
","
","""event"",""trial"",""time""
""fullscreenenter"",""1"",""4659""
","
",,,,,,,,,,,,"[{""stimulus"":""run_exp/static/images/task_images/dig.jpg"",""time"":0.6999998092651367},{""stimulus"":""run_exp/static/images/task_images/land.jpg"",""time"":703.5},{""stimulus"":""run_exp/static/images/task_images/dig.jpg"",""time"":1361.8999996185303}]",[],2,,,,,,,,,,,,,,
harvest,74,405855,0.0-26.0-4.0,"""event"",""trial"",""time""
""fullscreenenter"",""1"",""4659""
","
","
","""event"",""trial"",""time""
""fullscreenenter"",""1"",""4659""
","
",,null,run_exp/static/images/task_images/gems/97.jpg,null,,,,,,,20,,,2,,,,,97,0.20653515,0.206185567,,,,,,,
decision,75,408738,0.0-26.0-5.0,"""event"",""trial"",""time""
""fullscreenenter"",""1"",""4659""
","
","
","""event"",""trial"",""time""
""fullscreenenter"",""1"",""4659""
","
",,2879.3,run_exp/static/images/task_images/land.jpg,65,,,,,,,20,,,2,,,,,,,,38417,1,0,FALSE,,,
dig,76,408875,0.0-27.0-0.0,"""event"",""trial"",""time""
""fullscreenenter"",""1"",""4659""
","
","
","""event"",""trial"",""time""
""fullscreenenter"",""1"",""4659""
","
",,,,,,,,,,,,"[{""stimulus"":""run_exp/static/images/task_images/dig.jpg"",""time"":0.5999999046325684},{""stimulus"":""run_exp/static/images/task_images/land.jpg"",""time"":54.69999980926514},{""stimulus"":""run_exp/static/images/task_images/dig.jpg"",""time"":84.5}]",[],2,,,,,,,,,,,,,,
harvest,77,409885,0.0-27.0-1.0,"""event"",""trial"",""time""
""fullscreenenter"",""1"",""4659""
","
","
","""event"",""trial"",""time""
""fullscreenenter"",""1"",""4659""
","
",,null,run_exp/static/images/task_images/gems/20.jpg,null,,,,,,,4,,,2,,,,,20,0.217327647,0.2,,,,,,,
decision,78,411460,0.0-27.0-2.0,"""event"",""trial"",""time""
""fullscreenenter"",""1"",""4659""
","
","
","""event"",""trial"",""time""
""fullscreenenter"",""1"",""4659""
","
",,1571.3,run_exp/static/images/task_images/land.jpg,65,,,,,,,4,,,2,,,,,,,,41139,1,1,FALSE,,,
dig,79,412930,0.0-28.0-0.0,"""event"",""trial"",""time""
""fullscreenenter"",""1"",""4659""
","
","
","""event"",""trial"",""time""
""fullscreenenter"",""1"",""4659""
","
",,,,,,,,,,,,"[{""stimulus"":""run_exp/static/images/task_images/dig.jpg"",""time"":2.299999713897705},{""stimulus"":""run_exp/static/images/task_images/land.jpg"",""time"":491.5},{""stimulus"":""run_exp/static/images/task_images/dig.jpg"",""time"":976.5999999046326}]",[],2,,,,,,,,,,,,,,
harvest,80,413969,0.0-28.0-1.0,"""event"",""trial"",""time""
""fullscreenenter"",""1"",""4659""
","
","
","""event"",""trial"",""time""
""fullscreenenter"",""1"",""4659""
","
",,null,run_exp/static/images/task_images/gems/4.jpg,null,,,,,,,1,,,2,,,,,4,0.165025767,0.25,,,,,,,
decision,81,416071,0.0-28.0-2.0,"""event"",""trial"",""time""
""fullscreenenter"",""1"",""4659""
","
","
","""event"",""trial"",""time""
""fullscreenenter"",""1"",""4659""
","
",,2099.7,run_exp/static/images/task_images/land.jpg,65,,,,,,,1,,,2,,,,,,,,45751,1,2,FALSE,,,
dig,82,416988,0.0-29.0-0.0,"""event"",""trial"",""time""
""fullscreenenter"",""1"",""4659""
","
","
","""event"",""trial"",""time""
""fullscreenenter"",""1"",""4659""
","
",,,,,,,,,,,,"[{""stimulus"":""run_exp/static/images/task_images/dig.jpg"",""time"":0.6999998092651367},{""stimulus"":""run_exp/static/images/task_images/land.jpg"",""time"":313},{""stimulus"":""run_exp/static/images/task_images/dig.jpg"",""time"":617.3000001907349}]",[],2,,,,,,,,,,,,,,
harvest,83,418008,0.0-29.0-1.0,"""event"",""trial"",""time""
""fullscreenenter"",""1"",""4659""
","
","
","""event"",""trial"",""time""
""fullscreenenter"",""1"",""4659""
","
",,null,run_exp/static/images/task_images/gems/1.jpg,null,,,,,,,0,,,2,,,,,1,0.175173455,0,,,,,,,
decision,84,420022,0.0-29.0-2.0,"""event"",""trial"",""time""
""fullscreenenter"",""1"",""4659""
","
","
","""event"",""trial"",""time""
""fullscreenenter"",""1"",""4659""
","
",,2011.3,run_exp/static/images/task_images/land.jpg,65,,,,,,,0,,,2,,,,,,,,49701,1,3,FALSE,,,
dig,85,421059,0.0-30.0-0.0,"""event"",""trial"",""time""
""fullscreenenter"",""1"",""4659""
","
","
","""event"",""trial"",""time""
""fullscreenenter"",""1"",""4659""
","
",,,,,,,,,,,,"[{""stimulus"":""run_exp/static/images/task_images/dig.jpg"",""time"":0.6999998092651367},{""stimulus"":""run_exp/static/images/task_images/land.jpg"",""time"":341},{""stimulus"":""run_exp/static/images/task_images/dig.jpg"",""time"":665.8999996185303}]",[],2,,,,,,,,,,,,,,
harvest,86,422086,0.0-30.0-1.0,"""event"",""trial"",""time""
""fullscreenenter"",""1"",""4659""
","
","
","""event"",""trial"",""time""
""fullscreenenter"",""1"",""4659""
","
",,null,run_exp/static/images/task_images/gems/0.jpg,null,,,,,,,0,,,2,,,,,0,0.181618263,NaN,,,,,,,
decision,87,425106,0.0-30.0-2.0,"""event"",""trial"",""time""
""fullscreenenter"",""1"",""4659""
","
","
","""event"",""trial"",""time""
""fullscreenenter"",""1"",""4659""
","
",,null,run_exp/static/images/task_images/land.jpg,null,,,,,,,0,,,2,,,,,,,,54785,1,4,FALSE,,,
time_out,88,427149,0.0-31.0-0.0,"""event"",""trial"",""time""
""fullscreenenter"",""1"",""4659""
","
","
","""event"",""trial"",""time""
""fullscreenenter"",""1"",""4659""
","
",,null,run_exp/static/images/task_images/time_out.jpg,null,,,,,,,0,,,,,,,,,,,,,,,,,
decision,89,428650,0.0-31.0-1.0,"""event"",""trial"",""time""
""fullscreenenter"",""1"",""4659""
","
","
","""event"",""trial"",""time""
""fullscreenenter"",""1"",""4659""
","
",,1495.4,run_exp/static/images/task_images/land.jpg,65,,,,,,,0,,,2,,,,,,,,58329,1,4,FALSE,,,
dig,90,430191,0.0-32.0-0.0,"""event"",""trial"",""time""
""fullscreenenter"",""1"",""4659""
","
","
","""event"",""trial"",""time""
""fullscreenenter"",""1"",""4659""
","
",,,,,,,,,,,,"[{""stimulus"":""run_exp/static/images/task_images/dig.jpg"",""time"":0.7000002861022949},{""stimulus"":""run_exp/static/images/task_images/land.jpg"",""time"":520.9000000953674},{""stimulus"":""run_exp/static/images/task_images/dig.jpg"",""time"":1017.3000001907349}]",[],2,,,,,,,,,,,,,,
harvest,91,431207,0.0-32.0-1.0,"""event"",""trial"",""time""
""fullscreenenter"",""1"",""4659""
","
","
","""event"",""trial"",""time""
""fullscreenenter"",""1"",""4659""
","
",,null,run_exp/static/images/task_images/gems/0.jpg,null,,,,,,,0,,,2,,,,,0,0.225698758,NaN,,,,,,,
decision,92,431292,0.0-32.0-2.0,"""event"",""trial"",""time""
""fullscreenenter"",""1"",""4659""
","
","
","""event"",""trial"",""time""
""fullscreenenter"",""1"",""4659""
","
",,81.0999999,run_exp/static/images/task_images/land.jpg,76,,,,,,,0,,,2,,,,,,,,60971,1,5,TRUE,,,
travel,93,441242,0.0-33.0-0.0,"""event"",""trial"",""time""
""fullscreenenter"",""1"",""4659""
","
","
","""event"",""trial"",""time""
""fullscreenenter"",""1"",""4659""
","
",,,,,,,,,,,,"[{""stimulus"":""run_exp/static/images/task_images/rocket-01.jpg"",""time"":0.6999998092651367},{""stimulus"":""run_exp/static/images/task_images/rocket-02.jpg"",""time"":1109.1999998092651},{""stimulus"":""run_exp/static/images/task_images/rocket-03.jpg"",""time"":2216.199999809265},{""stimulus"":""run_exp/static/images/task_images/rocket-04.jpg"",""time"":3311.699999809265},{""stimulus"":""run_exp/static/images/task_images/rocket-05.jpg"",""time"":4413},{""stimulus"":""run_exp/static/images/task_images/rocket-06.jpg"",""time"":5528.89999961853},{""stimulus"":""run_exp/static/images/task_images/rocket-07.jpg"",""time"":6648.699999809265},{""stimulus"":""run_exp/static/images/task_images/rocket-08.jpg"",""time"":7725.39999961853},{""stimulus"":""run_exp/static/images/task_images/rocket-09.jpg"",""time"":8819.599999904633}]",[],2,,,,,,,,,,,,,,
alien_welcome,94,446327,0.0-33.0-1.0,"""event"",""trial"",""time""
""fullscreenenter"",""1"",""4659""
","
","
","""event"",""trial"",""time""
""fullscreenenter"",""1"",""4659""
","
",,null,run_exp/static/images/task_images/aliens/old_aliens/planet/alien_planet-13.jpg,null,,,,,,,,,,,,,13,"68,17,13,62,69,55,56,37,26,6,32,2,50,8,40,48,3,64,61,20,58,28,45",,,,,,,,,,
land,95,446840,0.0-33.0-2.0,"""event"",""trial"",""time""
""fullscreenenter"",""1"",""4659""
","
","
","""event"",""trial"",""time""
""fullscreenenter"",""1"",""4659""
","
",,null,run_exp/static/images/task_images/land.jpg,null,,,,,,,103,,,3,,,,,,,,,,,,,,
dig,96,448865,0.0-33.0-3.0,"""event"",""trial"",""time""
""fullscreenenter"",""1"",""4659""
","
","
","""event"",""trial"",""time""
""fullscreenenter"",""1"",""4659""
","
",,,,,,,,,,,,"[{""stimulus"":""run_exp/static/images/task_images/dig.jpg"",""time"":0.8000001907348633},{""stimulus"":""run_exp/static/images/task_images/land.jpg"",""time"":680.2000002861023},{""stimulus"":""run_exp/static/images/task_images/dig.jpg"",""time"":1337.0999999046326}]",[],3,,,,,,,,,,,,,,
harvest,97,449911,0.0-33.0-4.0,"""event"",""trial"",""time""
""fullscreenenter"",""1"",""4659""
","
","
","""event"",""trial"",""time""
""fullscreenenter"",""1"",""4659""
","
",,null,run_exp/static/images/task_images/gems/103.jpg,null,,,,,,,58,,,3,,,,,103,0.558529461,0.563106796,,,,,,,
decision,98,451943,0.0-33.0-5.0,"""event"",""trial"",""time""
""fullscreenenter"",""1"",""4659""
","
","
","""event"",""trial"",""time""
""fullscreenenter"",""1"",""4659""
","
",,2028.4,run_exp/static/images/task_images/land.jpg,65,,,,,,,58,,,3,,,,,,,,81622,1,0,FALSE,,,
dig,99,452951,0.0-34.0-0.0,"""event"",""trial"",""time""
""fullscreenenter"",""1"",""4659""
","
","
","""event"",""trial"",""time""
""fullscreenenter"",""1"",""4659""
","
",,,,,,,,,,,,"[{""stimulus"":""run_exp/static/images/task_images/dig.jpg"",""time"":0.7000002861022949},{""stimulus"":""run_exp/static/images/task_images/land.jpg"",""time"":327.90000009536743},{""stimulus"":""run_exp/static/images/task_images/dig.jpg"",""time"":667.6000003814697}]",[],3,,,,,,,,,,,,,,
harvest,100,453974,0.0-34.0-1.0,"""event"",""trial"",""time""
""fullscreenenter"",""1"",""4659""
","
","
","""event"",""trial"",""time""
""fullscreenenter"",""1"",""4659""
","
",,null,run_exp/static/images/task_images/gems/58.jpg,null,,,,,,,28,,,3,,,,,58,0.47501414,0.482758621,,,,,,,
decision,101,456515,0.0-34.0-2.0,"""event"",""trial"",""time""
""fullscreenenter"",""1"",""4659""
","
","
","""event"",""trial"",""time""
""fullscreenenter"",""1"",""4659""
","
",,2537.7,run_exp/static/images/task_images/land.jpg,65,,,,,,,28,,,3,,,,,,,,86194,1,1,FALSE,,,
dig,102,457022,0.0-35.0-0.0,"""event"",""trial"",""time""
""fullscreenenter"",""1"",""4659""
","
","
","""event"",""trial"",""time""
""fullscreenenter"",""1"",""4659""
","
",,,,,,,,,,,,"[{""stimulus"":""run_exp/static/images/task_images/dig.jpg"",""time"":0.8000001907348633},{""stimulus"":""run_exp/static/images/task_images/land.jpg"",""time"":172.7000002861023},{""stimulus"":""run_exp/static/images/task_images/dig.jpg"",""time"":333.80000019073486}]",[],3,,,,,,,,,,,,,,
harvest,103,458032,0.0-35.0-1.0,"""event"",""trial"",""time""
""fullscreenenter"",""1"",""4659""
","
","
","""event"",""trial"",""time""
""fullscreenenter"",""1"",""4659""
","
",,null,run_exp/static/images/task_images/gems/28.jpg,null,,,,,,,14,,,3,,,,,28,0.501336296,0.5,,,,,,,
decision,104,460306,0.0-35.0-2.0,"""event"",""trial"",""time""
""fullscreenenter"",""1"",""4659""
","
","
","""event"",""trial"",""time""
""fullscreenenter"",""1"",""4659""
","
",,2270.3,run_exp/static/images/task_images/land.jpg,65,,,,,,,14,,,3,,,,,,,,89985,1,2,FALSE,,,
dig,105,461058,0.0-36.0-0.0,"""event"",""trial"",""time""
""fullscreenenter"",""1"",""4659""
","
","
","""event"",""trial"",""time""
""fullscreenenter"",""1"",""4659""
","
",,,,,,,,,,,,"[{""stimulus"":""run_exp/static/images/task_images/dig.jpg"",""time"":0.6999998092651367},{""stimulus"":""run_exp/static/images/task_images/land.jpg"",""time"":247.19999980926514},{""stimulus"":""run_exp/static/images/task_images/dig.jpg"",""time"":536.5}]",[],3,,,,,,,,,,,,,,
harvest,106,462107,0.0-36.0-1.0,"""event"",""trial"",""time""
""fullscreenenter"",""1"",""4659""
","
","
","""event"",""trial"",""time""
""fullscreenenter"",""1"",""4659""
","
",,null,run_exp/static/images/task_images/gems/14.jpg,null,,,,,,,7,,,3,,,,,14,0.467623767,0.5,,,,,,,
decision,107,463826,0.0-36.0-2.0,"""event"",""trial"",""time""
""fullscreenenter"",""1"",""4659""
","
","
","""event"",""trial"",""time""
""fullscreenenter"",""1"",""4659""
","
",,1715.1,run_exp/static/images/task_images/land.jpg,65,,,,,,,7,,,3,,,,,,,,93505,1,3,FALSE,,,
dig,108,465144,0.0-37.0-0.0,"""event"",""trial"",""time""
""fullscreenenter"",""1"",""4659""
","
","
","""event"",""trial"",""time""
""fullscreenenter"",""1"",""4659""
","
",,,,,,,,,,,,"[{""stimulus"":""run_exp/static/images/task_images/dig.jpg"",""time"":0.8000001907348633},{""stimulus"":""run_exp/static/images/task_images/land.jpg"",""time"":490.09999990463257},{""stimulus"":""run_exp/static/images/task_images/dig.jpg"",""time"":878.1999998092651}]",[],3,,,,,,,,,,,,,,
harvest,109,466163,0.0-37.0-1.0,"""event"",""trial"",""time""
""fullscreenenter"",""1"",""4659""
","
","
","""event"",""trial"",""time""
""fullscreenenter"",""1"",""4659""
","
",,null,run_exp/static/images/task_images/gems/7.jpg,null,,,,,,,4,,,3,,,,,7,0.508792081,0.571428571,,,,,,,
decision,110,468158,0.0-37.0-2.0,"""event"",""trial"",""time""
""fullscreenenter"",""1"",""4659""
","
","
","""event"",""trial"",""time""
""fullscreenenter"",""1"",""4659""
","
",,1991.5,run_exp/static/images/task_images/land.jpg,65,,,,,,,4,,,3,,,,,,,,97837,1,4,FALSE,,,
dig,111,469186,0.0-38.0-0.0,"""event"",""trial"",""time""
""fullscreenenter"",""1"",""4659""
","
","
","""event"",""trial"",""time""
""fullscreenenter"",""1"",""4659""
","
",,,,,,,,,,,,"[{""stimulus"":""run_exp/static/images/task_images/dig.jpg"",""time"":0.7000002861022949},{""stimulus"":""run_exp/static/images/task_images/land.jpg"",""time"":357.80000019073486},{""stimulus"":""run_exp/static/images/task_images/dig.jpg"",""time"":675.6000003814697}]",[],3,,,,,,,,,,,,,,
harvest,112,470260,0.0-38.0-1.0,"""event"",""trial"",""time""
""fullscreenenter"",""1"",""4659""
","
","
","""event"",""trial"",""time""
""fullscreenenter"",""1"",""4659""
","
",,null,run_exp/static/images/task_images/gems/4.jpg,null,,,,,,,2,,,3,,,,,4,0.530121788,0.5,,,,,,,
decision,113,471869,0.0-38.0-2.0,"""event"",""trial"",""time""
""fullscreenenter"",""1"",""4659""
","
","
","""event"",""trial"",""time""
""fullscreenenter"",""1"",""4659""
","
",,1605.8,run_exp/static/images/task_images/land.jpg,65,,,,,,,2,,,3,,,,,,,,101550,1,5,FALSE,,,
dig,114,473279,0.0-39.0-0.0,"""event"",""trial"",""time""
""fullscreenenter"",""1"",""4659""
","
","
","""event"",""trial"",""time""
""fullscreenenter"",""1"",""4659""
","
",,,,,,,,,,,,"[{""stimulus"":""run_exp/static/images/task_images/dig.jpg"",""time"":0.7999997138977051},{""stimulus"":""run_exp/static/images/task_images/land.jpg"",""time"":480.09999990463257},{""stimulus"":""run_exp/static/images/task_images/dig.jpg"",""time"":940.7999997138977}]",[],3,,,,,,,,,,,,,,
harvest,115,474332,0.0-39.0-1.0,"""event"",""trial"",""time""
""fullscreenenter"",""1"",""4659""
","
","
","""event"",""trial"",""time""
""fullscreenenter"",""1"",""4659""
","
",,null,run_exp/static/images/task_images/gems/2.jpg,null,,,,,,,1,,,3,,,,,2,0.479615099,0.5,,,,,,,
decision,116,476830,0.0-39.0-2.0,"""event"",""trial"",""time""
""fullscreenenter"",""1"",""4659""
","
","
","""event"",""trial"",""time""
""fullscreenenter"",""1"",""4659""
","
",,2494.8,run_exp/static/images/task_images/land.jpg,65,,,,,,,1,,,3,,,,,,,,106509,1,6,FALSE,,,
dig,117,477346,0.0-40.0-0.0,"""event"",""trial"",""time""
""fullscreenenter"",""1"",""4659""
","
","
","""event"",""trial"",""time""
""fullscreenenter"",""1"",""4659""
","
",,,,,,,,,,,,"[{""stimulus"":""run_exp/static/images/task_images/dig.jpg"",""time"":0.6999998092651367},{""stimulus"":""run_exp/static/images/task_images/land.jpg"",""time"":194.69999980926514},{""stimulus"":""run_exp/static/images/task_images/dig.jpg"",""time"":380.09999990463257}]",[],3,,,,,,,,,,,,,,
harvest,118,478379,0.0-40.0-1.0,"""event"",""trial"",""time""
""fullscreenenter"",""1"",""4659""
","
","
","""event"",""trial"",""time""
""fullscreenenter"",""1"",""4659""
","
",,null,run_exp/static/images/task_images/gems/1.jpg,null,,,,,,,1,,,3,,,,,1,0.537713123,1,,,,,,,
decision,119,479698,0.0-40.0-2.0,"""event"",""trial"",""time""
""fullscreenenter"",""1"",""4659""
","
","
","""event"",""trial"",""time""
""fullscreenenter"",""1"",""4659""
","
",,1312.8,run_exp/static/images/task_images/land.jpg,65,,,,,,,1,,,3,,,,,,,,109377,1,7,FALSE,,,
dig,120,481401,0.0-41.0-0.0,"""event"",""trial"",""time""
""fullscreenenter"",""1"",""4659""
","
","
","""event"",""trial"",""time""
""fullscreenenter"",""1"",""4659""
","
",,,,,,,,,,,,"[{""stimulus"":""run_exp/static/images/task_images/dig.jpg"",""time"":0.5999999046325684},{""stimulus"":""run_exp/static/images/task_images/land.jpg"",""time"":579},{""stimulus"":""run_exp/static/images/task_images/dig.jpg"",""time"":1135.8000001907349}]",[],3,,,,,,,,,,,,,,
harvest,121,482452,0.0-41.0-1.0,"""event"",""trial"",""time""
""fullscreenenter"",""1"",""4659""
","
","
","""event"",""trial"",""time""
""fullscreenenter"",""1"",""4659""
","
",,null,run_exp/static/images/task_images/gems/1.jpg,null,,,,,,,1,,,3,,,,,1,0.555236231,1,,,,,,,
decision,122,482837,0.0-41.0-2.0,"""event"",""trial"",""time""
""fullscreenenter"",""1"",""4659""
","
","
","""event"",""trial"",""time""
""fullscreenenter"",""1"",""4659""
","
",,379.9000001,run_exp/static/images/task_images/land.jpg,65,,,,,,,0,,,3,,,,,,,,112516,1,8,FALSE,,,
dig,123,485473,0.0-42.0-0.0,"""event"",""trial"",""time""
""fullscreenenter"",""1"",""4659""
","
","
","""event"",""trial"",""time""
""fullscreenenter"",""1"",""4659""
","
",,,,,,,,,,,,"[{""stimulus"":""run_exp/static/images/task_images/dig.jpg"",""time"":0.8000001907348633},{""stimulus"":""run_exp/static/images/task_images/land.jpg"",""time"":887.9000000953674},{""stimulus"":""run_exp/static/images/task_images/dig.jpg"",""time"":1762.7000002861023}]",[],3,,,,,,,,,,,,,,
harvest,124,486535,0.0-42.0-1.0,"""event"",""trial"",""time""
""fullscreenenter"",""1"",""4659""
","
","
","""event"",""trial"",""time""
""fullscreenenter"",""1"",""4659""
","
",,null,run_exp/static/images/task_images/gems/0.jpg,null,,,,,,,0,,,3,,,,,0,0.606898317,NaN,,,,,,,
decision,125,487911,0.0-42.0-2.0,"""event"",""trial"",""time""
""fullscreenenter"",""1"",""4659""
","
","
","""event"",""trial"",""time""
""fullscreenenter"",""1"",""4659""
","
",,1373,run_exp/static/images/task_images/land.jpg,65,,,,,,,0,,,3,,,,,,,,117590,1,9,FALSE,,,
dig,126,489584,0.0-43.0-0.0,"""event"",""trial"",""time""
""fullscreenenter"",""1"",""4659""
","
","
","""event"",""trial"",""time""
""fullscreenenter"",""1"",""4659""
","
",,,,,,,,,,,,"[{""stimulus"":""run_exp/static/images/task_images/dig.jpg"",""time"":0.5999999046325684},{""stimulus"":""run_exp/static/images/task_images/land.jpg"",""time"":582},{""stimulus"":""run_exp/static/images/task_images/dig.jpg"",""time"":1118.5}]",[],3,,,,,,,,,,,,,,
harvest,127,490598,0.0-43.0-1.0,"""event"",""trial"",""time""
""fullscreenenter"",""1"",""4659""
","
","
","""event"",""trial"",""time""
""fullscreenenter"",""1"",""4659""
","
",,null,run_exp/static/images/task_images/gems/0.jpg,null,,,,,,,0,,,3,,,,,0,0.462159576,NaN,,,,,,,
decision,128,492419,0.0-43.0-2.0,"""event"",""trial"",""time""
""fullscreenenter"",""1"",""4659""
","
","
","""event"",""trial"",""time""
""fullscreenenter"",""1"",""4659""
","
",,1814.6,run_exp/static/images/task_images/land.jpg,76,,,,,,,0,,,3,,,,,,,,122099,1,10,TRUE,,,
travel,129,500644,0.0-44.0-0.0,"""event"",""trial"",""time""
""fullscreenenter"",""1"",""4659""
","
","
","""event"",""trial"",""time""
""fullscreenenter"",""1"",""4659""
","
",,,,,,,,,,,,"[{""stimulus"":""run_exp/static/images/task_images/rocket-01.jpg"",""time"":0.5999999046325684},{""stimulus"":""run_exp/static/images/task_images/rocket-02.jpg"",""time"":954},{""stimulus"":""run_exp/static/images/task_images/rocket-03.jpg"",""time"":1841},{""stimulus"":""run_exp/static/images/task_images/rocket-04.jpg"",""time"":2822.199999809265},{""stimulus"":""run_exp/static/images/task_images/rocket-05.jpg"",""time"":3736},{""stimulus"":""run_exp/static/images/task_images/rocket-06.jpg"",""time"":4576.799999713898},{""stimulus"":""run_exp/static/images/task_images/rocket-07.jpg"",""time"":5501.299999713898},{""stimulus"":""run_exp/static/images/task_images/rocket-08.jpg"",""time"":6378.299999713898},{""stimulus"":""run_exp/static/images/task_images/rocket-09.jpg"",""time"":7283.699999809265}]",[],3,,,,,,,,,,,,,,
alien_welcome,130,505670,0.0-44.0-1.0,"""event"",""trial"",""time""
""fullscreenenter"",""1"",""4659""
","
","
","""event"",""trial"",""time""
""fullscreenenter"",""1"",""4659""
","
",,null,run_exp/static/images/task_images/aliens/old_aliens/planet/alien_planet-62.jpg,null,,,,,,,,,,,,,62,"68,17,13,62,69,55,56,37,26,6,32,2,50,8,40,48,3,64,61,20,58,28,45",,,,,,,,,,
land,131,506192,0.0-44.0-2.0,"""event"",""trial"",""time""
""fullscreenenter"",""1"",""4659""
","
","
","""event"",""trial"",""time""
""fullscreenenter"",""1"",""4659""
","
",,null,run_exp/static/images/task_images/land.jpg,null,,,,,,,97,,,4,,,,,,,,,,,,,,
dig,132,508233,0.0-44.0-3.0,"""event"",""trial"",""time""
""fullscreenenter"",""1"",""4659""
","
","
","""event"",""trial"",""time""
""fullscreenenter"",""1"",""4659""
","
",,,,,,,,,,,,"[{""stimulus"":""run_exp/static/images/task_images/dig.jpg"",""time"":0.7999997138977051},{""stimulus"":""run_exp/static/images/task_images/land.jpg"",""time"":709.5999999046326},{""stimulus"":""run_exp/static/images/task_images/dig.jpg"",""time"":1345.4000000953674}]",[],4,,,,,,,,,,,,,,
harvest,133,509275,0.0-44.0-4.0,"""event"",""trial"",""time""
""fullscreenenter"",""1"",""4659""
","
","
","""event"",""trial"",""time""
""fullscreenenter"",""1"",""4659""
","
",,null,run_exp/static/images/task_images/gems/97.jpg,null,,,,,,,51,,,4,,,,,97,0.521082669,0.525773196,,,,,,,
decision,134,510439,0.0-44.0-5.0,"""event"",""trial"",""time""
""fullscreenenter"",""1"",""4659""
","
","
","""event"",""trial"",""time""
""fullscreenenter"",""1"",""4659""
","
",,1161.3,run_exp/static/images/task_images/land.jpg,65,,,,,,,51,,,4,,,,,,,,140118,1,0,FALSE,,,
dig,135,512329,0.0-45.0-0.0,"""event"",""trial"",""time""
""fullscreenenter"",""1"",""4659""
","
","
","""event"",""trial"",""time""
""fullscreenenter"",""1"",""4659""
","
",,,,,,,,,,,,"[{""stimulus"":""run_exp/static/images/task_images/dig.jpg"",""time"":0.6000003814697266},{""stimulus"":""run_exp/static/images/task_images/land.jpg"",""time"":629.6000003814697},{""stimulus"":""run_exp/static/images/task_images/dig.jpg"",""time"":1243.3000001907349}]",[],4,,,,,,,,,,,,,,
harvest,136,513367,0.0-45.0-1.0,"""event"",""trial"",""time""
""fullscreenenter"",""1"",""4659""
","
","
","""event"",""trial"",""time""
""fullscreenenter"",""1"",""4659""
","
",,null,run_exp/static/images/task_images/gems/51.jpg,null,,,,,,,24,,,4,,,,,51,0.472365028,0.470588235,,,,,,,
decision,137,516070,0.0-45.0-2.0,"""event"",""trial"",""time""
""fullscreenenter"",""1"",""4659""
","
","
","""event"",""trial"",""time""
""fullscreenenter"",""1"",""4659""
","
",,2699.2,run_exp/static/images/task_images/land.jpg,65,,,,,,,24,,,4,,,,,,,,145750,1,1,FALSE,,,
dig,138,516392,0.0-46.0-0.0,"""event"",""trial"",""time""
""fullscreenenter"",""1"",""4659""
","
","
","""event"",""trial"",""time""
""fullscreenenter"",""1"",""4659""
","
",,,,,,,,,,,,"[{""stimulus"":""run_exp/static/images/task_images/dig.jpg"",""time"":0.9000000953674316},{""stimulus"":""run_exp/static/images/task_images/land.jpg"",""time"":117.5},{""stimulus"":""run_exp/static/images/task_images/dig.jpg"",""time"":247.30000019073486}]",[],4,,,,,,,,,,,,,,
harvest,139,517461,0.0-46.0-1.0,"""event"",""trial"",""time""
""fullscreenenter"",""1"",""4659""
","
","
","""event"",""trial"",""time""
""fullscreenenter"",""1"",""4659""
","
",,null,run_exp/static/images/task_images/gems/24.jpg,null,,,,,,,11,,,4,,,,,24,0.444508958,0.458333333,,,,,,,
decision,140,520484,0.0-46.0-2.0,"""event"",""trial"",""time""
""fullscreenenter"",""1"",""4659""
","
","
","""event"",""trial"",""time""
""fullscreenenter"",""1"",""4659""
","
",,null,run_exp/static/images/task_images/land.jpg,null,,,,,,,11,,,4,,,,,,,,150164,1,2,FALSE,,,
time_out,141,522504,0.0-47.0-0.0,"""event"",""trial"",""time""
""fullscreenenter"",""1"",""4659""
","
","
","""event"",""trial"",""time""
""fullscreenenter"",""1"",""4659""
","
",,null,run_exp/static/images/task_images/time_out.jpg,null,,,,,,,11,,,,,,,,,,,,,,,,,
decision,142,522946,0.0-47.0-1.0,"""event"",""trial"",""time""
""fullscreenenter"",""1"",""4659""
","
","
","""event"",""trial"",""time""
""fullscreenenter"",""1"",""4659""
","
",,438.3999996,run_exp/static/images/task_images/land.jpg,65,,,,,,,11,,,4,,,,,,,,152625,1,2,FALSE,,,
dig,143,525533,0.0-48.0-0.0,"""event"",""trial"",""time""
""fullscreenenter"",""1"",""4659""
","
","
","""event"",""trial"",""time""
""fullscreenenter"",""1"",""4659""
","
",,,,,,,,,,,,"[{""stimulus"":""run_exp/static/images/task_images/dig.jpg"",""time"":1.4000000953674316},{""stimulus"":""run_exp/static/images/task_images/land.jpg"",""time"":861.4000000953674},{""stimulus"":""run_exp/static/images/task_images/dig.jpg"",""time"":1740.5999999046326}]",[],4,,,,,,,,,,,,,,
harvest,144,526622,0.0-48.0-1.0,"""event"",""trial"",""time""
""fullscreenenter"",""1"",""4659""
","
","
","""event"",""trial"",""time""
""fullscreenenter"",""1"",""4659""
","
",,null,run_exp/static/images/task_images/gems/11.jpg,null,,,,,,,6,,,4,,,,,11,0.53855581,0.545454545,,,,,,,
decision,145,528481,0.0-48.0-2.0,"""event"",""trial"",""time""
""fullscreenenter"",""1"",""4659""
","
","
","""event"",""trial"",""time""
""fullscreenenter"",""1"",""4659""
","
",,1854.6,run_exp/static/images/task_images/land.jpg,65,,,,,,,6,,,4,,,,,,,,158160,1,3,FALSE,,,
dig,146,529639,0.0-49.0-0.0,"""event"",""trial"",""time""
""fullscreenenter"",""1"",""4659""
","
","
","""event"",""trial"",""time""
""fullscreenenter"",""1"",""4659""
","
",,,,,,,,,,,,"[{""stimulus"":""run_exp/static/images/task_images/dig.jpg"",""time"":1.8999996185302734},{""stimulus"":""run_exp/static/images/task_images/land.jpg"",""time"":426.8999996185303},{""stimulus"":""run_exp/static/images/task_images/dig.jpg"",""time"":832}]",[],4,,,,,,,,,,,,,,
harvest,147,530654,0.0-49.0-1.0,"""event"",""trial"",""time""
""fullscreenenter"",""1"",""4659""
","
","
","""event"",""trial"",""time""
""fullscreenenter"",""1"",""4659""
","
",,null,run_exp/static/images/task_images/gems/6.jpg,null,,,,,,,3,,,4,,,,,6,0.496351391,0.5,,,,,,,
decision,148,531601,0.0-49.0-2.0,"""event"",""trial"",""time""
""fullscreenenter"",""1"",""4659""
","
","
","""event"",""trial"",""time""
""fullscreenenter"",""1"",""4659""
","
",,945,run_exp/static/images/task_images/land.jpg,65,,,,,,,3,,,4,,,,,,,,161281,1,4,FALSE,,,
dig,149,533718,0.0-50.0-0.0,"""event"",""trial"",""time""
""fullscreenenter"",""1"",""4659""
","
","
","""event"",""trial"",""time""
""fullscreenenter"",""1"",""4659""
","
",,,,,,,,,,,,"[{""stimulus"":""run_exp/static/images/task_images/dig.jpg"",""time"":0.5999999046325684},{""stimulus"":""run_exp/static/images/task_images/land.jpg"",""time"":755},{""stimulus"":""run_exp/static/images/task_images/dig.jpg"",""time"":1425.8999996185303}]",[],4,,,,,,,,,,,,,,
harvest,150,534799,0.0-50.0-1.0,"""event"",""trial"",""time""
""fullscreenenter"",""1"",""4659""
","
","
","""event"",""trial"",""time""
""fullscreenenter"",""1"",""4659""
","
",,null,run_exp/static/images/task_images/gems/3.jpg,null,,,,,,,1,,,4,,,,,3,0.399482146,0.333333333,,,,,,,
decision,151,536892,0.0-50.0-2.0,"""event"",""trial"",""time""
""fullscreenenter"",""1"",""4659""
","
","
","""event"",""trial"",""time""
""fullscreenenter"",""1"",""4659""
","
",,2090.6,run_exp/static/images/task_images/land.jpg,65,,,,,,,1,,,4,,,,,,,,166572,1,5,FALSE,,,
dig,152,537846,0.0-51.0-0.0,"""event"",""trial"",""time""
""fullscreenenter"",""1"",""4659""
","
","
","""event"",""trial"",""time""
""fullscreenenter"",""1"",""4659""
","
",,,,,,,,,,,,"[{""stimulus"":""run_exp/static/images/task_images/dig.jpg"",""time"":0.6999998092651367},{""stimulus"":""run_exp/static/images/task_images/land.jpg"",""time"":318.90000009536743},{""stimulus"":""run_exp/static/images/task_images/dig.jpg"",""time"":641.0999999046326}]",[],4,,,,,,,,,,,,,,
harvest,153,538900,0.0-51.0-1.0,"""event"",""trial"",""time""
""fullscreenenter"",""1"",""4659""
","
","
","""event"",""trial"",""time""
""fullscreenenter"",""1"",""4659""
","
",,null,run_exp/static/images/task_images/gems/1.jpg,null,,,,,,,0,,,4,,,,,1,0.458539062,0,,,,,,,
decision,154,540421,0.0-51.0-2.0,"""event"",""trial"",""time""
""fullscreenenter"",""1"",""4659""
","
","
","""event"",""trial"",""time""
""fullscreenenter"",""1"",""4659""
","
",,1514.3,run_exp/static/images/task_images/land.jpg,65,,,,,,,0,,,4,,,,,,,,170100,1,6,FALSE,,,
dig,155,541990,0.0-52.0-0.0,"""event"",""trial"",""time""
""fullscreenenter"",""1"",""4659""
","
","
","""event"",""trial"",""time""
""fullscreenenter"",""1"",""4659""
","
",,,,,,,,,,,,"[{""stimulus"":""run_exp/static/images/task_images/dig.jpg"",""time"":1.0999999046325684},{""stimulus"":""run_exp/static/images/task_images/land.jpg"",""time"":556.2999997138977},{""stimulus"":""run_exp/static/images/task_images/dig.jpg"",""time"":1052.2999997138977}]",[],4,,,,,,,,,,,,,,
harvest,156,543054,0.0-52.0-1.0,"""event"",""trial"",""time""
""fullscreenenter"",""1"",""4659""
","
","
","""event"",""trial"",""time""
""fullscreenenter"",""1"",""4659""
","
",,null,run_exp/static/images/task_images/gems/0.jpg,null,,,,,,,0,,,4,,,,,0,0.549069528,NaN,,,,,,,
decision,157,544308,0.0-52.0-2.0,"""event"",""trial"",""time""
""fullscreenenter"",""1"",""4659""
","
","
","""event"",""trial"",""time""
""fullscreenenter"",""1"",""4659""
","
",,1244.8,run_exp/static/images/task_images/land.jpg,76,,,,,,,0,,,4,,,,,,,,173989,1,7,TRUE,,,
travel,158,553102,0.0-53.0-0.0,"""event"",""trial"",""time""
""fullscreenenter"",""1"",""4659""
","
","
","""event"",""trial"",""time""
""fullscreenenter"",""1"",""4659""
","
",,,,,,,,,,,,"[{""stimulus"":""run_exp/static/images/task_images/rocket-01.jpg"",""time"":1},{""stimulus"":""run_exp/static/images/task_images/rocket-02.jpg"",""time"":1012.2000002861023},{""stimulus"":""run_exp/static/images/task_images/rocket-03.jpg"",""time"":2003.2000002861023},{""stimulus"":""run_exp/static/images/task_images/rocket-04.jpg"",""time"":2950.300000190735},{""stimulus"":""run_exp/static/images/task_images/rocket-05.jpg"",""time"":3920.9000000953674},{""stimulus"":""run_exp/static/images/task_images/rocket-06.jpg"",""time"":4881.5},{""stimulus"":""run_exp/static/images/task_images/rocket-07.jpg"",""time"":5888.900000095367},{""stimulus"":""run_exp/static/images/task_images/rocket-08.jpg"",""time"":6817.200000286102},{""stimulus"":""run_exp/static/images/task_images/rocket-09.jpg"",""time"":7784.300000190735}]",[],4,,,,,,,,,,,,,,
alien_welcome,159,558149,0.0-53.0-1.0,"""event"",""trial"",""time""
""fullscreenenter"",""1"",""4659""
","
","
","""event"",""trial"",""time""
""fullscreenenter"",""1"",""4659""
","
",,null,run_exp/static/images/task_images/aliens/old_aliens/planet/alien_planet-69.jpg,null,,,,,,,,,,,,,69,"68,17,13,62,69,55,56,37,26,6,32,2,50,8,40,48,3,64,61,20,58,28,45",,,,,,,,,,
land,160,558680,0.0-53.0-2.0,"""event"",""trial"",""time""
""fullscreenenter"",""1"",""4659""
","
","
","""event"",""trial"",""time""
""fullscreenenter"",""1"",""4659""
","
",,null,run_exp/static/images/task_images/land.jpg,null,,,,,,,102,,,5,,,,,,,,,,,,,,
dig,161,560724,0.0-53.0-3.0,"""event"",""trial"",""time""
""fullscreenenter"",""1"",""4659""
","
","
","""event"",""trial"",""time""
""fullscreenenter"",""1"",""4659""
","
",,,,,,,,,,,,"[{""stimulus"":""run_exp/static/images/task_images/dig.jpg"",""time"":0.8000001907348633},{""stimulus"":""run_exp/static/images/task_images/land.jpg"",""time"":713.5},{""stimulus"":""run_exp/static/images/task_images/dig.jpg"",""time"":1374.0999999046326}]",[],5,,,,,,,,,,,,,,
harvest,162,561756,0.0-53.0-4.0,"""event"",""trial"",""time""
""fullscreenenter"",""1"",""4659""
","
","
","""event"",""trial"",""time""
""fullscreenenter"",""1"",""4659""
","
",,null,run_exp/static/images/task_images/gems/102.jpg,null,,,,,,,49,,,5,,,,,102,0.479850138,0.480392157,,,,,,,
decision,163,564819,0.0-53.0-5.0,"""event"",""trial"",""time""
""fullscreenenter"",""1"",""4659""
","
","
","""event"",""trial"",""time""
""fullscreenenter"",""1"",""4659""
","
",,null,run_exp/static/images/task_images/land.jpg,null,,,,,,,49,,,5,,,,,,,,194503,1,0,FALSE,,,
time_out,164,566938,0.0-54.0-0.0,"""event"",""trial"",""time""
""fullscreenenter"",""1"",""4659""
","
","
","""event"",""trial"",""time""
""fullscreenenter"",""1"",""4659""
","
",,null,run_exp/static/images/task_images/time_out.jpg,null,,,,,,,49,,,,,,,,,,,,,,,,,
decision,165,567378,0.0-54.0-1.0,"""event"",""trial"",""time""
""fullscreenenter"",""1"",""4659""
","
","
","""event"",""trial"",""time""
""fullscreenenter"",""1"",""4659""
","
",,435,run_exp/static/images/task_images/land.jpg,65,,,,,,,49,,,5,,,,,,,,197058,1,0,FALSE,,,
dig,166,570007,0.0-55.0-0.0,"""event"",""trial"",""time""
""fullscreenenter"",""1"",""4659""
","
","
","""event"",""trial"",""time""
""fullscreenenter"",""1"",""4659""
","
",,,,,,,,,,,,"[{""stimulus"":""run_exp/static/images/task_images/dig.jpg"",""time"":1.4000000953674316},{""stimulus"":""run_exp/static/images/task_images/land.jpg"",""time"":863.4000000953674},{""stimulus"":""run_exp/static/images/task_images/dig.jpg"",""time"":1729.1000003814697}]",[],5,,,,,,,,,,,,,,
harvest,167,571040,0.0-55.0-1.0,"""event"",""trial"",""time""
""fullscreenenter"",""1"",""4659""
","
","
","""event"",""trial"",""time""
""fullscreenenter"",""1"",""4659""
","
",,null,run_exp/static/images/task_images/gems/49.jpg,null,,,,,,,23,,,5,,,,,49,0.472530506,0.469387755,,,,,,,
decision,168,571667,0.0-55.0-2.0,"""event"",""trial"",""time""
""fullscreenenter"",""1"",""4659""
","
","
","""event"",""trial"",""time""
""fullscreenenter"",""1"",""4659""
","
",,624.5,run_exp/static/images/task_images/land.jpg,65,,,,,,,23,,,5,,,,,,,,201347,1,1,FALSE,,,
dig,169,574061,0.0-56.0-0.0,"""event"",""trial"",""time""
""fullscreenenter"",""1"",""4659""
","
","
","""event"",""trial"",""time""
""fullscreenenter"",""1"",""4659""
","
",,,,,,,,,,,,"[{""stimulus"":""run_exp/static/images/task_images/dig.jpg"",""time"":0.6999998092651367},{""stimulus"":""run_exp/static/images/task_images/land.jpg"",""time"":796.9000000953674},{""stimulus"":""run_exp/static/images/task_images/dig.jpg"",""time"":1604.4000000953674}]",[],5,,,,,,,,,,,,,,
harvest,170,575099,0.0-56.0-1.0,"""event"",""trial"",""time""
""fullscreenenter"",""1"",""4659""
","
","
","""event"",""trial"",""time""
""fullscreenenter"",""1"",""4659""
","
",,null,run_exp/static/images/task_images/gems/23.jpg,null,,,,,,,11,,,5,,,,,23,0.490790255,0.47826087,,,,,,,
decision,171,575745,0.0-56.0-2.0,"""event"",""trial"",""time""
""fullscreenenter"",""1"",""4659""
","
","
","""event"",""trial"",""time""
""fullscreenenter"",""1"",""4659""
","
",,641.3000002,run_exp/static/images/task_images/land.jpg,65,,,,,,,11,,,5,,,,,,,,205424,1,2,FALSE,,,
dig,172,578124,0.0-57.0-0.0,"""event"",""trial"",""time""
""fullscreenenter"",""1"",""4659""
","
","
","""event"",""trial"",""time""
""fullscreenenter"",""1"",""4659""
","
",,,,,,,,,,,,"[{""stimulus"":""run_exp/static/images/task_images/dig.jpg"",""time"":0.5999999046325684},{""stimulus"":""run_exp/static/images/task_images/land.jpg"",""time"":810.5999999046326},{""stimulus"":""run_exp/static/images/task_images/dig.jpg"",""time"":1591}]",[],5,,,,,,,,,,,,,,
harvest,173,579137,0.0-57.0-1.0,"""event"",""trial"",""time""
""fullscreenenter"",""1"",""4659""
","
","
","""event"",""trial"",""time""
""fullscreenenter"",""1"",""4659""
","
",,null,run_exp/static/images/task_images/gems/11.jpg,null,,,,,,,6,,,5,,,,,11,0.510571175,0.545454545,,,,,,,
decision,174,579706,0.0-57.0-2.0,"""event"",""trial"",""time""
""fullscreenenter"",""1"",""4659""
","
","
","""event"",""trial"",""time""
""fullscreenenter"",""1"",""4659""
","
",,564.6999998,run_exp/static/images/task_images/land.jpg,65,,,,,,,6,,,5,,,,,,,,209385,1,3,FALSE,,,
dig,175,582163,0.0-58.0-0.0,"""event"",""trial"",""time""
""fullscreenenter"",""1"",""4659""
","
","
","""event"",""trial"",""time""
""fullscreenenter"",""1"",""4659""
","
",,,,,,,,,,,,"[{""stimulus"":""run_exp/static/images/task_images/dig.jpg"",""time"":0.6999998092651367},{""stimulus"":""run_exp/static/images/task_images/land.jpg"",""time"":817.0999999046326},{""stimulus"":""run_exp/static/images/task_images/dig.jpg"",""time"":1625.4000000953674}]",[],5,,,,,,,,,,,,,,
harvest,176,583189,0.0-58.0-1.0,"""event"",""trial"",""time""
""fullscreenenter"",""1"",""4659""
","
","
","""event"",""trial"",""time""
""fullscreenenter"",""1"",""4659""
","
",,null,run_exp/static/images/task_images/gems/6.jpg,null,,,,,,,3,,,5,,,,,6,0.471024912,0.5,,,,,,,
decision,177,583521,0.0-58.0-2.0,"""event"",""trial"",""time""
""fullscreenenter"",""1"",""4659""
","
","
","""event"",""trial"",""time""
""fullscreenenter"",""1"",""4659""
","
",,329.0999999,run_exp/static/images/task_images/land.jpg,65,,,,,,,3,,,5,,,,,,,,213200,1,4,FALSE,,,
dig,178,586206,0.0-59.0-0.0,"""event"",""trial"",""time""
""fullscreenenter"",""1"",""4659""
","
","
","""event"",""trial"",""time""
""fullscreenenter"",""1"",""4659""
","
",,,,,,,,,,,,"[{""stimulus"":""run_exp/static/images/task_images/dig.jpg"",""time"":0.7999997138977051},{""stimulus"":""run_exp/static/images/task_images/land.jpg"",""time"":894.6999998092651},{""stimulus"":""run_exp/static/images/task_images/dig.jpg"",""time"":1787.5}]",[],5,,,,,,,,,,,,,,
harvest,179,587222,0.0-59.0-1.0,"""event"",""trial"",""time""
""fullscreenenter"",""1"",""4659""
","
","
","""event"",""trial"",""time""
""fullscreenenter"",""1"",""4659""
","
",,null,run_exp/static/images/task_images/gems/3.jpg,null,,,,,,,1,,,5,,,,,3,0.414048674,0.333333333,,,,,,,
decision,180,589632,0.0-59.0-2.0,"""event"",""trial"",""time""
""fullscreenenter"",""1"",""4659""
","
","
","""event"",""trial"",""time""
""fullscreenenter"",""1"",""4659""
","
",,2407.1,run_exp/static/images/task_images/land.jpg,65,,,,,,,1,,,5,,,,,,,,219311,1,5,FALSE,,,
dig,181,590250,0.0-60.0-0.0,"""event"",""trial"",""time""
""fullscreenenter"",""1"",""4659""
","
","
","""event"",""trial"",""time""
""fullscreenenter"",""1"",""4659""
","
",,,,,,,,,,,,"[{""stimulus"":""run_exp/static/images/task_images/dig.jpg"",""time"":0.5999999046325684},{""stimulus"":""run_exp/static/images/task_images/land.jpg"",""time"":203.80000019073486},{""stimulus"":""run_exp/static/images/task_images/dig.jpg"",""time"":400.40000009536743}]",[],5,,,,,,,,,,,,,,
harvest,182,591257,0.0-60.0-1.0,"""event"",""trial"",""time""
""fullscreenenter"",""1"",""4659""
","
","
","""event"",""trial"",""time""
""fullscreenenter"",""1"",""4659""
","
",,null,run_exp/static/images/task_images/gems/1.jpg,null,,,,,,,1,,,5,,,,,1,0.501506528,1,,,,,,,
decision,183,592997,0.0-60.0-2.0,"""event"",""trial"",""time""
""fullscreenenter"",""1"",""4659""
","
","
","""event"",""trial"",""time""
""fullscreenenter"",""1"",""4659""
","
",,1736.5,run_exp/static/images/task_images/land.jpg,65,,,,,,,1,,,5,,,,,,,,222676,1,6,FALSE,,,
dig,184,594325,0.0-61.0-0.0,"""event"",""trial"",""time""
""fullscreenenter"",""1"",""4659""
","
","
","""event"",""trial"",""time""
""fullscreenenter"",""1"",""4659""
","
",,,,,,,,,,,,"[{""stimulus"":""run_exp/static/images/task_images/dig.jpg"",""time"":0.7000002861022949},{""stimulus"":""run_exp/static/images/task_images/land.jpg"",""time"":443.09999990463257},{""stimulus"":""run_exp/static/images/task_images/dig.jpg"",""time"":864}]",[],5,,,,,,,,,,,,,,
harvest,185,595342,0.0-61.0-1.0,"""event"",""trial"",""time""
""fullscreenenter"",""1"",""4659""
","
","
","""event"",""trial"",""time""
""fullscreenenter"",""1"",""4659""
","
",,null,run_exp/static/images/task_images/gems/1.jpg,null,,,,,,,0,,,5,,,,,1,0.493655948,0,,,,,,,
decision,186,595391,0.0-61.0-2.0,"""event"",""trial"",""time""
""fullscreenenter"",""1"",""4659""
","
","
","""event"",""trial"",""time""
""fullscreenenter"",""1"",""4659""
","
",,46.4000001,run_exp/static/images/task_images/land.jpg,65,,,,,,,0,,,5,,,,,,,,225070,1,7,FALSE,,,
dig,187,598370,0.0-62.0-0.0,"""event"",""trial"",""time""
""fullscreenenter"",""1"",""4659""
","
","
","""event"",""trial"",""time""
""fullscreenenter"",""1"",""4659""
","
",,,,,,,,,,,,"[{""stimulus"":""run_exp/static/images/task_images/dig.jpg"",""time"":0.5},{""stimulus"":""run_exp/static/images/task_images/land.jpg"",""time"":990.6999998092651},{""stimulus"":""run_exp/static/images/task_images/dig.jpg"",""time"":2012.2999997138977}]",[],5,,,,,,,,,,,,,,
harvest,188,599373,0.0-62.0-1.0,"""event"",""trial"",""time""
""fullscreenenter"",""1"",""4659""
","
","
","""event"",""trial"",""time""
""fullscreenenter"",""1"",""4659""
","
",,null,run_exp/static/images/task_images/gems/0.jpg,null,,,,,,,0,,,5,,,,,0,0.499344406,NaN,,,,,,,
decision,189,600400,0.0-62.0-2.0,"""event"",""trial"",""time""
""fullscreenenter"",""1"",""4659""
","
","
","""event"",""trial"",""time""
""fullscreenenter"",""1"",""4659""
","
",,1024,run_exp/static/images/task_images/land.jpg,76,,,,,,,0,,,5,,,,,,,,230079,1,8,TRUE,,,
travel,190,609396,0.0-63.0-0.0,"""event"",""trial"",""time""
""fullscreenenter"",""1"",""4659""
","
","
","""event"",""trial"",""time""
""fullscreenenter"",""1"",""4659""
","
",,,,,,,,,,,,"[{""stimulus"":""run_exp/static/images/task_images/rocket-01.jpg"",""time"":0.6999998092651367},{""stimulus"":""run_exp/static/images/task_images/rocket-02.jpg"",""time"":1014},{""stimulus"":""run_exp/static/images/task_images/rocket-03.jpg"",""time"":2017.2999997138977},{""stimulus"":""run_exp/static/images/task_images/rocket-04.jpg"",""time"":3005.4000000953674},{""stimulus"":""run_exp/static/images/task_images/rocket-05.jpg"",""time"":3992.7999997138977},{""stimulus"":""run_exp/static/images/task_images/rocket-06.jpg"",""time"":5037.5},{""stimulus"":""run_exp/static/images/task_images/rocket-07.jpg"",""time"":6006.900000095367},{""stimulus"":""run_exp/static/images/task_images/rocket-08.jpg"",""time"":7002.900000095367},{""stimulus"":""run_exp/static/images/task_images/rocket-09.jpg"",""time"":7991.599999904633}]",[],5,,,,,,,,,,,,,,
alien_welcome,191,614416,0.0-63.0-1.0,"""event"",""trial"",""time""
""fullscreenenter"",""1"",""4659""
","
","
","""event"",""trial"",""time""
""fullscreenenter"",""1"",""4659""
","
",,null,run_exp/static/images/task_images/aliens/old_aliens/planet/alien_planet-55.jpg,null,,,,,,,,,,,,,55,"68,17,13,62,69,55,56,37,26,6,32,2,50,8,40,48,3,64,61,20,58,28,45",,,,,,,,,,
land,192,614975,0.0-63.0-2.0,"""event"",""trial"",""time""
""fullscreenenter"",""1"",""4659""
","
","
","""event"",""trial"",""time""
""fullscreenenter"",""1"",""4659""
","
",,null,run_exp/static/images/task_images/land.jpg,null,,,,,,,97,,,6,,,,,,,,,,,,,,
dig,193,617001,0.0-63.0-3.0,"""event"",""trial"",""time""
""fullscreenenter"",""1"",""4659""
","
","
","""event"",""trial"",""time""
""fullscreenenter"",""1"",""4659""
","
",,,,,,,,,,,,"[{""stimulus"":""run_exp/static/images/task_images/dig.jpg"",""time"":1.0999999046325684},{""stimulus"":""run_exp/static/images/task_images/land.jpg"",""time"":684.1999998092651},{""stimulus"":""run_exp/static/images/task_images/dig.jpg"",""time"":1349.7999997138977}]",[],6,,,,,,,,,,,,,,
harvest,194,618035,0.0-63.0-4.0,"""event"",""trial"",""time""
""fullscreenenter"",""1"",""4659""
","
","
","""event"",""trial"",""time""
""fullscreenenter"",""1"",""4659""
","
",,null,run_exp/static/images/task_images/gems/97.jpg,null,,,,,,,85,,,6,,,,,97,0.880422024,0.87628866,,,,,,,
decision,195,618515,0.0-63.0-5.0,"""event"",""trial"",""time""
""fullscreenenter"",""1"",""4659""
","
","
","""event"",""trial"",""time""
""fullscreenenter"",""1"",""4659""
","
",,476.4000001,run_exp/static/images/task_images/land.jpg,65,,,,,,,85,,,6,,,,,,,,248194,1,0,FALSE,,,
dig,196,621050,0.0-64.0-0.0,"""event"",""trial"",""time""
""fullscreenenter"",""1"",""4659""
","
","
","""event"",""trial"",""time""
""fullscreenenter"",""1"",""4659""
","
",,,,,,,,,,,,"[{""stimulus"":""run_exp/static/images/task_images/dig.jpg"",""time"":0.6999998092651367},{""stimulus"":""run_exp/static/images/task_images/land.jpg"",""time"":845.1999998092651},{""stimulus"":""run_exp/static/images/task_images/dig.jpg"",""time"":1697.5}]",[],6,,,,,,,,,,,,,,
harvest,197,622068,0.0-64.0-1.0,"""event"",""trial"",""time""
""fullscreenenter"",""1"",""4659""
","
","
","""event"",""trial"",""time""
""fullscreenenter"",""1"",""4659""
","
",,null,run_exp/static/images/task_images/gems/85.jpg,null,,,,,,,69,,,6,,,,,85,0.807290213,0.811764706,,,,,,,
decision,198,622464,0.0-64.0-2.0,"""event"",""trial"",""time""
""fullscreenenter"",""1"",""4659""
","
","
","""event"",""trial"",""time""
""fullscreenenter"",""1"",""4659""
","
",,393.4000001,run_exp/static/images/task_images/land.jpg,65,,,,,,,69,,,6,,,,,,,,252144,1,1,FALSE,,,
dig,199,625090,0.0-65.0-0.0,"""event"",""trial"",""time""
""fullscreenenter"",""1"",""4659""
","
","
","""event"",""trial"",""time""
""fullscreenenter"",""1"",""4659""
","
",,,,,,,,,,,,"[{""stimulus"":""run_exp/static/images/task_images/dig.jpg"",""time"":0.6000003814697266},{""stimulus"":""run_exp/static/images/task_images/land.jpg"",""time"":885.1000003814697},{""stimulus"":""run_exp/static/images/task_images/dig.jpg"",""time"":1745.5}]",[],6,,,,,,,,,,,,,,
harvest,200,626125,0.0-65.0-1.0,"""event"",""trial"",""time""
""fullscreenenter"",""1"",""4659""
","
","
","""event"",""trial"",""time""
""fullscreenenter"",""1"",""4659""
","
",,null,run_exp/static/images/task_images/gems/69.jpg,null,,,,,,,53,,,6,,,,,69,0.766952704,0.768115942,,,,,,,
decision,201,626681,0.0-65.0-2.0,"""event"",""trial"",""time""
""fullscreenenter"",""1"",""4659""
","
","
","""event"",""trial"",""time""
""fullscreenenter"",""1"",""4659""
","
",,550.5999999,run_exp/static/images/task_images/land.jpg,65,,,,,,,53,,,6,,,,,,,,256361,1,2,FALSE,,,
dig,202,629199,0.0-66.0-0.0,"""event"",""trial"",""time""
""fullscreenenter"",""1"",""4659""
","
","
","""event"",""trial"",""time""
""fullscreenenter"",""1"",""4659""
","
",,,,,,,,,,,,"[{""stimulus"":""run_exp/static/images/task_images/dig.jpg"",""time"":0.8000001907348633},{""stimulus"":""run_exp/static/images/task_images/land.jpg"",""time"":851.2000002861023},{""stimulus"":""run_exp/static/images/task_images/dig.jpg"",""time"":1644.1000003814697}]",[],6,,,,,,,,,,,,,,
harvest,203,630338,0.0-66.0-1.0,"""event"",""trial"",""time""
""fullscreenenter"",""1"",""4659""
","
","
","""event"",""trial"",""time""
""fullscreenenter"",""1"",""4659""
","
",,null,run_exp/static/images/task_images/gems/53.jpg,null,,,,,,,47,,,6,,,,,53,0.889290043,0.886792453,,,,,,,
decision,204,630381,0.0-66.0-2.0,"""event"",""trial"",""time""
""fullscreenenter"",""1"",""4659""
","
","
","""event"",""trial"",""time""
""fullscreenenter"",""1"",""4659""
","
",,40.70000029,run_exp/static/images/task_images/land.jpg,65,,,,,,,47,,,6,,,,,,,,260060,1,3,FALSE,,,
dig,205,633365,0.0-67.0-0.0,"""event"",""trial"",""time""
""fullscreenenter"",""1"",""4659""
","
","
","""event"",""trial"",""time""
""fullscreenenter"",""1"",""4659""
","
",,,,,,,,,,,,"[{""stimulus"":""run_exp/static/images/task_images/dig.jpg"",""time"":0.7000002861022949},{""stimulus"":""run_exp/static/images/task_images/land.jpg"",""time"":1048.5999999046326},{""stimulus"":""run_exp/static/images/task_images/dig.jpg"",""time"":1980.7000002861023}]",[],6,,,,,,,,,,,,,,
harvest,206,634373,0.0-67.0-1.0,"""event"",""trial"",""time""
""fullscreenenter"",""1"",""4659""
","
","
","""event"",""trial"",""time""
""fullscreenenter"",""1"",""4659""
","
",,null,run_exp/static/images/task_images/gems/47.jpg,null,,,,,,,40,,,6,,,,,47,0.848253505,0.85106383,,,,,,,
decision,207,635900,0.0-67.0-2.0,"""event"",""trial"",""time""
""fullscreenenter"",""1"",""4659""
","
","
","""event"",""trial"",""time""
""fullscreenenter"",""1"",""4659""
","
",,1523.2,run_exp/static/images/task_images/land.jpg,65,,,,,,,40,,,6,,,,,,,,265579,1,4,FALSE,,,
dig,208,637416,0.0-68.0-0.0,"""event"",""trial"",""time""
""fullscreenenter"",""1"",""4659""
","
","
","""event"",""trial"",""time""
""fullscreenenter"",""1"",""4659""
","
",,,,,,,,,,,,"[{""stimulus"":""run_exp/static/images/task_images/dig.jpg"",""time"":0.6999998092651367},{""stimulus"":""run_exp/static/images/task_images/land.jpg"",""time"":511},{""stimulus"":""run_exp/static/images/task_images/dig.jpg"",""time"":993.4000000953674}]",[],6,,,,,,,,,,,,,,
harvest,209,638460,0.0-68.0-1.0,"""event"",""trial"",""time""
""fullscreenenter"",""1"",""4659""
","
","
","""event"",""trial"",""time""
""fullscreenenter"",""1"",""4659""
","
",,null,run_exp/static/images/task_images/gems/40.jpg,null,,,,,,,29,,,6,,,,,40,0.723067093,0.725,,,,,,,
decision,210,638689,0.0-68.0-2.0,"""event"",""trial"",""time""
""fullscreenenter"",""1"",""4659""
","
","
","""event"",""trial"",""time""
""fullscreenenter"",""1"",""4659""
","
",,225.9000001,run_exp/static/images/task_images/land.jpg,65,,,,,,,29,,,6,,,,,,,,268369,1,5,FALSE,,,
dig,211,641485,0.0-69.0-0.0,"""event"",""trial"",""time""
""fullscreenenter"",""1"",""4659""
","
","
","""event"",""trial"",""time""
""fullscreenenter"",""1"",""4659""
","
",,,,,,,,,,,,"[{""stimulus"":""run_exp/static/images/task_images/dig.jpg"",""time"":0.8000001907348633},{""stimulus"":""run_exp/static/images/task_images/land.jpg"",""time"":944.0999999046326},{""stimulus"":""run_exp/static/images/task_images/dig.jpg"",""time"":1853.3000001907349}]",[],6,,,,,,,,,,,,,,
harvest,212,642488,0.0-69.0-1.0,"""event"",""trial"",""time""
""fullscreenenter"",""1"",""4659""
","
","
","""event"",""trial"",""time""
""fullscreenenter"",""1"",""4659""
","
",,null,run_exp/static/images/task_images/gems/29.jpg,null,,,,,,,23,,,6,,,,,29,0.799873411,0.793103448,,,,,,,
decision,213,643424,0.0-69.0-2.0,"""event"",""trial"",""time""
""fullscreenenter"",""1"",""4659""
","
","
","""event"",""trial"",""time""
""fullscreenenter"",""1"",""4659""
","
",,932.5999999,run_exp/static/images/task_images/land.jpg,65,,,,,,,23,,,6,,,,,,,,273103,1,6,FALSE,,,
dig,214,645526,0.0-70.0-0.0,"""event"",""trial"",""time""
""fullscreenenter"",""1"",""4659""
","
","
","""event"",""trial"",""time""
""fullscreenenter"",""1"",""4659""
","
",,,,,,,,,,,,"[{""stimulus"":""run_exp/static/images/task_images/dig.jpg"",""time"":0.5999999046325684},{""stimulus"":""run_exp/static/images/task_images/land.jpg"",""time"":710.2999997138977},{""stimulus"":""run_exp/static/images/task_images/dig.jpg"",""time"":1395.2999997138977}]",[],6,,,,,,,,,,,,,,
harvest,215,646576,0.0-70.0-1.0,"""event"",""trial"",""time""
""fullscreenenter"",""1"",""4659""
","
","
","""event"",""trial"",""time""
""fullscreenenter"",""1"",""4659""
","
",,null,run_exp/static/images/task_images/gems/23.jpg,null,,,,,,,19,,,6,,,,,23,0.815649613,0.826086957,,,,,,,
decision,216,649290,0.0-70.0-2.0,"""event"",""trial"",""time""
""fullscreenenter"",""1"",""4659""
","
","
","""event"",""trial"",""time""
""fullscreenenter"",""1"",""4659""
","
",,2711.1,run_exp/static/images/task_images/land.jpg,65,,,,,,,19,,,6,,,,,,,,278970,1,7,FALSE,,,
dig,217,649599,0.0-71.0-0.0,"""event"",""trial"",""time""
""fullscreenenter"",""1"",""4659""
","
","
","""event"",""trial"",""time""
""fullscreenenter"",""1"",""4659""
","
",,,,,,,,,,,,"[{""stimulus"":""run_exp/static/images/task_images/dig.jpg"",""time"":1},{""stimulus"":""run_exp/static/images/task_images/land.jpg"",""time"":101.59999990463257},{""stimulus"":""run_exp/static/images/task_images/dig.jpg"",""time"":195.59999990463257}]",[],6,,,,,,,,,,,,,,
harvest,218,650639,0.0-71.0-1.0,"""event"",""trial"",""time""
""fullscreenenter"",""1"",""4659""
","
","
","""event"",""trial"",""time""
""fullscreenenter"",""1"",""4659""
","
",,null,run_exp/static/images/task_images/gems/19.jpg,null,,,,,,,16,,,6,,,,,19,0.848817808,0.842105263,,,,,,,
decision,219,652040,0.0-71.0-2.0,"""event"",""trial"",""time""
""fullscreenenter"",""1"",""4659""
","
","
","""event"",""trial"",""time""
""fullscreenenter"",""1"",""4659""
","
",,1399.1,run_exp/static/images/task_images/land.jpg,65,,,,,,,16,,,6,,,,,,,,281719,1,8,FALSE,,,
dig,220,653660,0.0-72.0-0.0,"""event"",""trial"",""time""
""fullscreenenter"",""1"",""4659""
","
","
","""event"",""trial"",""time""
""fullscreenenter"",""1"",""4659""
","
",,,,,,,,,,,,"[{""stimulus"":""run_exp/static/images/task_images/dig.jpg"",""time"":0.7000002861022949},{""stimulus"":""run_exp/static/images/task_images/land.jpg"",""time"":549.7000002861023},{""stimulus"":""run_exp/static/images/task_images/dig.jpg"",""time"":1108}]",[],6,,,,,,,,,,,,,,
harvest,221,654700,0.0-72.0-1.0,"""event"",""trial"",""time""
""fullscreenenter"",""1"",""4659""
","
","
","""event"",""trial"",""time""
""fullscreenenter"",""1"",""4659""
","
",,null,run_exp/static/images/task_images/gems/16.jpg,null,,,,,,,13,,,6,,,,,16,0.783659275,0.8125,,,,,,,
decision,222,655600,0.0-72.0-2.0,"""event"",""trial"",""time""
""fullscreenenter"",""1"",""4659""
","
","
","""event"",""trial"",""time""
""fullscreenenter"",""1"",""4659""
","
",,896.9000001,run_exp/static/images/task_images/land.jpg,65,,,,,,,13,,,6,,,,,,,,285279,1,9,FALSE,,,
dig,223,657717,0.0-73.0-0.0,"""event"",""trial"",""time""
""fullscreenenter"",""1"",""4659""
","
","
","""event"",""trial"",""time""
""fullscreenenter"",""1"",""4659""
","
",,,,,,,,,,,,"[{""stimulus"":""run_exp/static/images/task_images/dig.jpg"",""time"":0.9000000953674316},{""stimulus"":""run_exp/static/images/task_images/land.jpg"",""time"":780},{""stimulus"":""run_exp/static/images/task_images/dig.jpg"",""time"":1414.4000000953674}]",[],6,,,,,,,,,,,,,,
harvest,224,658737,0.0-73.0-1.0,"""event"",""trial"",""time""
""fullscreenenter"",""1"",""4659""
","
","
","""event"",""trial"",""time""
""fullscreenenter"",""1"",""4659""
","
",,null,run_exp/static/images/task_images/gems/13.jpg,null,,,,,,,11,,,6,,,,,13,0.831076837,0.846153846,,,,,,,
decision,225,659720,0.0-73.0-2.0,"""event"",""trial"",""time""
""fullscreenenter"",""1"",""4659""
","
","
","""event"",""trial"",""time""
""fullscreenenter"",""1"",""4659""
","
",,968.6000004,run_exp/static/images/task_images/land.jpg,65,,,,,,,11,,,6,,,,,,,,289399,1,10,FALSE,,,
dig,226,661764,0.0-74.0-0.0,"""event"",""trial"",""time""
""fullscreenenter"",""1"",""4659""
","
","
","""event"",""trial"",""time""
""fullscreenenter"",""1"",""4659""
","
",,,,,,,,,,,,"[{""stimulus"":""run_exp/static/images/task_images/dig.jpg"",""time"":0.6999998092651367},{""stimulus"":""run_exp/static/images/task_images/land.jpg"",""time"":729.0999999046326},{""stimulus"":""run_exp/static/images/task_images/dig.jpg"",""time"":1358.0999999046326}]",[],6,,,,,,,,,,,,,,
harvest,227,662770,0.0-74.0-1.0,"""event"",""trial"",""time""
""fullscreenenter"",""1"",""4659""
","
","
","""event"",""trial"",""time""
""fullscreenenter"",""1"",""4659""
","
",,null,run_exp/static/images/task_images/gems/11.jpg,null,,,,,,,9,,,6,,,,,11,0.790326894,0.818181818,,,,,,,
decision,228,662961,0.0-74.0-2.0,"""event"",""trial"",""time""
""fullscreenenter"",""1"",""4659""
","
","
","""event"",""trial"",""time""
""fullscreenenter"",""1"",""4659""
","
",,187.5,run_exp/static/images/task_images/land.jpg,65,,,,,,,9,,,6,,,,,,,,292641,1,11,FALSE,,,
dig,229,665799,0.0-75.0-0.0,"""event"",""trial"",""time""
""fullscreenenter"",""1"",""4659""
","
","
","""event"",""trial"",""time""
""fullscreenenter"",""1"",""4659""
","
",,,,,,,,,,,,"[{""stimulus"":""run_exp/static/images/task_images/dig.jpg"",""time"":0.5999999046325684},{""stimulus"":""run_exp/static/images/task_images/land.jpg"",""time"":950.0999999046326},{""stimulus"":""run_exp/static/images/task_images/dig.jpg"",""time"":1888.1999998092651}]",[],6,,,,,,,,,,,,,,
harvest,230,666807,0.0-75.0-1.0,"""event"",""trial"",""time""
""fullscreenenter"",""1"",""4659""
","
","
","""event"",""trial"",""time""
""fullscreenenter"",""1"",""4659""
","
",,null,run_exp/static/images/task_images/gems/9.jpg,null,,,,,,,7,,,6,,,,,9,0.73782016,0.777777778,,,,,,,
decision,231,666893,0.0-75.0-2.0,"""event"",""trial"",""time""
""fullscreenenter"",""1"",""4659""
","
","
","""event"",""trial"",""time""
""fullscreenenter"",""1"",""4659""
","
",,81,run_exp/static/images/task_images/land.jpg,65,,,,,,,7,,,6,,,,,,,,296572,1,12,FALSE,,,
dig,232,669838,0.0-76.0-0.0,"""event"",""trial"",""time""
""fullscreenenter"",""1"",""4659""
","
","
","""event"",""trial"",""time""
""fullscreenenter"",""1"",""4659""
","
",,,,,,,,,,,,"[{""stimulus"":""run_exp/static/images/task_images/dig.jpg"",""time"":0.6999998092651367},{""stimulus"":""run_exp/static/images/task_images/land.jpg"",""time"":997},{""stimulus"":""run_exp/static/images/task_images/dig.jpg"",""time"":1959}]",[],6,,,,,,,,,,,,,,
harvest,233,670862,0.0-76.0-1.0,"""event"",""trial"",""time""
""fullscreenenter"",""1"",""4659""
","
","
","""event"",""trial"",""time""
""fullscreenenter"",""1"",""4659""
","
",,null,run_exp/static/images/task_images/gems/7.jpg,null,,,,,,,5,,,6,,,,,7,0.765223705,0.714285714,,,,,,,
decision,234,672213,0.0-76.0-2.0,"""event"",""trial"",""time""
""fullscreenenter"",""1"",""4659""
","
","
","""event"",""trial"",""time""
""fullscreenenter"",""1"",""4659""
","
",,1343.4,run_exp/static/images/task_images/land.jpg,65,,,,,,,5,,,6,,,,,,,,301892,1,13,TRUE,,,
end_of_block_continue,235,681311,0.0-77.0-0.0,"""event"",""trial"",""time""
""fullscreenenter"",""1"",""4659""
","
","
","""event"",""trial"",""time""
""fullscreenenter"",""1"",""4659""
","
",,null,run_exp/static/audio/clip_32_block_end.m4a,,,,,,,null,,,,,,,,,,,,,,,,,,
alien_welcome,236,686359,0.0-78.0-0.0,"""event"",""trial"",""time""
""fullscreenenter"",""1"",""4659""
","
","
","""event"",""trial"",""time""
""fullscreenenter"",""1"",""4659""
","
",,null,run_exp/static/images/task_images/aliens/old_aliens/planet/alien_planet-56.jpg,null,,,,,,,,,,,,,56,"68,17,13,62,69,55,56,37,26,6,32,2,50,8,40,48,3,64,61,20,58,28,45",,,,,,,,,,
land,237,686873,0.0-78.0-1.0,"""event"",""trial"",""time""
""fullscreenenter"",""1"",""4659""
","
","
","""event"",""trial"",""time""
""fullscreenenter"",""1"",""4659""
","
",,null,run_exp/static/images/task_images/land.jpg,null,,,,,,,93,,,7,,,,,,,,,,,,,,
dig,238,688882,0.0-78.0-2.0,"""event"",""trial"",""time""
""fullscreenenter"",""1"",""4659""
","
","
","""event"",""trial"",""time""
""fullscreenenter"",""1"",""4659""
","
",,,,,,,,,,,,"[{""stimulus"":""run_exp/static/images/task_images/dig.jpg"",""time"":0.7000002861022949},{""stimulus"":""run_exp/static/images/task_images/land.jpg"",""time"":683.8000001907349},{""stimulus"":""run_exp/static/images/task_images/dig.jpg"",""time"":1369.3000001907349}]",[],7,,,,,,,,,,,,,,
harvest,239,689922,0.0-78.0-3.0,"""event"",""trial"",""time""
""fullscreenenter"",""1"",""4659""
","
","
","""event"",""trial"",""time""
""fullscreenenter"",""1"",""4659""
","
",,null,run_exp/static/images/task_images/gems/93.jpg,null,,,,,,,14,,,7,,,,,93,0.153532105,0.150537634,,,,,,,
decision,240,690769,0.0-78.0-4.0,"""event"",""trial"",""time""
""fullscreenenter"",""1"",""4659""
","
","
","""event"",""trial"",""time""
""fullscreenenter"",""1"",""4659""
","
",,843.4000001,run_exp/static/images/task_images/land.jpg,65,,,,,,,14,,,7,,,,,,,,9445,2,0,FALSE,,,
dig,241,692936,0.0-79.0-0.0,"""event"",""trial"",""time""
""fullscreenenter"",""1"",""4659""
","
","
","""event"",""trial"",""time""
""fullscreenenter"",""1"",""4659""
","
",,,,,,,,,,,,"[{""stimulus"":""run_exp/static/images/task_images/dig.jpg"",""time"":1.1000003814697266},{""stimulus"":""run_exp/static/images/task_images/land.jpg"",""time"":756.5},{""stimulus"":""run_exp/static/images/task_images/dig.jpg"",""time"":1452.4000000953674}]",[],7,,,,,,,,,,,,,,
harvest,242,693949,0.0-79.0-1.0,"""event"",""trial"",""time""
""fullscreenenter"",""1"",""4659""
","
","
","""event"",""trial"",""time""
""fullscreenenter"",""1"",""4659""
","
",,null,run_exp/static/images/task_images/gems/14.jpg,null,,,,,,,3,,,7,,,,,14,0.21014324,0.214285714,,,,,,,
decision,243,694506,0.0-79.0-2.0,"""event"",""trial"",""time""
""fullscreenenter"",""1"",""4659""
","
","
","""event"",""trial"",""time""
""fullscreenenter"",""1"",""4659""
","
",,552.1999998,run_exp/static/images/task_images/land.jpg,65,,,,,,,3,,,7,,,,,,,,13182,2,1,FALSE,,,
dig,244,696987,0.0-80.0-0.0,"""event"",""trial"",""time""
""fullscreenenter"",""1"",""4659""
","
","
","""event"",""trial"",""time""
""fullscreenenter"",""1"",""4659""
","
",,,,,,,,,,,,"[{""stimulus"":""run_exp/static/images/task_images/dig.jpg"",""time"":0.6000003814697266},{""stimulus"":""run_exp/static/images/task_images/land.jpg"",""time"":826.1000003814697},{""stimulus"":""run_exp/static/images/task_images/dig.jpg"",""time"":1645.6000003814697}]",[],7,,,,,,,,,,,,,,
harvest,245,697994,0.0-80.0-1.0,"""event"",""trial"",""time""
""fullscreenenter"",""1"",""4659""
","
","
","""event"",""trial"",""time""
""fullscreenenter"",""1"",""4659""
","
",,null,run_exp/static/images/task_images/gems/3.jpg,null,,,,,,,1,,,7,,,,,3,0.229277095,0.333333333,,,,,,,
decision,246,698164,0.0-80.0-2.0,"""event"",""trial"",""time""
""fullscreenenter"",""1"",""4659""
","
","
","""event"",""trial"",""time""
""fullscreenenter"",""1"",""4659""
","
",,166.3000002,run_exp/static/images/task_images/land.jpg,65,,,,,,,1,,,7,,,,,,,,16840,2,2,FALSE,,,
dig,247,701021,0.0-81.0-0.0,"""event"",""trial"",""time""
""fullscreenenter"",""1"",""4659""
","
","
","""event"",""trial"",""time""
""fullscreenenter"",""1"",""4659""
","
",,,,,,,,,,,,"[{""stimulus"":""run_exp/static/images/task_images/dig.jpg"",""time"":0.8000001907348633},{""stimulus"":""run_exp/static/images/task_images/land.jpg"",""time"":962.4000000953674},{""stimulus"":""run_exp/static/images/task_images/dig.jpg"",""time"":1899.6000003814697}]",[],7,,,,,,,,,,,,,,
harvest,248,702063,0.0-81.0-1.0,"""event"",""trial"",""time""
""fullscreenenter"",""1"",""4659""
","
","
","""event"",""trial"",""time""
""fullscreenenter"",""1"",""4659""
","
",,null,run_exp/static/images/task_images/gems/1.jpg,null,,,,,,,0,,,7,,,,,1,0.168019494,0,,,,,,,
decision,249,703949,0.0-81.0-2.0,"""event"",""trial"",""time""
""fullscreenenter"",""1"",""4659""
","
","
","""event"",""trial"",""time""
""fullscreenenter"",""1"",""4659""
","
",,1881.7,run_exp/static/images/task_images/land.jpg,65,,,,,,,0,,,7,,,,,,,,22625,2,3,FALSE,,,
dig,250,705079,0.0-82.0-0.0,"""event"",""trial"",""time""
""fullscreenenter"",""1"",""4659""
","
","
","""event"",""trial"",""time""
""fullscreenenter"",""1"",""4659""
","
",,,,,,,,,,,,"[{""stimulus"":""run_exp/static/images/task_images/dig.jpg"",""time"":0.5999999046325684},{""stimulus"":""run_exp/static/images/task_images/land.jpg"",""time"":380.2999997138977},{""stimulus"":""run_exp/static/images/task_images/dig.jpg"",""time"":750.3999996185303}]",[],7,,,,,,,,,,,,,,
harvest,251,706082,0.0-82.0-1.0,"""event"",""trial"",""time""
""fullscreenenter"",""1"",""4659""
","
","
","""event"",""trial"",""time""
""fullscreenenter"",""1"",""4659""
","
",,null,run_exp/static/images/task_images/gems/0.jpg,null,,,,,,,0,,,7,,,,,0,0.160586268,NaN,,,,,,,
decision,252,706708,0.0-82.0-2.0,"""event"",""trial"",""time""
""fullscreenenter"",""1"",""4659""
","
","
","""event"",""trial"",""time""
""fullscreenenter"",""1"",""4659""
","
",,620.5999999,run_exp/static/images/task_images/land.jpg,76,,,,,,,0,,,7,,,,,,,,25384,2,4,TRUE,,,
travel,253,716100,0.0-83.0-0.0,"""event"",""trial"",""time""
""fullscreenenter"",""1"",""4659""
","
","
","""event"",""trial"",""time""
""fullscreenenter"",""1"",""4659""
","
",,,,,,,,,,,,"[{""stimulus"":""run_exp/static/images/task_images/rocket-01.jpg"",""time"":0.6999998092651367},{""stimulus"":""run_exp/static/images/task_images/rocket-02.jpg"",""time"":1045.1999998092651},{""stimulus"":""run_exp/static/images/task_images/rocket-03.jpg"",""time"":2123.0999999046326},{""stimulus"":""run_exp/static/images/task_images/rocket-04.jpg"",""time"":3140.3999996185303},{""stimulus"":""run_exp/static/images/task_images/rocket-05.jpg"",""time"":4190.5},{""stimulus"":""run_exp/static/images/task_images/rocket-06.jpg"",""time"":5224.799999713898},{""stimulus"":""run_exp/static/images/task_images/rocket-07.jpg"",""time"":6269.699999809265},{""stimulus"":""run_exp/static/images/task_images/rocket-08.jpg"",""time"":7303.099999904633},{""stimulus"":""run_exp/static/images/task_images/rocket-09.jpg"",""time"":8349.89999961853}]",[],7,,,,,,,,,,,,,,
alien_welcome,254,721112,0.0-83.0-1.0,"""event"",""trial"",""time""
""fullscreenenter"",""1"",""4659""
","
","
","""event"",""trial"",""time""
""fullscreenenter"",""1"",""4659""
","
",,null,run_exp/static/images/task_images/aliens/old_aliens/planet/alien_planet-37.jpg,null,,,,,,,,,,,,,37,"68,17,13,62,69,55,56,37,26,6,32,2,50,8,40,48,3,64,61,20,58,28,45",,,,,,,,,,
land,255,721628,0.0-83.0-2.0,"""event"",""trial"",""time""
""fullscreenenter"",""1"",""4659""
","
","
","""event"",""trial"",""time""
""fullscreenenter"",""1"",""4659""
","
",,null,run_exp/static/images/task_images/land.jpg,null,,,,,,,103,,,8,,,,,,,,,,,,,,
dig,256,723643,0.0-83.0-3.0,"""event"",""trial"",""time""
""fullscreenenter"",""1"",""4659""
","
","
","""event"",""trial"",""time""
""fullscreenenter"",""1"",""4659""
","
",,,,,,,,,,,,"[{""stimulus"":""run_exp/static/images/task_images/dig.jpg"",""time"":0.8999996185302734},{""stimulus"":""run_exp/static/images/task_images/land.jpg"",""time"":711.3999996185303},{""stimulus"":""run_exp/static/images/task_images/dig.jpg"",""time"":1350.2999997138977}]",[],8,,,,,,,,,,,,,,
harvest,257,724673,0.0-83.0-4.0,"""event"",""trial"",""time""
""fullscreenenter"",""1"",""4659""
","
","
","""event"",""trial"",""time""
""fullscreenenter"",""1"",""4659""
","
",,null,run_exp/static/images/task_images/gems/103.jpg,null,,,,,,,13,,,8,,,,,103,0.12596214,0.126213592,,,,,,,
decision,258,725544,0.0-83.0-5.0,"""event"",""trial"",""time""
""fullscreenenter"",""1"",""4659""
","
","
","""event"",""trial"",""time""
""fullscreenenter"",""1"",""4659""
","
",,868.5,run_exp/static/images/task_images/land.jpg,65,,,,,,,13,,,8,,,,,,,,44220,2,0,FALSE,,,
