trial_type,trial_index,time_elapsed,internal_node_id,success,rt,stimulus,key_press,prompt,subject_id,age,gender,button_pressed,next_reward,animation_sequence,responses,planet,curr_prac_trial,n_prac_rounds,alien,aliens,reward_received,decay_rate_actual,decay_rate_exp,time_in_block,block_num,prt,last_trial_on_planet,button_html,bonus,num_failures
pavlovia,0,5,0.0-0.0,,,,,,,,,,,,,,,,,,,,,,,,,,,
fullscreen,1,3331,0.0-1.0,TRUE,,,,,,,,,,,,,,,,,,,,,,,,,,
instruc_welcome,2,13050,0.0-2.0,,null,run_exp/static/audio/clip_1_welcome.m4a,null,"<p>Howdy! In this experiment, you’ll be an explorer traveling through space to collect space treasure.</p><p>Your mission is to collect as much treasure as possible.</p><br><br><p><img src='run_exp/static/images/task_images/opening_img-01.jpg' height='300' width='auto'></p>",qg0xa3LZw5abJIK_1Y3uCvx5VSxv8Zo_MLRP_74HlSlLw3nvljf0,13.43,male,,,,,,,,,,,,,,,,,,,
audio-keyboard-response,3,29629,0.0-3.0,,null,run_exp/static/audio/clip_2_move.m4a,null,,,,,,,,,,,,,,,,,,,,,,,
welcome_dec,4,30831,0.0-4.0,,1199.5,"<p>Howdy! In this experiment, you’ll be an explorer traveling through space to collect space treasure.</p><p>Your mission is to collect as much treasure as possible.</p><br><br><p><img src='run_exp/static/images/task_images/opening_img-01.jpg' height='300' width='auto'></p>",,,,,,1,,,,,,,,,,,,,,,,,,
html-keyboard-response,5,32696,0.0-5.0,,1863,"<p>Howdy! In this experiment, you’ll be an explorer traveling through space to collect space treasure.</p><p>Your mission is to collect as much treasure as possible.</p><br><br><p><img src='run_exp/static/images/task_images/opening_img-01.jpg' height='300' width='auto'></p><button class=""jspsych-html-btn-unchosen""><img src=""run_exp/static/images/task_images/planet-01.jpg"" height=""50""></button><button class=""jspsych-html-btn-chosen""><img src=""run_exp/static/images/task_images/planet-02.jpg"" height=""50""></button><p><b>[press the space bar to lock in your answer]<b><br></p>",32,,,,,,,,,,,,,,,,,,,,,,,
instruc_goal,6,42749,0.0-6.0-0.0,,null,run_exp/static/audio/clip_3_goal.m4a,null,"<p> As a space explorer, you’ll visit different planets to dig for space treasure, these pink gems.</p> <p> The more treasure you dig up, the more bonus money you’ll win! </p><br><br><p><img src='run_exp/static/images/task_images/pink_gem.jpg' height='300' width='auto'></p>",,,,,,,,,,,,,,,,,,,,,,
instruc_goal,7,45176,0.0-6.0-1.0,,2424.3,"<p> As a space explorer, you’ll visit different planets to dig for space treasure, these pink gems.</p> <p> The more treasure you dig up, the more bonus money you’ll win! </p><br><br><p><img src='run_exp/static/images/task_images/pink_gem.jpg' height='300' width='auto'></p>",,,,,,1,,,,,,,,,,,,,,,,,,
html-keyboard-response,8,69424,0.0-6.0-2.0,,24246.3,"<p> As a space explorer, you’ll visit different planets to dig for space treasure, these pink gems.</p> <p> The more treasure you dig up, the more bonus money you’ll win! </p><br><br><p><img src='run_exp/static/images/task_images/pink_gem.jpg' height='300' width='auto'></p><button class=""jspsych-html-btn-unchosen""><img src=""run_exp/static/images/task_images/planet-01.jpg"" height=""50""></button><button class=""jspsych-html-btn-chosen""><img src=""run_exp/static/images/task_images/planet-02.jpg"" height=""50""></button><p><b>[press the space bar to lock in your answer]<b><br></p>",32,,,,,,,,,,,,,,,,,,,,,,,
instruc_dig,9,85440,0.0-7.0-0.0,,null,run_exp/static/audio/clip_4_dig.m4a,null,,,,,,100,,,,,,,,,,,,,,,,,
instruc_dig_try,10,94120,0.0-7.0-1.0,,8678.6,"<p> When you’ve arrived at a new planet, you will dig once. </p> <p>Then, you get to decide if you want to stay on the planet and dig again or travel to a new planet and dig there.</p> <p> To stay and dig, press the letter <strong>‘A’</strong> on your keyboard. Try pressing it now! </p><p><img src='run_exp/static/images/task_images/land.jpg'  height='700' width='auto'></p>",65,"<p> When you’ve arrived at a new planet, you will dig once. </p> <p>Then, you get to decide if you want to stay on the planet and dig again or travel to a new planet and dig there.</p> <p> To stay and dig, press the letter <strong>‘A’</strong> on your keyboard. Try pressing it now! </p><p><img src='run_exp/static/images/task_images/land.jpg'  height='700' width='auto'></p>",,,,,100,,,,,,,,,,,,,,,,,
dig_prac,11,96140,0.0-7.0-2.0,,,,,,,,,,,"[{""stimulus"":""run_exp/static/images/task_images/dig.jpg"",""time"":0.2999999523162842},{""stimulus"":""run_exp/static/images/task_images/land.jpg"",""time"":669.3999999761581},{""stimulus"":""run_exp/static/images/task_images/dig.jpg"",""time"":1337.2999999523163}]",[],,,,,,,,,,,,,,,
instruc_travel,12,132349,0.0-7.0-3.0,,null,run_exp/static/audio/clip_5_travel.m4a,null,"<p>Every time you dig up gems, there are less gems on the planet, so the more you dig on a planet the fewer gems you’ll get with each dig.</p><p>When gems are running low, you may want to travel to a new planet. </p> <p>  Planets are very far apart in this galaxy, so it will take some time to travel between them. </p> <br><p>There are lots and lots of planets for you to visit, so you won’t be able to return to any planets you’ve seen before. </p><br><p>To leave this planet and travel to a new one, press the letter <strong>‘L’</strong> on your keyboard. Try pressing it now! </p><p><img src='run_exp/static/images/task_images/rocket-01.jpg'  height='600' width='auto'></p>",,,,,,,,,,,,,,,,,,,,,,
instruc_travel_try,13,133855,0.0-7.0-4.0,,1504.9,"<p>Every time you dig up gems, there are less gems on the planet, so the more you dig on a planet the fewer gems you’ll get with each dig.</p><p>When gems are running low, you may want to travel to a new planet. </p> <p>  Planets are very far apart in this galaxy, so it will take some time to travel between them. </p> <br><p>There are lots and lots of planets for you to visit, so you won’t be able to return to any planets you’ve seen before. </p><br><p>To leave this planet and travel to a new one, press the letter <strong>‘L’</strong> on your keyboard. Try pressing it now! </p><p><img src='run_exp/static/images/task_images/rocket-01.jpg'  height='600' width='auto'></p>",76,"<p>Every time you dig up gems, there are less gems on the planet, so the more you dig on a planet the fewer gems you’ll get with each dig.</p><p>When gems are running low, you may want to travel to a new planet. </p> <p>  Planets are very far apart in this galaxy, so it will take some time to travel between them. </p> <br><p>There are lots and lots of planets for you to visit, so you won’t be able to return to any planets you’ve seen before. </p><br><p>To leave this planet and travel to a new one, press the letter <strong>‘L’</strong> on your keyboard. Try pressing it now! </p><p><img src='run_exp/static/images/task_images/rocket-01.jpg'  height='600' width='auto'></p>",,,,,,,,,,,,,,,,,,,,,,
travel_prac,14,143856,0.0-7.0-5.0,,,,,,,,,,,"[{""stimulus"":""run_exp/static/images/task_images/rocket-01.jpg"",""time"":0.19999992847442627},{""stimulus"":""run_exp/static/images/task_images/rocket-02.jpg"",""time"":1122.5},{""stimulus"":""run_exp/static/images/task_images/rocket-03.jpg"",""time"":2222.5999999046326},{""stimulus"":""run_exp/static/images/task_images/rocket-04.jpg"",""time"":3333.899999976158},{""stimulus"":""run_exp/static/images/task_images/rocket-05.jpg"",""time"":4449.299999952316},{""stimulus"":""run_exp/static/images/task_images/rocket-06.jpg"",""time"":5559.399999976158},{""stimulus"":""run_exp/static/images/task_images/rocket-07.jpg"",""time"":6673.599999904633},{""stimulus"":""run_exp/static/images/task_images/rocket-08.jpg"",""time"":7784.5},{""stimulus"":""run_exp/static/images/task_images/rocket-09.jpg"",""time"":8889.099999904633}]",[],0,,,,,,,,,,,,,,
instruc_alien_greet,15,171030,0.0-7.0-6.0,,null,run_exp/static/audio/clip_6_alien.m4a,null,"<p>When you arrive at a new planet, the alien who owns the treasure mine on that planet will greet you!</p><p>The better an alien takes care of their mine the easier it is to dig for gems. Some aliens take better care of their mine than others. So, you won’t get exactly the same amount of gems on each planet.</p><p>What the alien looks like does not tell you anything about how many gems there are on the planet.</p><br><p><img src=""run_exp/static/images/task_images/aliens/instructions_aliens/planet/alien_planet-1.jpg""  height=""600"" width=""auto""></p>",,,,,,,,,,,,,,,,,,,,,,
instruc_alien_greet,16,173609,0.0-7.0-7.0,,2576.6,"<p>When you arrive at a new planet, the alien who owns the treasure mine on that planet will greet you!</p><p>The better an alien takes care of their mine the easier it is to dig for gems. Some aliens take better care of their mine than others. So, you won’t get exactly the same amount of gems on each planet.</p><p>What the alien looks like does not tell you anything about how many gems there are on the planet.</p><br><p><img src=""run_exp/static/images/task_images/aliens/instructions_aliens/planet/alien_planet-1.jpg""  height=""600"" width=""auto""></p>",,,,,,1,,,,,,,,,,,,,,,,,,
html-keyboard-response,17,178112,0.0-7.0-8.0,,4482.9,"<p>When you arrive at a new planet, the alien who owns the treasure mine on that planet will greet you!</p><p>The better an alien takes care of their mine the easier it is to dig for gems. Some aliens take better care of their mine than others. So, you won’t get exactly the same amount of gems on each planet.</p><p>What the alien looks like does not tell you anything about how many gems there are on the planet.</p><br><p><img src=""run_exp/static/images/task_images/aliens/instructions_aliens/planet/alien_planet-1.jpg""  height=""600"" width=""auto""></p><button class=""jspsych-html-btn-unchosen""><img src=""run_exp/static/images/task_images/planet-01.jpg"" height=""50""></button><button class=""jspsych-html-btn-chosen""><img src=""run_exp/static/images/task_images/planet-02.jpg"" height=""50""></button><p><b>[press the space bar to lock in your answer]<b><br></p>",32,,,,,,,,,,,,,,,,,,,,,,,
time_out,18,189190,0.0-8.0-0.0,,null,run_exp/static/audio/clip_7_timeout.m4a,null,"<p>If you don't make your choice fast enough, you’ll have to wait a few seconds before you can make another one.</p><p>You can’t dig for more gems or travel to new planets. You just have to sit and wait.</p><br><p><img src='run_exp/static/images/task_images/time_out.jpg'  height='600' width='auto'></p>",,,,,,,,,,,,,,,,,,,,,,
time_out,19,192720,0.0-8.0-1.0,,3526.2,"<p>If you don't make your choice fast enough, you’ll have to wait a few seconds before you can make another one.</p><p>You can’t dig for more gems or travel to new planets. You just have to sit and wait.</p><br><p><img src='run_exp/static/images/task_images/time_out.jpg'  height='600' width='auto'></p>",,,,,,1,,,,,,,,,,,,,,,,,,
html-keyboard-response,20,192743,0.0-8.0-2.0,,22.60000002,"<p>If you don't make your choice fast enough, you’ll have to wait a few seconds before you can make another one.</p><p>You can’t dig for more gems or travel to new planets. You just have to sit and wait.</p><br><p><img src='run_exp/static/images/task_images/time_out.jpg'  height='600' width='auto'></p><button class=""jspsych-html-btn-unchosen""><img src=""run_exp/static/images/task_images/planet-01.jpg"" height=""50""></button><button class=""jspsych-html-btn-chosen""><img src=""run_exp/static/images/task_images/planet-02.jpg"" height=""50""></button><p><b>[press the space bar to lock in your answer]<b><br></p>",32,,,,,,,,,,,,,,,,,,,,,,,
instruc_break,21,208411,0.0-9.0-0.0,,null,run_exp/static/audio/clip_8_break.m4a,null,"<p> After digging and traveling for a while, you’ll be able to take a break at home base. </p><p>The game will last 20 minutes no matter what.</p><p>You will visit home base every 5 minutes, so, you will visit home base three times during the game.</p><br><p><img src='run_exp/static/images/task_images/home_base.jpg' height='600' width='auto'></p>",,,,,,,,,,,,,,,,,,,,,,
instruc_break,22,210370,0.0-9.0-1.0,,1955.7,"<p> After digging and traveling for a while, you’ll be able to take a break at home base. </p><p>The game will last 20 minutes no matter what.</p><p>You will visit home base every 5 minutes, so, you will visit home base three times during the game.</p><br><p><img src='run_exp/static/images/task_images/home_base.jpg' height='600' width='auto'></p>",,,,,,1,,,,,,,,,,,,,,,,,,
html-keyboard-response,23,212544,0.0-9.0-2.0,,2173.1,"<p> After digging and traveling for a while, you’ll be able to take a break at home base. </p><p>The game will last 20 minutes no matter what.</p><p>You will visit home base every 5 minutes, so, you will visit home base three times during the game.</p><br><p><img src='run_exp/static/images/task_images/home_base.jpg' height='600' width='auto'></p><button class=""jspsych-html-btn-unchosen""><img src=""run_exp/static/images/task_images/planet-01.jpg"" height=""50""></button><button class=""jspsych-html-btn-chosen""><img src=""run_exp/static/images/task_images/planet-02.jpg"" height=""50""></button><p><b>[press the space bar to lock in your answer]<b><br></p>",32,,,,,,,,,,,,,,,,,,,,,,,
instruc_prac_game,24,222670,0.0-10.0-0.0,,null,run_exp/static/audio/clip_9_practice.m4a,null,"<p> Are you ready to play a practice game? </p> <p>In this practice game, you'll be digging up barrels of gems. But, in the real game, you'll be digging up the gems themselves. </p>",,,,,,,,,,,,,,,,,,,,,,
html-button-response,25,223688,0.0-10.0-1.0,,1016.4,"<p> Are you ready to play a practice game? </p> <p>In this practice game, you'll be digging up barrels of gems. But, in the real game, you'll be digging up the gems themselves. </p>",,,,,,0,,,,,,,,,,,,,,,,,,
alien_welcome_prac,26,228697,0.0-11.0-0.0,,null,run_exp/static/images/task_images/aliens/practice_aliens/planet/alien_planet-5.jpg,null,,,,,,,,,,,,,,,,,,,,,,,
land_prac,27,229200,0.0-11.0-1.0,,null,run_exp/static/images/task_images/land.jpg,null,,,,,,101,,,0,,,,,,,,,,,,,,
dig_prac,28,231204,0.0-11.0-2.0,,,,,,,,,,,"[{""stimulus"":""run_exp/static/images/task_images/dig.jpg"",""time"":0.2999999523162842},{""stimulus"":""run_exp/static/images/task_images/land.jpg"",""time"":669.3999999761581},{""stimulus"":""run_exp/static/images/task_images/dig.jpg"",""time"":1339.3999999761581}]",[],,,,,,,,,,,,,,,
harvest_prac,29,232220,0.0-11.0-3.0,,null,run_exp/static/images/task_images/barrel_text.jpg,null,,,,,,,,,,,,,,,,,,,,,,,
decision_prac,30,232792,0.0-11.0-4.0,,570.8000001,run_exp/static/images/task_images/land.jpg,65,,,,,,,,,,1,,,,,,,,,,,,,
dig_prac,31,234799,0.0-12.0-0.0,,,,,,,,,,,"[{""stimulus"":""run_exp/static/images/task_images/dig.jpg"",""time"":0.19999992847442627},{""stimulus"":""run_exp/static/images/task_images/land.jpg"",""time"":672.1000000238419},{""stimulus"":""run_exp/static/images/task_images/dig.jpg"",""time"":1344.6999999284744}]",[],,,,,,,,,,,,,,,
harvest_prac,32,235802,0.0-12.0-1.0,,null,run_exp/static/images/task_images/barrel_text.jpg,null,,,,,,,,,,,,,,,,,,,,,,,
decision_prac,33,235976,0.0-12.0-2.0,,173.1,run_exp/static/images/task_images/land.jpg,65,,,,,,,,,,2,,,,,,,,,,,,,
dig_prac,34,237989,0.0-13.0-0.0,,,,,,,,,,,"[{""stimulus"":""run_exp/static/images/task_images/dig.jpg"",""time"":0.20000004768371582},{""stimulus"":""run_exp/static/images/task_images/land.jpg"",""time"":668.9000000953674},{""stimulus"":""run_exp/static/images/task_images/dig.jpg"",""time"":1340.8000000715256}]",[],,,,,,,,,,,,,,,
harvest_prac,35,238992,0.0-13.0-1.0,,null,run_exp/static/images/task_images/barrel_text.jpg,null,,,,,,,,,,,,,,,,,,,,,,,
decision_prac,36,239088,0.0-13.0-2.0,,94.89999998,run_exp/static/images/task_images/land.jpg,65,,,,,,,,,,3,,,,,,,,,,,,,
dig_prac,37,241098,0.0-14.0-0.0,,,,,,,,,,,"[{""stimulus"":""run_exp/static/images/task_images/dig.jpg"",""time"":0.10000002384185791},{""stimulus"":""run_exp/static/images/task_images/land.jpg"",""time"":674},{""stimulus"":""run_exp/static/images/task_images/dig.jpg"",""time"":1335.1000000238419}]",[],,,,,,,,,,,,,,,
harvest_prac,38,242114,0.0-14.0-1.0,,null,run_exp/static/images/task_images/barrel_text.jpg,null,,,,,,,,,,,,,,,,,,,,,,,
decision_prac,39,242241,0.0-14.0-2.0,,125.5,run_exp/static/images/task_images/land.jpg,65,,,,,,,,,,4,,,,,,,,,,,,,
dig_prac,40,244256,0.0-15.0-0.0,,,,,,,,,,,"[{""stimulus"":""run_exp/static/images/task_images/dig.jpg"",""time"":0.2999999523162842},{""stimulus"":""run_exp/static/images/task_images/land.jpg"",""time"":670.1999999284744},{""stimulus"":""run_exp/static/images/task_images/dig.jpg"",""time"":1340.6999999284744}]",[],,,,,,,,,,,,,,,
harvest_prac,41,245264,0.0-15.0-1.0,,null,run_exp/static/images/task_images/barrel_text.jpg,null,,,,,,,,,,,,,,,,,,,,,,,
decision_prac,42,245383,0.0-15.0-2.0,,118.9000001,run_exp/static/images/task_images/land.jpg,65,,,,,,,,,,,1,,,,,,,,,,,,
quiz_instruc,43,256176,0.0-16.0-0.0,,10789.5,run_exp/static/audio/clip_10_quiz.m4a,,,,,,0,,,,,,,,,,,,,,,,,,
instruc_repeat,44,298959,0.0-16.0-1.0,,null,"<p> Are you ready to play a practice game? </p> <p>In this practice game, you'll be digging up barrels of gems. But, in the real game, you'll be digging up the gems themselves. </p>",null,"<p>In this game, your goal is to collect as many gems as you can. That’s how you will win bonus money. </p> <p>The entire game will last 20 minutes no matter how many gems you collect or how many planets you visit. </p><p>To stay on a planet and dig again, press the letter A on your keyboard. To leave for a new planet, press the letter L.</p><p>The more you dig on a planet, the fewer gems you’ll get with each dig which is why you might consider leaving for a new planet. </p><p>When you arrive at a new planet, you’ll be greeted by an alien. What the alien looks like does not tell you anything about how much treasure is on the planet. </p>",,,,,,,,,,,,,,,,,,,,,,
instruc_repeat_continue,45,302294,0.0-16.0-2.0,,3333.1,"<p> Are you ready to play a practice game? </p> <p>In this practice game, you'll be digging up barrels of gems. But, in the real game, you'll be digging up the gems themselves. </p>",,,,,,0,,,,,,,,,,,,,,,,,,
quiz_q_1_ask,46,305983,0.0-16.0-3.0,,3687.1,run_exp/static/audio/clip_11_q1_ask.m4a,,,,,,2,,,,,,,,,,,,,,,,,,
quiz_q_1_fb_correct,47,309819,0.0-17.0-0.0,,null,run_exp/static/audio/clip_12_q1_corrrect.m4a,null,<p>That’s correct. You win extra money by collecting more gems.</p>,,,,,,,,,,,,,,,,,,,,,,
quiz_q_2_ask,48,313968,0.0-17.0-1.0,,4146,run_exp/static/audio/clip_14_q2_ask.m4a,,,,,,1,,,,,,,,,,,,,,,,,,
quiz_q_2_fb_correct,49,317959,0.0-18.0-0.0,,null,run_exp/static/audio/clip_15_q2_correct.m4a,null,<p>That’s correct. The experiment is 20 minutes no matter what.</p>,,,,,,,,,,,,,,,,,,,,,,
quiz_q_3_ask,50,322167,0.0-18.0-1.0,,4205.1,run_exp/static/audio/clip_17_q3_ask.m4a,,,,,,1,,,,,,,,,,,,,,,,,,
quiz_q_3_fb_correct,51,326139,0.0-19.0-0.0,,null,run_exp/static/audio/clip_18_q3_correct.m4a,null,<p> That’s correct. You press the letter L to travel to a new planet.</p>,,,,,,,,,,,,,,,,,,,,,,
quiz_q_4_ask,52,330439,0.0-19.0-1.0,,4298.5,run_exp/static/audio/clip_20_q4_ask.m4a,,,,,,0,,,,,,,,,,,,,,,,,,
quiz_q_4_fb_correct,53,335759,0.0-20.0-0.0,,null,run_exp/static/audio/clip_21_q4_correct.m4a,null,<p> That’s correct. The more you dig on a planet the fewer gems you’ll get with each dig. </p>,,,,,,,,,,,,,,,,,,,,,,
quiz_q_5_ask,54,340287,0.0-20.0-1.0,,4525.6,run_exp/static/audio/clip_23_q5_ask.m4a,,,,,,1,,,,,,,,,,,,,,,,,,
quiz_q_5_fb_correct,55,345299,0.0-21.0-0.0,,null,run_exp/static/audio/clip_24_q5_correct.m4a,null,<p> That’s correct. The alien tells you nothing about how much treasure is on the planet.</p>,,,,,,,,,,,,,,,,,,,,,,
quiz_correct,56,348760,0.0-22.0-0.0,,null,run_exp/static/audio/clip_26_correct_quiz.m4a,null,,,,,,,,,,,,,,,,,,,,,,,
quiz_correct_continue,57,349912,0.0-22.0-1.0,,1150.3,<p>Good job! You're now ready to move on to the real game!</p>,,,,,,0,,,,,,,,,,,,,,,,,,
audio-keyboard-response,58,360020,0.0-22.0-2.0,,null,run_exp/static/audio/clip_28_real_game.m4a,null,,,,,,,,,,,,,,,,,,,,,,,
instruc_begin_exp_contine,59,361751,0.0-22.0-3.0,,1729.8,"<p>Now that you know how  to dig for space treasure and travel to new planets,you can start exploring! </p><p>Do you want to go over the instructions again or get started with the real game?</p>",,,,,,1,,,,,,1,,,,,,,,,,,,
alien_welcome,60,366755,0.0-23.0-0.0,,null,run_exp/static/images/task_images/aliens/old_aliens/planet/alien_planet-53.jpg,null,,,,,,,,,,,,53,"53,43,69,50,21,60,39,26,55,15,54,74,3,13,49,25,12,34,78,72,11,64,65,62,67,66,70,42,44,9,51,2,68,40,19,48,17,79,32,45,28,10,6,18,36,31,37,71",,,,,,,,,,
land,61,367258,0.0-23.0-1.0,,null,run_exp/static/images/task_images/land.jpg,null,,,,,,92,,,1,,,,,,,,,,,,,,
dig,62,369267,0.0-23.0-2.0,,,,,,,,,,,"[{""stimulus"":""run_exp/static/images/task_images/dig.jpg"",""time"":0.20000004768371582},{""stimulus"":""run_exp/static/images/task_images/land.jpg"",""time"":673.3999999761581},{""stimulus"":""run_exp/static/images/task_images/dig.jpg"",""time"":1348.2000000476837}]",[],1,,,,,,,,,,,,,,
harvest,63,370275,0.0-23.0-3.0,,null,run_exp/static/images/task_images/gems/92.jpg,null,,,,,,17,,,1,,,,,92,0.182367299,0.184782609,,,,,,,
decision,64,370544,0.0-23.0-4.0,,266.5999999,run_exp/static/images/task_images/land.jpg,65,,,,,,17,,,1,,,,,,,,8791,1,0,FALSE,,,
dig,65,373285,0.0-24.0-0.0,,,,,,,,,,,"[{""stimulus"":""run_exp/static/images/task_images/dig.jpg"",""time"":0.20000004768371582},{""stimulus"":""run_exp/static/images/task_images/land.jpg"",""time"":915.6000000238419},{""stimulus"":""run_exp/static/images/task_images/dig.jpg"",""time"":1824.6000000238419}]",[],1,,,,,,,,,,,,,,
harvest,66,374300,0.0-24.0-1.0,,null,run_exp/static/images/task_images/gems/17.jpg,null,,,,,,2,,,1,,,,,17,0.132830002,0.117647059,,,,,,,
decision,67,374464,0.0-24.0-2.0,,162.3,run_exp/static/images/task_images/land.jpg,65,,,,,,2,,,1,,,,,,,,12711,1,1,FALSE,,,
dig,68,377309,0.0-25.0-0.0,,,,,,,,,,,"[{""stimulus"":""run_exp/static/images/task_images/dig.jpg"",""time"":0.09999990463256836},{""stimulus"":""run_exp/static/images/task_images/land.jpg"",""time"":950.5},{""stimulus"":""run_exp/static/images/task_images/dig.jpg"",""time"":1896.6999999284744}]",[],1,,,,,,,,,,,,,,
harvest,69,378312,0.0-25.0-1.0,,null,run_exp/static/images/task_images/gems/2.jpg,null,,,,,,0,,,1,,,,,2,0.121641359,0,,,,,,,
decision,70,378336,0.0-25.0-2.0,,21.10000002,run_exp/static/images/task_images/land.jpg,65,,,,,,0,,,1,,,,,,,,16583,1,2,FALSE,,,
dig,71,381331,0.0-26.0-0.0,,,,,,,,,,,"[{""stimulus"":""run_exp/static/images/task_images/dig.jpg"",""time"":0.2999999523162842},{""stimulus"":""run_exp/static/images/task_images/land.jpg"",""time"":995.8999999761581},{""stimulus"":""run_exp/static/images/task_images/dig.jpg"",""time"":1992}]",[],1,,,,,,,,,,,,,,
harvest,72,382333,0.0-26.0-1.0,,null,run_exp/static/images/task_images/gems/0.jpg,null,,,,,,0,,,1,,,,,0,0.257879378,NaN,,,,,,,
decision,73,382808,0.0-26.0-2.0,,473,run_exp/static/images/task_images/land.jpg,76,,,,,,0,,,1,,,,,,,,21055,1,3,TRUE,,,
travel,74,392345,0.0-27.0-0.0,,,,,,,,,,,"[{""stimulus"":""run_exp/static/images/task_images/rocket-01.jpg"",""time"":0.2999999523162842},{""stimulus"":""run_exp/static/images/task_images/rocket-02.jpg"",""time"":1066},{""stimulus"":""run_exp/static/images/task_images/rocket-03.jpg"",""time"":2127.0999999046326},{""stimulus"":""run_exp/static/images/task_images/rocket-04.jpg"",""time"":3181.5999999046326},{""stimulus"":""run_exp/static/images/task_images/rocket-05.jpg"",""time"":4237.299999952316},{""stimulus"":""run_exp/static/images/task_images/rocket-06.jpg"",""time"":5304.5},{""stimulus"":""run_exp/static/images/task_images/rocket-07.jpg"",""time"":6359.699999928474},{""stimulus"":""run_exp/static/images/task_images/rocket-08.jpg"",""time"":7421.299999952316},{""stimulus"":""run_exp/static/images/task_images/rocket-09.jpg"",""time"":8470.299999952316}]",[],1,,,,,,,,,,,,,,
alien_welcome,75,397350,0.0-27.0-1.0,,null,run_exp/static/images/task_images/aliens/old_aliens/planet/alien_planet-43.jpg,null,,,,,,,,,,,,43,"53,43,69,50,21,60,39,26,55,15,54,74,3,13,49,25,12,34,78,72,11,64,65,62,67,66,70,42,44,9,51,2,68,40,19,48,17,79,32,45,28,10,6,18,36,31,37,71",,,,,,,,,,
land,76,397866,0.0-27.0-2.0,,null,run_exp/static/images/task_images/land.jpg,null,,,,,,97,,,2,,,,,,,,,,,,,,
dig,77,399875,0.0-27.0-3.0,,,,,,,,,,,"[{""stimulus"":""run_exp/static/images/task_images/dig.jpg"",""time"":0.2999999523162842},{""stimulus"":""run_exp/static/images/task_images/land.jpg"",""time"":682.1999999284744},{""stimulus"":""run_exp/static/images/task_images/dig.jpg"",""time"":1349.7999999523163}]",[],2,,,,,,,,,,,,,,
harvest,78,400878,0.0-27.0-4.0,,null,run_exp/static/images/task_images/gems/97.jpg,null,,,,,,19,,,2,,,,,97,0.193915543,0.195876289,,,,,,,
decision,79,401008,0.0-27.0-5.0,,128,run_exp/static/images/task_images/land.jpg,65,,,,,,19,,,2,,,,,,,,39255,1,0,FALSE,,,
dig,80,403889,0.0-28.0-0.0,,,,,,,,,,,"[{""stimulus"":""run_exp/static/images/task_images/dig.jpg"",""time"":0.2999999523162842},{""stimulus"":""run_exp/static/images/task_images/land.jpg"",""time"":965.3999999761581},{""stimulus"":""run_exp/static/images/task_images/dig.jpg"",""time"":1922.1000000238419}]",[],2,,,,,,,,,,,,,,
harvest,81,404896,0.0-28.0-1.0,,null,run_exp/static/images/task_images/gems/19.jpg,null,,,,,,4,,,2,,,,,19,0.224452175,0.210526316,,,,,,,
decision,82,405079,0.0-28.0-2.0,,181.5,run_exp/static/images/task_images/land.jpg,76,,,,,,4,,,2,,,,,,,,43327,1,1,TRUE,,,
travel,83,414898,0.0-29.0-0.0,,,,,,,,,,,"[{""stimulus"":""run_exp/static/images/task_images/rocket-01.jpg"",""time"":0.2999999523162842},{""stimulus"":""run_exp/static/images/task_images/rocket-02.jpg"",""time"":1103.8999999761581},{""stimulus"":""run_exp/static/images/task_images/rocket-03.jpg"",""time"":2189.2000000476837},{""stimulus"":""run_exp/static/images/task_images/rocket-04.jpg"",""time"":3273.899999976158},{""stimulus"":""run_exp/static/images/task_images/rocket-05.jpg"",""time"":4362.700000047684},{""stimulus"":""run_exp/static/images/task_images/rocket-06.jpg"",""time"":5461.700000047684},{""stimulus"":""run_exp/static/images/task_images/rocket-07.jpg"",""time"":6546.299999952316},{""stimulus"":""run_exp/static/images/task_images/rocket-08.jpg"",""time"":7632.899999976158},{""stimulus"":""run_exp/static/images/task_images/rocket-09.jpg"",""time"":8732.5}]",[],2,,,,,,,,,,,,,,
alien_welcome,84,419914,0.0-29.0-1.0,,null,run_exp/static/images/task_images/aliens/old_aliens/planet/alien_planet-69.jpg,null,,,,,,,,,,,,69,"53,43,69,50,21,60,39,26,55,15,54,74,3,13,49,25,12,34,78,72,11,64,65,62,67,66,70,42,44,9,51,2,68,40,19,48,17,79,32,45,28,10,6,18,36,31,37,71",,,,,,,,,,
land,85,420430,0.0-29.0-2.0,,null,run_exp/static/images/task_images/land.jpg,null,,,,,,100,,,3,,,,,,,,,,,,,,
dig,86,422437,0.0-29.0-3.0,,,,,,,,,,,"[{""stimulus"":""run_exp/static/images/task_images/dig.jpg"",""time"":0.30000007152557373},{""stimulus"":""run_exp/static/images/task_images/land.jpg"",""time"":673.5},{""stimulus"":""run_exp/static/images/task_images/dig.jpg"",""time"":1345.2000000476837}]",[],3,,,,,,,,,,,,,,
harvest,87,423445,0.0-29.0-4.0,,null,run_exp/static/images/task_images/gems/100.jpg,null,,,,,,47,,,3,,,,,100,0.46596713,0.47,,,,,,,
decision,88,423584,0.0-29.0-5.0,,138.5,run_exp/static/images/task_images/land.jpg,65,,,,,,47,,,3,,,,,,,,61832,1,0,FALSE,,,
dig,89,426454,0.0-30.0-0.0,,,,,,,,,,,"[{""stimulus"":""run_exp/static/images/task_images/dig.jpg"",""time"":0.10000002384185791},{""stimulus"":""run_exp/static/images/task_images/land.jpg"",""time"":957.1000000238419},{""stimulus"":""run_exp/static/images/task_images/dig.jpg"",""time"":1908.8999999761581}]",[],3,,,,,,,,,,,,,,
harvest,90,427458,0.0-30.0-1.0,,null,run_exp/static/images/task_images/gems/47.jpg,null,,,,,,28,,,3,,,,,47,0.590225521,0.595744681,,,,,,,
decision,91,427720,0.0-30.0-2.0,,260.6999999,run_exp/static/images/task_images/land.jpg,65,,,,,,28,,,3,,,,,,,,65967,1,1,FALSE,,,
dig,92,430475,0.0-31.0-0.0,,,,,,,,,,,"[{""stimulus"":""run_exp/static/images/task_images/dig.jpg"",""time"":0.2999999523162842},{""stimulus"":""run_exp/static/images/task_images/land.jpg"",""time"":923.6000000238419},{""stimulus"":""run_exp/static/images/task_images/dig.jpg"",""time"":1834.2999999523163}]",[],3,,,,,,,,,,,,,,
harvest,93,431491,0.0-31.0-1.0,,null,run_exp/static/images/task_images/gems/28.jpg,null,,,,,,15,,,3,,,,,28,0.526521673,0.535714286,,,,,,,
decision,94,431560,0.0-31.0-2.0,,66.70000005,run_exp/static/images/task_images/land.jpg,65,,,,,,15,,,3,,,,,,,,69807,1,2,FALSE,,,
dig,95,434512,0.0-32.0-0.0,,,,,,,,,,,"[{""stimulus"":""run_exp/static/images/task_images/dig.jpg"",""time"":0.30000007152557373},{""stimulus"":""run_exp/static/images/task_images/land.jpg"",""time"":993.8000000715256},{""stimulus"":""run_exp/static/images/task_images/dig.jpg"",""time"":1966}]",[],3,,,,,,,,,,,,,,
harvest,96,435514,0.0-32.0-1.0,,null,run_exp/static/images/task_images/gems/15.jpg,null,,,,,,9,,,3,,,,,15,0.578206817,0.6,,,,,,,
decision,97,435544,0.0-32.0-2.0,,28.70000005,run_exp/static/images/task_images/land.jpg,76,,,,,,9,,,3,,,,,,,,73791,1,3,TRUE,,,
travel,98,445518,0.0-33.0-0.0,,,,,,,,,,,"[{""stimulus"":""run_exp/static/images/task_images/rocket-01.jpg"",""time"":0.19999992847442627},{""stimulus"":""run_exp/static/images/task_images/rocket-02.jpg"",""time"":1117.8999999761581},{""stimulus"":""run_exp/static/images/task_images/rocket-03.jpg"",""time"":2215.5},{""stimulus"":""run_exp/static/images/task_images/rocket-04.jpg"",""time"":3329},{""stimulus"":""run_exp/static/images/task_images/rocket-05.jpg"",""time"":4443.899999976158},{""stimulus"":""run_exp/static/images/task_images/rocket-06.jpg"",""time"":5536.699999928474},{""stimulus"":""run_exp/static/images/task_images/rocket-07.jpg"",""time"":6646},{""stimulus"":""run_exp/static/images/task_images/rocket-08.jpg"",""time"":7755.899999976158},{""stimulus"":""run_exp/static/images/task_images/rocket-09.jpg"",""time"":8859.199999928474}]",[],3,,,,,,,,,,,,,,
alien_welcome,99,450530,0.0-33.0-1.0,,null,run_exp/static/images/task_images/aliens/old_aliens/planet/alien_planet-50.jpg,null,,,,,,,,,,,,50,"53,43,69,50,21,60,39,26,55,15,54,74,3,13,49,25,12,34,78,72,11,64,65,62,67,66,70,42,44,9,51,2,68,40,19,48,17,79,32,45,28,10,6,18,36,31,37,71",,,,,,,,,,
land,100,451033,0.0-33.0-2.0,,null,run_exp/static/images/task_images/land.jpg,null,,,,,,99,,,4,,,,,,,,,,,,,,
dig,101,453044,0.0-33.0-3.0,,,,,,,,,,,"[{""stimulus"":""run_exp/static/images/task_images/dig.jpg"",""time"":0.20000004768371582},{""stimulus"":""run_exp/static/images/task_images/land.jpg"",""time"":669.5},{""stimulus"":""run_exp/static/images/task_images/dig.jpg"",""time"":1344.4000000953674}]",[],4,,,,,,,,,,,,,,
harvest,102,454047,0.0-33.0-4.0,,null,run_exp/static/images/task_images/gems/99.jpg,null,,,,,,50,,,4,,,,,99,0.505321311,0.505050505,,,,,,,
decision,103,454064,0.0-33.0-5.0,,16.29999995,run_exp/static/images/task_images/land.jpg,65,,,,,,50,,,4,,,,,,,,92311,1,0,FALSE,,,
dig,104,457056,0.0-34.0-0.0,,,,,,,,,,,"[{""stimulus"":""run_exp/static/images/task_images/dig.jpg"",""time"":0.30000007152557373},{""stimulus"":""run_exp/static/images/task_images/land.jpg"",""time"":995.1000000238419},{""stimulus"":""run_exp/static/images/task_images/dig.jpg"",""time"":1998.4000000953674}]",[],4,,,,,,,,,,,,,,
harvest,105,458065,0.0-34.0-1.0,,null,run_exp/static/images/task_images/gems/50.jpg,null,,,,,,26,,,4,,,,,50,0.527268133,0.52,,,,,,,
decision,106,458209,0.0-34.0-2.0,,142.4,run_exp/static/images/task_images/land.jpg,65,,,,,,26,,,4,,,,,,,,96456,1,1,FALSE,,,
dig,107,461082,0.0-35.0-0.0,,,,,,,,,,,"[{""stimulus"":""run_exp/static/images/task_images/dig.jpg"",""time"":0.19999992847442627},{""stimulus"":""run_exp/static/images/task_images/land.jpg"",""time"":954.5},{""stimulus"":""run_exp/static/images/task_images/dig.jpg"",""time"":1913.6000000238419}]",[],4,,,,,,,,,,,,,,
harvest,108,462089,0.0-35.0-1.0,,null,run_exp/static/images/task_images/gems/26.jpg,null,,,,,,13,,,4,,,,,26,0.49466703,0.5,,,,,,,
decision,109,462640,0.0-35.0-2.0,,549.3,run_exp/static/images/task_images/land.jpg,76,,,,,,13,,,4,,,,,,,,100887,1,2,TRUE,,,
travel,110,472100,0.0-36.0-0.0,,,,,,,,,,,"[{""stimulus"":""run_exp/static/images/task_images/rocket-01.jpg"",""time"":0.10000002384185791},{""stimulus"":""run_exp/static/images/task_images/rocket-02.jpg"",""time"":1062.1999999284744},{""stimulus"":""run_exp/static/images/task_images/rocket-03.jpg"",""time"":2113.600000023842},{""stimulus"":""run_exp/static/images/task_images/rocket-04.jpg"",""time"":3163.7999999523163},{""stimulus"":""run_exp/static/images/task_images/rocket-05.jpg"",""time"":4211.100000023842},{""stimulus"":""run_exp/static/images/task_images/rocket-06.jpg"",""time"":5261.399999976158},{""stimulus"":""run_exp/static/images/task_images/rocket-07.jpg"",""time"":6310.5},{""stimulus"":""run_exp/static/images/task_images/rocket-08.jpg"",""time"":7360.299999952316},{""stimulus"":""run_exp/static/images/task_images/rocket-09.jpg"",""time"":8407.600000023842}]",[],4,,,,,,,,,,,,,,
alien_welcome,111,477104,0.0-36.0-1.0,,null,run_exp/static/images/task_images/aliens/old_aliens/planet/alien_planet-21.jpg,null,,,,,,,,,,,,21,"53,43,69,50,21,60,39,26,55,15,54,74,3,13,49,25,12,34,78,72,11,64,65,62,67,66,70,42,44,9,51,2,68,40,19,48,17,79,32,45,28,10,6,18,36,31,37,71",,,,,,,,,,
land,112,477617,0.0-36.0-2.0,,null,run_exp/static/images/task_images/land.jpg,null,,,,,,105,,,5,,,,,,,,,,,,,,
dig,113,479627,0.0-36.0-3.0,,,,,,,,,,,"[{""stimulus"":""run_exp/static/images/task_images/dig.jpg"",""time"":0.30000007152557373},{""stimulus"":""run_exp/static/images/task_images/land.jpg"",""time"":677.1000000238419},{""stimulus"":""run_exp/static/images/task_images/dig.jpg"",""time"":1347.6000000238419}]",[],5,,,,,,,,,,,,,,
harvest,114,480641,0.0-36.0-4.0,,null,run_exp/static/images/task_images/gems/105.jpg,null,,,,,,54,,,5,,,,,105,0.511651233,0.514285714,,,,,,,
decision,115,480671,0.0-36.0-5.0,,28.30000007,run_exp/static/images/task_images/land.jpg,65,,,,,,54,,,5,,,,,,,,118918,1,0,FALSE,,,
dig,116,483656,0.0-37.0-0.0,,,,,,,,,,,"[{""stimulus"":""run_exp/static/images/task_images/dig.jpg"",""time"":0.19999992847442627},{""stimulus"":""run_exp/static/images/task_images/land.jpg"",""time"":1004.5},{""stimulus"":""run_exp/static/images/task_images/dig.jpg"",""time"":1991.1999999284744}]",[],5,,,,,,,,,,,,,,
harvest,117,484663,0.0-37.0-1.0,,null,run_exp/static/images/task_images/gems/54.jpg,null,,,,,,28,,,5,,,,,54,0.523721703,0.518518519,,,,,,,
decision,118,484688,0.0-37.0-2.0,,23.70000005,run_exp/static/images/task_images/land.jpg,65,,,,,,28,,,5,,,,,,,,122935,1,1,FALSE,,,
dig,119,487673,0.0-38.0-0.0,,,,,,,,,,,"[{""stimulus"":""run_exp/static/images/task_images/dig.jpg"",""time"":0.20000004768371582},{""stimulus"":""run_exp/static/images/task_images/land.jpg"",""time"":1006.1000000238419},{""stimulus"":""run_exp/static/images/task_images/dig.jpg"",""time"":1997.3999999761581}]",[],5,,,,,,,,,,,,,,
harvest,120,488677,0.0-38.0-1.0,,null,run_exp/static/images/task_images/gems/28.jpg,null,,,,,,14,,,5,,,,,28,0.497172837,0.5,,,,,,,
decision,121,489640,0.0-38.0-2.0,,961.5,run_exp/static/images/task_images/land.jpg,76,,,,,,14,,,5,,,,,,,,127887,1,2,TRUE,,,
travel,122,498692,0.0-39.0-0.0,,,,,,,,,,,"[{""stimulus"":""run_exp/static/images/task_images/rocket-01.jpg"",""time"":0.10000002384185791},{""stimulus"":""run_exp/static/images/task_images/rocket-02.jpg"",""time"":1005.5},{""stimulus"":""run_exp/static/images/task_images/rocket-03.jpg"",""time"":2021},{""stimulus"":""run_exp/static/images/task_images/rocket-04.jpg"",""time"":3027.399999976158},{""stimulus"":""run_exp/static/images/task_images/rocket-05.jpg"",""time"":4029.5},{""stimulus"":""run_exp/static/images/task_images/rocket-06.jpg"",""time"":5029.699999928474},{""stimulus"":""run_exp/static/images/task_images/rocket-07.jpg"",""time"":6027.299999952316},{""stimulus"":""run_exp/static/images/task_images/rocket-08.jpg"",""time"":7030.899999976158},{""stimulus"":""run_exp/static/images/task_images/rocket-09.jpg"",""time"":8033.299999952316}]",[],5,,,,,,,,,,,,,,
alien_welcome,123,503695,0.0-39.0-1.0,,null,run_exp/static/images/task_images/aliens/old_aliens/planet/alien_planet-60.jpg,null,,,,,,,,,,,,60,"53,43,69,50,21,60,39,26,55,15,54,74,3,13,49,25,12,34,78,72,11,64,65,62,67,66,70,42,44,9,51,2,68,40,19,48,17,79,32,45,28,10,6,18,36,31,37,71",,,,,,,,,,
land,124,504211,0.0-39.0-2.0,,null,run_exp/static/images/task_images/land.jpg,null,,,,,,95,,,6,,,,,,,,,,,,,,
dig,125,506220,0.0-39.0-3.0,,,,,,,,,,,"[{""stimulus"":""run_exp/static/images/task_images/dig.jpg"",""time"":0.20000004768371582},{""stimulus"":""run_exp/static/images/task_images/land.jpg"",""time"":674.3000000715256},{""stimulus"":""run_exp/static/images/task_images/dig.jpg"",""time"":1348.7000000476837}]",[],6,,,,,,,,,,,,,,
harvest,126,507224,0.0-39.0-4.0,,null,run_exp/static/images/task_images/gems/95.jpg,null,,,,,,82,,,6,,,,,95,0.865670746,0.863157895,,,,,,,
decision,127,507304,0.0-39.0-5.0,,79.5,run_exp/static/images/task_images/land.jpg,65,,,,,,82,,,6,,,,,,,,145551,1,0,FALSE,,,
dig,128,510227,0.0-40.0-0.0,,,,,,,,,,,"[{""stimulus"":""run_exp/static/images/task_images/dig.jpg"",""time"":0.10000002384185791},{""stimulus"":""run_exp/static/images/task_images/land.jpg"",""time"":981.2999999523163},{""stimulus"":""run_exp/static/images/task_images/dig.jpg"",""time"":1950.7000000476837}]",[],6,,,,,,,,,,,,,,
harvest,129,511232,0.0-40.0-1.0,,null,run_exp/static/images/task_images/gems/82.jpg,null,,,,,,65,,,6,,,,,82,0.790597553,0.792682927,,,,,,,
decision,130,511831,0.0-40.0-2.0,,598.5,run_exp/static/images/task_images/land.jpg,65,,,,,,65,,,6,,,,,,,,150078,1,1,FALSE,,,
dig,131,514243,0.0-41.0-0.0,,,,,,,,,,,"[{""stimulus"":""run_exp/static/images/task_images/dig.jpg"",""time"":0},{""stimulus"":""run_exp/static/images/task_images/land.jpg"",""time"":805.7000000476837},{""stimulus"":""run_exp/static/images/task_images/dig.jpg"",""time"":1607.3999999761581}]",[],6,,,,,,,,,,,,,,
harvest,132,515257,0.0-41.0-1.0,,null,run_exp/static/images/task_images/gems/65.jpg,null,,,,,,53,,,6,,,,,65,0.817082246,0.815384615,,,,,,,
decision,133,515455,0.0-41.0-2.0,,196.6,run_exp/static/images/task_images/land.jpg,65,,,,,,53,,,6,,,,,,,,153702,1,2,FALSE,,,
dig,134,518272,0.0-42.0-0.0,,,,,,,,,,,"[{""stimulus"":""run_exp/static/images/task_images/dig.jpg"",""time"":0.10000002384185791},{""stimulus"":""run_exp/static/images/task_images/land.jpg"",""time"":945.3000000715256},{""stimulus"":""run_exp/static/images/task_images/dig.jpg"",""time"":1873.1000000238419}]",[],6,,,,,,,,,,,,,,
harvest,135,519278,0.0-42.0-1.0,,null,run_exp/static/images/task_images/gems/53.jpg,null,,,,,,37,,,6,,,,,53,0.688980756,0.698113208,,,,,,,
decision,136,519407,0.0-42.0-2.0,,128.5999999,run_exp/static/images/task_images/land.jpg,65,,,,,,37,,,6,,,,,,,,157654,1,3,FALSE,,,
dig,137,522284,0.0-43.0-0.0,,,,,,,,,,,"[{""stimulus"":""run_exp/static/images/task_images/dig.jpg"",""time"":0},{""stimulus"":""run_exp/static/images/task_images/land.jpg"",""time"":962},{""stimulus"":""run_exp/static/images/task_images/dig.jpg"",""time"":1927}]",[],6,,,,,,,,,,,,,,
harvest,138,523297,0.0-43.0-1.0,,null,run_exp/static/images/task_images/gems/37.jpg,null,,,,,,30,,,6,,,,,37,0.81168054,0.810810811,,,,,,,
decision,139,523369,0.0-43.0-2.0,,71.29999995,run_exp/static/images/task_images/land.jpg,76,,,,,,30,,,6,,,,,,,,161616,1,4,TRUE,,,
travel,140,533305,0.0-44.0-0.0,,,,,,,,,,,"[{""stimulus"":""run_exp/static/images/task_images/rocket-01.jpg"",""time"":0.19999992847442627},{""stimulus"":""run_exp/static/images/task_images/rocket-02.jpg"",""time"":1113.2999999523163},{""stimulus"":""run_exp/static/images/task_images/rocket-03.jpg"",""time"":2208.2999999523163},{""stimulus"":""run_exp/static/images/task_images/rocket-04.jpg"",""time"":3315},{""stimulus"":""run_exp/static/images/task_images/rocket-05.jpg"",""time"":4427},{""stimulus"":""run_exp/static/images/task_images/rocket-06.jpg"",""time"":5529.299999952316},{""stimulus"":""run_exp/static/images/task_images/rocket-07.jpg"",""time"":6627},{""stimulus"":""run_exp/static/images/task_images/rocket-08.jpg"",""time"":7724.899999976158},{""stimulus"":""run_exp/static/images/task_images/rocket-09.jpg"",""time"":8837.699999928474}]",[],6,,,,,,,,,,,,,,
alien_welcome,141,538313,0.0-44.0-1.0,,null,run_exp/static/images/task_images/aliens/old_aliens/planet/alien_planet-39.jpg,null,,,,,,,,,,,,39,"53,43,69,50,21,60,39,26,55,15,54,74,3,13,49,25,12,34,78,72,11,64,65,62,67,66,70,42,44,9,51,2,68,40,19,48,17,79,32,45,28,10,6,18,36,31,37,71",,,,,,,,,,
land,142,538826,0.0-44.0-2.0,,null,run_exp/static/images/task_images/land.jpg,null,,,,,,100,,,7,,,,,,,,,,,,,,
dig,143,540843,0.0-44.0-3.0,,,,,,,,,,,"[{""stimulus"":""run_exp/static/images/task_images/dig.jpg"",""time"":0.19999992847442627},{""stimulus"":""run_exp/static/images/task_images/land.jpg"",""time"":672.1999999284744},{""stimulus"":""run_exp/static/images/task_images/dig.jpg"",""time"":1344}]",[],7,,,,,,,,,,,,,,
harvest,144,541850,0.0-44.0-4.0,,null,run_exp/static/images/task_images/gems/100.jpg,null,,,,,,76,,,7,,,,,100,0.757354586,0.76,,,,,,,
decision,145,542057,0.0-44.0-5.0,,205.1,run_exp/static/images/task_images/land.jpg,65,,,,,,76,,,7,,,,,,,,180304,1,0,FALSE,,,
dig,146,544869,0.0-45.0-0.0,,,,,,,,,,,"[{""stimulus"":""run_exp/static/images/task_images/dig.jpg"",""time"":0.19999992847442627},{""stimulus"":""run_exp/static/images/task_images/land.jpg"",""time"":934.3999999761581},{""stimulus"":""run_exp/static/images/task_images/dig.jpg"",""time"":1873.6000000238419}]",[],7,,,,,,,,,,,,,,
harvest,147,545872,0.0-45.0-1.0,,null,run_exp/static/images/task_images/gems/76.jpg,null,,,,,,59,,,7,,,,,76,0.772129448,0.776315789,,,,,,,
decision,148,546073,0.0-45.0-2.0,,200.1999999,run_exp/static/images/task_images/land.jpg,65,,,,,,59,,,7,,,,,,,,184321,1,1,FALSE,,,
dig,149,548880,0.0-46.0-0.0,,,,,,,,,,,"[{""stimulus"":""run_exp/static/images/task_images/dig.jpg"",""time"":0.09999990463256836},{""stimulus"":""run_exp/static/images/task_images/land.jpg"",""time"":935.3999999761581},{""stimulus"":""run_exp/static/images/task_images/dig.jpg"",""time"":1877.3999999761581}]",[],7,,,,,,,,,,,,,,
harvest,150,549882,0.0-46.0-1.0,,null,run_exp/static/images/task_images/gems/59.jpg,null,,,,,,48,,,7,,,,,59,0.816410906,0.813559322,,,,,,,
decision,151,550490,0.0-46.0-2.0,,606.5,run_exp/static/images/task_images/land.jpg,65,,,,,,48,,,7,,,,,,,,188737,1,2,FALSE,,,
dig,152,552895,0.0-47.0-0.0,,,,,,,,,,,"[{""stimulus"":""run_exp/static/images/task_images/dig.jpg"",""time"":0.19999992847442627},{""stimulus"":""run_exp/static/images/task_images/land.jpg"",""time"":803.3999999761581},{""stimulus"":""run_exp/static/images/task_images/dig.jpg"",""time"":1605.8999999761581}]",[],7,,,,,,,,,,,,,,
harvest,153,553898,0.0-47.0-1.0,,null,run_exp/static/images/task_images/gems/48.jpg,null,,,,,,36,,,7,,,,,48,0.756316986,0.75,,,,,,,
decision,154,554346,0.0-47.0-2.0,,447.4,run_exp/static/images/task_images/land.jpg,76,,,,,,36,,,7,,,,,,,,192594,1,3,TRUE,,,
travel,155,563914,0.0-48.0-0.0,,,,,,,,,,,"[{""stimulus"":""run_exp/static/images/task_images/rocket-01.jpg"",""time"":0.19999992847442627},{""stimulus"":""run_exp/static/images/task_images/rocket-02.jpg"",""time"":1066.6999999284744},{""stimulus"":""run_exp/static/images/task_images/rocket-03.jpg"",""time"":2129.1999999284744},{""stimulus"":""run_exp/static/images/task_images/rocket-04.jpg"",""time"":3192.399999976158},{""stimulus"":""run_exp/static/images/task_images/rocket-05.jpg"",""time"":4258.399999976158},{""stimulus"":""run_exp/static/images/task_images/rocket-06.jpg"",""time"":5307.299999952316},{""stimulus"":""run_exp/static/images/task_images/rocket-07.jpg"",""time"":6370.399999976158},{""stimulus"":""run_exp/static/images/task_images/rocket-08.jpg"",""time"":7433.600000023842},{""stimulus"":""run_exp/static/images/task_images/rocket-09.jpg"",""time"":8491}]",[],7,,,,,,,,,,,,,,
alien_welcome,156,568929,0.0-48.0-1.0,,null,run_exp/static/images/task_images/aliens/old_aliens/planet/alien_planet-26.jpg,null,,,,,,,,,,,,26,"53,43,69,50,21,60,39,26,55,15,54,74,3,13,49,25,12,34,78,72,11,64,65,62,67,66,70,42,44,9,51,2,68,40,19,48,17,79,32,45,28,10,6,18,36,31,37,71",,,,,,,,,,
land,157,569433,0.0-48.0-2.0,,null,run_exp/static/images/task_images/land.jpg,null,,,,,,108,,,8,,,,,,,,,,,,,,
dig,158,571444,0.0-48.0-3.0,,,,,,,,,,,"[{""stimulus"":""run_exp/static/images/task_images/dig.jpg"",""time"":0.30000007152557373},{""stimulus"":""run_exp/static/images/task_images/land.jpg"",""time"":674.9000000953674},{""stimulus"":""run_exp/static/images/task_images/dig.jpg"",""time"":1336.1000000238419}]",[],8,,,,,,,,,,,,,,
harvest,159,572455,0.0-48.0-4.0,,null,run_exp/static/images/task_images/gems/108.jpg,null,,,,,,84,,,8,,,,,108,0.778645256,0.777777778,,,,,,,
decision,160,572721,0.0-48.0-5.0,,265,run_exp/static/images/task_images/land.jpg,65,,,,,,84,,,8,,,,,,,,210968,1,0,FALSE,,,
dig,161,575459,0.0-49.0-0.0,,,,,,,,,,,"[{""stimulus"":""run_exp/static/images/task_images/dig.jpg"",""time"":0.10000002384185791},{""stimulus"":""run_exp/static/images/task_images/land.jpg"",""time"":922},{""stimulus"":""run_exp/static/images/task_images/dig.jpg"",""time"":1827.7999999523163}]",[],8,,,,,,,,,,,,,,
harvest,162,576475,0.0-49.0-1.0,,null,run_exp/static/images/task_images/gems/84.jpg,null,,,,,,67,,,8,,,,,84,0.793228076,0.797619048,,,,,,,
decision,163,576570,0.0-49.0-2.0,,93.10000002,run_exp/static/images/task_images/land.jpg,65,,,,,,67,,,8,,,,,,,,214817,1,1,FALSE,,,
dig,164,579481,0.0-50.0-0.0,,,,,,,,,,,"[{""stimulus"":""run_exp/static/images/task_images/dig.jpg"",""time"":0.10000002384185791},{""stimulus"":""run_exp/static/images/task_images/land.jpg"",""time"":982},{""stimulus"":""run_exp/static/images/task_images/dig.jpg"",""time"":1948.2999999523163}]",[],8,,,,,,,,,,,,,,
harvest,165,580488,0.0-50.0-1.0,,null,run_exp/static/images/task_images/gems/67.jpg,null,,,,,,57,,,8,,,,,67,0.843998827,0.850746269,,,,,,,
decision,166,580512,0.0-50.0-2.0,,23.5,run_exp/static/images/task_images/land.jpg,65,,,,,,57,,,8,,,,,,,,218759,1,2,FALSE,,,
dig,167,583506,0.0-51.0-0.0,,,,,,,,,,,"[{""stimulus"":""run_exp/static/images/task_images/dig.jpg"",""time"":0.19999992847442627},{""stimulus"":""run_exp/static/images/task_images/land.jpg"",""time"":1000.5},{""stimulus"":""run_exp/static/images/task_images/dig.jpg"",""time"":1986.6999999284744}]",[],8,,,,,,,,,,,,,,
harvest,168,584507,0.0-51.0-1.0,,null,run_exp/static/images/task_images/gems/57.jpg,null,,,,,,44,,,8,,,,,57,0.768948521,0.771929825,,,,,,,
decision,169,585249,0.0-51.0-2.0,,740.4,run_exp/static/images/task_images/land.jpg,76,,,,,,44,,,8,,,,,,,,223496,1,3,TRUE,,,
travel,170,594537,0.0-52.0-0.0,,,,,,,,,,,"[{""stimulus"":""run_exp/static/images/task_images/rocket-01.jpg"",""time"":0.30000007152557373},{""stimulus"":""run_exp/static/images/task_images/rocket-02.jpg"",""time"":1034.1000000238419},{""stimulus"":""run_exp/static/images/task_images/rocket-03.jpg"",""time"":2058},{""stimulus"":""run_exp/static/images/task_images/rocket-04.jpg"",""time"":3091},{""stimulus"":""run_exp/static/images/task_images/rocket-05.jpg"",""time"":4124.899999976158},{""stimulus"":""run_exp/static/images/task_images/rocket-06.jpg"",""time"":5144.399999976158},{""stimulus"":""run_exp/static/images/task_images/rocket-07.jpg"",""time"":6181.399999976158},{""stimulus"":""run_exp/static/images/task_images/rocket-08.jpg"",""time"":7198.899999976158},{""stimulus"":""run_exp/static/images/task_images/rocket-09.jpg"",""time"":8232.899999976158}]",[],8,,,,,,,,,,,,,,
alien_welcome,171,599543,0.0-52.0-1.0,,null,run_exp/static/images/task_images/aliens/old_aliens/planet/alien_planet-55.jpg,null,,,,,,,,,,,,55,"53,43,69,50,21,60,39,26,55,15,54,74,3,13,49,25,12,34,78,72,11,64,65,62,67,66,70,42,44,9,51,2,68,40,19,48,17,79,32,45,28,10,6,18,36,31,37,71",,,,,,,,,,
land,172,600045,0.0-52.0-2.0,,null,run_exp/static/images/task_images/land.jpg,null,,,,,,106,,,9,,,,,,,,,,,,,,
dig,173,602062,0.0-52.0-3.0,,,,,,,,,,,"[{""stimulus"":""run_exp/static/images/task_images/dig.jpg"",""time"":0.30000007152557373},{""stimulus"":""run_exp/static/images/task_images/land.jpg"",""time"":670.7000000476837},{""stimulus"":""run_exp/static/images/task_images/dig.jpg"",""time"":1343.1000000238419}]",[],9,,,,,,,,,,,,,,
harvest,174,603065,0.0-52.0-4.0,,null,run_exp/static/images/task_images/gems/106.jpg,null,,,,,,14,,,9,,,,,106,0.136434986,0.132075472,,,,,,,
decision,175,603201,0.0-52.0-5.0,,135.4,run_exp/static/images/task_images/land.jpg,65,,,,,,14,,,9,,,,,,,,241448,1,0,FALSE,,,
dig,176,606070,0.0-53.0-0.0,,,,,,,,,,,"[{""stimulus"":""run_exp/static/images/task_images/dig.jpg"",""time"":0.30000007152557373},{""stimulus"":""run_exp/static/images/task_images/land.jpg"",""time"":956.5},{""stimulus"":""run_exp/static/images/task_images/dig.jpg"",""time"":1915.2000000476837}]",[],9,,,,,,,,,,,,,,
harvest,177,607079,0.0-53.0-1.0,,null,run_exp/static/images/task_images/gems/14.jpg,null,,,,,,4,,,9,,,,,14,0.263496232,0.285714286,,,,,,,
decision,178,607535,0.0-53.0-2.0,,455,run_exp/static/images/task_images/land.jpg,76,,,,,,4,,,9,,,,,,,,245782,1,1,TRUE,,,
travel,179,617084,0.0-54.0-0.0,,,,,,,,,,,"[{""stimulus"":""run_exp/static/images/task_images/rocket-01.jpg"",""time"":0.09999990463256836},{""stimulus"":""run_exp/static/images/task_images/rocket-02.jpg"",""time"":1072.1999999284744},{""stimulus"":""run_exp/static/images/task_images/rocket-03.jpg"",""time"":2132.0999999046326},{""stimulus"":""run_exp/static/images/task_images/rocket-04.jpg"",""time"":3190.899999976158},{""stimulus"":""run_exp/static/images/task_images/rocket-05.jpg"",""time"":4254.299999952316},{""stimulus"":""run_exp/static/images/task_images/rocket-06.jpg"",""time"":5305.399999976158},{""stimulus"":""run_exp/static/images/task_images/rocket-07.jpg"",""time"":6374.399999976158},{""stimulus"":""run_exp/static/images/task_images/rocket-08.jpg"",""time"":7426.5},{""stimulus"":""run_exp/static/images/task_images/rocket-09.jpg"",""time"":8481.5}]",[],9,,,,,,,,,,,,,,
alien_welcome,180,622094,0.0-54.0-1.0,,null,run_exp/static/images/task_images/aliens/old_aliens/planet/alien_planet-15.jpg,null,,,,,,,,,,,,15,"53,43,69,50,21,60,39,26,55,15,54,74,3,13,49,25,12,34,78,72,11,64,65,62,67,66,70,42,44,9,51,2,68,40,19,48,17,79,32,45,28,10,6,18,36,31,37,71",,,,,,,,,,
land,181,622600,0.0-54.0-2.0,,null,run_exp/static/images/task_images/land.jpg,null,,,,,,97,,,10,,,,,,,,,,,,,,
dig,182,624611,0.0-54.0-3.0,,,,,,,,,,,"[{""stimulus"":""run_exp/static/images/task_images/dig.jpg"",""time"":0.20000004768371582},{""stimulus"":""run_exp/static/images/task_images/land.jpg"",""time"":672.7999999523163},{""stimulus"":""run_exp/static/images/task_images/dig.jpg"",""time"":1336.3999999761581}]",[],10,,,,,,,,,,,,,,
harvest,183,625616,0.0-54.0-4.0,,null,run_exp/static/images/task_images/gems/97.jpg,null,,,,,,18,,,10,,,,,97,0.188003366,0.18556701,,,,,,,
decision,184,625855,0.0-54.0-5.0,,237.4,run_exp/static/images/task_images/land.jpg,65,,,,,,18,,,10,,,,,,,,264102,1,0,FALSE,,,
dig,185,628626,0.0-55.0-0.0,,,,,,,,,,,"[{""stimulus"":""run_exp/static/images/task_images/dig.jpg"",""time"":0.10000002384185791},{""stimulus"":""run_exp/static/images/task_images/land.jpg"",""time"":926.6999999284744},{""stimulus"":""run_exp/static/images/task_images/dig.jpg"",""time"":1856.6000000238419}]",[],10,,,,,,,,,,,,,,
harvest,186,629636,0.0-55.0-1.0,,null,run_exp/static/images/task_images/gems/18.jpg,null,,,,,,4,,,10,,,,,18,0.199491338,0.222222222,,,,,,,
decision,187,630023,0.0-55.0-2.0,,385.8000001,run_exp/static/images/task_images/land.jpg,76,,,,,,4,,,10,,,,,,,,268270,1,1,TRUE,,,
travel,188,639654,0.0-56.0-0.0,,,,,,,,,,,"[{""stimulus"":""run_exp/static/images/task_images/rocket-01.jpg"",""time"":0.10000002384185791},{""stimulus"":""run_exp/static/images/task_images/rocket-02.jpg"",""time"":1079},{""stimulus"":""run_exp/static/images/task_images/rocket-03.jpg"",""time"":2143.5},{""stimulus"":""run_exp/static/images/task_images/rocket-04.jpg"",""time"":3208.5},{""stimulus"":""run_exp/static/images/task_images/rocket-05.jpg"",""time"":4274.100000023842},{""stimulus"":""run_exp/static/images/task_images/rocket-06.jpg"",""time"":5352.200000047684},{""stimulus"":""run_exp/static/images/task_images/rocket-07.jpg"",""time"":6412.600000023842},{""stimulus"":""run_exp/static/images/task_images/rocket-08.jpg"",""time"":7479.200000047684},{""stimulus"":""run_exp/static/images/task_images/rocket-09.jpg"",""time"":8547.600000023842}]",[],10,,,,,,,,,,,,,,
alien_welcome,189,644657,0.0-56.0-1.0,,null,run_exp/static/images/task_images/aliens/old_aliens/planet/alien_planet-54.jpg,null,,,,,,,,,,,,54,"53,43,69,50,21,60,39,26,55,15,54,74,3,13,49,25,12,34,78,72,11,64,65,62,67,66,70,42,44,9,51,2,68,40,19,48,17,79,32,45,28,10,6,18,36,31,37,71",,,,,,,,,,
land,190,645173,0.0-56.0-2.0,,null,run_exp/static/images/task_images/land.jpg,null,,,,,,98,,,11,,,,,,,,,,,,,,
dig,191,647199,0.0-56.0-3.0,,,,,,,,,,,"[{""stimulus"":""run_exp/static/images/task_images/dig.jpg"",""time"":0.19999992847442627},{""stimulus"":""run_exp/static/images/task_images/land.jpg"",""time"":674},{""stimulus"":""run_exp/static/images/task_images/dig.jpg"",""time"":1336.5999999046326}]",[],11,,,,,,,,,,,,,,
harvest,192,648205,0.0-56.0-4.0,,null,run_exp/static/images/task_images/gems/98.jpg,null,,,,,,13,,,11,,,,,98,0.130656822,0.132653061,,,,,,,
decision,193,648613,0.0-56.0-5.0,,406.6,run_exp/static/images/task_images/land.jpg,65,,,,,,13,,,11,,,,,,,,286860,1,0,FALSE,,,
dig,194,651209,0.0-57.0-0.0,,,,,,,,,,,"[{""stimulus"":""run_exp/static/images/task_images/dig.jpg"",""time"":0.20000004768371582},{""stimulus"":""run_exp/static/images/task_images/land.jpg"",""time"":868.6000000238419},{""stimulus"":""run_exp/static/images/task_images/dig.jpg"",""time"":1731.5}]",[],11,,,,,,,,,,,,,,
harvest,195,652214,0.0-57.0-1.0,,null,run_exp/static/images/task_images/gems/13.jpg,null,,,,,,2,,,11,,,,,13,0.16656093,0.153846154,,,,,,,
decision,196,652950,0.0-57.0-2.0,,735,run_exp/static/images/task_images/land.jpg,76,,,,,,2,,,11,,,,,,,,291197,1,1,TRUE,,,
travel,197,662223,0.0-58.0-0.0,,,,,,,,,,,"[{""stimulus"":""run_exp/static/images/task_images/rocket-01.jpg"",""time"":0.2999999523162842},{""stimulus"":""run_exp/static/images/task_images/rocket-02.jpg"",""time"":1044.8999999761581},{""stimulus"":""run_exp/static/images/task_images/rocket-03.jpg"",""time"":2070.600000023842},{""stimulus"":""run_exp/static/images/task_images/rocket-04.jpg"",""time"":3096.100000023842},{""stimulus"":""run_exp/static/images/task_images/rocket-05.jpg"",""time"":4126.700000047684},{""stimulus"":""run_exp/static/images/task_images/rocket-06.jpg"",""time"":5155.799999952316},{""stimulus"":""run_exp/static/images/task_images/rocket-07.jpg"",""time"":6187.899999976158},{""stimulus"":""run_exp/static/images/task_images/rocket-08.jpg"",""time"":7217},{""stimulus"":""run_exp/static/images/task_images/rocket-09.jpg"",""time"":8245.5}]",[],11,,,,,,,,,,,,,,
alien_welcome,198,667228,0.0-58.0-1.0,,null,run_exp/static/images/task_images/aliens/old_aliens/planet/alien_planet-74.jpg,null,,,,,,,,,,,,74,"53,43,69,50,21,60,39,26,55,15,54,74,3,13,49,25,12,34,78,72,11,64,65,62,67,66,70,42,44,9,51,2,68,40,19,48,17,79,32,45,28,10,6,18,36,31,37,71",,,,,,,,,,
land,199,667743,0.0-58.0-2.0,,null,run_exp/static/images/task_images/land.jpg,null,,,,,,98,,,12,,,,,,,,,,,,,,
dig,200,669760,0.0-58.0-3.0,,,,,,,,,,,"[{""stimulus"":""run_exp/static/images/task_images/dig.jpg"",""time"":0.3999999761581421},{""stimulus"":""run_exp/static/images/task_images/land.jpg"",""time"":669.1999999284744},{""stimulus"":""run_exp/static/images/task_images/dig.jpg"",""time"":1342.6999999284744}]",[],12,,,,,,,,,,,,,,
harvest,201,670763,0.0-58.0-4.0,,null,run_exp/static/images/task_images/gems/98.jpg,null,,,,,,18,,,12,,,,,98,0.186831715,0.183673469,,,,,,,
decision,202,670782,0.0-58.0-5.0,,17.80000007,run_exp/static/images/task_images/land.jpg,65,,,,,,18,,,12,,,,,,,,309029,1,0,TRUE,,,
end_of_block_continue,203,679630,0.0-59.0-0.0,,null,run_exp/static/audio/clip_32_block_end.m4a,,,,,,null,,,,,,,,,,,,,,,,,,
alien_welcome,204,684648,0.0-60.0-0.0,,null,run_exp/static/images/task_images/aliens/old_aliens/planet/alien_planet-3.jpg,null,,,,,,,,,,,,3,"53,43,69,50,21,60,39,26,55,15,54,74,3,13,49,25,12,34,78,72,11,64,65,62,67,66,70,42,44,9,51,2,68,40,19,48,17,79,32,45,28,10,6,18,36,31,37,71",,,,,,,,,,
land,205,685152,0.0-60.0-1.0,,null,run_exp/static/images/task_images/land.jpg,null,,,,,,98,,,13,,,,,,,,,,,,,,
dig,206,687164,0.0-60.0-2.0,,,,,,,,,,,"[{""stimulus"":""run_exp/static/images/task_images/dig.jpg"",""time"":0.30000007152557373},{""stimulus"":""run_exp/static/images/task_images/land.jpg"",""time"":673.2000000476837},{""stimulus"":""run_exp/static/images/task_images/dig.jpg"",""time"":1346.9000000953674}]",[],13,,,,,,,,,,,,,,
harvest,207,688171,0.0-60.0-3.0,,null,run_exp/static/images/task_images/gems/98.jpg,null,,,,,,20,,,13,,,,,98,0.204291783,0.204081633,,,,,,,
decision,208,688269,0.0-60.0-4.0,,96.39999998,run_exp/static/images/task_images/land.jpg,65,,,,,,20,,,13,,,,,,,,8635,2,0,FALSE,,,
dig,209,691184,0.0-61.0-0.0,,,,,,,,,,,"[{""stimulus"":""run_exp/static/images/task_images/dig.jpg"",""time"":0.20000004768371582},{""stimulus"":""run_exp/static/images/task_images/land.jpg"",""time"":977.8000000715256},{""stimulus"":""run_exp/static/images/task_images/dig.jpg"",""time"":1938.8000000715256}]",[],13,,,,,,,,,,,,,,
harvest,210,692189,0.0-61.0-1.0,,null,run_exp/static/images/task_images/gems/20.jpg,null,,,,,,3,,,13,,,,,20,0.17461794,0.15,,,,,,,
decision,211,695194,0.0-61.0-2.0,,null,run_exp/static/images/task_images/land.jpg,null,,,,,,3,,,13,,,,,,,,15560,2,1,FALSE,,,
time_out,212,697210,0.0-62.0-0.0,,null,run_exp/static/images/task_images/time_out.jpg,null,,,,,,3,,,,,,,,,,,,,,,,,
decision,213,697678,0.0-62.0-1.0,,466.2,run_exp/static/images/task_images/land.jpg,76,,,,,,3,,,13,,,,,,,,18044,2,1,TRUE,,,
travel,214,707237,0.0-63.0-0.0,,,,,,,,,,,"[{""stimulus"":""run_exp/static/images/task_images/rocket-01.jpg"",""time"":0.30000007152557373},{""stimulus"":""run_exp/static/images/task_images/rocket-02.jpg"",""time"":1067.8000000715256},{""stimulus"":""run_exp/static/images/task_images/rocket-03.jpg"",""time"":2133.899999976158},{""stimulus"":""run_exp/static/images/task_images/rocket-04.jpg"",""time"":3184.8000000715256},{""stimulus"":""run_exp/static/images/task_images/rocket-05.jpg"",""time"":4237.300000071526},{""stimulus"":""run_exp/static/images/task_images/rocket-06.jpg"",""time"":5297.399999976158},{""stimulus"":""run_exp/static/images/task_images/rocket-07.jpg"",""time"":6361.100000023842},{""stimulus"":""run_exp/static/images/task_images/rocket-08.jpg"",""time"":7428.899999976158},{""stimulus"":""run_exp/static/images/task_images/rocket-09.jpg"",""time"":8480.700000047684}]",[],13,,,,,,,,,,,,,,
alien_welcome,215,712254,0.0-63.0-1.0,,null,run_exp/static/images/task_images/aliens/old_aliens/planet/alien_planet-13.jpg,null,,,,,,,,,,,,13,"53,43,69,50,21,60,39,26,55,15,54,74,3,13,49,25,12,34,78,72,11,64,65,62,67,66,70,42,44,9,51,2,68,40,19,48,17,79,32,45,28,10,6,18,36,31,37,71",,,,,,,,,,
land,216,712769,0.0-63.0-2.0,,null,run_exp/static/images/task_images/land.jpg,null,,,,,,102,,,14,,,,,,,,,,,,,,
dig,217,714775,0.0-63.0-3.0,,,,,,,,,,,"[{""stimulus"":""run_exp/static/images/task_images/dig.jpg"",""time"":0.30000007152557373},{""stimulus"":""run_exp/static/images/task_images/land.jpg"",""time"":670.1000000238419},{""stimulus"":""run_exp/static/images/task_images/dig.jpg"",""time"":1342.2000000476837}]",[],14,,,,,,,,,,,,,,
harvest,218,715782,0.0-63.0-4.0,,null,run_exp/static/images/task_images/gems/102.jpg,null,,,,,,9,,,14,,,,,102,0.083836154,0.088235294,,,,,,,
decision,219,715843,0.0-63.0-5.0,,59.70000005,run_exp/static/images/task_images/land.jpg,65,,,,,,9,,,14,,,,,,,,36209,2,0,FALSE,,,
dig,220,718791,0.0-64.0-0.0,,,,,,,,,,,"[{""stimulus"":""run_exp/static/images/task_images/dig.jpg"",""time"":0.19999992847442627},{""stimulus"":""run_exp/static/images/task_images/land.jpg"",""time"":987.6000000238419},{""stimulus"":""run_exp/static/images/task_images/dig.jpg"",""time"":1975.5}]",[],14,,,,,,,,,,,,,,
harvest,221,719799,0.0-64.0-1.0,,null,run_exp/static/images/task_images/gems/9.jpg,null,,,,,,2,,,14,,,,,9,0.186954006,0.222222222,,,,,,,
decision,222,720083,0.0-64.0-2.0,,283.5,run_exp/static/images/task_images/land.jpg,76,,,,,,2,,,14,,,,,,,,40449,2,1,TRUE,,,
travel,223,729808,0.0-65.0-0.0,,,,,,,,,,,"[{""stimulus"":""run_exp/static/images/task_images/rocket-01.jpg"",""time"":0.20000004768371582},{""stimulus"":""run_exp/static/images/task_images/rocket-02.jpg"",""time"":1094.1000000238419},{""stimulus"":""run_exp/static/images/task_images/rocket-03.jpg"",""time"":2175.2000000476837},{""stimulus"":""run_exp/static/images/task_images/rocket-04.jpg"",""time"":3245.7000000476837},{""stimulus"":""run_exp/static/images/task_images/rocket-05.jpg"",""time"":4326.900000095367},{""stimulus"":""run_exp/static/images/task_images/rocket-06.jpg"",""time"":5404.100000023842},{""stimulus"":""run_exp/static/images/task_images/rocket-07.jpg"",""time"":6475.800000071526},{""stimulus"":""run_exp/static/images/task_images/rocket-08.jpg"",""time"":7557.200000047684},{""stimulus"":""run_exp/static/images/task_images/rocket-09.jpg"",""time"":8638}]",[],14,,,,,,,,,,,,,,
alien_welcome,224,734823,0.0-65.0-1.0,,null,run_exp/static/images/task_images/aliens/old_aliens/planet/alien_planet-49.jpg,null,,,,,,,,,,,,49,"53,43,69,50,21,60,39,26,55,15,54,74,3,13,49,25,12,34,78,72,11,64,65,62,67,66,70,42,44,9,51,2,68,40,19,48,17,79,32,45,28,10,6,18,36,31,37,71",,,,,,,,,,
land,225,735327,0.0-65.0-2.0,,null,run_exp/static/images/task_images/land.jpg,null,,,,,,101,,,15,,,,,,,,,,,,,,
dig,226,737338,0.0-65.0-3.0,,,,,,,,,,,"[{""stimulus"":""run_exp/static/images/task_images/dig.jpg"",""time"":0.10000002384185791},{""stimulus"":""run_exp/static/images/task_images/land.jpg"",""time"":670.6000000238419},{""stimulus"":""run_exp/static/images/task_images/dig.jpg"",""time"":1339.6000000238419}]",[],15,,,,,,,,,,,,,,
harvest,227,738341,0.0-65.0-4.0,,null,run_exp/static/images/task_images/gems/101.jpg,null,,,,,,29,,,15,,,,,101,0.287219915,0.287128713,,,,,,,
decision,228,738347,0.0-65.0-5.0,,4.5,run_exp/static/images/task_images/land.jpg,65,,,,,,29,,,15,,,,,,,,58713,2,0,FALSE,,,
dig,229,741355,0.0-66.0-0.0,,,,,,,,,,,"[{""stimulus"":""run_exp/static/images/task_images/dig.jpg"",""time"":0.2999999523162842},{""stimulus"":""run_exp/static/images/task_images/land.jpg"",""time"":1000.0999999046326},{""stimulus"":""run_exp/static/images/task_images/dig.jpg"",""time"":1999}]",[],15,,,,,,,,,,,,,,
harvest,230,742363,0.0-66.0-1.0,,null,run_exp/static/images/task_images/gems/29.jpg,null,,,,,,6,,,15,,,,,29,0.198978,0.206896552,,,,,,,
decision,231,742428,0.0-66.0-2.0,,64.39999998,run_exp/static/images/task_images/land.jpg,76,,,,,,6,,,15,,,,,,,,62795,2,1,TRUE,,,
travel,232,752367,0.0-67.0-0.0,,,,,,,,,,,"[{""stimulus"":""run_exp/static/images/task_images/rocket-01.jpg"",""time"":0.20000004768371582},{""stimulus"":""run_exp/static/images/task_images/rocket-02.jpg"",""time"":1106.3999999761581},{""stimulus"":""run_exp/static/images/task_images/rocket-03.jpg"",""time"":2215.899999976158},{""stimulus"":""run_exp/static/images/task_images/rocket-04.jpg"",""time"":3310.5},{""stimulus"":""run_exp/static/images/task_images/rocket-05.jpg"",""time"":4424.800000071526},{""stimulus"":""run_exp/static/images/task_images/rocket-06.jpg"",""time"":5522.5},{""stimulus"":""run_exp/static/images/task_images/rocket-07.jpg"",""time"":6621.5},{""stimulus"":""run_exp/static/images/task_images/rocket-08.jpg"",""time"":7732.300000071526},{""stimulus"":""run_exp/static/images/task_images/rocket-09.jpg"",""time"":8834.700000047684}]",[],15,,,,,,,,,,,,,,
alien_welcome,233,757381,0.0-67.0-1.0,,null,run_exp/static/images/task_images/aliens/old_aliens/planet/alien_planet-25.jpg,null,,,,,,,,,,,,25,"53,43,69,50,21,60,39,26,55,15,54,74,3,13,49,25,12,34,78,72,11,64,65,62,67,66,70,42,44,9,51,2,68,40,19,48,17,79,32,45,28,10,6,18,36,31,37,71",,,,,,,,,,
land,234,757883,0.0-67.0-2.0,,null,run_exp/static/images/task_images/land.jpg,null,,,,,,108,,,16,,,,,,,,,,,,,,
dig,235,759901,0.0-67.0-3.0,,,,,,,,,,,"[{""stimulus"":""run_exp/static/images/task_images/dig.jpg"",""time"":0.19999992847442627},{""stimulus"":""run_exp/static/images/task_images/land.jpg"",""time"":670},{""stimulus"":""run_exp/static/images/task_images/dig.jpg"",""time"":1340.3999999761581}]",[],16,,,,,,,,,,,,,,
harvest,236,760904,0.0-67.0-4.0,,null,run_exp/static/images/task_images/gems/108.jpg,null,,,,,,89,,,16,,,,,108,0.81952092,0.824074074,,,,,,,
decision,237,761091,0.0-67.0-5.0,,186.2,run_exp/static/images/task_images/land.jpg,65,,,,,,89,,,16,,,,,,,,81458,2,0,FALSE,,,
dig,238,763913,0.0-68.0-0.0,,,,,,,,,,,"[{""stimulus"":""run_exp/static/images/task_images/dig.jpg"",""time"":0.20000004768371582},{""stimulus"":""run_exp/static/images/task_images/land.jpg"",""time"":946.9000000953674},{""stimulus"":""run_exp/static/images/task_images/dig.jpg"",""time"":1875.4000000953674}]",[],16,,,,,,,,,,,,,,
harvest,239,764918,0.0-68.0-1.0,,null,run_exp/static/images/task_images/gems/89.jpg,null,,,,,,74,,,16,,,,,89,0.832310711,0.831460674,,,,,,,
decision,240,765484,0.0-68.0-2.0,,564.9,run_exp/static/images/task_images/land.jpg,65,,,,,,74,,,16,,,,,,,,85850,2,1,FALSE,,,
dig,241,767936,0.0-69.0-0.0,,,,,,,,,,,"[{""stimulus"":""run_exp/static/images/task_images/dig.jpg"",""time"":0.20000004768371582},{""stimulus"":""run_exp/static/images/task_images/land.jpg"",""time"":822.7000000476837},{""stimulus"":""run_exp/static/images/task_images/dig.jpg"",""time"":1639.2000000476837}]",[],16,,,,,,,,,,,,,,
harvest,242,768950,0.0-69.0-1.0,,null,run_exp/static/images/task_images/gems/74.jpg,null,,,,,,56,,,16,,,,,74,0.752985327,0.756756757,,,,,,,
decision,243,769178,0.0-69.0-2.0,,225.9,run_exp/static/images/task_images/land.jpg,65,,,,,,56,,,16,,,,,,,,89544,2,2,FALSE,,,
dig,244,771958,0.0-70.0-0.0,,,,,,,,,,,"[{""stimulus"":""run_exp/static/images/task_images/dig.jpg"",""time"":0.20000004768371582},{""stimulus"":""run_exp/static/images/task_images/land.jpg"",""time"":929.5},{""stimulus"":""run_exp/static/images/task_images/dig.jpg"",""time"":1859.7000000476837}]",[],16,,,,,,,,,,,,,,
harvest,245,772972,0.0-70.0-1.0,,null,run_exp/static/images/task_images/gems/56.jpg,null,,,,,,45,,,16,,,,,56,0.800418317,0.803571429,,,,,,,
decision,246,773203,0.0-70.0-2.0,,229.8,run_exp/static/images/task_images/land.jpg,65,,,,,,45,,,16,,,,,,,,93569,2,3,FALSE,,,
dig,247,775981,0.0-71.0-0.0,,,,,,,,,,,"[{""stimulus"":""run_exp/static/images/task_images/dig.jpg"",""time"":0.20000004768371582},{""stimulus"":""run_exp/static/images/task_images/land.jpg"",""time"":929.8000000715256},{""stimulus"":""run_exp/static/images/task_images/dig.jpg"",""time"":1853.2000000476837}]",[],16,,,,,,,,,,,,,,
harvest,248,776985,0.0-71.0-1.0,,null,run_exp/static/images/task_images/gems/45.jpg,null,,,,,,32,,,16,,,,,45,0.707814808,0.711111111,,,,,,,
decision,249,777498,0.0-71.0-2.0,,512,run_exp/static/images/task_images/land.jpg,76,,,,,,32,,,16,,,,,,,,97864,2,4,TRUE,,,
travel,250,786998,0.0-72.0-0.0,,,,,,,,,,,"[{""stimulus"":""run_exp/static/images/task_images/rocket-01.jpg"",""time"":0.3999999761581421},{""stimulus"":""run_exp/static/images/task_images/rocket-02.jpg"",""time"":1063},{""stimulus"":""run_exp/static/images/task_images/rocket-03.jpg"",""time"":2114},{""stimulus"":""run_exp/static/images/task_images/rocket-04.jpg"",""time"":3176.7000000476837},{""stimulus"":""run_exp/static/images/task_images/rocket-05.jpg"",""time"":4221.200000047684},{""stimulus"":""run_exp/static/images/task_images/rocket-06.jpg"",""time"":5272},{""stimulus"":""run_exp/static/images/task_images/rocket-07.jpg"",""time"":6331.800000071526},{""stimulus"":""run_exp/static/images/task_images/rocket-08.jpg"",""time"":7383.200000047684},{""stimulus"":""run_exp/static/images/task_images/rocket-09.jpg"",""time"":8444.5}]",[],16,,,,,,,,,,,,,,
alien_welcome,251,792003,0.0-72.0-1.0,,null,run_exp/static/images/task_images/aliens/old_aliens/planet/alien_planet-12.jpg,null,,,,,,,,,,,,12,"53,43,69,50,21,60,39,26,55,15,54,74,3,13,49,25,12,34,78,72,11,64,65,62,67,66,70,42,44,9,51,2,68,40,19,48,17,79,32,45,28,10,6,18,36,31,37,71",,,,,,,,,,
land,252,792505,0.0-72.0-2.0,,null,run_exp/static/images/task_images/land.jpg,null,,,,,,104,,,17,,,,,,,,,,,,,,
dig,253,794521,0.0-72.0-3.0,,,,,,,,,,,"[{""stimulus"":""run_exp/static/images/task_images/dig.jpg"",""time"":0.19999992847442627},{""stimulus"":""run_exp/static/images/task_images/land.jpg"",""time"":670},{""stimulus"":""run_exp/static/images/task_images/dig.jpg"",""time"":1344.7999999523163}]",[],17,,,,,,,,,,,,,,
harvest,254,795532,0.0-72.0-4.0,,null,run_exp/static/images/task_images/gems/104.jpg,null,,,,,,78,,,17,,,,,104,0.751272702,0.75,,,,,,,
decision,255,795586,0.0-72.0-5.0,,52.60000002,run_exp/static/images/task_images/land.jpg,65,,,,,,78,,,17,,,,,,,,115952,2,0,FALSE,,,
dig,256,798539,0.0-73.0-0.0,,,,,,,,,,,"[{""stimulus"":""run_exp/static/images/task_images/dig.jpg"",""time"":0.19999992847442627},{""stimulus"":""run_exp/static/images/task_images/land.jpg"",""time"":992.6999999284744},{""stimulus"":""run_exp/static/images/task_images/dig.jpg"",""time"":1979.3999999761581}]",[],17,,,,,,,,,,,,,,
harvest,257,799544,0.0-73.0-1.0,,null,run_exp/static/images/task_images/gems/78.jpg,null,,,,,,64,,,17,,,,,78,0.8248066,0.820512821,,,,,,,
decision,258,799586,0.0-73.0-2.0,,41.10000002,run_exp/static/images/task_images/land.jpg,65,,,,,,64,,,17,,,,,,,,119952,2,1,FALSE,,,
dig,259,802555,0.0-74.0-0.0,,,,,,,,,,,"[{""stimulus"":""run_exp/static/images/task_images/dig.jpg"",""time"":0.10000002384185791},{""stimulus"":""run_exp/static/images/task_images/land.jpg"",""time"":991.5},{""stimulus"":""run_exp/static/images/task_images/dig.jpg"",""time"":1979.8999999761581}]",[],17,,,,,,,,,,,,,,
harvest,260,803571,0.0-74.0-1.0,,null,run_exp/static/images/task_images/gems/64.jpg,null,,,,,,53,,,17,,,,,64,0.829581164,0.828125,,,,,,,
decision,261,803817,0.0-74.0-2.0,,245.4,run_exp/static/images/task_images/land.jpg,76,,,,,,53,,,17,,,,,,,,124184,2,2,TRUE,,,
travel,262,813585,0.0-75.0-0.0,,,,,,,,,,,"[{""stimulus"":""run_exp/static/images/task_images/rocket-01.jpg"",""time"":0.19999992847442627},{""stimulus"":""run_exp/static/images/task_images/rocket-02.jpg"",""time"":1093.8999999761581},{""stimulus"":""run_exp/static/images/task_images/rocket-03.jpg"",""time"":2183.5},{""stimulus"":""run_exp/static/images/task_images/rocket-04.jpg"",""time"":3261.100000023842},{""stimulus"":""run_exp/static/images/task_images/rocket-05.jpg"",""time"":4341},{""stimulus"":""run_exp/static/images/task_images/rocket-06.jpg"",""time"":5429.5},{""stimulus"":""run_exp/static/images/task_images/rocket-07.jpg"",""time"":6506.199999928474},{""stimulus"":""run_exp/static/images/task_images/rocket-08.jpg"",""time"":7590.100000023842},{""stimulus"":""run_exp/static/images/task_images/rocket-09.jpg"",""time"":8675.899999976158}]",[],17,,,,,,,,,,,,,,
alien_welcome,263,818596,0.0-75.0-1.0,,null,run_exp/static/images/task_images/aliens/old_aliens/planet/alien_planet-34.jpg,null,,,,,,,,,,,,34,"53,43,69,50,21,60,39,26,55,15,54,74,3,13,49,25,12,34,78,72,11,64,65,62,67,66,70,42,44,9,51,2,68,40,19,48,17,79,32,45,28,10,6,18,36,31,37,71",,,,,,,,,,
land,264,819099,0.0-75.0-2.0,,null,run_exp/static/images/task_images/land.jpg,null,,,,,,95,,,18,,,,,,,,,,,,,,
dig,265,821113,0.0-75.0-3.0,,,,,,,,,,,"[{""stimulus"":""run_exp/static/images/task_images/dig.jpg"",""time"":0.19999992847442627},{""stimulus"":""run_exp/static/images/task_images/land.jpg"",""time"":677.3999999761581},{""stimulus"":""run_exp/static/images/task_images/dig.jpg"",""time"":1339}]",[],18,,,,,,,,,,,,,,
harvest,266,822128,0.0-75.0-4.0,,null,run_exp/static/images/task_images/gems/95.jpg,null,,,,,,84,,,18,,,,,95,0.879876975,0.884210526,,,,,,,
decision,267,822178,0.0-75.0-5.0,,48.60000002,run_exp/static/images/task_images/land.jpg,65,,,,,,84,,,18,,,,,,,,142544,2,0,FALSE,,,
dig,268,825132,0.0-76.0-0.0,,,,,,,,,,,"[{""stimulus"":""run_exp/static/images/task_images/dig.jpg"",""time"":0.19999992847442627},{""stimulus"":""run_exp/static/images/task_images/land.jpg"",""time"":992.8999999761581},{""stimulus"":""run_exp/static/images/task_images/dig.jpg"",""time"":1977}]",[],18,,,,,,,,,,,,,,
harvest,269,826134,0.0-76.0-1.0,,null,run_exp/static/images/task_images/gems/84.jpg,null,,,,,,66,,,18,,,,,84,0.781957716,0.785714286,,,,,,,
decision,270,826354,0.0-76.0-2.0,,217.8000001,run_exp/static/images/task_images/land.jpg,65,,,,,,66,,,18,,,,,,,,146720,2,1,FALSE,,,
dig,271,829160,0.0-77.0-0.0,,,,,,,,,,,"[{""stimulus"":""run_exp/static/images/task_images/dig.jpg"",""time"":0.10000002384185791},{""stimulus"":""run_exp/static/images/task_images/land.jpg"",""time"":938},{""stimulus"":""run_exp/static/images/task_images/dig.jpg"",""time"":1861.3000000715256}]",[],18,,,,,,,,,,,,,,
harvest,272,830170,0.0-77.0-1.0,,null,run_exp/static/images/task_images/gems/66.jpg,null,,,,,,57,,,18,,,,,66,0.863792684,0.863636364,,,,,,,
decision,273,830288,0.0-77.0-2.0,,116,run_exp/static/images/task_images/land.jpg,65,,,,,,57,,,18,,,,,,,,150654,2,2,FALSE,,,
dig,274,833189,0.0-78.0-0.0,,,,,,,,,,,"[{""stimulus"":""run_exp/static/images/task_images/dig.jpg"",""time"":0.20000004768371582},{""stimulus"":""run_exp/static/images/task_images/land.jpg"",""time"":976.3999999761581},{""stimulus"":""run_exp/static/images/task_images/dig.jpg"",""time"":1929.2000000476837}]",[],18,,,,,,,,,,,,,,
harvest,275,834193,0.0-78.0-1.0,,null,run_exp/static/images/task_images/gems/57.jpg,null,,,,,,48,,,18,,,,,57,0.840628536,0.842105263,,,,,,,
decision,276,834519,0.0-78.0-2.0,,325.2,run_exp/static/images/task_images/land.jpg,76,,,,,,48,,,18,,,,,,,,154885,2,3,TRUE,,,
travel,277,844192,0.0-79.0-0.0,,,,,,,,,,,"[{""stimulus"":""run_exp/static/images/task_images/rocket-01.jpg"",""time"":0.20000004768371582},{""stimulus"":""run_exp/static/images/task_images/rocket-02.jpg"",""time"":1082.1000000238419},{""stimulus"":""run_exp/static/images/task_images/rocket-03.jpg"",""time"":2151.600000023842},{""stimulus"":""run_exp/static/images/task_images/rocket-04.jpg"",""time"":3235.7000000476837},{""stimulus"":""run_exp/static/images/task_images/rocket-05.jpg"",""time"":4303.800000071526},{""stimulus"":""run_exp/static/images/task_images/rocket-06.jpg"",""time"":5385.399999976158},{""stimulus"":""run_exp/static/images/task_images/rocket-07.jpg"",""time"":6454.5},{""stimulus"":""run_exp/static/images/task_images/rocket-08.jpg"",""time"":7533.700000047684},{""stimulus"":""run_exp/static/images/task_images/rocket-09.jpg"",""time"":8598}]",[],18,,,,,,,,,,,,,,
alien_welcome,278,849200,0.0-79.0-1.0,,null,run_exp/static/images/task_images/aliens/old_aliens/planet/alien_planet-78.jpg,null,,,,,,,,,,,,78,"53,43,69,50,21,60,39,26,55,15,54,74,3,13,49,25,12,34,78,72,11,64,65,62,67,66,70,42,44,9,51,2,68,40,19,48,17,79,32,45,28,10,6,18,36,31,37,71",,,,,,,,,,
land,279,849715,0.0-79.0-2.0,,null,run_exp/static/images/task_images/land.jpg,null,,,,,,89,,,19,,,,,,,,,,,,,,
dig,280,851724,0.0-79.0-3.0,,,,,,,,,,,"[{""stimulus"":""run_exp/static/images/task_images/dig.jpg"",""time"":0.2999999523162842},{""stimulus"":""run_exp/static/images/task_images/land.jpg"",""time"":672.7999999523163},{""stimulus"":""run_exp/static/images/task_images/dig.jpg"",""time"":1348.0999999046326}]",[],19,,,,,,,,,,,,,,
harvest,281,852728,0.0-79.0-4.0,,null,run_exp/static/images/task_images/gems/89.jpg,null,,,,,,74,,,19,,,,,89,0.831433321,0.831460674,,,,,,,
decision,282,852871,0.0-79.0-5.0,,142.7,run_exp/static/images/task_images/land.jpg,65,,,,,,74,,,19,,,,,,,,173238,2,0,FALSE,,,
dig,283,855746,0.0-80.0-0.0,,,,,,,,,,,"[{""stimulus"":""run_exp/static/images/task_images/dig.jpg"",""time"":0.30000007152557373},{""stimulus"":""run_exp/static/images/task_images/land.jpg"",""time"":962.5},{""stimulus"":""run_exp/static/images/task_images/dig.jpg"",""time"":1920.6000000238419}]",[],19,,,,,,,,,,,,,,
harvest,284,856749,0.0-80.0-1.0,,null,run_exp/static/images/task_images/gems/74.jpg,null,,,,,,60,,,19,,,,,74,0.805795944,0.810810811,,,,,,,
decision,285,856799,0.0-80.0-2.0,,48.60000002,run_exp/static/images/task_images/land.jpg,65,,,,,,60,,,19,,,,,,,,177165,2,1,FALSE,,,
dig,286,859763,0.0-81.0-0.0,,,,,,,,,,,"[{""stimulus"":""run_exp/static/images/task_images/dig.jpg"",""time"":0.20000004768371582},{""stimulus"":""run_exp/static/images/task_images/land.jpg"",""time"":996.8000000715256},{""stimulus"":""run_exp/static/images/task_images/dig.jpg"",""time"":1970.5}]",[],19,,,,,,,,,,,,,,
harvest,287,860772,0.0-81.0-1.0,,null,run_exp/static/images/task_images/gems/60.jpg,null,,,,,,50,,,19,,,,,60,0.839571961,0.833333333,,,,,,,
decision,288,860960,0.0-81.0-2.0,,187.1999999,run_exp/static/images/task_images/land.jpg,76,,,,,,50,,,19,,,,,,,,181326,2,2,TRUE,,,
travel,289,870781,0.0-82.0-0.0,,,,,,,,,,,"[{""stimulus"":""run_exp/static/images/task_images/rocket-01.jpg"",""time"":0.10000002384185791},{""stimulus"":""run_exp/static/images/task_images/rocket-02.jpg"",""time"":1099.1000000238419},{""stimulus"":""run_exp/static/images/task_images/rocket-03.jpg"",""time"":2196},{""stimulus"":""run_exp/static/images/task_images/rocket-04.jpg"",""time"":3272},{""stimulus"":""run_exp/static/images/task_images/rocket-05.jpg"",""time"":4372.100000023842},{""stimulus"":""run_exp/static/images/task_images/rocket-06.jpg"",""time"":5458.5},{""stimulus"":""run_exp/static/images/task_images/rocket-07.jpg"",""time"":6554.400000095367},{""stimulus"":""run_exp/static/images/task_images/rocket-08.jpg"",""time"":7635.400000095367},{""stimulus"":""run_exp/static/images/task_images/rocket-09.jpg"",""time"":8723.800000071526}]",[],19,,,,,,,,,,,,,,
alien_welcome,290,875796,0.0-82.0-1.0,,null,run_exp/static/images/task_images/aliens/old_aliens/planet/alien_planet-72.jpg,null,,,,,,,,,,,,72,"53,43,69,50,21,60,39,26,55,15,54,74,3,13,49,25,12,34,78,72,11,64,65,62,67,66,70,42,44,9,51,2,68,40,19,48,17,79,32,45,28,10,6,18,36,31,37,71",,,,,,,,,,
land,291,876303,0.0-82.0-2.0,,null,run_exp/static/images/task_images/land.jpg,null,,,,,,108,,,20,,,,,,,,,,,,,,
dig,292,878312,0.0-82.0-3.0,,,,,,,,,,,"[{""stimulus"":""run_exp/static/images/task_images/dig.jpg"",""time"":0.2999999523162842},{""stimulus"":""run_exp/static/images/task_images/land.jpg"",""time"":671.5},{""stimulus"":""run_exp/static/images/task_images/dig.jpg"",""time"":1344.6999999284744}]",[],20,,,,,,,,,,,,,,
harvest,293,879316,0.0-82.0-4.0,,null,run_exp/static/images/task_images/gems/108.jpg,null,,,,,,83,,,20,,,,,108,0.764414662,0.768518519,,,,,,,
decision,294,879488,0.0-82.0-5.0,,170.3,run_exp/static/images/task_images/land.jpg,65,,,,,,83,,,20,,,,,,,,199854,2,0,FALSE,,,
dig,295,882327,0.0-83.0-0.0,,,,,,,,,,,"[{""stimulus"":""run_exp/static/images/task_images/dig.jpg"",""time"":0.19999992847442627},{""stimulus"":""run_exp/static/images/task_images/land.jpg"",""time"":946.5},{""stimulus"":""run_exp/static/images/task_images/dig.jpg"",""time"":1900.8999999761581}]",[],20,,,,,,,,,,,,,,
harvest,296,883338,0.0-83.0-1.0,,null,run_exp/static/images/task_images/gems/83.jpg,null,,,,,,69,,,20,,,,,83,0.827971164,0.831325301,,,,,,,
decision,297,883391,0.0-83.0-2.0,,51.89999998,run_exp/static/images/task_images/land.jpg,65,,,,,,69,,,20,,,,,,,,203757,2,1,FALSE,,,
dig,298,886342,0.0-84.0-0.0,,,,,,,,,,,"[{""stimulus"":""run_exp/static/images/task_images/dig.jpg"",""time"":0.19999992847442627},{""stimulus"":""run_exp/static/images/task_images/land.jpg"",""time"":982.8999999761581},{""stimulus"":""run_exp/static/images/task_images/dig.jpg"",""time"":1972.6000000238419}]",[],20,,,,,,,,,,,,,,
harvest,299,887361,0.0-84.0-1.0,,null,run_exp/static/images/task_images/gems/69.jpg,null,,,,,,59,,,20,,,,,69,0.85638274,0.855072464,,,,,,,
decision,300,887413,0.0-84.0-2.0,,49.89999998,run_exp/static/images/task_images/land.jpg,65,,,,,,59,,,20,,,,,,,,207779,2,2,FALSE,,,
dig,301,890382,0.0-85.0-0.0,,,,,,,,,,,"[{""stimulus"":""run_exp/static/images/task_images/dig.jpg"",""time"":0.20000004768371582},{""stimulus"":""run_exp/static/images/task_images/land.jpg"",""time"":995.5},{""stimulus"":""run_exp/static/images/task_images/dig.jpg"",""time"":1970}]",[],20,,,,,,,,,,,,,,
harvest,302,891397,0.0-85.0-1.0,,null,run_exp/static/images/task_images/gems/59.jpg,null,,,,,,41,,,20,,,,,59,0.697498287,0.694915254,,,,,,,
decision,303,891525,0.0-85.0-2.0,,126.3,run_exp/static/images/task_images/land.jpg,76,,,,,,41,,,20,,,,,,,,211891,2,3,TRUE,,,
travel,304,901407,0.0-86.0-0.0,,,,,,,,,,,"[{""stimulus"":""run_exp/static/images/task_images/rocket-01.jpg"",""time"":0.20000004768371582},{""stimulus"":""run_exp/static/images/task_images/rocket-02.jpg"",""time"":1103.8000000715256},{""stimulus"":""run_exp/static/images/task_images/rocket-03.jpg"",""time"":2202.3000000715256},{""stimulus"":""run_exp/static/images/task_images/rocket-04.jpg"",""time"":3306.7000000476837},{""stimulus"":""run_exp/static/images/task_images/rocket-05.jpg"",""time"":4401.700000047684},{""stimulus"":""run_exp/static/images/task_images/rocket-06.jpg"",""time"":5497.399999976158},{""stimulus"":""run_exp/static/images/task_images/rocket-07.jpg"",""time"":6592.300000071526},{""stimulus"":""run_exp/static/images/task_images/rocket-08.jpg"",""time"":7685.200000047684},{""stimulus"":""run_exp/static/images/task_images/rocket-09.jpg"",""time"":8779.5}]",[],20,,,,,,,,,,,,,,
alien_welcome,305,906419,0.0-86.0-1.0,,null,run_exp/static/images/task_images/aliens/old_aliens/planet/alien_planet-11.jpg,null,,,,,,,,,,,,11,"53,43,69,50,21,60,39,26,55,15,54,74,3,13,49,25,12,34,78,72,11,64,65,62,67,66,70,42,44,9,51,2,68,40,19,48,17,79,32,45,28,10,6,18,36,31,37,71",,,,,,,,,,
land,306,906935,0.0-86.0-2.0,,null,run_exp/static/images/task_images/land.jpg,null,,,,,,104,,,21,,,,,,,,,,,,,,
dig,307,908955,0.0-86.0-3.0,,,,,,,,,,,"[{""stimulus"":""run_exp/static/images/task_images/dig.jpg"",""time"":0.19999992847442627},{""stimulus"":""run_exp/static/images/task_images/land.jpg"",""time"":671.5},{""stimulus"":""run_exp/static/images/task_images/dig.jpg"",""time"":1341.1000000238419}]",[],21,,,,,,,,,,,,,,
harvest,308,909965,0.0-86.0-4.0,,null,run_exp/static/images/task_images/gems/104.jpg,null,,,,,,56,,,21,,,,,104,0.533854239,0.538461538,,,,,,,
decision,309,910095,0.0-86.0-5.0,,128.6999999,run_exp/static/images/task_images/land.jpg,65,,,,,,56,,,21,,,,,,,,230461,2,0,FALSE,,,
dig,310,912980,0.0-87.0-0.0,,,,,,,,,,,"[{""stimulus"":""run_exp/static/images/task_images/dig.jpg"",""time"":0.2999999523162842},{""stimulus"":""run_exp/static/images/task_images/land.jpg"",""time"":961.7999999523163},{""stimulus"":""run_exp/static/images/task_images/dig.jpg"",""time"":1922.5999999046326}]",[],21,,,,,,,,,,,,,,
harvest,311,913984,0.0-87.0-1.0,,null,run_exp/static/images/task_images/gems/56.jpg,null,,,,,,30,,,21,,,,,56,0.537294916,0.535714286,,,,,,,
decision,312,914213,0.0-87.0-2.0,,227.9,run_exp/static/images/task_images/land.jpg,76,,,,,,30,,,21,,,,,,,,234579,2,1,TRUE,,,
travel,313,923994,0.0-88.0-0.0,,,,,,,,,,,"[{""stimulus"":""run_exp/static/images/task_images/rocket-01.jpg"",""time"":0.20000004768371582},{""stimulus"":""run_exp/static/images/task_images/rocket-02.jpg"",""time"":1097.8999999761581},{""stimulus"":""run_exp/static/images/task_images/rocket-03.jpg"",""time"":2178.3000000715256},{""stimulus"":""run_exp/static/images/task_images/rocket-04.jpg"",""time"":3262.899999976158},{""stimulus"":""run_exp/static/images/task_images/rocket-05.jpg"",""time"":4341.899999976158},{""stimulus"":""run_exp/static/images/task_images/rocket-06.jpg"",""time"":5437.200000047684},{""stimulus"":""run_exp/static/images/task_images/rocket-07.jpg"",""time"":6514.899999976158},{""stimulus"":""run_exp/static/images/task_images/rocket-08.jpg"",""time"":7611.300000071526},{""stimulus"":""run_exp/static/images/task_images/rocket-09.jpg"",""time"":8694}]",[],21,,,,,,,,,,,,,,
alien_welcome,314,929007,0.0-88.0-1.0,,null,run_exp/static/images/task_images/aliens/old_aliens/planet/alien_planet-64.jpg,null,,,,,,,,,,,,64,"53,43,69,50,21,60,39,26,55,15,54,74,3,13,49,25,12,34,78,72,11,64,65,62,67,66,70,42,44,9,51,2,68,40,19,48,17,79,32,45,28,10,6,18,36,31,37,71",,,,,,,,,,
land,315,929520,0.0-88.0-2.0,,null,run_exp/static/images/task_images/land.jpg,null,,,,,,98,,,22,,,,,,,,,,,,,,
dig,316,931524,0.0-88.0-3.0,,,,,,,,,,,"[{""stimulus"":""run_exp/static/images/task_images/dig.jpg"",""time"":0.30000007152557373},{""stimulus"":""run_exp/static/images/task_images/land.jpg"",""time"":674.1000000238419},{""stimulus"":""run_exp/static/images/task_images/dig.jpg"",""time"":1343.8000000715256}]",[],22,,,,,,,,,,,,,,
harvest,317,932530,0.0-88.0-4.0,,null,run_exp/static/images/task_images/gems/98.jpg,null,,,,,,77,,,22,,,,,98,0.786523585,0.785714286,,,,,,,
decision,318,932645,0.0-88.0-5.0,,113.3,run_exp/static/images/task_images/land.jpg,65,,,,,,77,,,22,,,,,,,,253011,2,0,FALSE,,,
dig,319,935550,0.0-89.0-0.0,,,,,,,,,,,"[{""stimulus"":""run_exp/static/images/task_images/dig.jpg"",""time"":0.10000002384185791},{""stimulus"":""run_exp/static/images/task_images/land.jpg"",""time"":973},{""stimulus"":""run_exp/static/images/task_images/dig.jpg"",""time"":1933.3999999761581}]",[],22,,,,,,,,,,,,,,
harvest,320,936553,0.0-89.0-1.0,,null,run_exp/static/images/task_images/gems/77.jpg,null,,,,,,60,,,22,,,,,77,0.777662468,0.779220779,,,,,,,
decision,321,936733,0.0-89.0-2.0,,179.3,run_exp/static/images/task_images/land.jpg,65,,,,,,60,,,22,,,,,,,,257099,2,1,FALSE,,,
dig,322,939562,0.0-90.0-0.0,,,,,,,,,,,"[{""stimulus"":""run_exp/static/images/task_images/dig.jpg"",""time"":0.10000002384185791},{""stimulus"":""run_exp/static/images/task_images/land.jpg"",""time"":945.1999999284744},{""stimulus"":""run_exp/static/images/task_images/dig.jpg"",""time"":1885.8999999761581}]",[],22,,,,,,,,,,,,,,
harvest,323,940570,0.0-90.0-1.0,,null,run_exp/static/images/task_images/gems/60.jpg,null,,,,,,53,,,22,,,,,60,0.881507424,0.883333333,,,,,,,
decision,324,940749,0.0-90.0-2.0,,177.1,run_exp/static/images/task_images/land.jpg,65,,,,,,53,,,22,,,,,,,,261115,2,2,FALSE,,,
dig,325,943577,0.0-91.0-0.0,,,,,,,,,,,"[{""stimulus"":""run_exp/static/images/task_images/dig.jpg"",""time"":0.2999999523162842},{""stimulus"":""run_exp/static/images/task_images/land.jpg"",""time"":946.3999999761581},{""stimulus"":""run_exp/static/images/task_images/dig.jpg"",""time"":1885}]",[],22,,,,,,,,,,,,,,
harvest,326,944581,0.0-91.0-1.0,,null,run_exp/static/images/task_images/gems/53.jpg,null,,,,,,46,,,22,,,,,53,0.864942566,0.867924528,,,,,,,
decision,327,945085,0.0-91.0-2.0,,501.7,run_exp/static/images/task_images/land.jpg,76,,,,,,46,,,22,,,,,,,,265451,2,3,TRUE,,,
travel,328,954613,0.0-92.0-0.0,,,,,,,,,,,"[{""stimulus"":""run_exp/static/images/task_images/rocket-01.jpg"",""time"":0.19999992847442627},{""stimulus"":""run_exp/static/images/task_images/rocket-02.jpg"",""time"":1057.2999999523163},{""stimulus"":""run_exp/static/images/task_images/rocket-03.jpg"",""time"":2121.5},{""stimulus"":""run_exp/static/images/task_images/rocket-04.jpg"",""time"":3172.6999999284744},{""stimulus"":""run_exp/static/images/task_images/rocket-05.jpg"",""time"":4232.899999976158},{""stimulus"":""run_exp/static/images/task_images/rocket-06.jpg"",""time"":5281.799999952316},{""stimulus"":""run_exp/static/images/task_images/rocket-07.jpg"",""time"":6340.5},{""stimulus"":""run_exp/static/images/task_images/rocket-08.jpg"",""time"":7391.899999976158},{""stimulus"":""run_exp/static/images/task_images/rocket-09.jpg"",""time"":8442.799999952316}]",[],22,,,,,,,,,,,,,,
alien_welcome,329,959622,0.0-92.0-1.0,,null,run_exp/static/images/task_images/aliens/old_aliens/planet/alien_planet-65.jpg,null,,,,,,,,,,,,65,"53,43,69,50,21,60,39,26,55,15,54,74,3,13,49,25,12,34,78,72,11,64,65,62,67,66,70,42,44,9,51,2,68,40,19,48,17,79,32,45,28,10,6,18,36,31,37,71",,,,,,,,,,
land,330,960138,0.0-92.0-2.0,,null,run_exp/static/images/task_images/land.jpg,null,,,,,,109,,,23,,,,,,,,,,,,,,
dig,331,962146,0.0-92.0-3.0,,,,,,,,,,,"[{""stimulus"":""run_exp/static/images/task_images/dig.jpg"",""time"":0.19999992847442627},{""stimulus"":""run_exp/static/images/task_images/land.jpg"",""time"":671.7999999523163},{""stimulus"":""run_exp/static/images/task_images/dig.jpg"",""time"":1349.1999999284744}]",[],23,,,,,,,,,,,,,,
harvest,332,963155,0.0-92.0-4.0,,null,run_exp/static/images/task_images/gems/109.jpg,null,,,,,,83,,,23,,,,,109,0.764322026,0.76146789,,,,,,,
decision,333,963156,0.0-92.0-5.0,,0.100000024,run_exp/static/images/task_images/land.jpg,65,,,,,,83,,,23,,,,,,,,283522,2,0,FALSE,,,
dig,334,966163,0.0-93.0-0.0,,,,,,,,,,,"[{""stimulus"":""run_exp/static/images/task_images/dig.jpg"",""time"":0.09999990463256836},{""stimulus"":""run_exp/static/images/task_images/land.jpg"",""time"":1011},{""stimulus"":""run_exp/static/images/task_images/dig.jpg"",""time"":2012.1999999284744}]",[],23,,,,,,,,,,,,,,
harvest,335,967168,0.0-93.0-1.0,,null,run_exp/static/images/task_images/gems/83.jpg,null,,,,,,69,,,23,,,,,83,0.825940324,0.831325301,,,,,,,
decision,336,967188,0.0-93.0-2.0,,18.79999995,run_exp/static/images/task_images/land.jpg,65,,,,,,69,,,23,,,,,,,,287554,2,1,FALSE,,,
dig,337,970179,0.0-94.0-0.0,,,,,,,,,,,"[{""stimulus"":""run_exp/static/images/task_images/dig.jpg"",""time"":0.09999990463256836},{""stimulus"":""run_exp/static/images/task_images/land.jpg"",""time"":1000.8999999761581},{""stimulus"":""run_exp/static/images/task_images/dig.jpg"",""time"":2001.5}]",[],23,,,,,,,,,,,,,,
harvest,338,971180,0.0-94.0-1.0,,null,run_exp/static/images/task_images/gems/69.jpg,null,,,,,,51,,,23,,,,,69,0.74504569,0.739130435,,,,,,,
decision,339,971379,0.0-94.0-2.0,,197.7,run_exp/static/images/task_images/land.jpg,65,,,,,,51,,,23,,,,,,,,291745,2,2,FALSE,,,
dig,340,974190,0.0-95.0-0.0,,,,,,,,,,,"[{""stimulus"":""run_exp/static/images/task_images/dig.jpg"",""time"":0.10000002384185791},{""stimulus"":""run_exp/static/images/task_images/land.jpg"",""time"":942.7999999523163},{""stimulus"":""run_exp/static/images/task_images/dig.jpg"",""time"":1879.2999999523163}]",[],23,,,,,,,,,,,,,,
harvest,341,975203,0.0-95.0-1.0,,null,run_exp/static/images/task_images/gems/51.jpg,null,,,,,,39,,,23,,,,,51,0.756401016,0.764705882,,,,,,,
decision,342,975379,0.0-95.0-2.0,,174.7,run_exp/static/images/task_images/land.jpg,76,,,,,,39,,,23,,,,,,,,295745,2,3,TRUE,,,
travel,343,985212,0.0-96.0-0.0,,,,,,,,,,,"[{""stimulus"":""run_exp/static/images/task_images/rocket-01.jpg"",""time"":0.20000004768371582},{""stimulus"":""run_exp/static/images/task_images/rocket-02.jpg"",""time"":1099.3999999761581},{""stimulus"":""run_exp/static/images/task_images/rocket-03.jpg"",""time"":2187.2000000476837},{""stimulus"":""run_exp/static/images/task_images/rocket-04.jpg"",""time"":3281.7000000476837},{""stimulus"":""run_exp/static/images/task_images/rocket-05.jpg"",""time"":4368.100000023842},{""stimulus"":""run_exp/static/images/task_images/rocket-06.jpg"",""time"":5466.899999976158},{""stimulus"":""run_exp/static/images/task_images/rocket-07.jpg"",""time"":6556.299999952316},{""stimulus"":""run_exp/static/images/task_images/rocket-08.jpg"",""time"":7646.899999976158},{""stimulus"":""run_exp/static/images/task_images/rocket-09.jpg"",""time"":8730}]",[],23,,,,,,,,,,,,,,
alien_welcome,344,990228,0.0-96.0-1.0,,null,run_exp/static/images/task_images/aliens/old_aliens/planet/alien_planet-62.jpg,null,,,,,,,,,,,,62,"53,43,69,50,21,60,39,26,55,15,54,74,3,13,49,25,12,34,78,72,11,64,65,62,67,66,70,42,44,9,51,2,68,40,19,48,17,79,32,45,28,10,6,18,36,31,37,71",,,,,,,,,,
land,345,990732,0.0-96.0-2.0,,null,run_exp/static/images/task_images/land.jpg,null,,,,,,105,,,24,,,,,,,,,,,,,,
dig,346,992736,0.0-96.0-3.0,,,,,,,,,,,"[{""stimulus"":""run_exp/static/images/task_images/dig.jpg"",""time"":0.20000004768371582},{""stimulus"":""run_exp/static/images/task_images/land.jpg"",""time"":674.6000000238419},{""stimulus"":""run_exp/static/images/task_images/dig.jpg"",""time"":1348.5}]",[],24,,,,,,,,,,,,,,
harvest,347,993747,0.0-96.0-4.0,,null,run_exp/static/images/task_images/gems/105.jpg,null,,,,,,23,,,24,,,,,105,0.223127131,0.219047619,,,,,,,
decision,348,993883,0.0-96.0-5.0,,134.3,run_exp/static/images/task_images/land.jpg,65,,,,,,23,,,24,,,,,,,,314249,2,0,TRUE,,,
end_of_block_continue,349,997644,0.0-97.0-0.0,,3755.5,run_exp/static/audio/clip_32_block_end.m4a,,,,,,0,,,,,,,,,,,,,,,,,,
alien_welcome,350,1002661,0.0-98.0-0.0,,null,run_exp/static/images/task_images/aliens/old_aliens/planet/alien_planet-67.jpg,null,,,,,,,,,,,,67,"53,43,69,50,21,60,39,26,55,15,54,74,3,13,49,25,12,34,78,72,11,64,65,62,67,66,70,42,44,9,51,2,68,40,19,48,17,79,32,45,28,10,6,18,36,31,37,71",,,,,,,,,,
land,351,1003165,0.0-98.0-1.0,,null,run_exp/static/images/task_images/land.jpg,null,,,,,,108,,,25,,,,,,,,,,,,,,
dig,352,1005184,0.0-98.0-2.0,,,,,,,,,,,"[{""stimulus"":""run_exp/static/images/task_images/dig.jpg"",""time"":0.20000004768371582},{""stimulus"":""run_exp/static/images/task_images/land.jpg"",""time"":672.6000000238419},{""stimulus"":""run_exp/static/images/task_images/dig.jpg"",""time"":1345.4000000953674}]",[],25,,,,,,,,,,,,,,
harvest,353,1006188,0.0-98.0-3.0,,null,run_exp/static/images/task_images/gems/108.jpg,null,,,,,,54,,,25,,,,,108,0.497130781,0.5,,,,,,,
decision,354,1006476,0.0-98.0-4.0,,286.5,run_exp/static/images/task_images/land.jpg,65,,,,,,54,,,25,,,,,,,,8830,3,0,FALSE,,,
dig,355,1009212,0.0-99.0-0.0,,,,,,,,,,,"[{""stimulus"":""run_exp/static/images/task_images/dig.jpg"",""time"":0.3999999761581421},{""stimulus"":""run_exp/static/images/task_images/land.jpg"",""time"":909.3999999761581},{""stimulus"":""run_exp/static/images/task_images/dig.jpg"",""time"":1821.7000000476837}]",[],25,,,,,,,,,,,,,,
harvest,356,1010214,0.0-99.0-1.0,,null,run_exp/static/images/task_images/gems/54.jpg,null,,,,,,32,,,25,,,,,54,0.589246199,0.592592593,,,,,,,
decision,357,1010265,0.0-99.0-2.0,,49.70000005,run_exp/static/images/task_images/land.jpg,76,,,,,,32,,,25,,,,,,,,12618,3,1,TRUE,,,
travel,358,1020229,0.0-100.0-0.0,,,,,,,,,,,"[{""stimulus"":""run_exp/static/images/task_images/rocket-01.jpg"",""time"":0.10000002384185791},{""stimulus"":""run_exp/static/images/task_images/rocket-02.jpg"",""time"":1111.7999999523163},{""stimulus"":""run_exp/static/images/task_images/rocket-03.jpg"",""time"":2222.7000000476837},{""stimulus"":""run_exp/static/images/task_images/rocket-04.jpg"",""time"":3331.100000023842},{""stimulus"":""run_exp/static/images/task_images/rocket-05.jpg"",""time"":4422.600000023842},{""stimulus"":""run_exp/static/images/task_images/rocket-06.jpg"",""time"":5534.200000047684},{""stimulus"":""run_exp/static/images/task_images/rocket-07.jpg"",""time"":6640.200000047684},{""stimulus"":""run_exp/static/images/task_images/rocket-08.jpg"",""time"":7738},{""stimulus"":""run_exp/static/images/task_images/rocket-09.jpg"",""time"":8848.799999952316}]",[],25,,,,,,,,,,,,,,
alien_welcome,359,1025243,0.0-100.0-1.0,,null,run_exp/static/images/task_images/aliens/old_aliens/planet/alien_planet-66.jpg,null,,,,,,,,,,,,66,"53,43,69,50,21,60,39,26,55,15,54,74,3,13,49,25,12,34,78,72,11,64,65,62,67,66,70,42,44,9,51,2,68,40,19,48,17,79,32,45,28,10,6,18,36,31,37,71",,,,,,,,,,
land,360,1025749,0.0-100.0-2.0,,null,run_exp/static/images/task_images/land.jpg,null,,,,,,95,,,26,,,,,,,,,,,,,,
dig,361,1027754,0.0-100.0-3.0,,,,,,,,,,,"[{""stimulus"":""run_exp/static/images/task_images/dig.jpg"",""time"":0.30000007152557373},{""stimulus"":""run_exp/static/images/task_images/land.jpg"",""time"":668.8999999761581},{""stimulus"":""run_exp/static/images/task_images/dig.jpg"",""time"":1343.1000000238419}]",[],26,,,,,,,,,,,,,,
harvest,362,1028755,0.0-100.0-4.0,,null,run_exp/static/images/task_images/gems/95.jpg,null,,,,,,72,,,26,,,,,95,0.753464127,0.757894737,,,,,,,
decision,363,1028889,0.0-100.0-5.0,,132.5,run_exp/static/images/task_images/land.jpg,65,,,,,,72,,,26,,,,,,,,31243,3,0,FALSE,,,
dig,364,1031769,0.0-101.0-0.0,,,,,,,,,,,"[{""stimulus"":""run_exp/static/images/task_images/dig.jpg"",""time"":0.10000002384185791},{""stimulus"":""run_exp/static/images/task_images/land.jpg"",""time"":970.2999999523163},{""stimulus"":""run_exp/static/images/task_images/dig.jpg"",""time"":1923.1999999284744}]",[],26,,,,,,,,,,,,,,
harvest,365,1032781,0.0-101.0-1.0,,null,run_exp/static/images/task_images/gems/72.jpg,null,,,,,,56,,,26,,,,,72,0.77931438,0.777777778,,,,,,,
decision,366,1032833,0.0-101.0-2.0,,50.80000007,run_exp/static/images/task_images/land.jpg,65,,,,,,56,,,26,,,,,,,,35186,3,1,FALSE,,,
dig,367,1035796,0.0-102.0-0.0,,,,,,,,,,,"[{""stimulus"":""run_exp/static/images/task_images/dig.jpg"",""time"":0.20000004768371582},{""stimulus"":""run_exp/static/images/task_images/land.jpg"",""time"":997.8000000715256},{""stimulus"":""run_exp/static/images/task_images/dig.jpg"",""time"":1971.8000000715256}]",[],26,,,,,,,,,,,,,,
harvest,368,1036801,0.0-102.0-1.0,,null,run_exp/static/images/task_images/gems/56.jpg,null,,,,,,41,,,26,,,,,56,0.731826213,0.732142857,,,,,,,
decision,369,1036953,0.0-102.0-2.0,,151,run_exp/static/images/task_images/land.jpg,76,,,,,,41,,,26,,,,,,,,39306,3,2,TRUE,,,
travel,370,1046814,0.0-103.0-0.0,,,,,,,,,,,"[{""stimulus"":""run_exp/static/images/task_images/rocket-01.jpg"",""time"":0},{""stimulus"":""run_exp/static/images/task_images/rocket-02.jpg"",""time"":1104.2999999523163},{""stimulus"":""run_exp/static/images/task_images/rocket-03.jpg"",""time"":2198.1999999284744},{""stimulus"":""run_exp/static/images/task_images/rocket-04.jpg"",""time"":3296},{""stimulus"":""run_exp/static/images/task_images/rocket-05.jpg"",""time"":4382.299999952316},{""stimulus"":""run_exp/static/images/task_images/rocket-06.jpg"",""time"":5480.599999904633},{""stimulus"":""run_exp/static/images/task_images/rocket-07.jpg"",""time"":6576.099999904633},{""stimulus"":""run_exp/static/images/task_images/rocket-08.jpg"",""time"":7667.199999928474},{""stimulus"":""run_exp/static/images/task_images/rocket-09.jpg"",""time"":8760.599999904633}]",[],26,,,,,,,,,,,,,,
alien_welcome,371,1051818,0.0-103.0-1.0,,null,run_exp/static/images/task_images/aliens/old_aliens/planet/alien_planet-70.jpg,null,,,,,,,,,,,,70,"53,43,69,50,21,60,39,26,55,15,54,74,3,13,49,25,12,34,78,72,11,64,65,62,67,66,70,42,44,9,51,2,68,40,19,48,17,79,32,45,28,10,6,18,36,31,37,71",,,,,,,,,,
land,372,1052334,0.0-103.0-2.0,,null,run_exp/static/images/task_images/land.jpg,null,,,,,,99,,,27,,,,,,,,,,,,,,
dig,373,1054346,0.0-103.0-3.0,,,,,,,,,,,"[{""stimulus"":""run_exp/static/images/task_images/dig.jpg"",""time"":0.2999999523162842},{""stimulus"":""run_exp/static/images/task_images/land.jpg"",""time"":684},{""stimulus"":""run_exp/static/images/task_images/dig.jpg"",""time"":1340.8999999761581}]",[],27,,,,,,,,,,,,,,
harvest,374,1055348,0.0-103.0-4.0,,null,run_exp/static/images/task_images/gems/99.jpg,null,,,,,,49,,,27,,,,,99,0.490857282,0.494949495,,,,,,,
decision,375,1055626,0.0-103.0-5.0,,276.5999999,run_exp/static/images/task_images/land.jpg,65,,,,,,49,,,27,,,,,,,,57980,3,0,FALSE,,,
dig,376,1058369,0.0-104.0-0.0,,,,,,,,,,,"[{""stimulus"":""run_exp/static/images/task_images/dig.jpg"",""time"":0.2999999523162842},{""stimulus"":""run_exp/static/images/task_images/land.jpg"",""time"":923.0999999046326},{""stimulus"":""run_exp/static/images/task_images/dig.jpg"",""time"":1817.3999999761581}]",[],27,,,,,,,,,,,,,,
harvest,377,1059375,0.0-104.0-1.0,,null,run_exp/static/images/task_images/gems/49.jpg,null,,,,,,20,,,27,,,,,49,0.403259815,0.408163265,,,,,,,
decision,378,1059409,0.0-104.0-2.0,,32.20000005,run_exp/static/images/task_images/land.jpg,76,,,,,,20,,,27,,,,,,,,61762,3,1,TRUE,,,
