trial_type,trial_index,time_elapsed,internal_node_id,interactions,blur_events,focus_events,fullscreenenter_events,fullscreenexit_events,success,rt,stimulus,key_press,prompt,subject_id,participant_id,age,gender,button_pressed,next_reward,animation_sequence,responses,planet,curr_prac_trial,n_prac_rounds,alien,aliens,reward_received,decay_rate_actual,decay_rate_exp,time_in_block,block_num,prt,last_trial_on_planet,button_html,bonus,num_failures
pavlovia,0,3,0.0-0.0,"""event"",""trial"",""time""
""fullscreenenter"",""1"",""3308""
","
","
","""event"",""trial"",""time""
""fullscreenenter"",""1"",""3308""
","
",,,,,,,,,,,,,,,,,,,,,,,,,,,,
fullscreen,1,4269,0.0-1.0,"""event"",""trial"",""time""
""fullscreenenter"",""1"",""3308""
","
","
","""event"",""trial"",""time""
""fullscreenenter"",""1"",""3308""
","
",TRUE,,,,,,,,,,,,,,,,,,,,,,,,,,,
instruc_welcome,2,14222,0.0-2.0,"""event"",""trial"",""time""
""fullscreenenter"",""1"",""3308""
","
","
","""event"",""trial"",""time""
""fullscreenenter"",""1"",""3308""
","
",,null,run_exp/static/audio/clip_1_welcome.m4a,null,"<p>Howdy! In this experiment, you’ll be an explorer traveling through space to collect space treasure.</p><p>Your mission is to collect as much treasure as possible.</p><br><br><p><img src='run_exp/static/images/task_images/opening_img-01.jpg' height='300' width='auto'></p>",9730,4151,19.75,Female,,,,,,,,,,,,,,,,,,,
audio-keyboard-response,3,30838,0.0-3.0,"""event"",""trial"",""time""
""fullscreenenter"",""1"",""3308""
","
","
","""event"",""trial"",""time""
""fullscreenenter"",""1"",""3308""
","
",,null,run_exp/static/audio/clip_2_move.m4a,null,,,,,,,,,,,,,,,,,,,,,,,,
welcome_dec,4,33807,0.0-4.0,"""event"",""trial"",""time""
""fullscreenenter"",""1"",""3308""
","
","
","""event"",""trial"",""time""
""fullscreenenter"",""1"",""3308""
","
",,2959.6,"<p>Howdy! In this experiment, you’ll be an explorer traveling through space to collect space treasure.</p><p>Your mission is to collect as much treasure as possible.</p><br><br><p><img src='run_exp/static/images/task_images/opening_img-01.jpg' height='300' width='auto'></p>",,,,,,,1,,,,,,,,,,,,,,,,,,
html-keyboard-response,5,35142,0.0-5.0,"""event"",""trial"",""time""
""fullscreenenter"",""1"",""3308""
","
","
","""event"",""trial"",""time""
""fullscreenenter"",""1"",""3308""
","
",,1332.9,"<p>Howdy! In this experiment, you’ll be an explorer traveling through space to collect space treasure.</p><p>Your mission is to collect as much treasure as possible.</p><br><br><p><img src='run_exp/static/images/task_images/opening_img-01.jpg' height='300' width='auto'></p><button class=""jspsych-html-btn-unchosen""><img src=""run_exp/static/images/task_images/planet-01.jpg"" height=""50""></button><button class=""jspsych-html-btn-chosen""><img src=""run_exp/static/images/task_images/planet-02.jpg"" height=""50""></button><p><b>[press the space bar to lock in your answer]<b><br></p>",32,,,,,,,,,,,,,,,,,,,,,,,,
instruc_goal,6,45223,0.0-6.0-0.0,"""event"",""trial"",""time""
""fullscreenenter"",""1"",""3308""
","
","
","""event"",""trial"",""time""
""fullscreenenter"",""1"",""3308""
","
",,null,run_exp/static/audio/clip_3_goal.m4a,null,"<p> As a space explorer, you’ll visit different planets to dig for space treasure, these pink gems.</p> <p> The more treasure you dig up, the more bonus money you’ll win! </p><br><br><p><img src='run_exp/static/images/task_images/pink_gem.jpg' height='300' width='auto'></p>",,,,,,,,,,,,,,,,,,,,,,,
instruc_goal,7,47745,0.0-6.0-1.0,"""event"",""trial"",""time""
""fullscreenenter"",""1"",""3308""
","
","
","""event"",""trial"",""time""
""fullscreenenter"",""1"",""3308""
","
",,2519.3,"<p> As a space explorer, you’ll visit different planets to dig for space treasure, these pink gems.</p> <p> The more treasure you dig up, the more bonus money you’ll win! </p><br><br><p><img src='run_exp/static/images/task_images/pink_gem.jpg' height='300' width='auto'></p>",,,,,,,1,,,,,,,,,,,,,,,,,,
html-keyboard-response,8,48599,0.0-6.0-2.0,"""event"",""trial"",""time""
""fullscreenenter"",""1"",""3308""
","
","
","""event"",""trial"",""time""
""fullscreenenter"",""1"",""3308""
","
",,852.1,"<p> As a space explorer, you’ll visit different planets to dig for space treasure, these pink gems.</p> <p> The more treasure you dig up, the more bonus money you’ll win! </p><br><br><p><img src='run_exp/static/images/task_images/pink_gem.jpg' height='300' width='auto'></p><button class=""jspsych-html-btn-unchosen""><img src=""run_exp/static/images/task_images/planet-01.jpg"" height=""50""></button><button class=""jspsych-html-btn-chosen""><img src=""run_exp/static/images/task_images/planet-02.jpg"" height=""50""></button><p><b>[press the space bar to lock in your answer]<b><br></p>",32,,,,,,,,,,,,,,,,,,,,,,,,
instruc_dig,9,64645,0.0-7.0-0.0,"""event"",""trial"",""time""
""fullscreenenter"",""1"",""3308""
","
","
","""event"",""trial"",""time""
""fullscreenenter"",""1"",""3308""
","
",,null,run_exp/static/audio/clip_4_dig.m4a,null,,,,,,,100,,,,,,,,,,,,,,,,,
instruc_dig_try,10,65509,0.0-7.0-1.0,"""event"",""trial"",""time""
""fullscreenenter"",""1"",""3308""
","
","
","""event"",""trial"",""time""
""fullscreenenter"",""1"",""3308""
","
",,861.2,"<p> When you’ve arrived at a new planet, you will dig once. </p> <p>Then, you get to decide if you want to stay on the planet and dig again or travel to a new planet and dig there.</p> <p> To stay and dig, press the letter <strong>‘A’</strong> on your keyboard. Try pressing it now! </p><p><img src='run_exp/static/images/task_images/land.jpg'  height='700' width='auto'></p>",65,"<p> When you’ve arrived at a new planet, you will dig once. </p> <p>Then, you get to decide if you want to stay on the planet and dig again or travel to a new planet and dig there.</p> <p> To stay and dig, press the letter <strong>‘A’</strong> on your keyboard. Try pressing it now! </p><p><img src='run_exp/static/images/task_images/land.jpg'  height='700' width='auto'></p>",,,,,,100,,,,,,,,,,,,,,,,,
dig_prac,11,67523,0.0-7.0-2.0,"""event"",""trial"",""time""
""fullscreenenter"",""1"",""3308""
","
","
","""event"",""trial"",""time""
""fullscreenenter"",""1"",""3308""
","
",,,,,,,,,,,,"[{""stimulus"":""run_exp/static/images/task_images/dig.jpg"",""time"":0.29999999701976776},{""stimulus"":""run_exp/static/images/task_images/land.jpg"",""time"":674.6000000089407},{""stimulus"":""run_exp/static/images/task_images/dig.jpg"",""time"":1338.7999999970198}]",[],,,,,,,,,,,,,,,
instruc_travel,12,103805,0.0-7.0-3.0,"""event"",""trial"",""time""
""fullscreenenter"",""1"",""3308""
","
","
","""event"",""trial"",""time""
""fullscreenenter"",""1"",""3308""
","
",,null,run_exp/static/audio/clip_5_travel.m4a,null,"<p>Every time you dig up gems, there are less gems on the planet, so the more you dig on a planet the fewer gems you’ll get with each dig.</p><p>When gems are running low, you may want to travel to a new planet. </p> <p>  Planets are very far apart in this galaxy, so it will take some time to travel between them. </p> <br><p>There are lots and lots of planets for you to visit, so you won’t be able to return to any planets you’ve seen before. </p><br><p>To leave this planet and travel to a new one, press the letter <strong>‘L’</strong> on your keyboard. Try pressing it now! </p><p><img src='run_exp/static/images/task_images/rocket-01.jpg'  height='600' width='auto'></p>",,,,,,,,,,,,,,,,,,,,,,,
instruc_travel_try,13,105069,0.0-7.0-4.0,"""event"",""trial"",""time""
""fullscreenenter"",""1"",""3308""
","
","
","""event"",""trial"",""time""
""fullscreenenter"",""1"",""3308""
","
",,1261.3,"<p>Every time you dig up gems, there are less gems on the planet, so the more you dig on a planet the fewer gems you’ll get with each dig.</p><p>When gems are running low, you may want to travel to a new planet. </p> <p>  Planets are very far apart in this galaxy, so it will take some time to travel between them. </p> <br><p>There are lots and lots of planets for you to visit, so you won’t be able to return to any planets you’ve seen before. </p><br><p>To leave this planet and travel to a new one, press the letter <strong>‘L’</strong> on your keyboard. Try pressing it now! </p><p><img src='run_exp/static/images/task_images/rocket-01.jpg'  height='600' width='auto'></p>",76,"<p>Every time you dig up gems, there are less gems on the planet, so the more you dig on a planet the fewer gems you’ll get with each dig.</p><p>When gems are running low, you may want to travel to a new planet. </p> <p>  Planets are very far apart in this galaxy, so it will take some time to travel between them. </p> <br><p>There are lots and lots of planets for you to visit, so you won’t be able to return to any planets you’ve seen before. </p><br><p>To leave this planet and travel to a new one, press the letter <strong>‘L’</strong> on your keyboard. Try pressing it now! </p><p><img src='run_exp/static/images/task_images/rocket-01.jpg'  height='600' width='auto'></p>",,,,,,,,,,,,,,,,,,,,,,,
travel_prac,14,115075,0.0-7.0-5.0,"""event"",""trial"",""time""
""fullscreenenter"",""1"",""3308""
","
","
","""event"",""trial"",""time""
""fullscreenenter"",""1"",""3308""
","
",,,,,,,,,,,,"[{""stimulus"":""run_exp/static/images/task_images/rocket-01.jpg"",""time"":0.29999999701976776},{""stimulus"":""run_exp/static/images/task_images/rocket-02.jpg"",""time"":1121.5},{""stimulus"":""run_exp/static/images/task_images/rocket-03.jpg"",""time"":2236.1000000089407},{""stimulus"":""run_exp/static/images/task_images/rocket-04.jpg"",""time"":3335.9000000059605},{""stimulus"":""run_exp/static/images/task_images/rocket-05.jpg"",""time"":4447},{""stimulus"":""run_exp/static/images/task_images/rocket-06.jpg"",""time"":5559.79999999702},{""stimulus"":""run_exp/static/images/task_images/rocket-07.jpg"",""time"":6669.600000008941},{""stimulus"":""run_exp/static/images/task_images/rocket-08.jpg"",""time"":7780},{""stimulus"":""run_exp/static/images/task_images/rocket-09.jpg"",""time"":8902.60000000894}]",[],0,,,,,,,,,,,,,,
instruc_alien_greet,15,142293,0.0-7.0-6.0,"""event"",""trial"",""time""
""fullscreenenter"",""1"",""3308""
","
","
","""event"",""trial"",""time""
""fullscreenenter"",""1"",""3308""
","
",,null,run_exp/static/audio/clip_6_alien.m4a,null,"<p>When you arrive at a new planet, the alien who owns the treasure mine on that planet will greet you!</p><p>The better an alien takes care of their mine the easier it is to dig for gems. Some aliens take better care of their mine than others. So, you won’t get exactly the same amount of gems on each planet.</p><p>What the alien looks like does not tell you anything about how many gems there are on the planet.</p><br><p><img src=""run_exp/static/images/task_images/aliens/instructions_aliens/planet/alien_planet-1.jpg""  height=""600"" width=""auto""></p>",,,,,,,,,,,,,,,,,,,,,,,
instruc_alien_greet,16,151346,0.0-7.0-7.0,"""event"",""trial"",""time""
""fullscreenenter"",""1"",""3308""
","
","
","""event"",""trial"",""time""
""fullscreenenter"",""1"",""3308""
","
",,9050,"<p>When you arrive at a new planet, the alien who owns the treasure mine on that planet will greet you!</p><p>The better an alien takes care of their mine the easier it is to dig for gems. Some aliens take better care of their mine than others. So, you won’t get exactly the same amount of gems on each planet.</p><p>What the alien looks like does not tell you anything about how many gems there are on the planet.</p><br><p><img src=""run_exp/static/images/task_images/aliens/instructions_aliens/planet/alien_planet-1.jpg""  height=""600"" width=""auto""></p>",,,,,,,1,,,,,,,,,,,,,,,,,,
html-keyboard-response,17,153595,0.0-7.0-8.0,"""event"",""trial"",""time""
""fullscreenenter"",""1"",""3308""
","
","
","""event"",""trial"",""time""
""fullscreenenter"",""1"",""3308""
","
",,2246.9,"<p>When you arrive at a new planet, the alien who owns the treasure mine on that planet will greet you!</p><p>The better an alien takes care of their mine the easier it is to dig for gems. Some aliens take better care of their mine than others. So, you won’t get exactly the same amount of gems on each planet.</p><p>What the alien looks like does not tell you anything about how many gems there are on the planet.</p><br><p><img src=""run_exp/static/images/task_images/aliens/instructions_aliens/planet/alien_planet-1.jpg""  height=""600"" width=""auto""></p><button class=""jspsych-html-btn-unchosen""><img src=""run_exp/static/images/task_images/planet-01.jpg"" height=""50""></button><button class=""jspsych-html-btn-chosen""><img src=""run_exp/static/images/task_images/planet-02.jpg"" height=""50""></button><p><b>[press the space bar to lock in your answer]<b><br></p>",32,,,,,,,,,,,,,,,,,,,,,,,,
time_out,18,164683,0.0-8.0-0.0,"""event"",""trial"",""time""
""fullscreenenter"",""1"",""3308""
","
","
","""event"",""trial"",""time""
""fullscreenenter"",""1"",""3308""
","
",,null,run_exp/static/audio/clip_7_timeout.m4a,null,"<p>If you don't make your choice fast enough, you’ll have to wait a few seconds before you can make another one.</p><p>You can’t dig for more gems or travel to new planets. You just have to sit and wait.</p><br><p><img src='run_exp/static/images/task_images/time_out.jpg'  height='600' width='auto'></p>",,,,,,,,,,,,,,,,,,,,,,,
time_out,19,168724,0.0-8.0-1.0,"""event"",""trial"",""time""
""fullscreenenter"",""1"",""3308""
","
","
","""event"",""trial"",""time""
""fullscreenenter"",""1"",""3308""
","
",,4037.1,"<p>If you don't make your choice fast enough, you’ll have to wait a few seconds before you can make another one.</p><p>You can’t dig for more gems or travel to new planets. You just have to sit and wait.</p><br><p><img src='run_exp/static/images/task_images/time_out.jpg'  height='600' width='auto'></p>",,,,,,,1,,,,,,,,,,,,,,,,,,
html-keyboard-response,20,170697,0.0-8.0-2.0,"""event"",""trial"",""time""
""fullscreenenter"",""1"",""3308""
","
","
","""event"",""trial"",""time""
""fullscreenenter"",""1"",""3308""
","
",,1971.2,"<p>If you don't make your choice fast enough, you’ll have to wait a few seconds before you can make another one.</p><p>You can’t dig for more gems or travel to new planets. You just have to sit and wait.</p><br><p><img src='run_exp/static/images/task_images/time_out.jpg'  height='600' width='auto'></p><button class=""jspsych-html-btn-unchosen""><img src=""run_exp/static/images/task_images/planet-01.jpg"" height=""50""></button><button class=""jspsych-html-btn-chosen""><img src=""run_exp/static/images/task_images/planet-02.jpg"" height=""50""></button><p><b>[press the space bar to lock in your answer]<b><br></p>",32,,,,,,,,,,,,,,,,,,,,,,,,
instruc_break,21,186422,0.0-9.0-0.0,"""event"",""trial"",""time""
""fullscreenenter"",""1"",""3308""
","
","
","""event"",""trial"",""time""
""fullscreenenter"",""1"",""3308""
","
",,null,run_exp/static/audio/clip_8_break.m4a,null,"<p> After digging and traveling for a while, you’ll be able to take a break at home base. </p><p>The game will last 20 minutes no matter what.</p><p>You will visit home base every 5 minutes, so, you will visit home base three times during the game.</p><br><p><img src='run_exp/static/images/task_images/home_base.jpg' height='600' width='auto'></p>",,,,,,,,,,,,,,,,,,,,,,,
instruc_break,22,190659,0.0-9.0-1.0,"""event"",""trial"",""time""
""fullscreenenter"",""1"",""3308""
","
","
","""event"",""trial"",""time""
""fullscreenenter"",""1"",""3308""
","
",,4234,"<p> After digging and traveling for a while, you’ll be able to take a break at home base. </p><p>The game will last 20 minutes no matter what.</p><p>You will visit home base every 5 minutes, so, you will visit home base three times during the game.</p><br><p><img src='run_exp/static/images/task_images/home_base.jpg' height='600' width='auto'></p>",,,,,,,1,,,,,,,,,,,,,,,,,,
html-keyboard-response,23,191153,0.0-9.0-2.0,"""event"",""trial"",""time""
""fullscreenenter"",""1"",""3308""
","
","
","""event"",""trial"",""time""
""fullscreenenter"",""1"",""3308""
","
",,492.8,"<p> After digging and traveling for a while, you’ll be able to take a break at home base. </p><p>The game will last 20 minutes no matter what.</p><p>You will visit home base every 5 minutes, so, you will visit home base three times during the game.</p><br><p><img src='run_exp/static/images/task_images/home_base.jpg' height='600' width='auto'></p><button class=""jspsych-html-btn-unchosen""><img src=""run_exp/static/images/task_images/planet-01.jpg"" height=""50""></button><button class=""jspsych-html-btn-chosen""><img src=""run_exp/static/images/task_images/planet-02.jpg"" height=""50""></button><p><b>[press the space bar to lock in your answer]<b><br></p>",32,,,,,,,,,,,,,,,,,,,,,,,,
instruc_prac_game,24,201302,0.0-10.0-0.0,"""event"",""trial"",""time""
""fullscreenenter"",""1"",""3308""
","
","
","""event"",""trial"",""time""
""fullscreenenter"",""1"",""3308""
","
",,null,run_exp/static/audio/clip_9_practice.m4a,null,"<p> Are you ready to play a practice game? </p> <p>In this practice game, you'll be digging up barrels of gems. But, in the real game, you'll be digging up the gems themselves. </p>",,,,,,,,,,,,,,,,,,,,,,,
html-button-response,25,203029,0.0-10.0-1.0,"""event"",""trial"",""time""
""fullscreenenter"",""1"",""3308""
","
","
","""event"",""trial"",""time""
""fullscreenenter"",""1"",""3308""
","
",,1725.4,"<p> Are you ready to play a practice game? </p> <p>In this practice game, you'll be digging up barrels of gems. But, in the real game, you'll be digging up the gems themselves. </p>",,,,,,,0,,,,,,,,,,,,,,,,,,
alien_welcome_prac,26,208037,0.0-11.0-0.0,"""event"",""trial"",""time""
""fullscreenenter"",""1"",""3308""
","
","
","""event"",""trial"",""time""
""fullscreenenter"",""1"",""3308""
","
",,null,run_exp/static/images/task_images/aliens/practice_aliens/planet/alien_planet-5.jpg,null,,,,,,,,,,,,,,,,,,,,,,,,
land_prac,27,208543,0.0-11.0-1.0,"""event"",""trial"",""time""
""fullscreenenter"",""1"",""3308""
","
","
","""event"",""trial"",""time""
""fullscreenenter"",""1"",""3308""
","
",,null,run_exp/static/images/task_images/land.jpg,null,,,,,,,103,,,0,,,,,,,,,,,,,,
dig_prac,28,210558,0.0-11.0-2.0,"""event"",""trial"",""time""
""fullscreenenter"",""1"",""3308""
","
","
","""event"",""trial"",""time""
""fullscreenenter"",""1"",""3308""
","
",,,,,,,,,,,,"[{""stimulus"":""run_exp/static/images/task_images/dig.jpg"",""time"":0.5},{""stimulus"":""run_exp/static/images/task_images/land.jpg"",""time"":683.5999999940395},{""stimulus"":""run_exp/static/images/task_images/dig.jpg"",""time"":1348.0999999940395}]",[],,,,,,,,,,,,,,,
harvest_prac,29,211567,0.0-11.0-3.0,"""event"",""trial"",""time""
""fullscreenenter"",""1"",""3308""
","
","
","""event"",""trial"",""time""
""fullscreenenter"",""1"",""3308""
","
",,null,run_exp/static/images/task_images/barrel_text.jpg,null,,,,,,,,,,,,,,,,,,,,,,,,
decision_prac,30,214587,0.0-11.0-4.0,"""event"",""trial"",""time""
""fullscreenenter"",""1"",""3308""
","
","
","""event"",""trial"",""time""
""fullscreenenter"",""1"",""3308""
","
",,null,run_exp/static/images/task_images/land.jpg,null,,,,,,,,,,,1,,,,,,,,,,,,,
time_out,31,216593,0.0-12.0-0.0,"""event"",""trial"",""time""
""fullscreenenter"",""1"",""3308""
","
","
","""event"",""trial"",""time""
""fullscreenenter"",""1"",""3308""
","
",,null,run_exp/static/images/task_images/time_out.jpg,null,,,,,,,,,,,,,,,,,,,,,,,,
decision_prac,32,218622,0.0-12.0-1.0,"""event"",""trial"",""time""
""fullscreenenter"",""1"",""3308""
","
","
","""event"",""trial"",""time""
""fullscreenenter"",""1"",""3308""
","
",,2026.3,run_exp/static/images/task_images/land.jpg,65,,,,,,,,,,,2,,,,,,,,,,,,,
dig_prac,33,220640,0.0-13.0-0.0,"""event"",""trial"",""time""
""fullscreenenter"",""1"",""3308""
","
","
","""event"",""trial"",""time""
""fullscreenenter"",""1"",""3308""
","
",,,,,,,,,,,,"[{""stimulus"":""run_exp/static/images/task_images/dig.jpg"",""time"":0.09999999403953552},{""stimulus"":""run_exp/static/images/task_images/land.jpg"",""time"":679.1999999880791},{""stimulus"":""run_exp/static/images/task_images/dig.jpg"",""time"":1349.3999999910593}]",[],,,,,,,,,,,,,,,
harvest_prac,34,221657,0.0-13.0-1.0,"""event"",""trial"",""time""
""fullscreenenter"",""1"",""3308""
","
","
","""event"",""trial"",""time""
""fullscreenenter"",""1"",""3308""
","
",,null,run_exp/static/images/task_images/barrel_text.jpg,null,,,,,,,,,,,,,,,,,,,,,,,,
decision_prac,35,224305,0.0-13.0-2.0,"""event"",""trial"",""time""
""fullscreenenter"",""1"",""3308""
","
","
","""event"",""trial"",""time""
""fullscreenenter"",""1"",""3308""
","
",,2646.5,run_exp/static/images/task_images/land.jpg,65,,,,,,,,,,,3,,,,,,,,,,,,,
dig_prac,36,226314,0.0-14.0-0.0,"""event"",""trial"",""time""
""fullscreenenter"",""1"",""3308""
","
","
","""event"",""trial"",""time""
""fullscreenenter"",""1"",""3308""
","
",,,,,,,,,,,,"[{""stimulus"":""run_exp/static/images/task_images/dig.jpg"",""time"":0.19999998807907104},{""stimulus"":""run_exp/static/images/task_images/land.jpg"",""time"":673.6999999880791},{""stimulus"":""run_exp/static/images/task_images/dig.jpg"",""time"":1342.7999999970198}]",[],,,,,,,,,,,,,,,
harvest_prac,37,227319,0.0-14.0-1.0,"""event"",""trial"",""time""
""fullscreenenter"",""1"",""3308""
","
","
","""event"",""trial"",""time""
""fullscreenenter"",""1"",""3308""
","
",,null,run_exp/static/images/task_images/barrel_text.jpg,null,,,,,,,,,,,,,,,,,,,,,,,,
decision_prac,38,228698,0.0-14.0-2.0,"""event"",""trial"",""time""
""fullscreenenter"",""1"",""3308""
","
","
","""event"",""trial"",""time""
""fullscreenenter"",""1"",""3308""
","
",,1377.1,run_exp/static/images/task_images/land.jpg,76,,,,,,,,,,,4,,,,,,,,,,,,,
travel,39,237335,0.0-15.0-0.0,"""event"",""trial"",""time""
""fullscreenenter"",""1"",""3308""
","
","
","""event"",""trial"",""time""
""fullscreenenter"",""1"",""3308""
","
",,,,,,,,,,,,"[{""stimulus"":""run_exp/static/images/task_images/rocket-01.jpg"",""time"":0.30000001192092896},{""stimulus"":""run_exp/static/images/task_images/rocket-02.jpg"",""time"":962},{""stimulus"":""run_exp/static/images/task_images/rocket-03.jpg"",""time"":1933.9000000059605},{""stimulus"":""run_exp/static/images/task_images/rocket-04.jpg"",""time"":2876.7000000029802},{""stimulus"":""run_exp/static/images/task_images/rocket-05.jpg"",""time"":3845},{""stimulus"":""run_exp/static/images/task_images/rocket-06.jpg"",""time"":4806.100000008941},{""stimulus"":""run_exp/static/images/task_images/rocket-07.jpg"",""time"":5756.5},{""stimulus"":""run_exp/static/images/task_images/rocket-08.jpg"",""time"":6707.800000011921},{""stimulus"":""run_exp/static/images/task_images/rocket-09.jpg"",""time"":7676.5}]",[],0,,,,,,,,,,,,,,
alien_welcome_prac,40,242348,0.0-15.0-1.0,"""event"",""trial"",""time""
""fullscreenenter"",""1"",""3308""
","
","
","""event"",""trial"",""time""
""fullscreenenter"",""1"",""3308""
","
",,null,run_exp/static/images/task_images/aliens/practice_aliens/planet/alien_planet-4.jpg,null,,,,,,,,,,,,,,,,,,,,,,,,
land_prac,41,242860,0.0-15.0-2.0,"""event"",""trial"",""time""
""fullscreenenter"",""1"",""3308""
","
","
","""event"",""trial"",""time""
""fullscreenenter"",""1"",""3308""
","
",,null,run_exp/static/images/task_images/land.jpg,null,,,,,,,89,,,0,,,,,,,,,,,,,,
dig_prac,42,244868,0.0-15.0-3.0,"""event"",""trial"",""time""
""fullscreenenter"",""1"",""3308""
","
","
","""event"",""trial"",""time""
""fullscreenenter"",""1"",""3308""
","
",,,,,,,,,,,,"[{""stimulus"":""run_exp/static/images/task_images/dig.jpg"",""time"":0.4000000059604645},{""stimulus"":""run_exp/static/images/task_images/land.jpg"",""time"":675.2000000029802},{""stimulus"":""run_exp/static/images/task_images/dig.jpg"",""time"":1341.800000011921}]",[],,,,,,,,,,,,,,,
harvest_prac,43,245880,0.0-15.0-4.0,"""event"",""trial"",""time""
""fullscreenenter"",""1"",""3308""
","
","
","""event"",""trial"",""time""
""fullscreenenter"",""1"",""3308""
","
",,null,run_exp/static/images/task_images/barrel_text.jpg,null,,,,,,,,,,,,,,,,,,,,,,,,
decision_prac,44,247968,0.0-15.0-5.0,"""event"",""trial"",""time""
""fullscreenenter"",""1"",""3308""
","
","
","""event"",""trial"",""time""
""fullscreenenter"",""1"",""3308""
","
",,2084.6,run_exp/static/images/task_images/land.jpg,65,,,,,,,,,,,,1,,,,,,,,,,,,
quiz_instruc,45,249901,0.0-16.0-0.0,"""event"",""trial"",""time""
""fullscreenenter"",""1"",""3308""
","
","
","""event"",""trial"",""time""
""fullscreenenter"",""1"",""3308""
","
",,1929.3,run_exp/static/audio/clip_10_quiz.m4a,,,,,,,0,,,,,,,,,,,,,,,,,,
instruc_repeat,46,292676,0.0-16.0-1.0,"""event"",""trial"",""time""
""fullscreenenter"",""1"",""3308""
","
","
","""event"",""trial"",""time""
""fullscreenenter"",""1"",""3308""
","
",,null,"<p> Are you ready to play a practice game? </p> <p>In this practice game, you'll be digging up barrels of gems. But, in the real game, you'll be digging up the gems themselves. </p>",null,"<p>In this game, your goal is to collect as many gems as you can. That’s how you will win bonus money. </p> <p>The entire game will last 20 minutes no matter how many gems you collect or how many planets you visit. </p><p>To stay on a planet and dig again, press the letter A on your keyboard. To leave for a new planet, press the letter L.</p><p>The more you dig on a planet, the fewer gems you’ll get with each dig which is why you might consider leaving for a new planet. </p><p>When you arrive at a new planet, you’ll be greeted by an alien. What the alien looks like does not tell you anything about how much treasure is on the planet. </p>",,,,,,,,,,,,,,,,,,,,,,,
instruc_repeat_continue,47,300152,0.0-16.0-2.0,"""event"",""trial"",""time""
""fullscreenenter"",""1"",""3308""
","
","
","""event"",""trial"",""time""
""fullscreenenter"",""1"",""3308""
","
",,7474.2,"<p> Are you ready to play a practice game? </p> <p>In this practice game, you'll be digging up barrels of gems. But, in the real game, you'll be digging up the gems themselves. </p>",,,,,,,0,,,,,,,,,,,,,,,,,,
quiz_q_1_ask,48,308775,0.0-16.0-3.0,"""event"",""trial"",""time""
""fullscreenenter"",""1"",""3308""
","
","
","""event"",""trial"",""time""
""fullscreenenter"",""1"",""3308""
","
",,8621,run_exp/static/audio/clip_11_q1_ask.m4a,,,,,,,2,,,,,,,,,,,,,,,,,,
quiz_q_1_fb_correct,49,312633,0.0-17.0-0.0,"""event"",""trial"",""time""
""fullscreenenter"",""1"",""3308""
","
","
","""event"",""trial"",""time""
""fullscreenenter"",""1"",""3308""
","
",,null,run_exp/static/audio/clip_12_q1_correct.m4a,null,<p>That’s correct. You win extra money by collecting more gems.</p>,,,,,,,,,,,,,,,,,,,,,,,
quiz_q_2_ask,50,315819,0.0-17.0-1.0,"""event"",""trial"",""time""
""fullscreenenter"",""1"",""3308""
","
","
","""event"",""trial"",""time""
""fullscreenenter"",""1"",""3308""
","
",,3184.1,run_exp/static/audio/clip_14_q2_ask.m4a,,,,,,,1,,,,,,,,,,,,,,,,,,
quiz_q_2_fb_correct,51,319832,0.0-18.0-0.0,"""event"",""trial"",""time""
""fullscreenenter"",""1"",""3308""
","
","
","""event"",""trial"",""time""
""fullscreenenter"",""1"",""3308""
","
",,null,run_exp/static/audio/clip_15_q2_correct.m4a,null,<p>That’s correct. The experiment is 20 minutes no matter what.</p>,,,,,,,,,,,,,,,,,,,,,,,
quiz_q_3_ask,52,322790,0.0-18.0-1.0,"""event"",""trial"",""time""
""fullscreenenter"",""1"",""3308""
","
","
","""event"",""trial"",""time""
""fullscreenenter"",""1"",""3308""
","
",,2955.4,run_exp/static/audio/clip_17_q3_ask.m4a,,,,,,,1,,,,,,,,,,,,,,,,,,
quiz_q_3_fb_correct,53,326791,0.0-19.0-0.0,"""event"",""trial"",""time""
""fullscreenenter"",""1"",""3308""
","
","
","""event"",""trial"",""time""
""fullscreenenter"",""1"",""3308""
","
",,null,run_exp/static/audio/clip_18_q3_correct.m4a,null,<p> That’s correct. You press the letter L to travel to a new planet.</p>,,,,,,,,,,,,,,,,,,,,,,,
quiz_q_4_ask,54,328991,0.0-19.0-1.0,"""event"",""trial"",""time""
""fullscreenenter"",""1"",""3308""
","
","
","""event"",""trial"",""time""
""fullscreenenter"",""1"",""3308""
","
",,2197.4,run_exp/static/audio/clip_20_q4_ask.m4a,,,,,,,0,,,,,,,,,,,,,,,,,,
quiz_q_4_fb_correct,55,334337,0.0-20.0-0.0,"""event"",""trial"",""time""
""fullscreenenter"",""1"",""3308""
","
","
","""event"",""trial"",""time""
""fullscreenenter"",""1"",""3308""
","
",,null,run_exp/static/audio/clip_21_q4_correct.m4a,null,<p> That’s correct. The more you dig on a planet the fewer gems you’ll get with each dig. </p>,,,,,,,,,,,,,,,,,,,,,,,
quiz_q_5_ask,56,336374,0.0-20.0-1.0,"""event"",""trial"",""time""
""fullscreenenter"",""1"",""3308""
","
","
","""event"",""trial"",""time""
""fullscreenenter"",""1"",""3308""
","
",,2034.1,run_exp/static/audio/clip_23_q5_ask.m4a,,,,,,,0,,,,,,,,,,,,,,,,,,
quiz_q_5_fb_incorrect,57,342077,0.0-21.0-0.0,"""event"",""trial"",""time""
""fullscreenenter"",""1"",""3308""
","
","
","""event"",""trial"",""time""
""fullscreenenter"",""1"",""3308""
","
",,null,run_exp/static/audio/clip_25_q5_incorrect.m4a,null,<p>That’s incorrect. The alien tells you nothing about how much treasure is on the planet.</p>,,,,,,,,,,,,,,,,,,,,,,,
quiz_incorrect,58,347652,0.0-22.0-0.0,"""event"",""trial"",""time""
""fullscreenenter"",""1"",""3308""
","
","
","""event"",""trial"",""time""
""fullscreenenter"",""1"",""3308""
","
",,null,run_exp/static/audio/clip_27_incorrect_quiz.m4a,null,,,,,,,,,,,,,,,,,,,,,,,,
quiz_incorrect_continue,59,349419,0.0-22.0-1.0,"""event"",""trial"",""time""
""fullscreenenter"",""1"",""3308""
","
","
","""event"",""trial"",""time""
""fullscreenenter"",""1"",""3308""
","
",,1764.1,"<p>Oops, you missed some questions.</p><p>Now that you’ve heard the correct answers. Try the quiz again!</p>",,,,,,,0,,,,,,,,,,,,,,,,,,
quiz_q_1_ask,60,351624,0.0-22.0-2.0,"""event"",""trial"",""time""
""fullscreenenter"",""1"",""3308""
","
","
","""event"",""trial"",""time""
""fullscreenenter"",""1"",""3308""
","
",,2198,run_exp/static/audio/clip_11_q1_ask.m4a,,,,,,,2,,,,,,,,,,,,,,,,,,
quiz_q_1_fb_correct,61,355477,0.0-23.0-0.0,"""event"",""trial"",""time""
""fullscreenenter"",""1"",""3308""
","
","
","""event"",""trial"",""time""
""fullscreenenter"",""1"",""3308""
","
",,null,run_exp/static/audio/clip_12_q1_correct.m4a,null,<p>That’s correct. You win extra money by collecting more gems.</p>,,,,,,,,,,,,,,,,,,,,,,,
quiz_q_2_ask,62,357324,0.0-23.0-1.0,"""event"",""trial"",""time""
""fullscreenenter"",""1"",""3308""
","
","
","""event"",""trial"",""time""
""fullscreenenter"",""1"",""3308""
","
",,1844.6,run_exp/static/audio/clip_14_q2_ask.m4a,,,,,,,1,,,,,,,,,,,,,,,,,,
quiz_q_2_fb_correct,63,361337,0.0-24.0-0.0,"""event"",""trial"",""time""
""fullscreenenter"",""1"",""3308""
","
","
","""event"",""trial"",""time""
""fullscreenenter"",""1"",""3308""
","
",,null,run_exp/static/audio/clip_15_q2_correct.m4a,null,<p>That’s correct. The experiment is 20 minutes no matter what.</p>,,,,,,,,,,,,,,,,,,,,,,,
quiz_q_3_ask,64,363238,0.0-24.0-1.0,"""event"",""trial"",""time""
""fullscreenenter"",""1"",""3308""
","
","
","""event"",""trial"",""time""
""fullscreenenter"",""1"",""3308""
","
",,1900.1,run_exp/static/audio/clip_17_q3_ask.m4a,,,,,,,1,,,,,,,,,,,,,,,,,,
quiz_q_3_fb_correct,65,367236,0.0-25.0-0.0,"""event"",""trial"",""time""
""fullscreenenter"",""1"",""3308""
","
","
","""event"",""trial"",""time""
""fullscreenenter"",""1"",""3308""
","
",,null,run_exp/static/audio/clip_18_q3_correct.m4a,null,<p> That’s correct. You press the letter L to travel to a new planet.</p>,,,,,,,,,,,,,,,,,,,,,,,
quiz_q_4_ask,66,370130,0.0-25.0-1.0,"""event"",""trial"",""time""
""fullscreenenter"",""1"",""3308""
","
","
","""event"",""trial"",""time""
""fullscreenenter"",""1"",""3308""
","
",,2891.6,run_exp/static/audio/clip_20_q4_ask.m4a,,,,,,,0,,,,,,,,,,,,,,,,,,
quiz_q_4_fb_correct,67,375462,0.0-26.0-0.0,"""event"",""trial"",""time""
""fullscreenenter"",""1"",""3308""
","
","
","""event"",""trial"",""time""
""fullscreenenter"",""1"",""3308""
","
",,null,run_exp/static/audio/clip_21_q4_correct.m4a,null,<p> That’s correct. The more you dig on a planet the fewer gems you’ll get with each dig. </p>,,,,,,,,,,,,,,,,,,,,,,,
quiz_q_5_ask,68,377916,0.0-26.0-1.0,"""event"",""trial"",""time""
""fullscreenenter"",""1"",""3308""
","
","
","""event"",""trial"",""time""
""fullscreenenter"",""1"",""3308""
","
",,2452.4,run_exp/static/audio/clip_23_q5_ask.m4a,,,,,,,1,,,,,,,,,,,,,,,,,,
quiz_q_5_fb_correct,69,382937,0.0-27.0-0.0,"""event"",""trial"",""time""
""fullscreenenter"",""1"",""3308""
","
","
","""event"",""trial"",""time""
""fullscreenenter"",""1"",""3308""
","
",,null,run_exp/static/audio/clip_24_q5_correct.m4a,null,<p> That’s correct. The alien tells you nothing about how much treasure is on the planet.</p>,,,,,,,,,,,,,,,,,,,,,,,
quiz_correct,70,386417,0.0-28.0-0.0,"""event"",""trial"",""time""
""fullscreenenter"",""1"",""3308""
","
","
","""event"",""trial"",""time""
""fullscreenenter"",""1"",""3308""
","
",,null,run_exp/static/audio/clip_26_correct_quiz.m4a,null,,,,,,,,,,,,,,,,,,,,,,,,
quiz_correct_continue,71,387917,0.0-28.0-1.0,"""event"",""trial"",""time""
""fullscreenenter"",""1"",""3308""
","
","
","""event"",""trial"",""time""
""fullscreenenter"",""1"",""3308""
","
",,1497.9,<p>Good job! You're now ready to move on to the real game!</p>,,,,,,,0,,,,,,,,,,,,,,,,,,
audio-keyboard-response,72,398061,0.0-28.0-2.0,"""event"",""trial"",""time""
""fullscreenenter"",""1"",""3308""
","
","
","""event"",""trial"",""time""
""fullscreenenter"",""1"",""3308""
","
",,null,run_exp/static/audio/clip_28_real_game.m4a,null,,,,,,,,,,,,,,,,,,,,,,,,
instruc_begin_exp_contine,73,400700,0.0-28.0-3.0,"""event"",""trial"",""time""
""fullscreenenter"",""1"",""3308""
","
","
","""event"",""trial"",""time""
""fullscreenenter"",""1"",""3308""
","
",,2637.2,"<p>Now that you know how  to dig for space treasure and travel to new planets,you can start exploring! </p><p>Do you want to go over the instructions again or get started with the real game?</p>",,,,,,,0,,,,,,,,,,,,,,,,,,
instruc_repeat,74,443481,0.0-29.0-0.0,"""event"",""trial"",""time""
""fullscreenenter"",""1"",""3308""
","
","
","""event"",""trial"",""time""
""fullscreenenter"",""1"",""3308""
","
",,null,"<p> Are you ready to play a practice game? </p> <p>In this practice game, you'll be digging up barrels of gems. But, in the real game, you'll be digging up the gems themselves. </p>",null,"<p>In this game, your goal is to collect as many gems as you can. That’s how you will win bonus money. </p> <p>The entire game will last 20 minutes no matter how many gems you collect or how many planets you visit. </p><p>To stay on a planet and dig again, press the letter A on your keyboard. To leave for a new planet, press the letter L.</p><p>The more you dig on a planet, the fewer gems you’ll get with each dig which is why you might consider leaving for a new planet. </p><p>When you arrive at a new planet, you’ll be greeted by an alien. What the alien looks like does not tell you anything about how much treasure is on the planet. </p>",,,,,,,,,,,,,,,,,,,,,,,
instruc_repeat_continue,75,445133,0.0-29.0-1.0,"""event"",""trial"",""time""
""fullscreenenter"",""1"",""3308""
","
","
","""event"",""trial"",""time""
""fullscreenenter"",""1"",""3308""
","
",,1650.6,"<p> Are you ready to play a practice game? </p> <p>In this practice game, you'll be digging up barrels of gems. But, in the real game, you'll be digging up the gems themselves. </p>",,,,,,,0,,,,,,,,,,,,,,,,,,
audio-keyboard-response,76,455274,0.0-29.0-2.0,"""event"",""trial"",""time""
""fullscreenenter"",""1"",""3308""
","
","
","""event"",""trial"",""time""
""fullscreenenter"",""1"",""3308""
","
",,null,run_exp/static/audio/clip_28_real_game.m4a,null,,,,,,,,,,,,,,,,,,,,,,,,
instruc_begin_exp_contine,77,455978,0.0-29.0-3.0,"""event"",""trial"",""time""
""fullscreenenter"",""1"",""3308""
","
","
","""event"",""trial"",""time""
""fullscreenenter"",""1"",""3308""
","
",,702.8,"<p>Now that you know how  to dig for space treasure and travel to new planets,you can start exploring! </p><p>Do you want to go over the instructions again or get started with the real game?</p>",,,,,,,1,,,,,,1,,,,,,,,,,,,
alien_welcome,78,460985,0.0-30.0-0.0,"""event"",""trial"",""time""
""fullscreenenter"",""1"",""3308""
","
","
","""event"",""trial"",""time""
""fullscreenenter"",""1"",""3308""
","
",,null,run_exp/static/images/task_images/aliens/old_aliens/planet/alien_planet-18.jpg,null,,,,,,,,,,,,,18,"18,27,42,51,73,32,1,14,58,22,2,78,39,60,44,56,65,57,25,43,75,35,15,17,40,71,62,54,59,24,76,11,72,52,23,29,61,31,68,7,47,33,16,64,79,21,28,48",,,,,,,,,,
land,79,461498,0.0-30.0-1.0,"""event"",""trial"",""time""
""fullscreenenter"",""1"",""3308""
","
","
","""event"",""trial"",""time""
""fullscreenenter"",""1"",""3308""
","
",,null,run_exp/static/images/task_images/land.jpg,null,,,,,,,103,,,1,,,,,,,,,,,,,,
dig,80,463515,0.0-30.0-2.0,"""event"",""trial"",""time""
""fullscreenenter"",""1"",""3308""
","
","
","""event"",""trial"",""time""
""fullscreenenter"",""1"",""3308""
","
",,,,,,,,,,,,"[{""stimulus"":""run_exp/static/images/task_images/dig.jpg"",""time"":0.3999999910593033},{""stimulus"":""run_exp/static/images/task_images/land.jpg"",""time"":673.5999999940395},{""stimulus"":""run_exp/static/images/task_images/dig.jpg"",""time"":1337}]",[],1,,,,,,,,,,,,,,
harvest,81,464528,0.0-30.0-3.0,"""event"",""trial"",""time""
""fullscreenenter"",""1"",""3308""
","
","
","""event"",""trial"",""time""
""fullscreenenter"",""1"",""3308""
","
",,null,run_exp/static/images/task_images/gems/103.jpg,null,,,,,,,15,,,1,,,,,103,0.149117311,0.145631068,,,,,,,
decision,82,466316,0.0-30.0-4.0,"""event"",""trial"",""time""
""fullscreenenter"",""1"",""3308""
","
","
","""event"",""trial"",""time""
""fullscreenenter"",""1"",""3308""
","
",,1785.9,run_exp/static/images/task_images/land.jpg,65,,,,,,,15,,,1,,,,,,,,10336,1,0,FALSE,,,
dig,83,467535,0.0-31.0-0.0,"""event"",""trial"",""time""
""fullscreenenter"",""1"",""3308""
","
","
","""event"",""trial"",""time""
""fullscreenenter"",""1"",""3308""
","
",,,,,,,,,,,,"[{""stimulus"":""run_exp/static/images/task_images/dig.jpg"",""time"":0.09999999403953552},{""stimulus"":""run_exp/static/images/task_images/land.jpg"",""time"":421.09999999403954},{""stimulus"":""run_exp/static/images/task_images/dig.jpg"",""time"":825.1999999880791}]",[],1,,,,,,,,,,,,,,
harvest,84,468555,0.0-31.0-1.0,"""event"",""trial"",""time""
""fullscreenenter"",""1"",""3308""
","
","
","""event"",""trial"",""time""
""fullscreenenter"",""1"",""3308""
","
",,null,run_exp/static/images/task_images/gems/15.jpg,null,,,,,,,3,,,1,,,,,15,0.21048742,0.2,,,,,,,
decision,85,469061,0.0-31.0-2.0,"""event"",""trial"",""time""
""fullscreenenter"",""1"",""3308""
","
","
","""event"",""trial"",""time""
""fullscreenenter"",""1"",""3308""
","
",,502.3,run_exp/static/images/task_images/land.jpg,76,,,,,,,3,,,1,,,,,,,,13081,1,1,TRUE,,,
travel,86,478561,0.0-32.0-0.0,"""event"",""trial"",""time""
""fullscreenenter"",""1"",""3308""
","
","
","""event"",""trial"",""time""
""fullscreenenter"",""1"",""3308""
","
",,,,,,,,,,,,"[{""stimulus"":""run_exp/static/images/task_images/rocket-01.jpg"",""time"":0.29999999701976776},{""stimulus"":""run_exp/static/images/task_images/rocket-02.jpg"",""time"":1071.7999999970198},{""stimulus"":""run_exp/static/images/task_images/rocket-03.jpg"",""time"":2115.2000000029802},{""stimulus"":""run_exp/static/images/task_images/rocket-04.jpg"",""time"":3179.9000000059605},{""stimulus"":""run_exp/static/images/task_images/rocket-05.jpg"",""time"":4225.9000000059605},{""stimulus"":""run_exp/static/images/task_images/rocket-06.jpg"",""time"":5289.4000000059605},{""stimulus"":""run_exp/static/images/task_images/rocket-07.jpg"",""time"":6337.29999999702},{""stimulus"":""run_exp/static/images/task_images/rocket-08.jpg"",""time"":7393.20000000298},{""stimulus"":""run_exp/static/images/task_images/rocket-09.jpg"",""time"":8446.70000000298}]",[],1,,,,,,,,,,,,,,
alien_welcome,87,483575,0.0-32.0-1.0,"""event"",""trial"",""time""
""fullscreenenter"",""1"",""3308""
","
","
","""event"",""trial"",""time""
""fullscreenenter"",""1"",""3308""
","
",,null,run_exp/static/images/task_images/aliens/old_aliens/planet/alien_planet-27.jpg,null,,,,,,,,,,,,,27,"18,27,42,51,73,32,1,14,58,22,2,78,39,60,44,56,65,57,25,43,75,35,15,17,40,71,62,54,59,24,76,11,72,52,23,29,61,31,68,7,47,33,16,64,79,21,28,48",,,,,,,,,,
land,88,484088,0.0-32.0-2.0,"""event"",""trial"",""time""
""fullscreenenter"",""1"",""3308""
","
","
","""event"",""trial"",""time""
""fullscreenenter"",""1"",""3308""
","
",,null,run_exp/static/images/task_images/land.jpg,null,,,,,,,105,,,2,,,,,,,,,,,,,,
dig,89,486107,0.0-32.0-3.0,"""event"",""trial"",""time""
""fullscreenenter"",""1"",""3308""
","
","
","""event"",""trial"",""time""
""fullscreenenter"",""1"",""3308""
","
",,,,,,,,,,,,"[{""stimulus"":""run_exp/static/images/task_images/dig.jpg"",""time"":0.4000000059604645},{""stimulus"":""run_exp/static/images/task_images/land.jpg"",""time"":679.6000000089407},{""stimulus"":""run_exp/static/images/task_images/dig.jpg"",""time"":1343.5}]",[],2,,,,,,,,,,,,,,
harvest,90,487126,0.0-32.0-4.0,"""event"",""trial"",""time""
""fullscreenenter"",""1"",""3308""
","
","
","""event"",""trial"",""time""
""fullscreenenter"",""1"",""3308""
","
",,null,run_exp/static/images/task_images/gems/105.jpg,null,,,,,,,16,,,2,,,,,105,0.156060682,0.152380952,,,,,,,
decision,91,488445,0.0-32.0-5.0,"""event"",""trial"",""time""
""fullscreenenter"",""1"",""3308""
","
","
","""event"",""trial"",""time""
""fullscreenenter"",""1"",""3308""
","
",,1316.8,run_exp/static/images/task_images/land.jpg,65,,,,,,,16,,,2,,,,,,,,32465,1,0,FALSE,,,
dig,92,490142,0.0-33.0-0.0,"""event"",""trial"",""time""
""fullscreenenter"",""1"",""3308""
","
","
","""event"",""trial"",""time""
""fullscreenenter"",""1"",""3308""
","
",,,,,,,,,,,,"[{""stimulus"":""run_exp/static/images/task_images/dig.jpg"",""time"":0.29999999701976776},{""stimulus"":""run_exp/static/images/task_images/land.jpg"",""time"":574.7999999970198},{""stimulus"":""run_exp/static/images/task_images/dig.jpg"",""time"":1125.4000000059605}]",[],2,,,,,,,,,,,,,,
harvest,93,491156,0.0-33.0-1.0,"""event"",""trial"",""time""
""fullscreenenter"",""1"",""3308""
","
","
","""event"",""trial"",""time""
""fullscreenenter"",""1"",""3308""
","
",,null,run_exp/static/images/task_images/gems/16.jpg,null,,,,,,,4,,,2,,,,,16,0.281065119,0.25,,,,,,,
decision,94,493594,0.0-33.0-2.0,"""event"",""trial"",""time""
""fullscreenenter"",""1"",""3308""
","
","
","""event"",""trial"",""time""
""fullscreenenter"",""1"",""3308""
","
",,2433.5,run_exp/static/images/task_images/land.jpg,65,,,,,,,4,,,2,,,,,,,,37614,1,1,FALSE,,,
dig,95,494175,0.0-34.0-0.0,"""event"",""trial"",""time""
""fullscreenenter"",""1"",""3308""
","
","
","""event"",""trial"",""time""
""fullscreenenter"",""1"",""3308""
","
",,,,,,,,,,,,"[{""stimulus"":""run_exp/static/images/task_images/dig.jpg"",""time"":0.19999998807907104},{""stimulus"":""run_exp/static/images/task_images/land.jpg"",""time"":192.69999998807907},{""stimulus"":""run_exp/static/images/task_images/dig.jpg"",""time"":384.69999998807907}]",[],2,,,,,,,,,,,,,,
harvest,96,495180,0.0-34.0-1.0,"""event"",""trial"",""time""
""fullscreenenter"",""1"",""3308""
","
","
","""event"",""trial"",""time""
""fullscreenenter"",""1"",""3308""
","
",,null,run_exp/static/images/task_images/gems/4.jpg,null,,,,,,,1,,,2,,,,,4,0.159987917,0.25,,,,,,,
decision,97,495546,0.0-34.0-2.0,"""event"",""trial"",""time""
""fullscreenenter"",""1"",""3308""
","
","
","""event"",""trial"",""time""
""fullscreenenter"",""1"",""3308""
","
",,364.4,run_exp/static/images/task_images/land.jpg,76,,,,,,,1,,,2,,,,,,,,39567,1,2,TRUE,,,
travel,98,505189,0.0-35.0-0.0,"""event"",""trial"",""time""
""fullscreenenter"",""1"",""3308""
","
","
","""event"",""trial"",""time""
""fullscreenenter"",""1"",""3308""
","
",,,,,,,,,,,,"[{""stimulus"":""run_exp/static/images/task_images/rocket-01.jpg"",""time"":0.20000000298023224},{""stimulus"":""run_exp/static/images/task_images/rocket-02.jpg"",""time"":1079.0999999940395},{""stimulus"":""run_exp/static/images/task_images/rocket-03.jpg"",""time"":2144.9000000059605},{""stimulus"":""run_exp/static/images/task_images/rocket-04.jpg"",""time"":3226.7000000029802},{""stimulus"":""run_exp/static/images/task_images/rocket-05.jpg"",""time"":4282},{""stimulus"":""run_exp/static/images/task_images/rocket-06.jpg"",""time"":5353.5},{""stimulus"":""run_exp/static/images/task_images/rocket-07.jpg"",""time"":6424},{""stimulus"":""run_exp/static/images/task_images/rocket-08.jpg"",""time"":7497},{""stimulus"":""run_exp/static/images/task_images/rocket-09.jpg"",""time"":8566.5}]",[],2,,,,,,,,,,,,,,
alien_welcome,99,510201,0.0-35.0-1.0,"""event"",""trial"",""time""
""fullscreenenter"",""1"",""3308""
","
","
","""event"",""trial"",""time""
""fullscreenenter"",""1"",""3308""
","
",,null,run_exp/static/images/task_images/aliens/old_aliens/planet/alien_planet-42.jpg,null,,,,,,,,,,,,,42,"18,27,42,51,73,32,1,14,58,22,2,78,39,60,44,56,65,57,25,43,75,35,15,17,40,71,62,54,59,24,76,11,72,52,23,29,61,31,68,7,47,33,16,64,79,21,28,48",,,,,,,,,,
land,100,510712,0.0-35.0-2.0,"""event"",""trial"",""time""
""fullscreenenter"",""1"",""3308""
","
","
","""event"",""trial"",""time""
""fullscreenenter"",""1"",""3308""
","
",,null,run_exp/static/images/task_images/land.jpg,null,,,,,,,98,,,3,,,,,,,,,,,,,,
dig,101,512720,0.0-35.0-3.0,"""event"",""trial"",""time""
""fullscreenenter"",""1"",""3308""
","
","
","""event"",""trial"",""time""
""fullscreenenter"",""1"",""3308""
","
",,,,,,,,,,,,"[{""stimulus"":""run_exp/static/images/task_images/dig.jpg"",""time"":0.19999998807907104},{""stimulus"":""run_exp/static/images/task_images/land.jpg"",""time"":679},{""stimulus"":""run_exp/static/images/task_images/dig.jpg"",""time"":1343.2999999970198}]",[],3,,,,,,,,,,,,,,
harvest,102,513723,0.0-35.0-4.0,"""event"",""trial"",""time""
""fullscreenenter"",""1"",""3308""
","
","
","""event"",""trial"",""time""
""fullscreenenter"",""1"",""3308""
","
",,null,run_exp/static/images/task_images/gems/98.jpg,null,,,,,,,45,,,3,,,,,98,0.46025947,0.459183673,,,,,,,
decision,103,515300,0.0-35.0-5.0,"""event"",""trial"",""time""
""fullscreenenter"",""1"",""3308""
","
","
","""event"",""trial"",""time""
""fullscreenenter"",""1"",""3308""
","
",,1574.5,run_exp/static/images/task_images/land.jpg,76,,,,,,,45,,,3,,,,,,,,59320,1,0,TRUE,,,
travel,104,523729,0.0-36.0-0.0,"""event"",""trial"",""time""
""fullscreenenter"",""1"",""3308""
","
","
","""event"",""trial"",""time""
""fullscreenenter"",""1"",""3308""
","
",,,,,,,,,,,,"[{""stimulus"":""run_exp/static/images/task_images/rocket-01.jpg"",""time"":0.20000000298023224},{""stimulus"":""run_exp/static/images/task_images/rocket-02.jpg"",""time"":947.0999999940395},{""stimulus"":""run_exp/static/images/task_images/rocket-03.jpg"",""time"":1883.5},{""stimulus"":""run_exp/static/images/task_images/rocket-04.jpg"",""time"":2825.5},{""stimulus"":""run_exp/static/images/task_images/rocket-05.jpg"",""time"":3746.9000000059605},{""stimulus"":""run_exp/static/images/task_images/rocket-06.jpg"",""time"":4692.79999999702},{""stimulus"":""run_exp/static/images/task_images/rocket-07.jpg"",""time"":5623.29999999702},{""stimulus"":""run_exp/static/images/task_images/rocket-08.jpg"",""time"":6556.4000000059605},{""stimulus"":""run_exp/static/images/task_images/rocket-09.jpg"",""time"":7502.4000000059605}]",[],3,,,,,,,,,,,,,,
alien_welcome,105,528746,0.0-36.0-1.0,"""event"",""trial"",""time""
""fullscreenenter"",""1"",""3308""
","
","
","""event"",""trial"",""time""
""fullscreenenter"",""1"",""3308""
","
",,null,run_exp/static/images/task_images/aliens/old_aliens/planet/alien_planet-51.jpg,null,,,,,,,,,,,,,51,"18,27,42,51,73,32,1,14,58,22,2,78,39,60,44,56,65,57,25,43,75,35,15,17,40,71,62,54,59,24,76,11,72,52,23,29,61,31,68,7,47,33,16,64,79,21,28,48",,,,,,,,,,
land,106,529256,0.0-36.0-2.0,"""event"",""trial"",""time""
""fullscreenenter"",""1"",""3308""
","
","
","""event"",""trial"",""time""
""fullscreenenter"",""1"",""3308""
","
",,null,run_exp/static/images/task_images/land.jpg,null,,,,,,,96,,,4,,,,,,,,,,,,,,
dig,107,531272,0.0-36.0-3.0,"""event"",""trial"",""time""
""fullscreenenter"",""1"",""3308""
","
","
","""event"",""trial"",""time""
""fullscreenenter"",""1"",""3308""
","
",,,,,,,,,,,,"[{""stimulus"":""run_exp/static/images/task_images/dig.jpg"",""time"":0.3999999910593033},{""stimulus"":""run_exp/static/images/task_images/land.jpg"",""time"":680.3999999910593},{""stimulus"":""run_exp/static/images/task_images/dig.jpg"",""time"":1341.3999999910593}]",[],4,,,,,,,,,,,,,,
harvest,108,532293,0.0-36.0-4.0,"""event"",""trial"",""time""
""fullscreenenter"",""1"",""3308""
","
","
","""event"",""trial"",""time""
""fullscreenenter"",""1"",""3308""
","
",,null,run_exp/static/images/task_images/gems/96.jpg,null,,,,,,,45,,,4,,,,,96,0.466398374,0.46875,,,,,,,
decision,109,533012,0.0-36.0-5.0,"""event"",""trial"",""time""
""fullscreenenter"",""1"",""3308""
","
","
","""event"",""trial"",""time""
""fullscreenenter"",""1"",""3308""
","
",,717.3,run_exp/static/images/task_images/land.jpg,65,,,,,,,45,,,4,,,,,,,,77032,1,0,FALSE,,,
dig,110,535303,0.0-37.0-0.0,"""event"",""trial"",""time""
""fullscreenenter"",""1"",""3308""
","
","
","""event"",""trial"",""time""
""fullscreenenter"",""1"",""3308""
","
",,,,,,,,,,,,"[{""stimulus"":""run_exp/static/images/task_images/dig.jpg"",""time"":0.20000000298023224},{""stimulus"":""run_exp/static/images/task_images/land.jpg"",""time"":767.7000000029802},{""stimulus"":""run_exp/static/images/task_images/dig.jpg"",""time"":1532.1000000089407}]",[],4,,,,,,,,,,,,,,
harvest,111,536321,0.0-37.0-1.0,"""event"",""trial"",""time""
""fullscreenenter"",""1"",""3308""
","
","
","""event"",""trial"",""time""
""fullscreenenter"",""1"",""3308""
","
",,null,run_exp/static/images/task_images/gems/45.jpg,null,,,,,,,22,,,4,,,,,45,0.485428041,0.488888889,,,,,,,
decision,112,536867,0.0-37.0-2.0,"""event"",""trial"",""time""
""fullscreenenter"",""1"",""3308""
","
","
","""event"",""trial"",""time""
""fullscreenenter"",""1"",""3308""
","
",,544.4,run_exp/static/images/task_images/land.jpg,76,,,,,,,22,,,4,,,,,,,,80887,1,1,TRUE,,,
travel,113,546336,0.0-38.0-0.0,"""event"",""trial"",""time""
""fullscreenenter"",""1"",""3308""
","
","
","""event"",""trial"",""time""
""fullscreenenter"",""1"",""3308""
","
",,,,,,,,,,,,"[{""stimulus"":""run_exp/static/images/task_images/rocket-01.jpg"",""time"":0.20000000298023224},{""stimulus"":""run_exp/static/images/task_images/rocket-02.jpg"",""time"":1067.7000000029802},{""stimulus"":""run_exp/static/images/task_images/rocket-03.jpg"",""time"":2105.5999999940395},{""stimulus"":""run_exp/static/images/task_images/rocket-04.jpg"",""time"":3153.8999999910593},{""stimulus"":""run_exp/static/images/task_images/rocket-05.jpg"",""time"":4213.399999991059},{""stimulus"":""run_exp/static/images/task_images/rocket-06.jpg"",""time"":5252.5999999940395},{""stimulus"":""run_exp/static/images/task_images/rocket-07.jpg"",""time"":6315.79999999702},{""stimulus"":""run_exp/static/images/task_images/rocket-08.jpg"",""time"":7366.899999991059},{""stimulus"":""run_exp/static/images/task_images/rocket-09.jpg"",""time"":8405.29999999702}]",[],4,,,,,,,,,,,,,,
alien_welcome,114,551349,0.0-38.0-1.0,"""event"",""trial"",""time""
""fullscreenenter"",""1"",""3308""
","
","
","""event"",""trial"",""time""
""fullscreenenter"",""1"",""3308""
","
",,null,run_exp/static/images/task_images/aliens/old_aliens/planet/alien_planet-73.jpg,null,,,,,,,,,,,,,73,"18,27,42,51,73,32,1,14,58,22,2,78,39,60,44,56,65,57,25,43,75,35,15,17,40,71,62,54,59,24,76,11,72,52,23,29,61,31,68,7,47,33,16,64,79,21,28,48",,,,,,,,,,
land,115,551858,0.0-38.0-2.0,"""event"",""trial"",""time""
""fullscreenenter"",""1"",""3308""
","
","
","""event"",""trial"",""time""
""fullscreenenter"",""1"",""3308""
","
",,null,run_exp/static/images/task_images/land.jpg,null,,,,,,,97,,,5,,,,,,,,,,,,,,
dig,116,553878,0.0-38.0-3.0,"""event"",""trial"",""time""
""fullscreenenter"",""1"",""3308""
","
","
","""event"",""trial"",""time""
""fullscreenenter"",""1"",""3308""
","
",,,,,,,,,,,,"[{""stimulus"":""run_exp/static/images/task_images/dig.jpg"",""time"":0.19999998807907104},{""stimulus"":""run_exp/static/images/task_images/land.jpg"",""time"":683.2999999970198},{""stimulus"":""run_exp/static/images/task_images/dig.jpg"",""time"":1339.7999999970198}]",[],5,,,,,,,,,,,,,,
harvest,117,554886,0.0-38.0-4.0,"""event"",""trial"",""time""
""fullscreenenter"",""1"",""3308""
","
","
","""event"",""trial"",""time""
""fullscreenenter"",""1"",""3308""
","
",,null,run_exp/static/images/task_images/gems/97.jpg,null,,,,,,,45,,,5,,,,,97,0.460540955,0.463917526,,,,,,,
decision,118,555090,0.0-38.0-5.0,"""event"",""trial"",""time""
""fullscreenenter"",""1"",""3308""
","
","
","""event"",""trial"",""time""
""fullscreenenter"",""1"",""3308""
","
",,201.8,run_exp/static/images/task_images/land.jpg,65,,,,,,,45,,,5,,,,,,,,99110,1,0,FALSE,,,
dig,119,557904,0.0-39.0-0.0,"""event"",""trial"",""time""
""fullscreenenter"",""1"",""3308""
","
","
","""event"",""trial"",""time""
""fullscreenenter"",""1"",""3308""
","
",,,,,,,,,,,,"[{""stimulus"":""run_exp/static/images/task_images/dig.jpg"",""time"":0.09999999403953552},{""stimulus"":""run_exp/static/images/task_images/land.jpg"",""time"":934.8999999910593},{""stimulus"":""run_exp/static/images/task_images/dig.jpg"",""time"":1872.5}]",[],5,,,,,,,,,,,,,,
harvest,120,558919,0.0-39.0-1.0,"""event"",""trial"",""time""
""fullscreenenter"",""1"",""3308""
","
","
","""event"",""trial"",""time""
""fullscreenenter"",""1"",""3308""
","
",,null,run_exp/static/images/task_images/gems/45.jpg,null,,,,,,,23,,,5,,,,,45,0.508493562,0.511111111,,,,,,,
decision,121,559103,0.0-39.0-2.0,"""event"",""trial"",""time""
""fullscreenenter"",""1"",""3308""
","
","
","""event"",""trial"",""time""
""fullscreenenter"",""1"",""3308""
","
",,182.2,run_exp/static/images/task_images/land.jpg,76,,,,,,,23,,,5,,,,,,,,103124,1,1,TRUE,,,
travel,122,568927,0.0-40.0-0.0,"""event"",""trial"",""time""
""fullscreenenter"",""1"",""3308""
","
","
","""event"",""trial"",""time""
""fullscreenenter"",""1"",""3308""
","
",,,,,,,,,,,,"[{""stimulus"":""run_exp/static/images/task_images/rocket-01.jpg"",""time"":0.10000000894069672},{""stimulus"":""run_exp/static/images/task_images/rocket-02.jpg"",""time"":1099.5},{""stimulus"":""run_exp/static/images/task_images/rocket-03.jpg"",""time"":2188.7000000029802},{""stimulus"":""run_exp/static/images/task_images/rocket-04.jpg"",""time"":3275.7000000029802},{""stimulus"":""run_exp/static/images/task_images/rocket-05.jpg"",""time"":4371.20000000298},{""stimulus"":""run_exp/static/images/task_images/rocket-06.jpg"",""time"":5462.29999999702},{""stimulus"":""run_exp/static/images/task_images/rocket-07.jpg"",""time"":6550.79999999702},{""stimulus"":""run_exp/static/images/task_images/rocket-08.jpg"",""time"":7641.5},{""stimulus"":""run_exp/static/images/task_images/rocket-09.jpg"",""time"":8727.60000000894}]",[],5,,,,,,,,,,,,,,
alien_welcome,123,573930,0.0-40.0-1.0,"""event"",""trial"",""time""
""fullscreenenter"",""1"",""3308""
","
","
","""event"",""trial"",""time""
""fullscreenenter"",""1"",""3308""
","
",,null,run_exp/static/images/task_images/aliens/old_aliens/planet/alien_planet-32.jpg,null,,,,,,,,,,,,,32,"18,27,42,51,73,32,1,14,58,22,2,78,39,60,44,56,65,57,25,43,75,35,15,17,40,71,62,54,59,24,76,11,72,52,23,29,61,31,68,7,47,33,16,64,79,21,28,48",,,,,,,,,,
land,124,574435,0.0-40.0-2.0,"""event"",""trial"",""time""
""fullscreenenter"",""1"",""3308""
","
","
","""event"",""trial"",""time""
""fullscreenenter"",""1"",""3308""
","
",,null,run_exp/static/images/task_images/land.jpg,null,,,,,,,100,,,6,,,,,,,,,,,,,,
dig,125,576445,0.0-40.0-3.0,"""event"",""trial"",""time""
""fullscreenenter"",""1"",""3308""
","
","
","""event"",""trial"",""time""
""fullscreenenter"",""1"",""3308""
","
",,,,,,,,,,,,"[{""stimulus"":""run_exp/static/images/task_images/dig.jpg"",""time"":0.30000001192092896},{""stimulus"":""run_exp/static/images/task_images/land.jpg"",""time"":672.6000000089407},{""stimulus"":""run_exp/static/images/task_images/dig.jpg"",""time"":1350.4000000059605}]",[],6,,,,,,,,,,,,,,
harvest,126,577447,0.0-40.0-4.0,"""event"",""trial"",""time""
""fullscreenenter"",""1"",""3308""
","
","
","""event"",""trial"",""time""
""fullscreenenter"",""1"",""3308""
","
",,null,run_exp/static/images/task_images/gems/100.jpg,null,,,,,,,72,,,6,,,,,100,0.720017063,0.72,,,,,,,
decision,127,577755,0.0-40.0-5.0,"""event"",""trial"",""time""
""fullscreenenter"",""1"",""3308""
","
","
","""event"",""trial"",""time""
""fullscreenenter"",""1"",""3308""
","
",,305.4,run_exp/static/images/task_images/land.jpg,65,,,,,,,72,,,6,,,,,,,,121775,1,0,FALSE,,,
dig,128,580468,0.0-41.0-0.0,"""event"",""trial"",""time""
""fullscreenenter"",""1"",""3308""
","
","
","""event"",""trial"",""time""
""fullscreenenter"",""1"",""3308""
","
",,,,,,,,,,,,"[{""stimulus"":""run_exp/static/images/task_images/dig.jpg"",""time"":0.10000000894069672},{""stimulus"":""run_exp/static/images/task_images/land.jpg"",""time"":908.8000000119209},{""stimulus"":""run_exp/static/images/task_images/dig.jpg"",""time"":1804.5}]",[],6,,,,,,,,,,,,,,
harvest,129,581478,0.0-41.0-1.0,"""event"",""trial"",""time""
""fullscreenenter"",""1"",""3308""
","
","
","""event"",""trial"",""time""
""fullscreenenter"",""1"",""3308""
","
",,null,run_exp/static/images/task_images/gems/72.jpg,null,,,,,,,63,,,6,,,,,72,0.877254371,0.875,,,,,,,
decision,130,582225,0.0-41.0-2.0,"""event"",""trial"",""time""
""fullscreenenter"",""1"",""3308""
","
","
","""event"",""trial"",""time""
""fullscreenenter"",""1"",""3308""
","
",,745,run_exp/static/images/task_images/land.jpg,65,,,,,,,63,,,6,,,,,,,,126245,1,1,FALSE,,,
dig,131,584493,0.0-42.0-0.0,"""event"",""trial"",""time""
""fullscreenenter"",""1"",""3308""
","
","
","""event"",""trial"",""time""
""fullscreenenter"",""1"",""3308""
","
",,,,,,,,,,,,"[{""stimulus"":""run_exp/static/images/task_images/dig.jpg"",""time"":0.09999999403953552},{""stimulus"":""run_exp/static/images/task_images/land.jpg"",""time"":757.5999999940395},{""stimulus"":""run_exp/static/images/task_images/dig.jpg"",""time"":1517.699999988079}]",[],6,,,,,,,,,,,,,,
harvest,132,585497,0.0-42.0-1.0,"""event"",""trial"",""time""
""fullscreenenter"",""1"",""3308""
","
","
","""event"",""trial"",""time""
""fullscreenenter"",""1"",""3308""
","
",,null,run_exp/static/images/task_images/gems/63.jpg,null,,,,,,,51,,,6,,,,,63,0.812371932,0.80952381,,,,,,,
decision,133,586234,0.0-42.0-2.0,"""event"",""trial"",""time""
""fullscreenenter"",""1"",""3308""
","
","
","""event"",""trial"",""time""
""fullscreenenter"",""1"",""3308""
","
",,733.6,run_exp/static/images/task_images/land.jpg,65,,,,,,,51,,,6,,,,,,,,130254,1,2,FALSE,,,
dig,134,588518,0.0-43.0-0.0,"""event"",""trial"",""time""
""fullscreenenter"",""1"",""3308""
","
","
","""event"",""trial"",""time""
""fullscreenenter"",""1"",""3308""
","
",,,,,,,,,,,,"[{""stimulus"":""run_exp/static/images/task_images/dig.jpg"",""time"":0.20000000298023224},{""stimulus"":""run_exp/static/images/task_images/land.jpg"",""time"":770.4000000059605},{""stimulus"":""run_exp/static/images/task_images/dig.jpg"",""time"":1513.6000000089407}]",[],6,,,,,,,,,,,,,,
harvest,135,589535,0.0-43.0-1.0,"""event"",""trial"",""time""
""fullscreenenter"",""1"",""3308""
","
","
","""event"",""trial"",""time""
""fullscreenenter"",""1"",""3308""
","
",,null,run_exp/static/images/task_images/gems/51.jpg,null,,,,,,,41,,,6,,,,,51,0.807569635,0.803921569,,,,,,,
decision,136,589811,0.0-43.0-2.0,"""event"",""trial"",""time""
""fullscreenenter"",""1"",""3308""
","
","
","""event"",""trial"",""time""
""fullscreenenter"",""1"",""3308""
","
",,274.5,run_exp/static/images/task_images/land.jpg,65,,,,,,,41,,,6,,,,,,,,133831,1,3,FALSE,,,
dig,137,592542,0.0-44.0-0.0,"""event"",""trial"",""time""
""fullscreenenter"",""1"",""3308""
","
","
","""event"",""trial"",""time""
""fullscreenenter"",""1"",""3308""
","
",,,,,,,,,,,,"[{""stimulus"":""run_exp/static/images/task_images/dig.jpg"",""time"":0.19999998807907104},{""stimulus"":""run_exp/static/images/task_images/land.jpg"",""time"":931.3999999910593},{""stimulus"":""run_exp/static/images/task_images/dig.jpg"",""time"":1831.7999999970198}]",[],6,,,,,,,,,,,,,,
harvest,138,593547,0.0-44.0-1.0,"""event"",""trial"",""time""
""fullscreenenter"",""1"",""3308""
","
","
","""event"",""trial"",""time""
""fullscreenenter"",""1"",""3308""
","
",,null,run_exp/static/images/task_images/gems/41.jpg,null,,,,,,,30,,,6,,,,,41,0.729470628,0.731707317,,,,,,,
decision,139,596053,0.0-44.0-2.0,"""event"",""trial"",""time""
""fullscreenenter"",""1"",""3308""
","
","
","""event"",""trial"",""time""
""fullscreenenter"",""1"",""3308""
","
",,2504.4,run_exp/static/images/task_images/land.jpg,76,,,,,,,30,,,6,,,,,,,,140073,1,4,TRUE,,,
travel,140,603552,0.0-45.0-0.0,"""event"",""trial"",""time""
""fullscreenenter"",""1"",""3308""
","
","
","""event"",""trial"",""time""
""fullscreenenter"",""1"",""3308""
","
",,,,,,,,,,,,"[{""stimulus"":""run_exp/static/images/task_images/rocket-01.jpg"",""time"":0.20000000298023224},{""stimulus"":""run_exp/static/images/task_images/rocket-02.jpg"",""time"":838.2000000029802},{""stimulus"":""run_exp/static/images/task_images/rocket-03.jpg"",""time"":1670.2999999970198},{""stimulus"":""run_exp/static/images/task_images/rocket-04.jpg"",""time"":2503.2000000029802},{""stimulus"":""run_exp/static/images/task_images/rocket-05.jpg"",""time"":3343.7999999970198},{""stimulus"":""run_exp/static/images/task_images/rocket-06.jpg"",""time"":4174.9000000059605},{""stimulus"":""run_exp/static/images/task_images/rocket-07.jpg"",""time"":5004},{""stimulus"":""run_exp/static/images/task_images/rocket-08.jpg"",""time"":5831.600000008941},{""stimulus"":""run_exp/static/images/task_images/rocket-09.jpg"",""time"":6664.29999999702}]",[],6,,,,,,,,,,,,,,
alien_welcome,141,608560,0.0-45.0-1.0,"""event"",""trial"",""time""
""fullscreenenter"",""1"",""3308""
","
","
","""event"",""trial"",""time""
""fullscreenenter"",""1"",""3308""
","
",,null,run_exp/static/images/task_images/aliens/old_aliens/planet/alien_planet-1.jpg,null,,,,,,,,,,,,,1,"18,27,42,51,73,32,1,14,58,22,2,78,39,60,44,56,65,57,25,43,75,35,15,17,40,71,62,54,59,24,76,11,72,52,23,29,61,31,68,7,47,33,16,64,79,21,28,48",,,,,,,,,,
land,142,609069,0.0-45.0-2.0,"""event"",""trial"",""time""
""fullscreenenter"",""1"",""3308""
","
","
","""event"",""trial"",""time""
""fullscreenenter"",""1"",""3308""
","
",,null,run_exp/static/images/task_images/land.jpg,null,,,,,,,103,,,7,,,,,,,,,,,,,,
dig,143,611083,0.0-45.0-3.0,"""event"",""trial"",""time""
""fullscreenenter"",""1"",""3308""
","
","
","""event"",""trial"",""time""
""fullscreenenter"",""1"",""3308""
","
",,,,,,,,,,,,"[{""stimulus"":""run_exp/static/images/task_images/dig.jpg"",""time"":0.4000000059604645},{""stimulus"":""run_exp/static/images/task_images/land.jpg"",""time"":678.7000000029802},{""stimulus"":""run_exp/static/images/task_images/dig.jpg"",""time"":1348.5}]",[],7,,,,,,,,,,,,,,
harvest,144,612095,0.0-45.0-4.0,"""event"",""trial"",""time""
""fullscreenenter"",""1"",""3308""
","
","
","""event"",""trial"",""time""
""fullscreenenter"",""1"",""3308""
","
",,null,run_exp/static/images/task_images/gems/103.jpg,null,,,,,,,87,,,7,,,,,103,0.842026834,0.844660194,,,,,,,
decision,145,612230,0.0-45.0-5.0,"""event"",""trial"",""time""
""fullscreenenter"",""1"",""3308""
","
","
","""event"",""trial"",""time""
""fullscreenenter"",""1"",""3308""
","
",,133.5,run_exp/static/images/task_images/land.jpg,65,,,,,,,87,,,7,,,,,,,,156250,1,0,FALSE,,,
dig,146,615114,0.0-46.0-0.0,"""event"",""trial"",""time""
""fullscreenenter"",""1"",""3308""
","
","
","""event"",""trial"",""time""
""fullscreenenter"",""1"",""3308""
","
",,,,,,,,,,,,"[{""stimulus"":""run_exp/static/images/task_images/dig.jpg"",""time"":0.29999999701976776},{""stimulus"":""run_exp/static/images/task_images/land.jpg"",""time"":961.5999999940395},{""stimulus"":""run_exp/static/images/task_images/dig.jpg"",""time"":1911.5}]",[],7,,,,,,,,,,,,,,
harvest,147,616138,0.0-46.0-1.0,"""event"",""trial"",""time""
""fullscreenenter"",""1"",""3308""
","
","
","""event"",""trial"",""time""
""fullscreenenter"",""1"",""3308""
","
",,null,run_exp/static/images/task_images/gems/87.jpg,null,,,,,,,69,,,7,,,,,87,0.794084936,0.793103448,,,,,,,
decision,148,616678,0.0-46.0-2.0,"""event"",""trial"",""time""
""fullscreenenter"",""1"",""3308""
","
","
","""event"",""trial"",""time""
""fullscreenenter"",""1"",""3308""
","
",,537,run_exp/static/images/task_images/land.jpg,65,,,,,,,69,,,7,,,,,,,,160698,1,1,FALSE,,,
dig,149,619159,0.0-47.0-0.0,"""event"",""trial"",""time""
""fullscreenenter"",""1"",""3308""
","
","
","""event"",""trial"",""time""
""fullscreenenter"",""1"",""3308""
","
",,,,,,,,,,,,"[{""stimulus"":""run_exp/static/images/task_images/dig.jpg"",""time"":0.09999999403953552},{""stimulus"":""run_exp/static/images/task_images/land.jpg"",""time"":824.2999999970198},{""stimulus"":""run_exp/static/images/task_images/dig.jpg"",""time"":1649.7000000029802}]",[],7,,,,,,,,,,,,,,
harvest,150,620174,0.0-47.0-1.0,"""event"",""trial"",""time""
""fullscreenenter"",""1"",""3308""
","
","
","""event"",""trial"",""time""
""fullscreenenter"",""1"",""3308""
","
",,null,run_exp/static/images/task_images/gems/69.jpg,null,,,,,,,53,,,7,,,,,69,0.764660603,0.768115942,,,,,,,
decision,151,620498,0.0-47.0-2.0,"""event"",""trial"",""time""
""fullscreenenter"",""1"",""3308""
","
","
","""event"",""trial"",""time""
""fullscreenenter"",""1"",""3308""
","
",,321.5,run_exp/static/images/task_images/land.jpg,76,,,,,,,53,,,7,,,,,,,,164518,1,2,TRUE,,,
travel,152,630180,0.0-48.0-0.0,"""event"",""trial"",""time""
""fullscreenenter"",""1"",""3308""
","
","
","""event"",""trial"",""time""
""fullscreenenter"",""1"",""3308""
","
",,,,,,,,,,,,"[{""stimulus"":""run_exp/static/images/task_images/rocket-01.jpg"",""time"":0.30000001192092896},{""stimulus"":""run_exp/static/images/task_images/rocket-02.jpg"",""time"":1090.5},{""stimulus"":""run_exp/static/images/task_images/rocket-03.jpg"",""time"":2165.6000000089407},{""stimulus"":""run_exp/static/images/task_images/rocket-04.jpg"",""time"":3233.1000000089407},{""stimulus"":""run_exp/static/images/task_images/rocket-05.jpg"",""time"":4312.100000008941},{""stimulus"":""run_exp/static/images/task_images/rocket-06.jpg"",""time"":5378.20000000298},{""stimulus"":""run_exp/static/images/task_images/rocket-07.jpg"",""time"":6463.9000000059605},{""stimulus"":""run_exp/static/images/task_images/rocket-08.jpg"",""time"":7535.600000008941},{""stimulus"":""run_exp/static/images/task_images/rocket-09.jpg"",""time"":8610.20000000298}]",[],7,,,,,,,,,,,,,,
alien_welcome,153,635186,0.0-48.0-1.0,"""event"",""trial"",""time""
""fullscreenenter"",""1"",""3308""
","
","
","""event"",""trial"",""time""
""fullscreenenter"",""1"",""3308""
","
",,null,run_exp/static/images/task_images/aliens/old_aliens/planet/alien_planet-14.jpg,null,,,,,,,,,,,,,14,"18,27,42,51,73,32,1,14,58,22,2,78,39,60,44,56,65,57,25,43,75,35,15,17,40,71,62,54,59,24,76,11,72,52,23,29,61,31,68,7,47,33,16,64,79,21,28,48",,,,,,,,,,
land,154,635690,0.0-48.0-2.0,"""event"",""trial"",""time""
""fullscreenenter"",""1"",""3308""
","
","
","""event"",""trial"",""time""
""fullscreenenter"",""1"",""3308""
","
",,null,run_exp/static/images/task_images/land.jpg,null,,,,,,,103,,,8,,,,,,,,,,,,,,
dig,155,637702,0.0-48.0-3.0,"""event"",""trial"",""time""
""fullscreenenter"",""1"",""3308""
","
","
","""event"",""trial"",""time""
""fullscreenenter"",""1"",""3308""
","
",,,,,,,,,,,,"[{""stimulus"":""run_exp/static/images/task_images/dig.jpg"",""time"":0.3999999910593033},{""stimulus"":""run_exp/static/images/task_images/land.jpg"",""time"":678.5},{""stimulus"":""run_exp/static/images/task_images/dig.jpg"",""time"":1337.5999999940395}]",[],8,,,,,,,,,,,,,,
harvest,156,638712,0.0-48.0-4.0,"""event"",""trial"",""time""
""fullscreenenter"",""1"",""3308""
","
","
","""event"",""trial"",""time""
""fullscreenenter"",""1"",""3308""
","
",,null,run_exp/static/images/task_images/gems/103.jpg,null,,,,,,,83,,,8,,,,,103,0.804363762,0.805825243,,,,,,,
decision,157,638783,0.0-48.0-5.0,"""event"",""trial"",""time""
""fullscreenenter"",""1"",""3308""
","
","
","""event"",""trial"",""time""
""fullscreenenter"",""1"",""3308""
","
",,68.7,run_exp/static/images/task_images/land.jpg,65,,,,,,,83,,,8,,,,,,,,182803,1,0,FALSE,,,
dig,158,641725,0.0-49.0-0.0,"""event"",""trial"",""time""
""fullscreenenter"",""1"",""3308""
","
","
","""event"",""trial"",""time""
""fullscreenenter"",""1"",""3308""
","
",,,,,,,,,,,,"[{""stimulus"":""run_exp/static/images/task_images/dig.jpg"",""time"":0.10000000894069672},{""stimulus"":""run_exp/static/images/task_images/land.jpg"",""time"":979},{""stimulus"":""run_exp/static/images/task_images/dig.jpg"",""time"":1961.300000011921}]",[],8,,,,,,,,,,,,,,
harvest,159,642738,0.0-49.0-1.0,"""event"",""trial"",""time""
""fullscreenenter"",""1"",""3308""
","
","
","""event"",""trial"",""time""
""fullscreenenter"",""1"",""3308""
","
",,null,run_exp/static/images/task_images/gems/83.jpg,null,,,,,,,70,,,8,,,,,83,0.840991854,0.843373494,,,,,,,
decision,160,643244,0.0-49.0-2.0,"""event"",""trial"",""time""
""fullscreenenter"",""1"",""3308""
","
","
","""event"",""trial"",""time""
""fullscreenenter"",""1"",""3308""
","
",,504.2,run_exp/static/images/task_images/land.jpg,65,,,,,,,70,,,8,,,,,,,,187264,1,1,FALSE,,,
dig,161,645742,0.0-50.0-0.0,"""event"",""trial"",""time""
""fullscreenenter"",""1"",""3308""
","
","
","""event"",""trial"",""time""
""fullscreenenter"",""1"",""3308""
","
",,,,,,,,,,,,"[{""stimulus"":""run_exp/static/images/task_images/dig.jpg"",""time"":0.19999998807907104},{""stimulus"":""run_exp/static/images/task_images/land.jpg"",""time"":833.8999999910593},{""stimulus"":""run_exp/static/images/task_images/dig.jpg"",""time"":1673.199999988079}]",[],8,,,,,,,,,,,,,,
harvest,162,646750,0.0-50.0-1.0,"""event"",""trial"",""time""
""fullscreenenter"",""1"",""3308""
","
","
","""event"",""trial"",""time""
""fullscreenenter"",""1"",""3308""
","
",,null,run_exp/static/images/task_images/gems/70.jpg,null,,,,,,,55,,,8,,,,,70,0.782339061,0.785714286,,,,,,,
decision,163,647646,0.0-50.0-2.0,"""event"",""trial"",""time""
""fullscreenenter"",""1"",""3308""
","
","
","""event"",""trial"",""time""
""fullscreenenter"",""1"",""3308""
","
",,894.6,run_exp/static/images/task_images/land.jpg,65,,,,,,,55,,,8,,,,,,,,191667,1,2,FALSE,,,
dig,164,649757,0.0-51.0-0.0,"""event"",""trial"",""time""
""fullscreenenter"",""1"",""3308""
","
","
","""event"",""trial"",""time""
""fullscreenenter"",""1"",""3308""
","
",,,,,,,,,,,,"[{""stimulus"":""run_exp/static/images/task_images/dig.jpg"",""time"":0.4000000059604645},{""stimulus"":""run_exp/static/images/task_images/land.jpg"",""time"":712.4000000059605},{""stimulus"":""run_exp/static/images/task_images/dig.jpg"",""time"":1411.2999999970198}]",[],8,,,,,,,,,,,,,,
harvest,165,650775,0.0-51.0-1.0,"""event"",""trial"",""time""
""fullscreenenter"",""1"",""3308""
","
","
","""event"",""trial"",""time""
""fullscreenenter"",""1"",""3308""
","
",,null,run_exp/static/images/task_images/gems/55.jpg,null,,,,,,,43,,,8,,,,,55,0.785188283,0.781818182,,,,,,,
decision,166,653783,0.0-51.0-2.0,"""event"",""trial"",""time""
""fullscreenenter"",""1"",""3308""
","
","
","""event"",""trial"",""time""
""fullscreenenter"",""1"",""3308""
","
",,null,run_exp/static/images/task_images/land.jpg,null,,,,,,,43,,,8,,,,,,,,197803,1,3,FALSE,,,
time_out,167,655788,0.0-52.0-0.0,"""event"",""trial"",""time""
""fullscreenenter"",""1"",""3308""
","
","
","""event"",""trial"",""time""
""fullscreenenter"",""1"",""3308""
","
",,null,run_exp/static/images/task_images/time_out.jpg,null,,,,,,,43,,,,,,,,,,,,,,,,,
decision,168,657257,0.0-52.0-1.0,"""event"",""trial"",""time""
""fullscreenenter"",""1"",""3308""
","
","
","""event"",""trial"",""time""
""fullscreenenter"",""1"",""3308""
","
",,1466.7,run_exp/static/images/task_images/land.jpg,65,,,,,,,43,,,8,,,,,,,,201277,1,3,FALSE,,,
dig,169,658796,0.0-53.0-0.0,"""event"",""trial"",""time""
""fullscreenenter"",""1"",""3308""
","
","
","""event"",""trial"",""time""
""fullscreenenter"",""1"",""3308""
","
",,,,,,,,,,,,"[{""stimulus"":""run_exp/static/images/task_images/dig.jpg"",""time"":0.20000000298023224},{""stimulus"":""run_exp/static/images/task_images/land.jpg"",""time"":523.2000000029802},{""stimulus"":""run_exp/static/images/task_images/dig.jpg"",""time"":1026.5}]",[],8,,,,,,,,,,,,,,
harvest,170,659810,0.0-53.0-1.0,"""event"",""trial"",""time""
""fullscreenenter"",""1"",""3308""
","
","
","""event"",""trial"",""time""
""fullscreenenter"",""1"",""3308""
","
",,null,run_exp/static/images/task_images/gems/43.jpg,null,,,,,,,37,,,8,,,,,43,0.859525105,0.860465116,,,,,,,
decision,171,660287,0.0-53.0-2.0,"""event"",""trial"",""time""
""fullscreenenter"",""1"",""3308""
","
","
","""event"",""trial"",""time""
""fullscreenenter"",""1"",""3308""
","
",,475.5,run_exp/static/images/task_images/land.jpg,76,,,,,,,37,,,8,,,,,,,,204307,1,4,TRUE,,,
travel,172,669822,0.0-54.0-0.0,"""event"",""trial"",""time""
""fullscreenenter"",""1"",""3308""
","
","
","""event"",""trial"",""time""
""fullscreenenter"",""1"",""3308""
","
",,,,,,,,,,,,"[{""stimulus"":""run_exp/static/images/task_images/rocket-01.jpg"",""time"":0.29999999701976776},{""stimulus"":""run_exp/static/images/task_images/rocket-02.jpg"",""time"":1064.7000000029802},{""stimulus"":""run_exp/static/images/task_images/rocket-03.jpg"",""time"":2131.5},{""stimulus"":""run_exp/static/images/task_images/rocket-04.jpg"",""time"":3180},{""stimulus"":""run_exp/static/images/task_images/rocket-05.jpg"",""time"":4250},{""stimulus"":""run_exp/static/images/task_images/rocket-06.jpg"",""time"":5298.4000000059605},{""stimulus"":""run_exp/static/images/task_images/rocket-07.jpg"",""time"":6355.600000008941},{""stimulus"":""run_exp/static/images/task_images/rocket-08.jpg"",""time"":7414.29999999702},{""stimulus"":""run_exp/static/images/task_images/rocket-09.jpg"",""time"":8474.20000000298}]",[],8,,,,,,,,,,,,,,
alien_welcome,173,674828,0.0-54.0-1.0,"""event"",""trial"",""time""
""fullscreenenter"",""1"",""3308""
","
","
","""event"",""trial"",""time""
""fullscreenenter"",""1"",""3308""
","
",,null,run_exp/static/images/task_images/aliens/old_aliens/planet/alien_planet-58.jpg,null,,,,,,,,,,,,,58,"18,27,42,51,73,32,1,14,58,22,2,78,39,60,44,56,65,57,25,43,75,35,15,17,40,71,62,54,59,24,76,11,72,52,23,29,61,31,68,7,47,33,16,64,79,21,28,48",,,,,,,,,,
land,174,675338,0.0-54.0-2.0,"""event"",""trial"",""time""
""fullscreenenter"",""1"",""3308""
","
","
","""event"",""trial"",""time""
""fullscreenenter"",""1"",""3308""
","
",,null,run_exp/static/images/task_images/land.jpg,null,,,,,,,96,,,9,,,,,,,,,,,,,,
dig,175,677352,0.0-54.0-3.0,"""event"",""trial"",""time""
""fullscreenenter"",""1"",""3308""
","
","
","""event"",""trial"",""time""
""fullscreenenter"",""1"",""3308""
","
",,,,,,,,,,,,"[{""stimulus"":""run_exp/static/images/task_images/dig.jpg"",""time"":0.29999999701976776},{""stimulus"":""run_exp/static/images/task_images/land.jpg"",""time"":679},{""stimulus"":""run_exp/static/images/task_images/dig.jpg"",""time"":1338.5}]",[],9,,,,,,,,,,,,,,
harvest,176,678369,0.0-54.0-4.0,"""event"",""trial"",""time""
""fullscreenenter"",""1"",""3308""
","
","
","""event"",""trial"",""time""
""fullscreenenter"",""1"",""3308""
","
",,null,run_exp/static/images/task_images/gems/96.jpg,null,,,,,,,14,,,9,,,,,96,0.144495786,0.145833333,,,,,,,
decision,177,680348,0.0-54.0-5.0,"""event"",""trial"",""time""
""fullscreenenter"",""1"",""3308""
","
","
","""event"",""trial"",""time""
""fullscreenenter"",""1"",""3308""
","
",,1976.7,run_exp/static/images/task_images/land.jpg,65,,,,,,,14,,,9,,,,,,,,224369,1,0,FALSE,,,
dig,178,681386,0.0-55.0-0.0,"""event"",""trial"",""time""
""fullscreenenter"",""1"",""3308""
","
","
","""event"",""trial"",""time""
""fullscreenenter"",""1"",""3308""
","
",,,,,,,,,,,,"[{""stimulus"":""run_exp/static/images/task_images/dig.jpg"",""time"":0.29999999701976776},{""stimulus"":""run_exp/static/images/task_images/land.jpg"",""time"":350.5},{""stimulus"":""run_exp/static/images/task_images/dig.jpg"",""time"":695.7000000029802}]",[],9,,,,,,,,,,,,,,
harvest,179,682398,0.0-55.0-1.0,"""event"",""trial"",""time""
""fullscreenenter"",""1"",""3308""
","
","
","""event"",""trial"",""time""
""fullscreenenter"",""1"",""3308""
","
",,null,run_exp/static/images/task_images/gems/14.jpg,null,,,,,,,2,,,9,,,,,14,0.171085584,0.142857143,,,,,,,
decision,180,684955,0.0-55.0-2.0,"""event"",""trial"",""time""
""fullscreenenter"",""1"",""3308""
","
","
","""event"",""trial"",""time""
""fullscreenenter"",""1"",""3308""
","
",,2554.4,run_exp/static/images/task_images/land.jpg,76,,,,,,,2,,,9,,,,,,,,228975,1,1,TRUE,,,
travel,181,692417,0.0-56.0-0.0,"""event"",""trial"",""time""
""fullscreenenter"",""1"",""3308""
","
","
","""event"",""trial"",""time""
""fullscreenenter"",""1"",""3308""
","
",,,,,,,,,,,,"[{""stimulus"":""run_exp/static/images/task_images/rocket-01.jpg"",""time"":0.20000000298023224},{""stimulus"":""run_exp/static/images/task_images/rocket-02.jpg"",""time"":830.3000000119209},{""stimulus"":""run_exp/static/images/task_images/rocket-03.jpg"",""time"":1655.7000000029802},{""stimulus"":""run_exp/static/images/task_images/rocket-04.jpg"",""time"":2483.6000000089407},{""stimulus"":""run_exp/static/images/task_images/rocket-05.jpg"",""time"":3312.9000000059605},{""stimulus"":""run_exp/static/images/task_images/rocket-06.jpg"",""time"":4136.5},{""stimulus"":""run_exp/static/images/task_images/rocket-07.jpg"",""time"":4964.100000008941},{""stimulus"":""run_exp/static/images/task_images/rocket-08.jpg"",""time"":5802.5},{""stimulus"":""run_exp/static/images/task_images/rocket-09.jpg"",""time"":6629.20000000298}]",[],9,,,,,,,,,,,,,,
alien_welcome,182,697428,0.0-56.0-1.0,"""event"",""trial"",""time""
""fullscreenenter"",""1"",""3308""
","
","
","""event"",""trial"",""time""
""fullscreenenter"",""1"",""3308""
","
",,null,run_exp/static/images/task_images/aliens/old_aliens/planet/alien_planet-22.jpg,null,,,,,,,,,,,,,22,"18,27,42,51,73,32,1,14,58,22,2,78,39,60,44,56,65,57,25,43,75,35,15,17,40,71,62,54,59,24,76,11,72,52,23,29,61,31,68,7,47,33,16,64,79,21,28,48",,,,,,,,,,
land,183,697949,0.0-56.0-2.0,"""event"",""trial"",""time""
""fullscreenenter"",""1"",""3308""
","
","
","""event"",""trial"",""time""
""fullscreenenter"",""1"",""3308""
","
",,null,run_exp/static/images/task_images/land.jpg,null,,,,,,,105,,,10,,,,,,,,,,,,,,
dig,184,699962,0.0-56.0-3.0,"""event"",""trial"",""time""
""fullscreenenter"",""1"",""3308""
","
","
","""event"",""trial"",""time""
""fullscreenenter"",""1"",""3308""
","
",,,,,,,,,,,,"[{""stimulus"":""run_exp/static/images/task_images/dig.jpg"",""time"":0.5},{""stimulus"":""run_exp/static/images/task_images/land.jpg"",""time"":673},{""stimulus"":""run_exp/static/images/task_images/dig.jpg"",""time"":1338}]",[],10,,,,,,,,,,,,,,
harvest,185,700979,0.0-56.0-4.0,"""event"",""trial"",""time""
""fullscreenenter"",""1"",""3308""
","
","
","""event"",""trial"",""time""
""fullscreenenter"",""1"",""3308""
","
",,null,run_exp/static/images/task_images/gems/105.jpg,null,,,,,,,29,,,10,,,,,105,0.27759233,0.276190476,,,,,,,
decision,186,703989,0.0-56.0-5.0,"""event"",""trial"",""time""
""fullscreenenter"",""1"",""3308""
","
","
","""event"",""trial"",""time""
""fullscreenenter"",""1"",""3308""
","
",,null,run_exp/static/images/task_images/land.jpg,null,,,,,,,29,,,10,,,,,,,,248009,1,0,FALSE,,,
time_out,187,706009,0.0-57.0-0.0,"""event"",""trial"",""time""
""fullscreenenter"",""1"",""3308""
","
","
","""event"",""trial"",""time""
""fullscreenenter"",""1"",""3308""
","
",,null,run_exp/static/images/task_images/time_out.jpg,null,,,,,,,29,,,,,,,,,,,,,,,,,
decision,188,706907,0.0-57.0-1.0,"""event"",""trial"",""time""
""fullscreenenter"",""1"",""3308""
","
","
","""event"",""trial"",""time""
""fullscreenenter"",""1"",""3308""
","
",,895.9,run_exp/static/images/task_images/land.jpg,65,,,,,,,29,,,10,,,,,,,,250927,1,0,FALSE,,,
dig,189,709016,0.0-58.0-0.0,"""event"",""trial"",""time""
""fullscreenenter"",""1"",""3308""
","
","
","""event"",""trial"",""time""
""fullscreenenter"",""1"",""3308""
","
",,,,,,,,,,,,"[{""stimulus"":""run_exp/static/images/task_images/dig.jpg"",""time"":0.20000000298023224},{""stimulus"":""run_exp/static/images/task_images/land.jpg"",""time"":714.5},{""stimulus"":""run_exp/static/images/task_images/dig.jpg"",""time"":1410.4000000059605}]",[],10,,,,,,,,,,,,,,
harvest,190,710018,0.0-58.0-1.0,"""event"",""trial"",""time""
""fullscreenenter"",""1"",""3308""
","
","
","""event"",""trial"",""time""
""fullscreenenter"",""1"",""3308""
","
",,null,run_exp/static/images/task_images/gems/29.jpg,null,,,,,,,5,,,10,,,,,29,0.163178406,0.172413793,,,,,,,
decision,191,712629,0.0-58.0-2.0,"""event"",""trial"",""time""
""fullscreenenter"",""1"",""3308""
","
","
","""event"",""trial"",""time""
""fullscreenenter"",""1"",""3308""
","
",,2609,run_exp/static/images/task_images/land.jpg,76,,,,,,,5,,,10,,,,,,,,256649,1,1,TRUE,,,
travel,192,720029,0.0-59.0-0.0,"""event"",""trial"",""time""
""fullscreenenter"",""1"",""3308""
","
","
","""event"",""trial"",""time""
""fullscreenenter"",""1"",""3308""
","
",,,,,,,,,,,,"[{""stimulus"":""run_exp/static/images/task_images/rocket-01.jpg"",""time"":0.20000000298023224},{""stimulus"":""run_exp/static/images/task_images/rocket-02.jpg"",""time"":822},{""stimulus"":""run_exp/static/images/task_images/rocket-03.jpg"",""time"":1648.800000011921},{""stimulus"":""run_exp/static/images/task_images/rocket-04.jpg"",""time"":2476},{""stimulus"":""run_exp/static/images/task_images/rocket-05.jpg"",""time"":3289.2000000029802},{""stimulus"":""run_exp/static/images/task_images/rocket-06.jpg"",""time"":4120.100000008941},{""stimulus"":""run_exp/static/images/task_images/rocket-07.jpg"",""time"":4934.4000000059605},{""stimulus"":""run_exp/static/images/task_images/rocket-08.jpg"",""time"":5751.100000008941},{""stimulus"":""run_exp/static/images/task_images/rocket-09.jpg"",""time"":6582.4000000059605}]",[],10,,,,,,,,,,,,,,
alien_welcome,193,725034,0.0-59.0-1.0,"""event"",""trial"",""time""
""fullscreenenter"",""1"",""3308""
","
","
","""event"",""trial"",""time""
""fullscreenenter"",""1"",""3308""
","
",,null,run_exp/static/images/task_images/aliens/old_aliens/planet/alien_planet-2.jpg,null,,,,,,,,,,,,,2,"18,27,42,51,73,32,1,14,58,22,2,78,39,60,44,56,65,57,25,43,75,35,15,17,40,71,62,54,59,24,76,11,72,52,23,29,61,31,68,7,47,33,16,64,79,21,28,48",,,,,,,,,,
land,194,725538,0.0-59.0-2.0,"""event"",""trial"",""time""
""fullscreenenter"",""1"",""3308""
","
","
","""event"",""trial"",""time""
""fullscreenenter"",""1"",""3308""
","
",,null,run_exp/static/images/task_images/land.jpg,null,,,,,,,99,,,11,,,,,,,,,,,,,,
dig,195,727555,0.0-59.0-3.0,"""event"",""trial"",""time""
""fullscreenenter"",""1"",""3308""
","
","
","""event"",""trial"",""time""
""fullscreenenter"",""1"",""3308""
","
",,,,,,,,,,,,"[{""stimulus"":""run_exp/static/images/task_images/dig.jpg"",""time"":0.29999999701976776},{""stimulus"":""run_exp/static/images/task_images/land.jpg"",""time"":672.2000000029802},{""stimulus"":""run_exp/static/images/task_images/dig.jpg"",""time"":1346.5}]",[],11,,,,,,,,,,,,,,
harvest,196,728564,0.0-59.0-4.0,"""event"",""trial"",""time""
""fullscreenenter"",""1"",""3308""
","
","
","""event"",""trial"",""time""
""fullscreenenter"",""1"",""3308""
","
",,null,run_exp/static/images/task_images/gems/99.jpg,null,,,,,,,15,,,11,,,,,99,0.14893322,0.151515152,,,,,,,
decision,197,729630,0.0-59.0-5.0,"""event"",""trial"",""time""
""fullscreenenter"",""1"",""3308""
","
","
","""event"",""trial"",""time""
""fullscreenenter"",""1"",""3308""
","
",,1064.4,run_exp/static/images/task_images/land.jpg,65,,,,,,,15,,,11,,,,,,,,273651,1,0,FALSE,,,
dig,198,731572,0.0-60.0-0.0,"""event"",""trial"",""time""
""fullscreenenter"",""1"",""3308""
","
","
","""event"",""trial"",""time""
""fullscreenenter"",""1"",""3308""
","
",,,,,,,,,,,,"[{""stimulus"":""run_exp/static/images/task_images/dig.jpg"",""time"":0.20000000298023224},{""stimulus"":""run_exp/static/images/task_images/land.jpg"",""time"":659.7000000029802},{""stimulus"":""run_exp/static/images/task_images/dig.jpg"",""time"":1305.5999999940395}]",[],11,,,,,,,,,,,,,,
harvest,199,732584,0.0-60.0-1.0,"""event"",""trial"",""time""
""fullscreenenter"",""1"",""3308""
","
","
","""event"",""trial"",""time""
""fullscreenenter"",""1"",""3308""
","
",,null,run_exp/static/images/task_images/gems/15.jpg,null,,,,,,,3,,,11,,,,,15,0.18109513,0.2,,,,,,,
decision,200,735588,0.0-60.0-2.0,"""event"",""trial"",""time""
""fullscreenenter"",""1"",""3308""
","
","
","""event"",""trial"",""time""
""fullscreenenter"",""1"",""3308""
","
",,null,run_exp/static/images/task_images/land.jpg,null,,,,,,,3,,,11,,,,,,,,279608,1,1,FALSE,,,
time_out,201,737598,0.0-61.0-0.0,"""event"",""trial"",""time""
""fullscreenenter"",""1"",""3308""
","
","
","""event"",""trial"",""time""
""fullscreenenter"",""1"",""3308""
","
",,null,run_exp/static/images/task_images/time_out.jpg,null,,,,,,,3,,,,,,,,,,,,,,,,,
decision,202,740562,0.0-61.0-1.0,"""event"",""trial"",""time""
""fullscreenenter"",""1"",""3308""
","
","
","""event"",""trial"",""time""
""fullscreenenter"",""1"",""3308""
","
",,2961.2,run_exp/static/images/task_images/land.jpg,76,,,,,,,3,,,11,,,,,,,,284582,1,1,TRUE,,,
travel,203,747606,0.0-62.0-0.0,"""event"",""trial"",""time""
""fullscreenenter"",""1"",""3308""
","
","
","""event"",""trial"",""time""
""fullscreenenter"",""1"",""3308""
","
",,,,,,,,,,,,"[{""stimulus"":""run_exp/static/images/task_images/rocket-01.jpg"",""time"":0.29999999701976776},{""stimulus"":""run_exp/static/images/task_images/rocket-02.jpg"",""time"":790.7999999970198},{""stimulus"":""run_exp/static/images/task_images/rocket-03.jpg"",""time"":1569.4000000059605},{""stimulus"":""run_exp/static/images/task_images/rocket-04.jpg"",""time"":2353.7999999970198},{""stimulus"":""run_exp/static/images/task_images/rocket-05.jpg"",""time"":3143.5},{""stimulus"":""run_exp/static/images/task_images/rocket-06.jpg"",""time"":3924.1000000089407},{""stimulus"":""run_exp/static/images/task_images/rocket-07.jpg"",""time"":4694.29999999702},{""stimulus"":""run_exp/static/images/task_images/rocket-08.jpg"",""time"":5484.79999999702},{""stimulus"":""run_exp/static/images/task_images/rocket-09.jpg"",""time"":6257.100000008941}]",[],11,,,,,,,,,,,,,,
alien_welcome,204,752614,0.0-62.0-1.0,"""event"",""trial"",""time""
""fullscreenenter"",""1"",""3308""
","
","
","""event"",""trial"",""time""
""fullscreenenter"",""1"",""3308""
","
",,null,run_exp/static/images/task_images/aliens/old_aliens/planet/alien_planet-78.jpg,null,,,,,,,,,,,,,78,"18,27,42,51,73,32,1,14,58,22,2,78,39,60,44,56,65,57,25,43,75,35,15,17,40,71,62,54,59,24,76,11,72,52,23,29,61,31,68,7,47,33,16,64,79,21,28,48",,,,,,,,,,
land,205,753126,0.0-62.0-2.0,"""event"",""trial"",""time""
""fullscreenenter"",""1"",""3308""
","
","
","""event"",""trial"",""time""
""fullscreenenter"",""1"",""3308""
","
",,null,run_exp/static/images/task_images/land.jpg,null,,,,,,,107,,,12,,,,,,,,,,,,,,
dig,206,755131,0.0-62.0-3.0,"""event"",""trial"",""time""
""fullscreenenter"",""1"",""3308""
","
","
","""event"",""trial"",""time""
""fullscreenenter"",""1"",""3308""
","
",,,,,,,,,,,,"[{""stimulus"":""run_exp/static/images/task_images/dig.jpg"",""time"":0.30000001192092896},{""stimulus"":""run_exp/static/images/task_images/land.jpg"",""time"":676.3000000119209},{""stimulus"":""run_exp/static/images/task_images/dig.jpg"",""time"":1338.4000000059605}]",[],12,,,,,,,,,,,,,,
harvest,207,756136,0.0-62.0-4.0,"""event"",""trial"",""time""
""fullscreenenter"",""1"",""3308""
","
","
","""event"",""trial"",""time""
""fullscreenenter"",""1"",""3308""
","
",,null,run_exp/static/images/task_images/gems/107.jpg,null,,,,,,,19,,,12,,,,,107,0.177907482,0.177570093,,,,,,,
decision,208,758109,0.0-62.0-5.0,"""event"",""trial"",""time""
""fullscreenenter"",""1"",""3308""
","
","
","""event"",""trial"",""time""
""fullscreenenter"",""1"",""3308""
","
",,1970.4,run_exp/static/images/task_images/land.jpg,65,,,,,,,19,,,12,,,,,,,,302129,1,0,TRUE,,,
end_of_block_continue,209,766717,0.0-63.0-0.0,"""event"",""trial"",""time""
""fullscreenenter"",""1"",""3308""
","
","
","""event"",""trial"",""time""
""fullscreenenter"",""1"",""3308""
","
",,8603.5,run_exp/static/audio/clip_32_block_end.m4a,,,,,,,0,,,,,,,,,,,,,,,,,,
alien_welcome,210,771728,0.0-64.0-0.0,"""event"",""trial"",""time""
""fullscreenenter"",""1"",""3308""
","
","
","""event"",""trial"",""time""
""fullscreenenter"",""1"",""3308""
","
",,null,run_exp/static/images/task_images/aliens/old_aliens/planet/alien_planet-39.jpg,null,,,,,,,,,,,,,39,"18,27,42,51,73,32,1,14,58,22,2,78,39,60,44,56,65,57,25,43,75,35,15,17,40,71,62,54,59,24,76,11,72,52,23,29,61,31,68,7,47,33,16,64,79,21,28,48",,,,,,,,,,
land,211,772240,0.0-64.0-1.0,"""event"",""trial"",""time""
""fullscreenenter"",""1"",""3308""
","
","
","""event"",""trial"",""time""
""fullscreenenter"",""1"",""3308""
","
",,null,run_exp/static/images/task_images/land.jpg,null,,,,,,,99,,,13,,,,,,,,,,,,,,
dig,212,774245,0.0-64.0-2.0,"""event"",""trial"",""time""
""fullscreenenter"",""1"",""3308""
","
","
","""event"",""trial"",""time""
""fullscreenenter"",""1"",""3308""
","
",,,,,,,,,,,,"[{""stimulus"":""run_exp/static/images/task_images/dig.jpg"",""time"":0.7000000029802322},{""stimulus"":""run_exp/static/images/task_images/land.jpg"",""time"":677.2000000029802},{""stimulus"":""run_exp/static/images/task_images/dig.jpg"",""time"":1346.7999999970198}]",[],13,,,,,,,,,,,,,,
harvest,213,775262,0.0-64.0-3.0,"""event"",""trial"",""time""
""fullscreenenter"",""1"",""3308""
","
","
","""event"",""trial"",""time""
""fullscreenenter"",""1"",""3308""
","
",,null,run_exp/static/images/task_images/gems/99.jpg,null,,,,,,,19,,,13,,,,,99,0.189138183,0.191919192,,,,,,,
decision,214,776348,0.0-64.0-4.0,"""event"",""trial"",""time""
""fullscreenenter"",""1"",""3308""
","
","
","""event"",""trial"",""time""
""fullscreenenter"",""1"",""3308""
","
",,1083.7,run_exp/static/images/task_images/land.jpg,65,,,,,,,19,,,13,,,,,,,,9628,2,0,FALSE,,,
dig,215,778268,0.0-65.0-0.0,"""event"",""trial"",""time""
""fullscreenenter"",""1"",""3308""
","
","
","""event"",""trial"",""time""
""fullscreenenter"",""1"",""3308""
","
",,,,,,,,,,,,"[{""stimulus"":""run_exp/static/images/task_images/dig.jpg"",""time"":0.19999998807907104},{""stimulus"":""run_exp/static/images/task_images/land.jpg"",""time"":645.6999999880791},{""stimulus"":""run_exp/static/images/task_images/dig.jpg"",""time"":1279.7999999970198}]",[],13,,,,,,,,,,,,,,
harvest,216,779272,0.0-65.0-1.0,"""event"",""trial"",""time""
""fullscreenenter"",""1"",""3308""
","
","
","""event"",""trial"",""time""
""fullscreenenter"",""1"",""3308""
","
",,null,run_exp/static/images/task_images/gems/19.jpg,null,,,,,,,5,,,13,,,,,19,0.277093924,0.263157895,,,,,,,
decision,217,781318,0.0-65.0-2.0,"""event"",""trial"",""time""
""fullscreenenter"",""1"",""3308""
","
","
","""event"",""trial"",""time""
""fullscreenenter"",""1"",""3308""
","
",,2045.1,run_exp/static/images/task_images/land.jpg,76,,,,,,,5,,,13,,,,,,,,14599,2,1,TRUE,,,
travel,218,789284,0.0-66.0-0.0,"""event"",""trial"",""time""
""fullscreenenter"",""1"",""3308""
","
","
","""event"",""trial"",""time""
""fullscreenenter"",""1"",""3308""
","
",,,,,,,,,,,,"[{""stimulus"":""run_exp/static/images/task_images/rocket-01.jpg"",""time"":0.20000000298023224},{""stimulus"":""run_exp/static/images/task_images/rocket-02.jpg"",""time"":889.8999999910593},{""stimulus"":""run_exp/static/images/task_images/rocket-03.jpg"",""time"":1778.2000000029802},{""stimulus"":""run_exp/static/images/task_images/rocket-04.jpg"",""time"":2652.7000000029802},{""stimulus"":""run_exp/static/images/task_images/rocket-05.jpg"",""time"":3543.2999999970198},{""stimulus"":""run_exp/static/images/task_images/rocket-06.jpg"",""time"":4418.79999999702},{""stimulus"":""run_exp/static/images/task_images/rocket-07.jpg"",""time"":5305.20000000298},{""stimulus"":""run_exp/static/images/task_images/rocket-08.jpg"",""time"":6187.70000000298},{""stimulus"":""run_exp/static/images/task_images/rocket-09.jpg"",""time"":7080.79999999702}]",[],13,,,,,,,,,,,,,,
alien_welcome,219,794299,0.0-66.0-1.0,"""event"",""trial"",""time""
""fullscreenenter"",""1"",""3308""
","
","
","""event"",""trial"",""time""
""fullscreenenter"",""1"",""3308""
","
",,null,run_exp/static/images/task_images/aliens/old_aliens/planet/alien_planet-60.jpg,null,,,,,,,,,,,,,60,"18,27,42,51,73,32,1,14,58,22,2,78,39,60,44,56,65,57,25,43,75,35,15,17,40,71,62,54,59,24,76,11,72,52,23,29,61,31,68,7,47,33,16,64,79,21,28,48",,,,,,,,,,
land,220,794819,0.0-66.0-2.0,"""event"",""trial"",""time""
""fullscreenenter"",""1"",""3308""
","
","
","""event"",""trial"",""time""
""fullscreenenter"",""1"",""3308""
","
",,null,run_exp/static/images/task_images/land.jpg,null,,,,,,,109,,,14,,,,,,,,,,,,,,
dig,221,796833,0.0-66.0-3.0,"""event"",""trial"",""time""
""fullscreenenter"",""1"",""3308""
","
","
","""event"",""trial"",""time""
""fullscreenenter"",""1"",""3308""
","
",,,,,,,,,,,,"[{""stimulus"":""run_exp/static/images/task_images/dig.jpg"",""time"":0.7999999970197678},{""stimulus"":""run_exp/static/images/task_images/land.jpg"",""time"":675.0999999940395},{""stimulus"":""run_exp/static/images/task_images/dig.jpg"",""time"":1350}]",[],14,,,,,,,,,,,,,,
harvest,222,797850,0.0-66.0-4.0,"""event"",""trial"",""time""
""fullscreenenter"",""1"",""3308""
","
","
","""event"",""trial"",""time""
""fullscreenenter"",""1"",""3308""
","
",,null,run_exp/static/images/task_images/gems/109.jpg,null,,,,,,,16,,,14,,,,,109,0.143799991,0.146788991,,,,,,,
decision,223,800859,0.0-66.0-5.0,"""event"",""trial"",""time""
""fullscreenenter"",""1"",""3308""
","
","
","""event"",""trial"",""time""
""fullscreenenter"",""1"",""3308""
","
",,null,run_exp/static/images/task_images/land.jpg,null,,,,,,,16,,,14,,,,,,,,34140,2,0,FALSE,,,
time_out,224,802866,0.0-67.0-0.0,"""event"",""trial"",""time""
""fullscreenenter"",""1"",""3308""
","
","
","""event"",""trial"",""time""
""fullscreenenter"",""1"",""3308""
","
",,null,run_exp/static/images/task_images/time_out.jpg,null,,,,,,,16,,,,,,,,,,,,,,,,,
decision,225,803515,0.0-67.0-1.0,"""event"",""trial"",""time""
""fullscreenenter"",""1"",""3308""
","
","
","""event"",""trial"",""time""
""fullscreenenter"",""1"",""3308""
","
",,644.7,run_exp/static/images/task_images/land.jpg,65,,,,,,,16,,,14,,,,,,,,36795,2,0,FALSE,,,
dig,226,805889,0.0-68.0-0.0,"""event"",""trial"",""time""
""fullscreenenter"",""1"",""3308""
","
","
","""event"",""trial"",""time""
""fullscreenenter"",""1"",""3308""
","
",,,,,,,,,,,,"[{""stimulus"":""run_exp/static/images/task_images/dig.jpg"",""time"":0.20000000298023224},{""stimulus"":""run_exp/static/images/task_images/land.jpg"",""time"":794.1000000089407},{""stimulus"":""run_exp/static/images/task_images/dig.jpg"",""time"":1583.6000000089407}]",[],14,,,,,,,,,,,,,,
harvest,227,806903,0.0-68.0-1.0,"""event"",""trial"",""time""
""fullscreenenter"",""1"",""3308""
","
","
","""event"",""trial"",""time""
""fullscreenenter"",""1"",""3308""
","
",,null,run_exp/static/images/task_images/gems/16.jpg,null,,,,,,,4,,,14,,,,,16,0.269157257,0.25,,,,,,,
decision,228,808985,0.0-68.0-2.0,"""event"",""trial"",""time""
""fullscreenenter"",""1"",""3308""
","
","
","""event"",""trial"",""time""
""fullscreenenter"",""1"",""3308""
","
",,2079.8,run_exp/static/images/task_images/land.jpg,76,,,,,,,4,,,14,,,,,,,,42265,2,1,TRUE,,,
travel,229,816913,0.0-69.0-0.0,"""event"",""trial"",""time""
""fullscreenenter"",""1"",""3308""
","
","
","""event"",""trial"",""time""
""fullscreenenter"",""1"",""3308""
","
",,,,,,,,,,,,"[{""stimulus"":""run_exp/static/images/task_images/rocket-01.jpg"",""time"":0.29999999701976776},{""stimulus"":""run_exp/static/images/task_images/rocket-02.jpg"",""time"":887.0999999940395},{""stimulus"":""run_exp/static/images/task_images/rocket-03.jpg"",""time"":1765.8999999910593},{""stimulus"":""run_exp/static/images/task_images/rocket-04.jpg"",""time"":2647.3999999910593},{""stimulus"":""run_exp/static/images/task_images/rocket-05.jpg"",""time"":3537.3999999910593},{""stimulus"":""run_exp/static/images/task_images/rocket-06.jpg"",""time"":4411.29999999702},{""stimulus"":""run_exp/static/images/task_images/rocket-07.jpg"",""time"":5283.70000000298},{""stimulus"":""run_exp/static/images/task_images/rocket-08.jpg"",""time"":6163.29999999702},{""stimulus"":""run_exp/static/images/task_images/rocket-09.jpg"",""time"":7048}]",[],14,,,,,,,,,,,,,,
alien_welcome,230,821924,0.0-69.0-1.0,"""event"",""trial"",""time""
""fullscreenenter"",""1"",""3308""
","
","
","""event"",""trial"",""time""
""fullscreenenter"",""1"",""3308""
","
",,null,run_exp/static/images/task_images/aliens/old_aliens/planet/alien_planet-44.jpg,null,,,,,,,,,,,,,44,"18,27,42,51,73,32,1,14,58,22,2,78,39,60,44,56,65,57,25,43,75,35,15,17,40,71,62,54,59,24,76,11,72,52,23,29,61,31,68,7,47,33,16,64,79,21,28,48",,,,,,,,,,
land,231,822432,0.0-69.0-2.0,"""event"",""trial"",""time""
""fullscreenenter"",""1"",""3308""
","
","
","""event"",""trial"",""time""
""fullscreenenter"",""1"",""3308""
","
",,null,run_exp/static/images/task_images/land.jpg,null,,,,,,,101,,,15,,,,,,,,,,,,,,
dig,232,824440,0.0-69.0-3.0,"""event"",""trial"",""time""
""fullscreenenter"",""1"",""3308""
","
","
","""event"",""trial"",""time""
""fullscreenenter"",""1"",""3308""
","
",,,,,,,,,,,,"[{""stimulus"":""run_exp/static/images/task_images/dig.jpg"",""time"":0.5999999940395355},{""stimulus"":""run_exp/static/images/task_images/land.jpg"",""time"":677.0999999940395},{""stimulus"":""run_exp/static/images/task_images/dig.jpg"",""time"":1339.3999999910593}]",[],15,,,,,,,,,,,,,,
harvest,233,825446,0.0-69.0-4.0,"""event"",""trial"",""time""
""fullscreenenter"",""1"",""3308""
","
","
","""event"",""trial"",""time""
""fullscreenenter"",""1"",""3308""
","
",,null,run_exp/static/images/task_images/gems/101.jpg,null,,,,,,,21,,,15,,,,,101,0.211418752,0.207920792,,,,,,,
decision,234,828246,0.0-69.0-5.0,"""event"",""trial"",""time""
""fullscreenenter"",""1"",""3308""
","
","
","""event"",""trial"",""time""
""fullscreenenter"",""1"",""3308""
","
",,2798.2,run_exp/static/images/task_images/land.jpg,65,,,,,,,21,,,15,,,,,,,,61527,2,0,FALSE,,,
dig,235,828452,0.0-70.0-0.0,"""event"",""trial"",""time""
""fullscreenenter"",""1"",""3308""
","
","
","""event"",""trial"",""time""
""fullscreenenter"",""1"",""3308""
","
",,,,,,,,,,,,"[{""stimulus"":""run_exp/static/images/task_images/dig.jpg"",""time"":0.09999999403953552},{""stimulus"":""run_exp/static/images/task_images/land.jpg"",""time"":77.20000000298023},{""stimulus"":""run_exp/static/images/task_images/dig.jpg"",""time"":145.90000000596046}]",[],15,,,,,,,,,,,,,,
harvest,236,829470,0.0-70.0-1.0,"""event"",""trial"",""time""
""fullscreenenter"",""1"",""3308""
","
","
","""event"",""trial"",""time""
""fullscreenenter"",""1"",""3308""
","
",,null,run_exp/static/images/task_images/gems/21.jpg,null,,,,,,,4,,,15,,,,,21,0.204364674,0.19047619,,,,,,,
decision,237,831791,0.0-70.0-2.0,"""event"",""trial"",""time""
""fullscreenenter"",""1"",""3308""
","
","
","""event"",""trial"",""time""
""fullscreenenter"",""1"",""3308""
","
",,2318.5,run_exp/static/images/task_images/land.jpg,76,,,,,,,4,,,15,,,,,,,,65071,2,1,TRUE,,,
travel,238,839485,0.0-71.0-0.0,"""event"",""trial"",""time""
""fullscreenenter"",""1"",""3308""
","
","
","""event"",""trial"",""time""
""fullscreenenter"",""1"",""3308""
","
