trial_type,trial_index,time_elapsed,internal_node_id,success,rt,stimulus,key_press,prompt,subject_id,age,gender,button_pressed,next_reward,animation_sequence,responses,planet,curr_prac_trial,n_prac_rounds,alien,aliens,reward_received,decay_rate_actual,decay_rate_exp,time_in_block,block_num,prt,last_trial_on_planet,button_html,bonus,num_failures
pavlovia,0,7,0.0-0.0,,,,,,,,,,,,,,,,,,,,,,,,,,,
fullscreen,1,15010,0.0-1.0,TRUE,,,,,,,,,,,,,,,,,,,,,,,,,,
instruc_welcome,2,24736,0.0-2.0,,null,run_exp/static/audio/clip_1_welcome.m4a,null,"<p>Howdy! In this experiment, you’ll be an explorer traveling through space to collect space treasure.</p><p>Your mission is to collect as much treasure as possible.</p><br><br><p><img src='run_exp/static/images/task_images/opening_img-01.jpg' height='300' width='auto'></p>",trEiwhVO8K99ZMh_a5Ke5UddwllDBGZ_MLRP_37zWN36ivvEo7ye,11.29,male,,,,,,,,,,,,,,,,,,,
audio-keyboard-response,3,41314,0.0-3.0,,null,run_exp/static/audio/clip_2_move.m4a,null,,,,,,,,,,,,,,,,,,,,,,,
welcome_dec,4,42548,0.0-4.0,,1231.67,"<p>Howdy! In this experiment, you’ll be an explorer traveling through space to collect space treasure.</p><p>Your mission is to collect as much treasure as possible.</p><br><br><p><img src='run_exp/static/images/task_images/opening_img-01.jpg' height='300' width='auto'></p>",,,,,,0,,,,,,,,,,,,,,,,,,
html-keyboard-response,5,45190,0.0-5.0,,2640.32,"<p>Howdy! In this experiment, you’ll be an explorer traveling through space to collect space treasure.</p><p>Your mission is to collect as much treasure as possible.</p><br><br><p><img src='run_exp/static/images/task_images/opening_img-01.jpg' height='300' width='auto'></p><button class=""jspsych-html-btn-chosen""><img src=""run_exp/static/images/task_images/planet-01.jpg"" height=""50""></button><button class=""jspsych-html-btn-unchosen""><img src=""run_exp/static/images/task_images/planet-02.jpg"" height=""50""></button><p><b>[press the space bar to lock in your answer]<b><br></p>",32,,,,,,,,,,,,,,,,,,,,,,,
instruc_welcome,6,54920,0.0-6.0-0.0,,null,run_exp/static/audio/clip_1_welcome.m4a,null,"<p>Howdy! In this experiment, you’ll be an explorer traveling through space to collect space treasure.</p><p>Your mission is to collect as much treasure as possible.</p><br><br><p><img src='run_exp/static/images/task_images/opening_img-01.jpg' height='300' width='auto'></p>",trEiwhVO8K99ZMh_a5Ke5UddwllDBGZ_MLRP_37zWN36ivvEo7ye,,,,,,,,,,,,,,,,,,,,,
audio-keyboard-response,7,71498,0.0-6.0-1.0,,null,run_exp/static/audio/clip_2_move.m4a,null,,,,,,,,,,,,,,,,,,,,,,,
welcome_dec,8,72460,0.0-6.0-2.0,,960.2349999,"<p>Howdy! In this experiment, you’ll be an explorer traveling through space to collect space treasure.</p><p>Your mission is to collect as much treasure as possible.</p><br><br><p><img src='run_exp/static/images/task_images/opening_img-01.jpg' height='300' width='auto'></p>",,,,,,1,,,,,,,,,,,,,,,,,,
html-keyboard-response,9,72494,0.0-6.0-3.0,,32.66500006,"<p>Howdy! In this experiment, you’ll be an explorer traveling through space to collect space treasure.</p><p>Your mission is to collect as much treasure as possible.</p><br><br><p><img src='run_exp/static/images/task_images/opening_img-01.jpg' height='300' width='auto'></p><button class=""jspsych-html-btn-unchosen""><img src=""run_exp/static/images/task_images/planet-01.jpg"" height=""50""></button><button class=""jspsych-html-btn-chosen""><img src=""run_exp/static/images/task_images/planet-02.jpg"" height=""50""></button><p><b>[press the space bar to lock in your answer]<b><br></p>",32,,,,,,,,,,,,,,,,,,,,,,,
instruc_goal,10,82551,0.0-7.0-0.0,,null,run_exp/static/audio/clip_3_goal.m4a,null,"<p> As a space explorer, you’ll visit different planets to dig for space treasure, these pink gems.</p> <p> The more treasure you dig up, the more bonus money you’ll win! </p><br><br><p><img src='run_exp/static/images/task_images/pink_gem.jpg' height='300' width='auto'></p>",,,,,,,,,,,,,,,,,,,,,,
instruc_goal,11,85598,0.0-7.0-1.0,,3045.5,"<p> As a space explorer, you’ll visit different planets to dig for space treasure, these pink gems.</p> <p> The more treasure you dig up, the more bonus money you’ll win! </p><br><br><p><img src='run_exp/static/images/task_images/pink_gem.jpg' height='300' width='auto'></p>",,,,,,1,,,,,,,,,,,,,,,,,,
html-keyboard-response,12,85746,0.0-7.0-2.0,,147.28,"<p> As a space explorer, you’ll visit different planets to dig for space treasure, these pink gems.</p> <p> The more treasure you dig up, the more bonus money you’ll win! </p><br><br><p><img src='run_exp/static/images/task_images/pink_gem.jpg' height='300' width='auto'></p><button class=""jspsych-html-btn-unchosen""><img src=""run_exp/static/images/task_images/planet-01.jpg"" height=""50""></button><button class=""jspsych-html-btn-chosen""><img src=""run_exp/static/images/task_images/planet-02.jpg"" height=""50""></button><p><b>[press the space bar to lock in your answer]<b><br></p>",32,,,,,,,,,,,,,,,,,,,,,,,
instruc_dig,13,101776,0.0-8.0-0.0,,null,run_exp/static/audio/clip_4_dig.m4a,null,,,,,,100,,,,,,,,,,,,,,,,,
instruc_dig_try,14,102374,0.0-8.0-1.0,,597.13,"<p> When you’ve arrived at a new planet, you will dig once. </p> <p>Then, you get to decide if you want to stay on the planet and dig again or travel to a new planet and dig there.</p> <p> To stay and dig, press the letter <strong>‘A’</strong> on your keyboard. Try pressing it now! </p><p><img src='run_exp/static/images/task_images/land.jpg'  height='700' width='auto'></p>",65,"<p> When you’ve arrived at a new planet, you will dig once. </p> <p>Then, you get to decide if you want to stay on the planet and dig again or travel to a new planet and dig there.</p> <p> To stay and dig, press the letter <strong>‘A’</strong> on your keyboard. Try pressing it now! </p><p><img src='run_exp/static/images/task_images/land.jpg'  height='700' width='auto'></p>",,,,,100,,,,,,,,,,,,,,,,,
dig_prac,15,104385,0.0-8.0-2.0,,,,,,,,,,,"[{""stimulus"":""run_exp/static/images/task_images/dig.jpg"",""time"":0.2649999223649502},{""stimulus"":""run_exp/static/images/task_images/land.jpg"",""time"":668.2499999878928},{""stimulus"":""run_exp/static/images/task_images/dig.jpg"",""time"":1340.154999983497}]",[],,,,,,,,,,,,,,,
instruc_travel,16,140598,0.0-8.0-3.0,,null,run_exp/static/audio/clip_5_travel.m4a,null,"<p>Every time you dig up gems, there are less gems on the planet, so the more you dig on a planet the fewer gems you’ll get with each dig.</p><p>When gems are running low, you may want to travel to a new planet. </p> <p>  Planets are very far apart in this galaxy, so it will take some time to travel between them. </p> <br><p>There are lots and lots of planets for you to visit, so you won’t be able to return to any planets you’ve seen before. </p><br><p>To leave this planet and travel to a new one, press the letter <strong>‘L’</strong> on your keyboard. Try pressing it now! </p><p><img src='run_exp/static/images/task_images/rocket-01.jpg'  height='600' width='auto'></p>",,,,,,,,,,,,,,,,,,,,,,
instruc_travel_try,17,143133,0.0-8.0-4.0,,2534.84,"<p>Every time you dig up gems, there are less gems on the planet, so the more you dig on a planet the fewer gems you’ll get with each dig.</p><p>When gems are running low, you may want to travel to a new planet. </p> <p>  Planets are very far apart in this galaxy, so it will take some time to travel between them. </p> <br><p>There are lots and lots of planets for you to visit, so you won’t be able to return to any planets you’ve seen before. </p><br><p>To leave this planet and travel to a new one, press the letter <strong>‘L’</strong> on your keyboard. Try pressing it now! </p><p><img src='run_exp/static/images/task_images/rocket-01.jpg'  height='600' width='auto'></p>",76,"<p>Every time you dig up gems, there are less gems on the planet, so the more you dig on a planet the fewer gems you’ll get with each dig.</p><p>When gems are running low, you may want to travel to a new planet. </p> <p>  Planets are very far apart in this galaxy, so it will take some time to travel between them. </p> <br><p>There are lots and lots of planets for you to visit, so you won’t be able to return to any planets you’ve seen before. </p><br><p>To leave this planet and travel to a new one, press the letter <strong>‘L’</strong> on your keyboard. Try pressing it now! </p><p><img src='run_exp/static/images/task_images/rocket-01.jpg'  height='600' width='auto'></p>",,,,,,,,,,,,,,,,,,,,,,
travel_prac,18,153135,0.0-8.0-5.0,,,,,,,,,,,"[{""stimulus"":""run_exp/static/images/task_images/rocket-01.jpg"",""time"":0.20000000949949026},{""stimulus"":""run_exp/static/images/task_images/rocket-02.jpg"",""time"":1116.9450000161305},{""stimulus"":""run_exp/static/images/task_images/rocket-03.jpg"",""time"":2225.6300000008196},{""stimulus"":""run_exp/static/images/task_images/rocket-04.jpg"",""time"":3337.225000024773},{""stimulus"":""run_exp/static/images/task_images/rocket-05.jpg"",""time"":4448.809999972582},{""stimulus"":""run_exp/static/images/task_images/rocket-06.jpg"",""time"":5557.734999922104},{""stimulus"":""run_exp/static/images/task_images/rocket-07.jpg"",""time"":6672.015000018291},{""stimulus"":""run_exp/static/images/task_images/rocket-08.jpg"",""time"":7781.089999945834},{""stimulus"":""run_exp/static/images/task_images/rocket-09.jpg"",""time"":8889.834999921732}]",[],0,,,,,,,,,,,,,,
instruc_alien_greet,19,180325,0.0-8.0-6.0,,null,run_exp/static/audio/clip_6_alien.m4a,null,"<p>When you arrive at a new planet, the alien who owns the treasure mine on that planet will greet you!</p><p>The better an alien takes care of their mine the easier it is to dig for gems. Some aliens take better care of their mine than others. So, you won’t get exactly the same amount of gems on each planet.</p><p>What the alien looks like does not tell you anything about how many gems there are on the planet.</p><br><p><img src=""run_exp/static/images/task_images/aliens/instructions_aliens/planet/alien_planet-1.jpg""  height=""600"" width=""auto""></p>",,,,,,,,,,,,,,,,,,,,,,
instruc_alien_greet,20,190564,0.0-8.0-7.0,,10238.625,"<p>When you arrive at a new planet, the alien who owns the treasure mine on that planet will greet you!</p><p>The better an alien takes care of their mine the easier it is to dig for gems. Some aliens take better care of their mine than others. So, you won’t get exactly the same amount of gems on each planet.</p><p>What the alien looks like does not tell you anything about how many gems there are on the planet.</p><br><p><img src=""run_exp/static/images/task_images/aliens/instructions_aliens/planet/alien_planet-1.jpg""  height=""600"" width=""auto""></p>",,,,,,1,,,,,,,,,,,,,,,,,,
html-keyboard-response,21,191813,0.0-8.0-8.0,,1247.305,"<p>When you arrive at a new planet, the alien who owns the treasure mine on that planet will greet you!</p><p>The better an alien takes care of their mine the easier it is to dig for gems. Some aliens take better care of their mine than others. So, you won’t get exactly the same amount of gems on each planet.</p><p>What the alien looks like does not tell you anything about how many gems there are on the planet.</p><br><p><img src=""run_exp/static/images/task_images/aliens/instructions_aliens/planet/alien_planet-1.jpg""  height=""600"" width=""auto""></p><button class=""jspsych-html-btn-unchosen""><img src=""run_exp/static/images/task_images/planet-01.jpg"" height=""50""></button><button class=""jspsych-html-btn-chosen""><img src=""run_exp/static/images/task_images/planet-02.jpg"" height=""50""></button><p><b>[press the space bar to lock in your answer]<b><br></p>",32,,,,,,,,,,,,,,,,,,,,,,,
time_out,22,202877,0.0-9.0-0.0,,null,run_exp/static/audio/clip_7_timeout.m4a,null,"<p>If you don't make your choice fast enough, you’ll have to wait a few seconds before you can make another one.</p><p>You can’t dig for more gems or travel to new planets. You just have to sit and wait.</p><br><p><img src='run_exp/static/images/task_images/time_out.jpg'  height='600' width='auto'></p>",,,,,,,,,,,,,,,,,,,,,,
time_out,23,204906,0.0-9.0-1.0,,2027.33,"<p>If you don't make your choice fast enough, you’ll have to wait a few seconds before you can make another one.</p><p>You can’t dig for more gems or travel to new planets. You just have to sit and wait.</p><br><p><img src='run_exp/static/images/task_images/time_out.jpg'  height='600' width='auto'></p>",,,,,,1,,,,,,,,,,,,,,,,,,
html-keyboard-response,24,204987,0.0-9.0-2.0,,80.10499994,"<p>If you don't make your choice fast enough, you’ll have to wait a few seconds before you can make another one.</p><p>You can’t dig for more gems or travel to new planets. You just have to sit and wait.</p><br><p><img src='run_exp/static/images/task_images/time_out.jpg'  height='600' width='auto'></p><button class=""jspsych-html-btn-unchosen""><img src=""run_exp/static/images/task_images/planet-01.jpg"" height=""50""></button><button class=""jspsych-html-btn-chosen""><img src=""run_exp/static/images/task_images/planet-02.jpg"" height=""50""></button><p><b>[press the space bar to lock in your answer]<b><br></p>",32,,,,,,,,,,,,,,,,,,,,,,,
instruc_break,25,220639,0.0-10.0-0.0,,null,run_exp/static/audio/clip_8_break.m4a,null,"<p> After digging and traveling for a while, you’ll be able to take a break at home base. </p><p>The game will last 20 minutes no matter what.</p><p>You will visit home base every 5 minutes, so, you will visit home base three times during the game.</p><br><p><img src='run_exp/static/images/task_images/home_base.jpg' height='600' width='auto'></p>",,,,,,,,,,,,,,,,,,,,,,
instruc_break,26,222429,0.0-10.0-1.0,,1787.905,"<p> After digging and traveling for a while, you’ll be able to take a break at home base. </p><p>The game will last 20 minutes no matter what.</p><p>You will visit home base every 5 minutes, so, you will visit home base three times during the game.</p><br><p><img src='run_exp/static/images/task_images/home_base.jpg' height='600' width='auto'></p>",,,,,,1,,,,,,,,,,,,,,,,,,
html-keyboard-response,27,223100,0.0-10.0-2.0,,670.1099999,"<p> After digging and traveling for a while, you’ll be able to take a break at home base. </p><p>The game will last 20 minutes no matter what.</p><p>You will visit home base every 5 minutes, so, you will visit home base three times during the game.</p><br><p><img src='run_exp/static/images/task_images/home_base.jpg' height='600' width='auto'></p><button class=""jspsych-html-btn-unchosen""><img src=""run_exp/static/images/task_images/planet-01.jpg"" height=""50""></button><button class=""jspsych-html-btn-chosen""><img src=""run_exp/static/images/task_images/planet-02.jpg"" height=""50""></button><p><b>[press the space bar to lock in your answer]<b><br></p>",32,,,,,,,,,,,,,,,,,,,,,,,
instruc_prac_game,28,233224,0.0-11.0-0.0,,null,run_exp/static/audio/clip_9_practice.m4a,null,"<p> Are you ready to play a practice game? </p> <p>In this practice game, you'll be digging up barrels of gems. But, in the real game, you'll be digging up the gems themselves. </p>",,,,,,,,,,,,,,,,,,,,,,
html-button-response,29,235796,0.0-11.0-1.0,,2571.205,"<p> Are you ready to play a practice game? </p> <p>In this practice game, you'll be digging up barrels of gems. But, in the real game, you'll be digging up the gems themselves. </p>",,,,,,0,,,,,,,,,,,,,,,,,,
alien_welcome_prac,30,240801,0.0-12.0-0.0,,null,run_exp/static/images/task_images/aliens/practice_aliens/planet/alien_planet-5.jpg,null,,,,,,,,,,,,,,,,,,,,,,,
land_prac,31,241303,0.0-12.0-1.0,,null,run_exp/static/images/task_images/land.jpg,null,,,,,,94,,,0,,,,,,,,,,,,,,
dig_prac,32,243308,0.0-12.0-2.0,,,,,,,,,,,"[{""stimulus"":""run_exp/static/images/task_images/dig.jpg"",""time"":0.1799999736249447},{""stimulus"":""run_exp/static/images/task_images/land.jpg"",""time"":672.205000068061},{""stimulus"":""run_exp/static/images/task_images/dig.jpg"",""time"":1335.7649999670684}]",[],,,,,,,,,,,,,,,
harvest_prac,33,244313,0.0-12.0-3.0,,null,run_exp/static/images/task_images/barrel_text.jpg,null,,,,,,,,,,,,,,,,,,,,,,,
decision_prac,34,245364,0.0-12.0-4.0,,1049.78,run_exp/static/images/task_images/land.jpg,65,,,,,,,,,,1,,,,,,,,,,,,,
dig_prac,35,247371,0.0-13.0-0.0,,,,,,,,,,,"[{""stimulus"":""run_exp/static/images/task_images/dig.jpg"",""time"":0.20000000949949026},{""stimulus"":""run_exp/static/images/task_images/land.jpg"",""time"":671.7250000219792},{""stimulus"":""run_exp/static/images/task_images/dig.jpg"",""time"":1337.959999917075}]",[],,,,,,,,,,,,,,,
harvest_prac,36,248376,0.0-13.0-1.0,,null,run_exp/static/images/task_images/barrel_text.jpg,null,,,,,,,,,,,,,,,,,,,,,,,
decision_prac,37,249110,0.0-13.0-2.0,,732.8250001,run_exp/static/images/task_images/land.jpg,65,,,,,,,,,,2,,,,,,,,,,,,,
dig_prac,38,251114,0.0-14.0-0.0,,,,,,,,,,,"[{""stimulus"":""run_exp/static/images/task_images/dig.jpg"",""time"":0.219999928958714},{""stimulus"":""run_exp/static/images/task_images/land.jpg"",""time"":668.4200000017881},{""stimulus"":""run_exp/static/images/task_images/dig.jpg"",""time"":1339.365000021644}]",[],,,,,,,,,,,,,,,
harvest_prac,39,252120,0.0-14.0-1.0,,null,run_exp/static/images/task_images/barrel_text.jpg,null,,,,,,,,,,,,,,,,,,,,,,,
decision_prac,40,253126,0.0-14.0-2.0,,1005.115,run_exp/static/images/task_images/land.jpg,65,,,,,,,,,,3,,,,,,,,,,,,,
dig_prac,41,255132,0.0-15.0-0.0,,,,,,,,,,,"[{""stimulus"":""run_exp/static/images/task_images/dig.jpg"",""time"":0.16499997582286596},{""stimulus"":""run_exp/static/images/task_images/land.jpg"",""time"":669.0199999138713},{""stimulus"":""run_exp/static/images/task_images/dig.jpg"",""time"":1336.5650000050664}]",[],,,,,,,,,,,,,,,
harvest_prac,42,256137,0.0-15.0-1.0,,null,run_exp/static/images/task_images/barrel_text.jpg,null,,,,,,,,,,,,,,,,,,,,,,,
decision_prac,43,256647,0.0-15.0-2.0,,509.415,run_exp/static/images/task_images/land.jpg,65,,,,,,,,,,4,,,,,,,,,,,,,
dig_prac,44,258653,0.0-16.0-0.0,,,,,,,,,,,"[{""stimulus"":""run_exp/static/images/task_images/dig.jpg"",""time"":0.16499997582286596},{""stimulus"":""run_exp/static/images/task_images/land.jpg"",""time"":672.8799999691546},{""stimulus"":""run_exp/static/images/task_images/dig.jpg"",""time"":1338.8249999843538}]",[],,,,,,,,,,,,,,,
harvest_prac,45,259658,0.0-16.0-1.0,,null,run_exp/static/images/task_images/barrel_text.jpg,null,,,,,,,,,,,,,,,,,,,,,,,
decision_prac,46,259741,0.0-16.0-2.0,,82.085,run_exp/static/images/task_images/land.jpg,65,,,,,,,,,,,1,,,,,,,,,,,,
quiz_instruc,47,263503,0.0-17.0-0.0,,3758.885,run_exp/static/audio/clip_10_quiz.m4a,,,,,,0,,,,,,,,,,,,,,,,,,
instruc_repeat,48,306270,0.0-17.0-1.0,,null,"<p> Are you ready to play a practice game? </p> <p>In this practice game, you'll be digging up barrels of gems. But, in the real game, you'll be digging up the gems themselves. </p>",null,"<p>In this game, your goal is to collect as many gems as you can. That’s how you will win bonus money. </p> <p>The entire game will last 20 minutes no matter how many gems you collect or how many planets you visit. </p><p>To stay on a planet and dig again, press the letter A on your keyboard. To leave for a new planet, press the letter L.</p><p>The more you dig on a planet, the fewer gems you’ll get with each dig which is why you might consider leaving for a new planet. </p><p>When you arrive at a new planet, you’ll be greeted by an alien. What the alien looks like does not tell you anything about how much treasure is on the planet. </p>",,,,,,,,,,,,,,,,,,,,,,
instruc_repeat_continue,49,315088,0.0-17.0-2.0,,8817.11,"<p> Are you ready to play a practice game? </p> <p>In this practice game, you'll be digging up barrels of gems. But, in the real game, you'll be digging up the gems themselves. </p>",,,,,,0,,,,,,,,,,,,,,,,,,
quiz_q_1_ask,50,318758,0.0-17.0-3.0,,3668.635,run_exp/static/audio/clip_11_q1_ask.m4a,,,,,,2,,,,,,,,,,,,,,,,,,
quiz_q_1_fb_correct,51,322616,0.0-18.0-0.0,,null,run_exp/static/audio/clip_12_q1_corrrect.m4a,null,<p>That’s correct. You win extra money by collecting more gems.</p>,,,,,,,,,,,,,,,,,,,,,,
quiz_q_2_ask,52,326928,0.0-18.0-1.0,,4309.985,run_exp/static/audio/clip_14_q2_ask.m4a,,,,,,1,,,,,,,,,,,,,,,,,,
quiz_q_2_fb_correct,53,330905,0.0-19.0-0.0,,null,run_exp/static/audio/clip_15_q2_correct.m4a,null,<p>That’s correct. The experiment is 20 minutes no matter what.</p>,,,,,,,,,,,,,,,,,,,,,,
quiz_q_3_ask,54,333217,0.0-19.0-1.0,,2310.665,run_exp/static/audio/clip_17_q3_ask.m4a,,,,,,1,,,,,,,,,,,,,,,,,,
quiz_q_3_fb_correct,55,337174,0.0-20.0-0.0,,null,run_exp/static/audio/clip_18_q3_correct.m4a,null,<p> That’s correct. You press the letter L to travel to a new planet.</p>,,,,,,,,,,,,,,,,,,,,,,
quiz_q_4_ask,56,339453,0.0-20.0-1.0,,2276.81,run_exp/static/audio/clip_20_q4_ask.m4a,,,,,,0,,,,,,,,,,,,,,,,,,
quiz_q_4_fb_correct,57,344767,0.0-21.0-0.0,,null,run_exp/static/audio/clip_21_q4_correct.m4a,null,<p> That’s correct. The more you dig on a planet the fewer gems you’ll get with each dig. </p>,,,,,,,,,,,,,,,,,,,,,,
quiz_q_5_ask,58,349264,0.0-21.0-1.0,,4496.095,run_exp/static/audio/clip_23_q5_ask.m4a,,,,,,1,,,,,,,,,,,,,,,,,,
quiz_q_5_fb_correct,59,354263,0.0-22.0-0.0,,null,run_exp/static/audio/clip_24_q5_correct.m4a,null,<p> That’s correct. The alien tells you nothing about how much treasure is on the planet.</p>,,,,,,,,,,,,,,,,,,,,,,
quiz_correct,60,357723,0.0-23.0-0.0,,null,run_exp/static/audio/clip_26_correct_quiz.m4a,null,,,,,,,,,,,,,,,,,,,,,,,
quiz_correct_continue,61,359544,0.0-23.0-1.0,,1819.675,<p>Good job! You're now ready to move on to the real game!</p>,,,,,,0,,,,,,,,,,,,,,,,,,
audio-keyboard-response,62,369657,0.0-23.0-2.0,,null,run_exp/static/audio/clip_28_real_game.m4a,null,,,,,,,,,,,,,,,,,,,,,,,
instruc_begin_exp_contine,63,370499,0.0-23.0-3.0,,840.45,"<p>Now that you know how  to dig for space treasure and travel to new planets,you can start exploring! </p><p>Do you want to go over the instructions again or get started with the real game?</p>",,,,,,1,,,,,,1,,,,,,,,,,,,
alien_welcome,64,375504,0.0-24.0-0.0,,null,run_exp/static/images/task_images/aliens/old_aliens/planet/alien_planet-10.jpg,null,,,,,,,,,,,,10,"10,35,74,39,5,67,13,43,70,37,50,77,14,56,30,42,34,33,52,80,66,54,9,6,69,19,20,57,38,26,28,71,15,44,58,4,72,53,47,29,22,45,24,27,62,78",,,,,,,,,,
land,65,376009,0.0-24.0-1.0,,null,run_exp/static/images/task_images/land.jpg,null,,,,,,104,,,1,,,,,,,,,,,,,,
dig,66,378015,0.0-24.0-2.0,,,,,,,,,,,"[{""stimulus"":""run_exp/static/images/task_images/dig.jpg"",""time"":0.20000000949949026},{""stimulus"":""run_exp/static/images/task_images/land.jpg"",""time"":671.9299999531358},{""stimulus"":""run_exp/static/images/task_images/dig.jpg"",""time"":1339.5950000267476}]",[],1,,,,,,,,,,,,,,
harvest,67,379022,0.0-24.0-3.0,,null,run_exp/static/images/task_images/gems/104.jpg,null,,,,,,17,,,1,,,,,104,0.164811224,0.163461538,,,,,,,
decision,68,379388,0.0-24.0-4.0,,363.965,run_exp/static/images/task_images/land.jpg,65,,,,,,17,,,1,,,,,,,,8889,1,0,FALSE,,,
dig,69,382029,0.0-25.0-0.0,,,,,,,,,,,"[{""stimulus"":""run_exp/static/images/task_images/dig.jpg"",""time"":0.20999996922910213},{""stimulus"":""run_exp/static/images/task_images/land.jpg"",""time"":882.744999951683},{""stimulus"":""run_exp/static/images/task_images/dig.jpg"",""time"":1757.2549999458715}]",[],1,,,,,,,,,,,,,,
harvest,70,383031,0.0-25.0-1.0,,null,run_exp/static/images/task_images/gems/17.jpg,null,,,,,,4,,,1,,,,,17,0.209938748,0.235294118,,,,,,,
decision,71,383157,0.0-25.0-2.0,,124.225,run_exp/static/images/task_images/land.jpg,65,,,,,,4,,,1,,,,,,,,12656,1,1,FALSE,,,
dig,72,386034,0.0-26.0-0.0,,,,,,,,,,,"[{""stimulus"":""run_exp/static/images/task_images/dig.jpg"",""time"":0.1550000160932541},{""stimulus"":""run_exp/static/images/task_images/land.jpg"",""time"":963.2099999580532},{""stimulus"":""run_exp/static/images/task_images/dig.jpg"",""time"":1917.2500000568107}]",[],1,,,,,,,,,,,,,,
harvest,73,387038,0.0-26.0-1.0,,null,run_exp/static/images/task_images/gems/4.jpg,null,,,,,,1,,,1,,,,,4,0.157982107,0.25,,,,,,,
decision,74,387065,0.0-26.0-2.0,,24.86499993,run_exp/static/images/task_images/land.jpg,76,,,,,,1,,,1,,,,,,,,16564,1,2,TRUE,,,
travel,75,397040,0.0-27.0-0.0,,,,,,,,,,,"[{""stimulus"":""run_exp/static/images/task_images/rocket-01.jpg"",""time"":0.1700000138953328},{""stimulus"":""run_exp/static/images/task_images/rocket-02.jpg"",""time"":1108.710000058636},{""stimulus"":""run_exp/static/images/task_images/rocket-03.jpg"",""time"":2217.155000078492},{""stimulus"":""run_exp/static/images/task_images/rocket-04.jpg"",""time"":3326.13499998115},{""stimulus"":""run_exp/static/images/task_images/rocket-05.jpg"",""time"":4437.039999989793},{""stimulus"":""run_exp/static/images/task_images/rocket-06.jpg"",""time"":5543.600000091828},{""stimulus"":""run_exp/static/images/task_images/rocket-07.jpg"",""time"":6652.349999989383},{""stimulus"":""run_exp/static/images/task_images/rocket-08.jpg"",""time"":7757.4850000673905},{""stimulus"":""run_exp/static/images/task_images/rocket-09.jpg"",""time"":8865.035000024363}]",[],1,,,,,,,,,,,,,,
alien_welcome,76,402046,0.0-27.0-1.0,,null,run_exp/static/images/task_images/aliens/old_aliens/planet/alien_planet-35.jpg,null,,,,,,,,,,,,35,"10,35,74,39,5,67,13,43,70,37,50,77,14,56,30,42,34,33,52,80,66,54,9,6,69,19,20,57,38,26,28,71,15,44,58,4,72,53,47,29,22,45,24,27,62,78",,,,,,,,,,
land,77,402548,0.0-27.0-2.0,,null,run_exp/static/images/task_images/land.jpg,null,,,,,,102,,,2,,,,,,,,,,,,,,
dig,78,404557,0.0-27.0-3.0,,,,,,,,,,,"[{""stimulus"":""run_exp/static/images/task_images/dig.jpg"",""time"":0.2649999223649502},{""stimulus"":""run_exp/static/images/task_images/land.jpg"",""time"":670.2349999686703},{""stimulus"":""run_exp/static/images/task_images/dig.jpg"",""time"":1337.7849999815226}]",[],2,,,,,,,,,,,,,,
harvest,79,405561,0.0-27.0-4.0,,null,run_exp/static/images/task_images/gems/102.jpg,null,,,,,,24,,,2,,,,,102,0.236310231,0.235294118,,,,,,,
decision,80,406063,0.0-27.0-5.0,,499.89,run_exp/static/images/task_images/land.jpg,65,,,,,,24,,,2,,,,,,,,35562,1,0,FALSE,,,
dig,81,408567,0.0-28.0-0.0,,,,,,,,,,,"[{""stimulus"":""run_exp/static/images/task_images/dig.jpg"",""time"":0.1599999377503991},{""stimulus"":""run_exp/static/images/task_images/land.jpg"",""time"":836.7349999025464},{""stimulus"":""run_exp/static/images/task_images/dig.jpg"",""time"":1670.6349999876693}]",[],2,,,,,,,,,,,,,,
harvest,82,409572,0.0-28.0-1.0,,null,run_exp/static/images/task_images/gems/24.jpg,null,,,,,,7,,,2,,,,,24,0.290355087,0.291666667,,,,,,,
decision,83,409606,0.0-28.0-2.0,,32.30000008,run_exp/static/images/task_images/land.jpg,65,,,,,,7,,,2,,,,,,,,39105,1,1,FALSE,,,
dig,84,412576,0.0-29.0-0.0,,,,,,,,,,,"[{""stimulus"":""run_exp/static/images/task_images/dig.jpg"",""time"":0.14500005636364222},{""stimulus"":""run_exp/static/images/task_images/land.jpg"",""time"":991.3599999854341},{""stimulus"":""run_exp/static/images/task_images/dig.jpg"",""time"":1982.5800000689924}]",[],2,,,,,,,,,,,,,,
harvest,85,413577,0.0-29.0-1.0,,null,run_exp/static/images/task_images/gems/7.jpg,null,,,,,,2,,,2,,,,,7,0.235025356,0.285714286,,,,,,,
decision,86,413926,0.0-29.0-2.0,,347.2000001,run_exp/static/images/task_images/land.jpg,76,,,,,,2,,,2,,,,,,,,43426,1,2,TRUE,,,
travel,87,423579,0.0-30.0-0.0,,,,,,,,,,,"[{""stimulus"":""run_exp/static/images/task_images/rocket-01.jpg"",""time"":0.1449999399483204},{""stimulus"":""run_exp/static/images/task_images/rocket-02.jpg"",""time"":1074.7199999168515},{""stimulus"":""run_exp/static/images/task_images/rocket-03.jpg"",""time"":2144.869999960065},{""stimulus"":""run_exp/static/images/task_images/rocket-04.jpg"",""time"":3218.7749999575317},{""stimulus"":""run_exp/static/images/task_images/rocket-05.jpg"",""time"":4292.649999959394},{""stimulus"":""run_exp/static/images/task_images/rocket-06.jpg"",""time"":5360.829999903217},{""stimulus"":""run_exp/static/images/task_images/rocket-07.jpg"",""time"":6438.169999979436},{""stimulus"":""run_exp/static/images/task_images/rocket-08.jpg"",""time"":7508.464999962598},{""stimulus"":""run_exp/static/images/task_images/rocket-09.jpg"",""time"":8576.894999947399}]",[],2,,,,,,,,,,,,,,
alien_welcome,88,428585,0.0-30.0-1.0,,null,run_exp/static/images/task_images/aliens/old_aliens/planet/alien_planet-74.jpg,null,,,,,,,,,,,,74,"10,35,74,39,5,67,13,43,70,37,50,77,14,56,30,42,34,33,52,80,66,54,9,6,69,19,20,57,38,26,28,71,15,44,58,4,72,53,47,29,22,45,24,27,62,78",,,,,,,,,,
land,89,429088,0.0-30.0-2.0,,null,run_exp/static/images/task_images/land.jpg,null,,,,,,95,,,3,,,,,,,,,,,,,,
dig,90,431092,0.0-30.0-3.0,,,,,,,,,,,"[{""stimulus"":""run_exp/static/images/task_images/dig.jpg"",""time"":0.17499993555247784},{""stimulus"":""run_exp/static/images/task_images/land.jpg"",""time"":672.2349999472499},{""stimulus"":""run_exp/static/images/task_images/dig.jpg"",""time"":1339.9199999403208}]",[],3,,,,,,,,,,,,,,
harvest,91,432094,0.0-30.0-4.0,,null,run_exp/static/images/task_images/gems/95.jpg,null,,,,,,53,,,3,,,,,95,0.554944058,0.557894737,,,,,,,
decision,92,432534,0.0-30.0-5.0,,438.1650001,run_exp/static/images/task_images/land.jpg,65,,,,,,53,,,3,,,,,,,,62033,1,0,FALSE,,,
dig,93,435101,0.0-31.0-0.0,,,,,,,,,,,"[{""stimulus"":""run_exp/static/images/task_images/dig.jpg"",""time"":0.1449999399483204},{""stimulus"":""run_exp/static/images/task_images/land.jpg"",""time"":855.9799999929965},{""stimulus"":""run_exp/static/images/task_images/dig.jpg"",""time"":1711.559999966994}]",[],3,,,,,,,,,,,,,,
harvest,94,436104,0.0-31.0-1.0,,null,run_exp/static/images/task_images/gems/53.jpg,null,,,,,,23,,,3,,,,,53,0.431831345,0.433962264,,,,,,,
decision,95,436280,0.0-31.0-2.0,,174.9349999,run_exp/static/images/task_images/land.jpg,65,,,,,,23,,,3,,,,,,,,65780,1,1,FALSE,,,
dig,96,439110,0.0-32.0-0.0,,,,,,,,,,,"[{""stimulus"":""run_exp/static/images/task_images/dig.jpg"",""time"":0.14999997802078724},{""stimulus"":""run_exp/static/images/task_images/land.jpg"",""time"":942.5000000046566},{""stimulus"":""run_exp/static/images/task_images/dig.jpg"",""time"":1883.434999966994}]",[],3,,,,,,,,,,,,,,
harvest,97,440114,0.0-32.0-1.0,,null,run_exp/static/images/task_images/gems/23.jpg,null,,,,,,12,,,3,,,,,23,0.522745521,0.52173913,,,,,,,
decision,98,440848,0.0-32.0-2.0,,731.07,run_exp/static/images/task_images/land.jpg,76,,,,,,12,,,3,,,,,,,,70347,1,2,TRUE,,,
travel,99,450111,0.0-33.0-0.0,,,,,,,,,,,"[{""stimulus"":""run_exp/static/images/task_images/rocket-01.jpg"",""time"":0.14500005636364222},{""stimulus"":""run_exp/static/images/task_images/rocket-02.jpg"",""time"":1031.044999952428},{""stimulus"":""run_exp/static/images/task_images/rocket-03.jpg"",""time"":2060.769999981858},{""stimulus"":""run_exp/static/images/task_images/rocket-04.jpg"",""time"":3090.889999992214},{""stimulus"":""run_exp/static/images/task_images/rocket-05.jpg"",""time"":4119.290000060573},{""stimulus"":""run_exp/static/images/task_images/rocket-06.jpg"",""time"":5150.559999980032},{""stimulus"":""run_exp/static/images/task_images/rocket-07.jpg"",""time"":6179.510000045411},{""stimulus"":""run_exp/static/images/task_images/rocket-08.jpg"",""time"":7207.554999971762},{""stimulus"":""run_exp/static/images/task_images/rocket-09.jpg"",""time"":8235.035000019707}]",[],3,,,,,,,,,,,,,,
alien_welcome,100,455116,0.0-33.0-1.0,,null,run_exp/static/images/task_images/aliens/old_aliens/planet/alien_planet-39.jpg,null,,,,,,,,,,,,39,"10,35,74,39,5,67,13,43,70,37,50,77,14,56,30,42,34,33,52,80,66,54,9,6,69,19,20,57,38,26,28,71,15,44,58,4,72,53,47,29,22,45,24,27,62,78",,,,,,,,,,
land,101,455621,0.0-33.0-2.0,,null,run_exp/static/images/task_images/land.jpg,null,,,,,,97,,,4,,,,,,,,,,,,,,
dig,102,457623,0.0-33.0-3.0,,,,,,,,,,,"[{""stimulus"":""run_exp/static/images/task_images/dig.jpg"",""time"":0.1800000900402665},{""stimulus"":""run_exp/static/images/task_images/land.jpg"",""time"":672.5150001002476},{""stimulus"":""run_exp/static/images/task_images/dig.jpg"",""time"":1338.1600000429899}]",[],4,,,,,,,,,,,,,,
harvest,103,458628,0.0-33.0-4.0,,null,run_exp/static/images/task_images/gems/97.jpg,null,,,,,,55,,,4,,,,,97,0.562037944,0.567010309,,,,,,,
decision,104,459175,0.0-33.0-5.0,,545.085,run_exp/static/images/task_images/land.jpg,65,,,,,,55,,,4,,,,,,,,88674,1,0,FALSE,,,
dig,105,461634,0.0-34.0-0.0,,,,,,,,,,,"[{""stimulus"":""run_exp/static/images/task_images/dig.jpg"",""time"":0.14999997802078724},{""stimulus"":""run_exp/static/images/task_images/land.jpg"",""time"":820.6800000043586},{""stimulus"":""run_exp/static/images/task_images/dig.jpg"",""time"":1641.6800000006333}]",[],4,,,,,,,,,,,,,,
harvest,106,462638,0.0-34.0-1.0,,null,run_exp/static/images/task_images/gems/55.jpg,null,,,,,,29,,,4,,,,,55,0.522086809,0.527272727,,,,,,,
decision,107,463011,0.0-34.0-2.0,,370.9399999,run_exp/static/images/task_images/land.jpg,65,,,,,,29,,,4,,,,,,,,92510,1,1,FALSE,,,
dig,108,465645,0.0-35.0-0.0,,,,,,,,,,,"[{""stimulus"":""run_exp/static/images/task_images/dig.jpg"",""time"":0.14500005636364222},{""stimulus"":""run_exp/static/images/task_images/land.jpg"",""time"":878.800000064075},{""stimulus"":""run_exp/static/images/task_images/dig.jpg"",""time"":1755.3299999563023}]",[],4,,,,,,,,,,,,,,
harvest,109,466650,0.0-35.0-1.0,,null,run_exp/static/images/task_images/gems/29.jpg,null,,,,,,16,,,4,,,,,29,0.564941321,0.551724138,,,,,,,
decision,110,467106,0.0-35.0-2.0,,454.67,run_exp/static/images/task_images/land.jpg,76,,,,,,16,,,4,,,,,,,,96605,1,2,TRUE,,,
travel,111,476651,0.0-36.0-0.0,,,,,,,,,,,"[{""stimulus"":""run_exp/static/images/task_images/rocket-01.jpg"",""time"":0.2549999626353383},{""stimulus"":""run_exp/static/images/task_images/rocket-02.jpg"",""time"":1063.194999936968},{""stimulus"":""run_exp/static/images/task_images/rocket-03.jpg"",""time"":2123.3399999327958},{""stimulus"":""run_exp/static/images/task_images/rocket-04.jpg"",""time"":3185.605000006035},{""stimulus"":""run_exp/static/images/task_images/rocket-05.jpg"",""time"":4244.274999946356},{""stimulus"":""run_exp/static/images/task_images/rocket-06.jpg"",""time"":5304.434999939986},{""stimulus"":""run_exp/static/images/task_images/rocket-07.jpg"",""time"":6360.989999957383},{""stimulus"":""run_exp/static/images/task_images/rocket-08.jpg"",""time"":7425.470000016503},{""stimulus"":""run_exp/static/images/task_images/rocket-09.jpg"",""time"":8485.585000016727}]",[],4,,,,,,,,,,,,,,
alien_welcome,112,481655,0.0-36.0-1.0,,null,run_exp/static/images/task_images/aliens/old_aliens/planet/alien_planet-5.jpg,null,,,,,,,,,,,,5,"10,35,74,39,5,67,13,43,70,37,50,77,14,56,30,42,34,33,52,80,66,54,9,6,69,19,20,57,38,26,28,71,15,44,58,4,72,53,47,29,22,45,24,27,62,78",,,,,,,,,,
land,113,482160,0.0-36.0-2.0,,null,run_exp/static/images/task_images/land.jpg,null,,,,,,103,,,5,,,,,,,,,,,,,,
dig,114,484168,0.0-36.0-3.0,,,,,,,,,,,"[{""stimulus"":""run_exp/static/images/task_images/dig.jpg"",""time"":0.18500001169741154},{""stimulus"":""run_exp/static/images/task_images/land.jpg"",""time"":672.1700000343844},{""stimulus"":""run_exp/static/images/task_images/dig.jpg"",""time"":1339.6900000516325}]",[],5,,,,,,,,,,,,,,
harvest,115,485169,0.0-36.0-4.0,,null,run_exp/static/images/task_images/gems/103.jpg,null,,,,,,54,,,5,,,,,103,0.521674853,0.524271845,,,,,,,
decision,116,485433,0.0-36.0-5.0,,261.91,run_exp/static/images/task_images/land.jpg,65,,,,,,54,,,5,,,,,,,,114932,1,0,FALSE,,,
dig,117,488173,0.0-37.0-0.0,,,,,,,,,,,"[{""stimulus"":""run_exp/static/images/task_images/dig.jpg"",""time"":0.14999997802078724},{""stimulus"":""run_exp/static/images/task_images/land.jpg"",""time"":917.2499999403954},{""stimulus"":""run_exp/static/images/task_images/dig.jpg"",""time"":1826.5699999174103}]",[],5,,,,,,,,,,,,,,
harvest,118,489178,0.0-37.0-1.0,,null,run_exp/static/images/task_images/gems/54.jpg,null,,,,,,28,,,5,,,,,54,0.512344924,0.518518519,,,,,,,
decision,119,489404,0.0-37.0-2.0,,224.03,run_exp/static/images/task_images/land.jpg,65,,,,,,28,,,5,,,,,,,,118903,1,1,FALSE,,,
dig,120,492182,0.0-38.0-0.0,,,,,,,,,,,"[{""stimulus"":""run_exp/static/images/task_images/dig.jpg"",""time"":0.17499993555247784},{""stimulus"":""run_exp/static/images/task_images/land.jpg"",""time"":926.8249999731779},{""stimulus"":""run_exp/static/images/task_images/dig.jpg"",""time"":1852.1249999757856}]",[],5,,,,,,,,,,,,,,
harvest,121,493187,0.0-38.0-1.0,,null,run_exp/static/images/task_images/gems/28.jpg,null,,,,,,14,,,5,,,,,28,0.504954867,0.5,,,,,,,
decision,122,494196,0.0-38.0-2.0,,1007.775,run_exp/static/images/task_images/land.jpg,76,,,,,,14,,,5,,,,,,,,123695,1,2,TRUE,,,
travel,123,503190,0.0-39.0-0.0,,,,,,,,,,,"[{""stimulus"":""run_exp/static/images/task_images/rocket-01.jpg"",""time"":0.16000005416572094},{""stimulus"":""run_exp/static/images/task_images/rocket-02.jpg"",""time"":1000.8750000270084},{""stimulus"":""run_exp/static/images/task_images/rocket-03.jpg"",""time"":1999.805000028573},{""stimulus"":""run_exp/static/images/task_images/rocket-04.jpg"",""time"":2999.2300000740215},{""stimulus"":""run_exp/static/images/task_images/rocket-05.jpg"",""time"":3997.845000005327},{""stimulus"":""run_exp/static/images/task_images/rocket-06.jpg"",""time"":4998.095000046305},{""stimulus"":""run_exp/static/images/task_images/rocket-07.jpg"",""time"":5996.520000044256},{""stimulus"":""run_exp/static/images/task_images/rocket-08.jpg"",""time"":6995.059999986552},{""stimulus"":""run_exp/static/images/task_images/rocket-09.jpg"",""time"":7993.480000062846}]",[],5,,,,,,,,,,,,,,
alien_welcome,124,508194,0.0-39.0-1.0,,null,run_exp/static/images/task_images/aliens/old_aliens/planet/alien_planet-67.jpg,null,,,,,,,,,,,,67,"10,35,74,39,5,67,13,43,70,37,50,77,14,56,30,42,34,33,52,80,66,54,9,6,69,19,20,57,38,26,28,71,15,44,58,4,72,53,47,29,22,45,24,27,62,78",,,,,,,,,,
land,125,508699,0.0-39.0-2.0,,null,run_exp/static/images/task_images/land.jpg,null,,,,,,95,,,6,,,,,,,,,,,,,,
dig,126,510707,0.0-39.0-3.0,,,,,,,,,,,"[{""stimulus"":""run_exp/static/images/task_images/dig.jpg"",""time"":0.18500001169741154},{""stimulus"":""run_exp/static/images/task_images/land.jpg"",""time"":671.4600000996143},{""stimulus"":""run_exp/static/images/task_images/dig.jpg"",""time"":1337.9350000759587}]",[],6,,,,,,,,,,,,,,
harvest,127,511710,0.0-39.0-4.0,,null,run_exp/static/images/task_images/gems/95.jpg,null,,,,,,78,,,6,,,,,95,0.825901053,0.821052632,,,,,,,
decision,128,512253,0.0-39.0-5.0,,541.4699999,run_exp/static/images/task_images/land.jpg,65,,,,,,78,,,6,,,,,,,,141752,1,0,FALSE,,,
dig,129,514713,0.0-40.0-0.0,,,,,,,,,,,"[{""stimulus"":""run_exp/static/images/task_images/dig.jpg"",""time"":0.1449999399483204},{""stimulus"":""run_exp/static/images/task_images/land.jpg"",""time"":824.1050000069663},{""stimulus"":""run_exp/static/images/task_images/dig.jpg"",""time"":1638.8749999459833}]",[],6,,,,,,,,,,,,,,
harvest,130,515717,0.0-40.0-1.0,,null,run_exp/static/images/task_images/gems/78.jpg,null,,,,,,63,,,6,,,,,78,0.811571362,0.807692308,,,,,,,
decision,131,515943,0.0-40.0-2.0,,224.74,run_exp/static/images/task_images/land.jpg,65,,,,,,63,,,6,,,,,,,,145443,1,1,FALSE,,,
dig,132,518721,0.0-41.0-0.0,,,,,,,,,,,"[{""stimulus"":""run_exp/static/images/task_images/dig.jpg"",""time"":0.14999997802078724},{""stimulus"":""run_exp/static/images/task_images/land.jpg"",""time"":926.1949999490753},{""stimulus"":""run_exp/static/images/task_images/dig.jpg"",""time"":1854.8399999272078}]",[],6,,,,,,,,,,,,,,
harvest,133,519728,0.0-41.0-1.0,,null,run_exp/static/images/task_images/gems/63.jpg,null,,,,,,46,,,6,,,,,63,0.726965178,0.73015873,,,,,,,
decision,134,520623,0.0-41.0-2.0,,893.035,run_exp/static/images/task_images/land.jpg,65,,,,,,46,,,6,,,,,,,,150122,1,2,FALSE,,,
dig,135,522733,0.0-42.0-0.0,,,,,,,,,,,"[{""stimulus"":""run_exp/static/images/task_images/dig.jpg"",""time"":0.17499993555247784},{""stimulus"":""run_exp/static/images/task_images/land.jpg"",""time"":704.4499999610707},{""stimulus"":""run_exp/static/images/task_images/dig.jpg"",""time"":1406.8399999523535}]",[],6,,,,,,,,,,,,,,
harvest,136,523737,0.0-42.0-1.0,,null,run_exp/static/images/task_images/gems/46.jpg,null,,,,,,40,,,6,,,,,46,0.866827016,0.869565217,,,,,,,
decision,137,523818,0.0-42.0-2.0,,79.41999997,run_exp/static/images/task_images/land.jpg,65,,,,,,40,,,6,,,,,,,,153317,1,3,FALSE,,,
dig,138,526740,0.0-43.0-0.0,,,,,,,,,,,"[{""stimulus"":""run_exp/static/images/task_images/dig.jpg"",""time"":0.15000009443610907},{""stimulus"":""run_exp/static/images/task_images/land.jpg"",""time"":974.7250000946224},{""stimulus"":""run_exp/static/images/task_images/dig.jpg"",""time"":1949.8950000852346}]",[],6,,,,,,,,,,,,,,
harvest,139,527746,0.0-43.0-1.0,,null,run_exp/static/images/task_images/gems/40.jpg,null,,,,,,34,,,6,,,,,40,0.846774395,0.85,,,,,,,
decision,140,529128,0.0-43.0-2.0,,1380.135,run_exp/static/images/task_images/land.jpg,76,,,,,,34,,,6,,,,,,,,158627,1,4,TRUE,,,
travel,141,537745,0.0-44.0-0.0,,,,,,,,,,,"[{""stimulus"":""run_exp/static/images/task_images/rocket-01.jpg"",""time"":0.169999897480011},{""stimulus"":""run_exp/static/images/task_images/rocket-02.jpg"",""time"":958.8099999818951},{""stimulus"":""run_exp/static/images/task_images/rocket-03.jpg"",""time"":1916.6199999162927},{""stimulus"":""run_exp/static/images/task_images/rocket-04.jpg"",""time"":2874.3549999780953},{""stimulus"":""run_exp/static/images/task_images/rocket-05.jpg"",""time"":3829.079999937676},{""stimulus"":""run_exp/static/images/task_images/rocket-06.jpg"",""time"":4790.059999912046},{""stimulus"":""run_exp/static/images/task_images/rocket-07.jpg"",""time"":5744.739999994636},{""stimulus"":""run_exp/static/images/task_images/rocket-08.jpg"",""time"":6703.734999988228},{""stimulus"":""run_exp/static/images/task_images/rocket-09.jpg"",""time"":7657.789999968372}]",[],6,,,,,,,,,,,,,,
alien_welcome,142,542751,0.0-44.0-1.0,,null,run_exp/static/images/task_images/aliens/old_aliens/planet/alien_planet-13.jpg,null,,,,,,,,,,,,13,"10,35,74,39,5,67,13,43,70,37,50,77,14,56,30,42,34,33,52,80,66,54,9,6,69,19,20,57,38,26,28,71,15,44,58,4,72,53,47,29,22,45,24,27,62,78",,,,,,,,,,
land,143,543253,0.0-44.0-2.0,,null,run_exp/static/images/task_images/land.jpg,null,,,,,,105,,,7,,,,,,,,,,,,,,
dig,144,545257,0.0-44.0-3.0,,,,,,,,,,,"[{""stimulus"":""run_exp/static/images/task_images/dig.jpg"",""time"":0.18500001169741154},{""stimulus"":""run_exp/static/images/task_images/land.jpg"",""time"":672.980000032112},{""stimulus"":""run_exp/static/images/task_images/dig.jpg"",""time"":1335.1249999832362}]",[],7,,,,,,,,,,,,,,
harvest,145,546261,0.0-44.0-4.0,,null,run_exp/static/images/task_images/gems/105.jpg,null,,,,,,77,,,7,,,,,105,0.731388992,0.733333333,,,,,,,
decision,146,546577,0.0-44.0-5.0,,314.4,run_exp/static/images/task_images/land.jpg,65,,,,,,77,,,7,,,,,,,,176076,1,0,FALSE,,,
dig,147,549268,0.0-45.0-0.0,,,,,,,,,,,"[{""stimulus"":""run_exp/static/images/task_images/dig.jpg"",""time"":0.17499993555247784},{""stimulus"":""run_exp/static/images/task_images/land.jpg"",""time"":898.8050000043586},{""stimulus"":""run_exp/static/images/task_images/dig.jpg"",""time"":1792.505000019446}]",[],7,,,,,,,,,,,,,,
harvest,148,550272,0.0-45.0-1.0,,null,run_exp/static/images/task_images/gems/77.jpg,null,,,,,,63,,,7,,,,,77,0.819005719,0.818181818,,,,,,,
decision,149,551640,0.0-45.0-2.0,,1366.27,run_exp/static/images/task_images/land.jpg,65,,,,,,63,,,7,,,,,,,,181139,1,1,FALSE,,,
dig,150,553279,0.0-46.0-0.0,,,,,,,,,,,"[{""stimulus"":""run_exp/static/images/task_images/dig.jpg"",""time"":0.16000005416572094},{""stimulus"":""run_exp/static/images/task_images/land.jpg"",""time"":545.2949999598786},{""stimulus"":""run_exp/static/images/task_images/dig.jpg"",""time"":1089.464999968186}]",[],7,,,,,,,,,,,,,,
harvest,151,554283,0.0-46.0-1.0,,null,run_exp/static/images/task_images/gems/63.jpg,null,,,,,,47,,,7,,,,,63,0.748611362,0.746031746,,,,,,,
decision,152,554992,0.0-46.0-2.0,,707.13,run_exp/static/images/task_images/land.jpg,65,,,,,,47,,,7,,,,,,,,184491,1,2,FALSE,,,
dig,153,557288,0.0-47.0-0.0,,,,,,,,,,,"[{""stimulus"":""run_exp/static/images/task_images/dig.jpg"",""time"":0.14999997802078724},{""stimulus"":""run_exp/static/images/task_images/land.jpg"",""time"":766.6650000028312},{""stimulus"":""run_exp/static/images/task_images/dig.jpg"",""time"":1529.2350000236183}]",[],7,,,,,,,,,,,,,,
harvest,154,558294,0.0-47.0-1.0,,null,run_exp/static/images/task_images/gems/47.jpg,null,,,,,,38,,,7,,,,,47,0.81381867,0.808510638,,,,,,,
decision,155,558367,0.0-47.0-2.0,,71.49499992,run_exp/static/images/task_images/land.jpg,65,,,,,,38,,,7,,,,,,,,187867,1,3,FALSE,,,
dig,156,561301,0.0-48.0-0.0,,,,,,,,,,,"[{""stimulus"":""run_exp/static/images/task_images/dig.jpg"",""time"":0.1550000160932541},{""stimulus"":""run_exp/static/images/task_images/land.jpg"",""time"":980.66999996081},{""stimulus"":""run_exp/static/images/task_images/dig.jpg"",""time"":1955.9700000099838}]",[],7,,,,,,,,,,,,,,
harvest,157,562303,0.0-48.0-1.0,,null,run_exp/static/images/task_images/gems/38.jpg,null,,,,,,27,,,7,,,,,38,0.719467493,0.710526316,,,,,,,
decision,158,563475,0.0-48.0-2.0,,1170,run_exp/static/images/task_images/land.jpg,76,,,,,,27,,,7,,,,,,,,192974,1,4,TRUE,,,
travel,159,572343,0.0-49.0-0.0,,,,,,,,,,,"[{""stimulus"":""run_exp/static/images/task_images/rocket-01.jpg"",""time"":0.16499997582286596},{""stimulus"":""run_exp/static/images/task_images/rocket-02.jpg"",""time"":985.3100000182167},{""stimulus"":""run_exp/static/images/task_images/rocket-03.jpg"",""time"":1966.355000040494},{""stimulus"":""run_exp/static/images/task_images/rocket-04.jpg"",""time"":2949.1050000069663},{""stimulus"":""run_exp/static/images/task_images/rocket-05.jpg"",""time"":3928.485000040382},{""stimulus"":""run_exp/static/images/task_images/rocket-06.jpg"",""time"":4906.530000036582},{""stimulus"":""run_exp/static/images/task_images/rocket-07.jpg"",""time"":5892.174999928102},{""stimulus"":""run_exp/static/images/task_images/rocket-08.jpg"",""time"":6871.649999986403},{""stimulus"":""run_exp/static/images/task_images/rocket-09.jpg"",""time"":7849.724999978207}]",[],7,,,,,,,,,,,,,,
alien_welcome,160,577345,0.0-49.0-1.0,,null,run_exp/static/images/task_images/aliens/old_aliens/planet/alien_planet-43.jpg,null,,,,,,,,,,,,43,"10,35,74,39,5,67,13,43,70,37,50,77,14,56,30,42,34,33,52,80,66,54,9,6,69,19,20,57,38,26,28,71,15,44,58,4,72,53,47,29,22,45,24,27,62,78",,,,,,,,,,
land,161,577850,0.0-49.0-2.0,,null,run_exp/static/images/task_images/land.jpg,null,,,,,,96,,,8,,,,,,,,,,,,,,
dig,162,579853,0.0-49.0-3.0,,,,,,,,,,,"[{""stimulus"":""run_exp/static/images/task_images/dig.jpg"",""time"":0.17500005196779966},{""stimulus"":""run_exp/static/images/task_images/land.jpg"",""time"":672.5700000533834},{""stimulus"":""run_exp/static/images/task_images/dig.jpg"",""time"":1337.2349999845028}]",[],8,,,,,,,,,,,,,,
harvest,163,580857,0.0-49.0-4.0,,null,run_exp/static/images/task_images/gems/96.jpg,null,,,,,,81,,,8,,,,,96,0.846360475,0.84375,,,,,,,
decision,164,581115,0.0-49.0-5.0,,256.625,run_exp/static/images/task_images/land.jpg,65,,,,,,81,,,8,,,,,,,,210614,1,0,FALSE,,,
dig,165,583864,0.0-50.0-0.0,,,,,,,,,,,"[{""stimulus"":""run_exp/static/images/task_images/dig.jpg"",""time"":0.1650000922381878},{""stimulus"":""run_exp/static/images/task_images/land.jpg"",""time"":917.505000019446},{""stimulus"":""run_exp/static/images/task_images/dig.jpg"",""time"":1830.93000005465}]",[],8,,,,,,,,,,,,,,
harvest,166,584867,0.0-50.0-1.0,,null,run_exp/static/images/task_images/gems/81.jpg,null,,,,,,70,,,8,,,,,81,0.868902205,0.864197531,,,,,,,
decision,167,585177,0.0-50.0-2.0,,307.445,run_exp/static/images/task_images/land.jpg,65,,,,,,70,,,8,,,,,,,,214676,1,1,FALSE,,,
dig,168,587875,0.0-51.0-0.0,,,,,,,,,,,"[{""stimulus"":""run_exp/static/images/task_images/dig.jpg"",""time"":0.18999993335455656},{""stimulus"":""run_exp/static/images/task_images/land.jpg"",""time"":898.5300000058487},{""stimulus"":""run_exp/static/images/task_images/dig.jpg"",""time"":1798.4099999302998}]",[],8,,,,,,,,,,,,,,
harvest,169,588879,0.0-51.0-1.0,,null,run_exp/static/images/task_images/gems/70.jpg,null,,,,,,56,,,8,,,,,70,0.793372174,0.8,,,,,,,
decision,170,588900,0.0-51.0-2.0,,19.48000002,run_exp/static/images/task_images/land.jpg,65,,,,,,56,,,8,,,,,,,,218400,1,2,FALSE,,,
dig,171,591885,0.0-52.0-0.0,,,,,,,,,,,"[{""stimulus"":""run_exp/static/images/task_images/dig.jpg"",""time"":0.20999996922910213},{""stimulus"":""run_exp/static/images/task_images/land.jpg"",""time"":997.8399999672547},{""stimulus"":""run_exp/static/images/task_images/dig.jpg"",""time"":1989.8899999679998}]",[],8,,,,,,,,,,,,,,
harvest,172,592888,0.0-52.0-1.0,,null,run_exp/static/images/task_images/gems/56.jpg,null,,,,,,51,,,8,,,,,56,0.913630448,0.910714286,,,,,,,
decision,173,593040,0.0-52.0-2.0,,150.7400001,run_exp/static/images/task_images/land.jpg,65,,,,,,51,,,8,,,,,,,,222539,1,3,FALSE,,,
dig,174,595891,0.0-53.0-0.0,,,,,,,,,,,"[{""stimulus"":""run_exp/static/images/task_images/dig.jpg"",""time"":0.15000009443610907},{""stimulus"":""run_exp/static/images/task_images/land.jpg"",""time"":953.4050000365824},{""stimulus"":""run_exp/static/images/task_images/dig.jpg"",""time"":1901.6550000524148}]",[],8,,,,,,,,,,,,,,
harvest,175,596895,0.0-53.0-1.0,,null,run_exp/static/images/task_images/gems/51.jpg,null,,,,,,44,,,8,,,,,51,0.861840216,0.862745098,,,,,,,
decision,176,597124,0.0-53.0-2.0,,226.74,run_exp/static/images/task_images/land.jpg,65,,,,,,44,,,8,,,,,,,,226623,1,4,FALSE,,,
dig,177,599900,0.0-54.0-0.0,,,,,,,,,,,"[{""stimulus"":""run_exp/static/images/task_images/dig.jpg"",""time"":0.1599999377503991},{""stimulus"":""run_exp/static/images/task_images/land.jpg"",""time"":929.7349998960271},{""stimulus"":""run_exp/static/images/task_images/dig.jpg"",""time"":1853.0099999625236}]",[],8,,,,,,,,,,,,,,
harvest,178,600901,0.0-54.0-1.0,,null,run_exp/static/images/task_images/gems/44.jpg,null,,,,,,32,,,8,,,,,44,0.737421426,0.727272727,,,,,,,
decision,179,600983,0.0-54.0-2.0,,80.75999992,run_exp/static/images/task_images/land.jpg,65,,,,,,32,,,8,,,,,,,,230482,1,5,FALSE,,,
dig,180,603906,0.0-55.0-0.0,,,,,,,,,,,"[{""stimulus"":""run_exp/static/images/task_images/dig.jpg"",""time"":0.1550000160932541},{""stimulus"":""run_exp/static/images/task_images/land.jpg"",""time"":974.3000000016764},{""stimulus"":""run_exp/static/images/task_images/dig.jpg"",""time"":1948.4200000297278}]",[],8,,,,,,,,,,,,,,
harvest,181,604908,0.0-55.0-1.0,,null,run_exp/static/images/task_images/gems/32.jpg,null,,,,,,26,,,8,,,,,32,0.825075141,0.8125,,,,,,,
decision,182,606473,0.0-55.0-2.0,,1564.095,run_exp/static/images/task_images/land.jpg,76,,,,,,26,,,8,,,,,,,,235972,1,6,TRUE,,,
travel,183,614913,0.0-56.0-0.0,,,,,,,,,,,"[{""stimulus"":""run_exp/static/images/task_images/rocket-01.jpg"",""time"":0.16499997582286596},{""stimulus"":""run_exp/static/images/task_images/rocket-02.jpg"",""time"":939.379999996163},{""stimulus"":""run_exp/static/images/task_images/rocket-03.jpg"",""time"":1877.515000058338},{""stimulus"":""run_exp/static/images/task_images/rocket-04.jpg"",""time"":2812.1200000168756},{""stimulus"":""run_exp/static/images/task_images/rocket-05.jpg"",""time"":3750.6150000263005},{""stimulus"":""run_exp/static/images/task_images/rocket-06.jpg"",""time"":4689.439999987371},{""stimulus"":""run_exp/static/images/task_images/rocket-07.jpg"",""time"":5627.525000018068},{""stimulus"":""run_exp/static/images/task_images/rocket-08.jpg"",""time"":6562.249999959022},{""stimulus"":""run_exp/static/images/task_images/rocket-09.jpg"",""time"":7496.814999962226}]",[],8,,,,,,,,,,,,,,
alien_welcome,184,619917,0.0-56.0-1.0,,null,run_exp/static/images/task_images/aliens/old_aliens/planet/alien_planet-70.jpg,null,,,,,,,,,,,,70,"10,35,74,39,5,67,13,43,70,37,50,77,14,56,30,42,34,33,52,80,66,54,9,6,69,19,20,57,38,26,28,71,15,44,58,4,72,53,47,29,22,45,24,27,62,78",,,,,,,,,,
land,185,620420,0.0-56.0-2.0,,null,run_exp/static/images/task_images/land.jpg,null,,,,,,96,,,9,,,,,,,,,,,,,,
dig,186,622424,0.0-56.0-3.0,,,,,,,,,,,"[{""stimulus"":""run_exp/static/images/task_images/dig.jpg"",""time"":0.17500005196779966},{""stimulus"":""run_exp/static/images/task_images/land.jpg"",""time"":672.1300000790507},{""stimulus"":""run_exp/static/images/task_images/dig.jpg"",""time"":1337.7300000283867}]",[],9,,,,,,,,,,,,,,
harvest,187,623429,0.0-56.0-4.0,,null,run_exp/static/images/task_images/gems/96.jpg,null,,,,,,20,,,9,,,,,96,0.207453944,0.208333333,,,,,,,
decision,188,624305,0.0-56.0-5.0,,874.455,run_exp/static/images/task_images/land.jpg,65,,,,,,20,,,9,,,,,,,,253804,1,0,FALSE,,,
dig,189,626433,0.0-57.0-0.0,,,,,,,,,,,"[{""stimulus"":""run_exp/static/images/task_images/dig.jpg"",""time"":0.23999996483325958},{""stimulus"":""run_exp/static/images/task_images/land.jpg"",""time"":711.2150000175461},{""stimulus"":""run_exp/static/images/task_images/dig.jpg"",""time"":1419.649999937974}]",[],9,,,,,,,,,,,,,,
harvest,190,627440,0.0-57.0-1.0,,null,run_exp/static/images/task_images/gems/20.jpg,null,,,,,,6,,,9,,,,,20,0.306327479,0.3,,,,,,,
decision,191,627590,0.0-57.0-2.0,,147.61,run_exp/static/images/task_images/land.jpg,65,,,,,,6,,,9,,,,,,,,257089,1,1,FALSE,,,
dig,192,630444,0.0-58.0-0.0,,,,,,,,,,,"[{""stimulus"":""run_exp/static/images/task_images/dig.jpg"",""time"":0.1550000160932541},{""stimulus"":""run_exp/static/images/task_images/land.jpg"",""time"":954.4699999969453},{""stimulus"":""run_exp/static/images/task_images/dig.jpg"",""time"":1904.3799999635667}]",[],9,,,,,,,,,,,,,,
harvest,193,631448,0.0-58.0-1.0,,null,run_exp/static/images/task_images/gems/6.jpg,null,,,,,,2,,,9,,,,,6,0.338277793,0.333333333,,,,,,,
decision,194,631606,0.0-58.0-2.0,,155.865,run_exp/static/images/task_images/land.jpg,76,,,,,,2,,,9,,,,,,,,261105,1,2,TRUE,,,
travel,195,641446,0.0-59.0-0.0,,,,,,,,,,,"[{""stimulus"":""run_exp/static/images/task_images/rocket-01.jpg"",""time"":0.1550000160932541},{""stimulus"":""run_exp/static/images/task_images/rocket-02.jpg"",""time"":1094.2100000102073},{""stimulus"":""run_exp/static/images/task_images/rocket-03.jpg"",""time"":2191.675000009127},{""stimulus"":""run_exp/static/images/task_images/rocket-04.jpg"",""time"":3283.1650000298396},{""stimulus"":""run_exp/static/images/task_images/rocket-05.jpg"",""time"":4375.865000067279},{""stimulus"":""run_exp/static/images/task_images/rocket-06.jpg"",""time"":5468.840000103228},{""stimulus"":""run_exp/static/images/task_images/rocket-07.jpg"",""time"":6563.140000100248},{""stimulus"":""run_exp/static/images/task_images/rocket-08.jpg"",""time"":7655.495000071824},{""stimulus"":""run_exp/static/images/task_images/rocket-09.jpg"",""time"":8745.590000064112}]",[],9,,,,,,,,,,,,,,
alien_welcome,196,646453,0.0-59.0-1.0,,null,run_exp/static/images/task_images/aliens/old_aliens/planet/alien_planet-37.jpg,null,,,,,,,,,,,,37,"10,35,74,39,5,67,13,43,70,37,50,77,14,56,30,42,34,33,52,80,66,54,9,6,69,19,20,57,38,26,28,71,15,44,58,4,72,53,47,29,22,45,24,27,62,78",,,,,,,,,,
land,197,646959,0.0-59.0-2.0,,null,run_exp/static/images/task_images/land.jpg,null,,,,,,98,,,10,,,,,,,,,,,,,,
dig,198,648966,0.0-59.0-3.0,,,,,,,,,,,"[{""stimulus"":""run_exp/static/images/task_images/dig.jpg"",""time"":0.18500001169741154},{""stimulus"":""run_exp/static/images/task_images/land.jpg"",""time"":670.9450000198558},{""stimulus"":""run_exp/static/images/task_images/dig.jpg"",""time"":1339.9300000164658}]",[],10,,,,,,,,,,,,,,
harvest,199,649968,0.0-59.0-4.0,,null,run_exp/static/images/task_images/gems/98.jpg,null,,,,,,26,,,10,,,,,98,0.264003681,0.265306122,,,,,,,
decision,200,650810,0.0-59.0-5.0,,839.9700001,run_exp/static/images/task_images/land.jpg,65,,,,,,26,,,10,,,,,,,,280309,1,0,FALSE,,,
dig,201,652973,0.0-60.0-0.0,,,,,,,,,,,"[{""stimulus"":""run_exp/static/images/task_images/dig.jpg"",""time"":0.16000005416572094},{""stimulus"":""run_exp/static/images/task_images/land.jpg"",""time"":722.7549999952316},{""stimulus"":""run_exp/static/images/task_images/dig.jpg"",""time"":1444.3400000454858}]",[],10,,,,,,,,,,,,,,
harvest,202,653974,0.0-60.0-1.0,,null,run_exp/static/images/task_images/gems/26.jpg,null,,,,,,5,,,10,,,,,26,0.192154321,0.192307692,,,,,,,
decision,203,655108,0.0-60.0-2.0,,1131.625,run_exp/static/images/task_images/land.jpg,76,,,,,,5,,,10,,,,,,,,284607,1,1,TRUE,,,
travel,204,664001,0.0-61.0-0.0,,,,,,,,,,,"[{""stimulus"":""run_exp/static/images/task_images/rocket-01.jpg"",""time"":0.20000000949949026},{""stimulus"":""run_exp/static/images/task_images/rocket-02.jpg"",""time"":986.7950000334531},{""stimulus"":""run_exp/static/images/task_images/rocket-03.jpg"",""time"":1973.3700000215322},{""stimulus"":""run_exp/static/images/task_images/rocket-04.jpg"",""time"":2957.795000053011},{""stimulus"":""run_exp/static/images/task_images/rocket-05.jpg"",""time"":3942.284999997355},{""stimulus"":""run_exp/static/images/task_images/rocket-06.jpg"",""time"":4928.335000062361},{""stimulus"":""run_exp/static/images/task_images/rocket-07.jpg"",""time"":5914.349999977276},{""stimulus"":""run_exp/static/images/task_images/rocket-08.jpg"",""time"":6898.075000033714},{""stimulus"":""run_exp/static/images/task_images/rocket-09.jpg"",""time"":7884.2449999647215}]",[],10,,,,,,,,,,,,,,
alien_welcome,205,669005,0.0-61.0-1.0,,null,run_exp/static/images/task_images/aliens/old_aliens/planet/alien_planet-50.jpg,null,,,,,,,,,,,,50,"10,35,74,39,5,67,13,43,70,37,50,77,14,56,30,42,34,33,52,80,66,54,9,6,69,19,20,57,38,26,28,71,15,44,58,4,72,53,47,29,22,45,24,27,62,78",,,,,,,,,,
land,206,669512,0.0-61.0-2.0,,null,run_exp/static/images/task_images/land.jpg,null,,,,,,99,,,11,,,,,,,,,,,,,,
dig,207,671515,0.0-61.0-3.0,,,,,,,,,,,"[{""stimulus"":""run_exp/static/images/task_images/dig.jpg"",""time"":0.19999989308416843},{""stimulus"":""run_exp/static/images/task_images/land.jpg"",""time"":672.844999935478},{""stimulus"":""run_exp/static/images/task_images/dig.jpg"",""time"":1340.0299999630079}]",[],11,,,,,,,,,,,,,,
harvest,208,672519,0.0-61.0-4.0,,null,run_exp/static/images/task_images/gems/99.jpg,null,,,,,,23,,,11,,,,,99,0.237048992,0.232323232,,,,,,,
decision,209,672781,0.0-61.0-5.0,,260.455,run_exp/static/images/task_images/land.jpg,65,,,,,,23,,,11,,,,,,,,302280,1,0,TRUE,,,
end_of_block_continue,210,681601,0.0-62.0-0.0,,null,run_exp/static/audio/clip_32_block_end.m4a,,,,,,null,,,,,,,,,,,,,,,,,,
alien_welcome,211,687553,0.0-63.0-0.0,,null,run_exp/static/images/task_images/aliens/old_aliens/planet/alien_planet-77.jpg,null,,,,,,,,,,,,77,"10,35,74,39,5,67,13,43,70,37,50,77,14,56,30,42,34,33,52,80,66,54,9,6,69,19,20,57,38,26,28,71,15,44,58,4,72,53,47,29,22,45,24,27,62,78",,,,,,,,,,
land,212,688149,0.0-63.0-1.0,,null,run_exp/static/images/task_images/land.jpg,null,,,,,,99,,,12,,,,,,,,,,,,,,
dig,213,690368,0.0-63.0-2.0,,,,,,,,,,,"[{""stimulus"":""run_exp/static/images/task_images/dig.jpg"",""time"":0.24500000290572643},{""stimulus"":""run_exp/static/images/task_images/land.jpg"",""time"":731.0600000200793},{""stimulus"":""run_exp/static/images/task_images/dig.jpg"",""time"":1335.094999987632}]",[],12,,,,,,,,,,,,,,
harvest,214,691372,0.0-63.0-3.0,,null,run_exp/static/images/task_images/gems/99.jpg,null,,,,,,20,,,12,,,,,99,0.198576533,0.202020202,,,,,,,
decision,215,692548,0.0-63.0-4.0,,1173.785,run_exp/static/images/task_images/land.jpg,65,,,,,,20,,,12,,,,,,,,10944,2,0,FALSE,,,
dig,216,694379,0.0-64.0-0.0,,,,,,,,,,,"[{""stimulus"":""run_exp/static/images/task_images/dig.jpg"",""time"":0.1599999377503991},{""stimulus"":""run_exp/static/images/task_images/land.jpg"",""time"":609.3599998857826},{""stimulus"":""run_exp/static/images/task_images/dig.jpg"",""time"":1221.1699999170378}]",[],12,,,,,,,,,,,,,,
harvest,217,695383,0.0-64.0-1.0,,null,run_exp/static/images/task_images/gems/20.jpg,null,,,,,,4,,,12,,,,,20,0.181023954,0.2,,,,,,,
decision,218,696440,0.0-64.0-2.0,,1055,run_exp/static/images/task_images/land.jpg,76,,,,,,4,,,12,,,,,,,,14836,2,1,TRUE,,,
travel,219,705381,0.0-65.0-0.0,,,,,,,,,,,"[{""stimulus"":""run_exp/static/images/task_images/rocket-01.jpg"",""time"":0.16499997582286596},{""stimulus"":""run_exp/static/images/task_images/rocket-02.jpg"",""time"":998.1499999994412},{""stimulus"":""run_exp/static/images/task_images/rocket-03.jpg"",""time"":1989.7450000280514},{""stimulus"":""run_exp/static/images/task_images/rocket-04.jpg"",""time"":2980.6350000435486},{""stimulus"":""run_exp/static/images/task_images/rocket-05.jpg"",""time"":3973.0599999893457},{""stimulus"":""run_exp/static/images/task_images/rocket-06.jpg"",""time"":4967.180000036024},{""stimulus"":""run_exp/static/images/task_images/rocket-07.jpg"",""time"":5962.5649999361485},{""stimulus"":""run_exp/static/images/task_images/rocket-08.jpg"",""time"":6955.990000045858},{""stimulus"":""run_exp/static/images/task_images/rocket-09.jpg"",""time"":7949.034999939613}]",[],12,,,,,,,,,,,,,,
alien_welcome,220,710384,0.0-65.0-1.0,,null,run_exp/static/images/task_images/aliens/old_aliens/planet/alien_planet-14.jpg,null,,,,,,,,,,,,14,"10,35,74,39,5,67,13,43,70,37,50,77,14,56,30,42,34,33,52,80,66,54,9,6,69,19,20,57,38,26,28,71,15,44,58,4,72,53,47,29,22,45,24,27,62,78",,,,,,,,,,
land,221,710887,0.0-65.0-2.0,,null,run_exp/static/images/task_images/land.jpg,null,,,,,,101,,,13,,,,,,,,,,,,,,
dig,222,712890,0.0-65.0-3.0,,,,,,,,,,,"[{""stimulus"":""run_exp/static/images/task_images/dig.jpg"",""time"":0.2999999560415745},{""stimulus"":""run_exp/static/images/task_images/land.jpg"",""time"":669.5099999196827},{""stimulus"":""run_exp/static/images/task_images/dig.jpg"",""time"":1339.3999999389052}]",[],13,,,,,,,,,,,,,,
harvest,223,713895,0.0-65.0-4.0,,null,run_exp/static/images/task_images/gems/101.jpg,null,,,,,,18,,,13,,,,,101,0.177504529,0.178217822,,,,,,,
decision,224,714261,0.0-65.0-5.0,,363.96,run_exp/static/images/task_images/land.jpg,65,,,,,,18,,,13,,,,,,,,32657,2,0,FALSE,,,
dig,225,717188,0.0-66.0-0.0,,,,,,,,,,,"[{""stimulus"":""run_exp/static/images/task_images/dig.jpg"",""time"":0.16000005416572094},{""stimulus"":""run_exp/static/images/task_images/land.jpg"",""time"":881.4049999928102},{""stimulus"":""run_exp/static/images/task_images/dig.jpg"",""time"":1757.9899999545887}]",[],13,,,,,,,,,,,,,,
harvest,226,718381,0.0-66.0-1.0,,null,run_exp/static/images/task_images/gems/18.jpg,null,,,,,,3,,,13,,,,,18,0.154625195,0.166666667,,,,,,,
decision,227,719335,0.0-66.0-2.0,,952.15,run_exp/static/images/task_images/land.jpg,65,,,,,,3,,,13,,,,,,,,37731,2,1,FALSE,,,
dig,228,721390,0.0-67.0-0.0,,,,,,,,,,,"[{""stimulus"":""run_exp/static/images/task_images/dig.jpg"",""time"":0.8399999933317304},{""stimulus"":""run_exp/static/images/task_images/land.jpg"",""time"":688.4750000899658},{""stimulus"":""run_exp/static/images/task_images/dig.jpg"",""time"":1368.6750000342727}]",[],13,,,,,,,,,,,,,,
harvest,229,722395,0.0-67.0-1.0,,null,run_exp/static/images/task_images/gems/3.jpg,null,,,,,,1,,,13,,,,,3,0.286300494,0.333333333,,,,,,,
decision,230,723632,0.0-67.0-2.0,,1235.7,run_exp/static/images/task_images/land.jpg,76,,,,,,1,,,13,,,,,,,,42028,2,2,TRUE,,,
travel,231,732393,0.0-68.0-0.0,,,,,,,,,,,"[{""stimulus"":""run_exp/static/images/task_images/rocket-01.jpg"",""time"":0.1700000138953328},{""stimulus"":""run_exp/static/images/task_images/rocket-02.jpg"",""time"":976.9749999977648},{""stimulus"":""run_exp/static/images/task_images/rocket-03.jpg"",""time"":1950.0199999893084},{""stimulus"":""run_exp/static/images/task_images/rocket-04.jpg"",""time"":2925.029999925755},{""stimulus"":""run_exp/static/images/task_images/rocket-05.jpg"",""time"":3896.790000027977},{""stimulus"":""run_exp/static/images/task_images/rocket-06.jpg"",""time"":4869.84499997925},{""stimulus"":""run_exp/static/images/task_images/rocket-07.jpg"",""time"":5843.074999982491},{""stimulus"":""run_exp/static/images/task_images/rocket-08.jpg"",""time"":6813.354999991134},{""stimulus"":""run_exp/static/images/task_images/rocket-09.jpg"",""time"":7789.604999939911}]",[],13,,,,,,,,,,,,,,
alien_welcome,232,737396,0.0-68.0-1.0,,null,run_exp/static/images/task_images/aliens/old_aliens/planet/alien_planet-56.jpg,null,,,,,,,,,,,,56,"10,35,74,39,5,67,13,43,70,37,50,77,14,56,30,42,34,33,52,80,66,54,9,6,69,19,20,57,38,26,28,71,15,44,58,4,72,53,47,29,22,45,24,27,62,78",,,,,,,,,,
land,233,737897,0.0-68.0-2.0,,null,run_exp/static/images/task_images/land.jpg,null,,,,,,94,,,14,,,,,,,,,,,,,,
dig,234,739903,0.0-68.0-3.0,,,,,,,,,,,"[{""stimulus"":""run_exp/static/images/task_images/dig.jpg"",""time"":0.1700000138953328},{""stimulus"":""run_exp/static/images/task_images/land.jpg"",""time"":672.5249999435619},{""stimulus"":""run_exp/static/images/task_images/dig.jpg"",""time"":1335.495000006631}]",[],14,,,,,,,,,,,,,,
harvest,235,740905,0.0-68.0-4.0,,null,run_exp/static/images/task_images/gems/94.jpg,null,,,,,,25,,,14,,,,,94,0.261568819,0.265957447,,,,,,,
decision,236,741261,0.0-68.0-5.0,,354.435,run_exp/static/images/task_images/land.jpg,65,,,,,,25,,,14,,,,,,,,59657,2,0,FALSE,,,
dig,237,743911,0.0-69.0-0.0,,,,,,,,,,,"[{""stimulus"":""run_exp/static/images/task_images/dig.jpg"",""time"":0.20000000949949026},{""stimulus"":""run_exp/static/images/task_images/land.jpg"",""time"":885.3250000393018},{""stimulus"":""run_exp/static/images/task_images/dig.jpg"",""time"":1766.414999961853}]",[],14,,,,,,,,,,,,,,
harvest,238,744915,0.0-69.0-1.0,,null,run_exp/static/images/task_images/gems/25.jpg,null,,,,,,7,,,14,,,,,25,0.277598354,0.28,,,,,,,
decision,239,745547,0.0-69.0-2.0,,630.6050001,run_exp/static/images/task_images/land.jpg,76,,,,,,7,,,14,,,,,,,,63943,2,1,TRUE,,,
travel,240,754922,0.0-70.0-0.0,,,,,,,,,,,"[{""stimulus"":""run_exp/static/images/task_images/rocket-01.jpg"",""time"":0.14999997802078724},{""stimulus"":""run_exp/static/images/task_images/rocket-02.jpg"",""time"":1046.8099999707192},{""stimulus"":""run_exp/static/images/task_images/rocket-03.jpg"",""time"":2087.279999977909},{""stimulus"":""run_exp/static/images/task_images/rocket-04.jpg"",""time"":3126.494999974966},{""stimulus"":""run_exp/static/images/task_images/rocket-05.jpg"",""time"":4165.655000018887},{""stimulus"":""run_exp/static/images/task_images/rocket-06.jpg"",""time"":5208.119999966584},{""stimulus"":""run_exp/static/images/task_images/rocket-07.jpg"",""time"":6249.539999989793},{""stimulus"":""run_exp/static/images/task_images/rocket-08.jpg"",""time"":7288.650000002235},{""stimulus"":""run_exp/static/images/task_images/rocket-09.jpg"",""time"":8330.079999985173}]",[],14,,,,,,,,,,,,,,
alien_welcome,241,759926,0.0-70.0-1.0,,null,run_exp/static/images/task_images/aliens/old_aliens/planet/alien_planet-30.jpg,null,,,,,,,,,,,,30,"10,35,74,39,5,67,13,43,70,37,50,77,14,56,30,42,34,33,52,80,66,54,9,6,69,19,20,57,38,26,28,71,15,44,58,4,72,53,47,29,22,45,24,27,62,78",,,,,,,,,,
land,242,760429,0.0-70.0-2.0,,null,run_exp/static/images/task_images/land.jpg,null,,,,,,94,,,15,,,,,,,,,,,,,,
dig,243,762433,0.0-70.0-3.0,,,,,,,,,,,"[{""stimulus"":""run_exp/static/images/task_images/dig.jpg"",""time"":0.17500005196779966},{""stimulus"":""run_exp/static/images/task_images/land.jpg"",""time"":672.3500000080094},{""stimulus"":""run_exp/static/images/task_images/dig.jpg"",""time"":1338.285000063479}]",[],15,,,,,,,,,,,,,,
harvest,244,763438,0.0-70.0-4.0,,null,run_exp/static/images/task_images/gems/94.jpg,null,,,,,,70,,,15,,,,,94,0.744173739,0.744680851,,,,,,,
decision,245,763784,0.0-70.0-5.0,,344.745,run_exp/static/images/task_images/land.jpg,65,,,,,,70,,,15,,,,,,,,82180,2,0,FALSE,,,
dig,246,766443,0.0-71.0-0.0,,,,,,,,,,,"[{""stimulus"":""run_exp/static/images/task_images/dig.jpg"",""time"":0.16499997582286596},{""stimulus"":""run_exp/static/images/task_images/land.jpg"",""time"":888.730000006035},{""stimulus"":""run_exp/static/images/task_images/dig.jpg"",""time"":1775.6149999331683}]",[],15,,,,,,,,,,,,,,
harvest,247,767444,0.0-71.0-1.0,,null,run_exp/static/images/task_images/gems/70.jpg,null,,,,,,54,,,15,,,,,70,0.776234177,0.771428571,,,,,,,
decision,248,767474,0.0-71.0-2.0,,28.79000001,run_exp/static/images/task_images/land.jpg,65,,,,,,54,,,15,,,,,,,,85871,2,1,FALSE,,,
dig,249,770449,0.0-72.0-0.0,,,,,,,,,,,"[{""stimulus"":""run_exp/static/images/task_images/dig.jpg"",""time"":0.17499993555247784},{""stimulus"":""run_exp/static/images/task_images/land.jpg"",""time"":993.1899999501184},{""stimulus"":""run_exp/static/images/task_images/dig.jpg"",""time"":1985.839999979362}]",[],15,,,,,,,,,,,,,,
harvest,250,771452,0.0-72.0-1.0,,null,run_exp/static/images/task_images/gems/54.jpg,null,,,,,,39,,,15,,,,,54,0.72580794,0.722222222,,,,,,,
decision,251,771884,0.0-72.0-2.0,,430.7799999,run_exp/static/images/task_images/land.jpg,65,,,,,,39,,,15,,,,,,,,90280,2,2,FALSE,,,
dig,252,774457,0.0-73.0-0.0,,,,,,,,,,,"[{""stimulus"":""run_exp/static/images/task_images/dig.jpg"",""time"":0.1599999377503991},{""stimulus"":""run_exp/static/images/task_images/land.jpg"",""time"":861.3149999873713},{""stimulus"":""run_exp/static/images/task_images/dig.jpg"",""time"":1714.6100000245497}]",[],15,,,,,,,,,,,,,,
harvest,253,775461,0.0-73.0-1.0,,null,run_exp/static/images/task_images/gems/39.jpg,null,,,,,,30,,,15,,,,,39,0.763766366,0.769230769,,,,,,,
decision,254,775754,0.0-73.0-2.0,,291.37,run_exp/static/images/task_images/land.jpg,76,,,,,,30,,,15,,,,,,,,94150,2,3,TRUE,,,
travel,255,785461,0.0-74.0-0.0,,,,,,,,,,,"[{""stimulus"":""run_exp/static/images/task_images/rocket-01.jpg"",""time"":0.169999897480011},{""stimulus"":""run_exp/static/images/task_images/rocket-02.jpg"",""time"":1082.1249999571592},{""stimulus"":""run_exp/static/images/task_images/rocket-03.jpg"",""time"":2157.85999991931},{""stimulus"":""run_exp/static/images/task_images/rocket-04.jpg"",""time"":3237.694999901578},{""stimulus"":""run_exp/static/images/task_images/rocket-05.jpg"",""time"":4317.54999991972},{""stimulus"":""run_exp/static/images/task_images/rocket-06.jpg"",""time"":5391.2849999032915},{""stimulus"":""run_exp/static/images/task_images/rocket-07.jpg"",""time"":6473.344999947585},{""stimulus"":""run_exp/static/images/task_images/rocket-08.jpg"",""time"":7550.724999979138},{""stimulus"":""run_exp/static/images/task_images/rocket-09.jpg"",""time"":8630.099999951199}]",[],15,,,,,,,,,,,,,,
alien_welcome,256,790464,0.0-74.0-1.0,,null,run_exp/static/images/task_images/aliens/old_aliens/planet/alien_planet-42.jpg,null,,,,,,,,,,,,42,"10,35,74,39,5,67,13,43,70,37,50,77,14,56,30,42,34,33,52,80,66,54,9,6,69,19,20,57,38,26,28,71,15,44,58,4,72,53,47,29,22,45,24,27,62,78",,,,,,,,,,
land,257,790969,0.0-74.0-2.0,,null,run_exp/static/images/task_images/land.jpg,null,,,,,,93,,,16,,,,,,,,,,,,,,
dig,258,792977,0.0-74.0-3.0,,,,,,,,,,,"[{""stimulus"":""run_exp/static/images/task_images/dig.jpg"",""time"":0.20000000949949026},{""stimulus"":""run_exp/static/images/task_images/land.jpg"",""time"":672.164999996312},{""stimulus"":""run_exp/static/images/task_images/dig.jpg"",""time"":1339.5849999506027}]",[],16,,,,,,,,,,,,,,
harvest,259,793984,0.0-74.0-4.0,,null,run_exp/static/images/task_images/gems/93.jpg,null,,,,,,64,,,16,,,,,93,0.682992476,0.688172043,,,,,,,
decision,260,794171,0.0-74.0-5.0,,185.11,run_exp/static/images/task_images/land.jpg,65,,,,,,64,,,16,,,,,,,,112567,2,0,FALSE,,,
dig,261,796989,0.0-75.0-0.0,,,,,,,,,,,"[{""stimulus"":""run_exp/static/images/task_images/dig.jpg"",""time"":0.1550000160932541},{""stimulus"":""run_exp/static/images/task_images/land.jpg"",""time"":943.9100000308827},{""stimulus"":""run_exp/static/images/task_images/dig.jpg"",""time"":1879.88000002224}]",[],16,,,,,,,,,,,,,,
harvest,262,797993,0.0-75.0-1.0,,null,run_exp/static/images/task_images/gems/64.jpg,null,,,,,,53,,,16,,,,,64,0.824994447,0.828125,,,,,,,
decision,263,798299,0.0-75.0-2.0,,304.6449999,run_exp/static/images/task_images/land.jpg,65,,,,,,53,,,16,,,,,,,,116695,2,1,FALSE,,,
dig,264,801000,0.0-76.0-0.0,,,,,,,,,,,"[{""stimulus"":""run_exp/static/images/task_images/dig.jpg"",""time"":0.14500005636364222},{""stimulus"":""run_exp/static/images/task_images/land.jpg"",""time"":900.1599999610335},{""stimulus"":""run_exp/static/images/task_images/dig.jpg"",""time"":1797.8649999713525}]",[],16,,,,,,,,,,,,,,
harvest,265,802004,0.0-76.0-1.0,,null,run_exp/static/images/task_images/gems/53.jpg,null,,,,,,42,,,16,,,,,53,0.790573465,0.79245283,,,,,,,
decision,266,802327,0.0-76.0-2.0,,321.525,run_exp/static/images/task_images/land.jpg,65,,,,,,42,,,16,,,,,,,,120723,2,2,FALSE,,,
dig,267,805007,0.0-77.0-0.0,,,,,,,,,,,"[{""stimulus"":""run_exp/static/images/task_images/dig.jpg"",""time"":0.1550000160932541},{""stimulus"":""run_exp/static/images/task_images/land.jpg"",""time"":892.9900000803173},{""stimulus"":""run_exp/static/images/task_images/dig.jpg"",""time"":1786.8000000016764}]",[],16,,,,,,,,,,,,,,
harvest,268,806008,0.0-77.0-1.0,,null,run_exp/static/images/task_images/gems/42.jpg,null,,,,,,37,,,16,,,,,42,0.881135389,0.880952381,,,,,,,
decision,269,806219,0.0-77.0-2.0,,208.725,run_exp/static/images/task_images/land.jpg,65,,,,,,37,,,16,,,,,,,,124615,2,3,FALSE,,,
dig,270,809016,0.0-78.0-0.0,,,,,,,,,,,"[{""stimulus"":""run_exp/static/images/task_images/dig.jpg"",""time"":0.18500001169741154},{""stimulus"":""run_exp/static/images/task_images/land.jpg"",""time"":934.3100000405684},{""stimulus"":""run_exp/static/images/task_images/dig.jpg"",""time"":1861.1549999332055}]",[],16,,,,,,,,,,,,,,
harvest,271,810020,0.0-78.0-1.0,,null,run_exp/static/images/task_images/gems/37.jpg,null,,,,,,27,,,16,,,,,37,0.730597511,0.72972973,,,,,,,
decision,272,810022,0.0-78.0-2.0,,0.119999982,run_exp/static/images/task_images/land.jpg,76,,,,,,27,,,16,,,,,,,,128418,2,4,TRUE,,,
travel,273,820028,0.0-79.0-0.0,,,,,,,,,,,"[{""stimulus"":""run_exp/static/images/task_images/rocket-01.jpg"",""time"":0.14000001829117537},{""stimulus"":""run_exp/static/images/task_images/rocket-02.jpg"",""time"":1113.7749999761581},{""stimulus"":""run_exp/static/images/task_images/rocket-03.jpg"",""time"":2224.4799999753013},{""stimulus"":""run_exp/static/images/task_images/rocket-04.jpg"",""time"":3338.9400000451133},{""stimulus"":""run_exp/static/images/task_images/rocket-05.jpg"",""time"":4447.634999989532},{""stimulus"":""run_exp/static/images/task_images/rocket-06.jpg"",""time"":5556.470000068657},{""stimulus"":""run_exp/static/images/task_images/rocket-07.jpg"",""time"":6671.040000044741},{""stimulus"":""run_exp/static/images/task_images/rocket-08.jpg"",""time"":7779.72500002943},{""stimulus"":""run_exp/static/images/task_images/rocket-09.jpg"",""time"":8892.504999996163}]",[],16,,,,,,,,,,,,,,
alien_welcome,274,825031,0.0-79.0-1.0,,null,run_exp/static/images/task_images/aliens/old_aliens/planet/alien_planet-34.jpg,null,,,,,,,,,,,,34,"10,35,74,39,5,67,13,43,70,37,50,77,14,56,30,42,34,33,52,80,66,54,9,6,69,19,20,57,38,26,28,71,15,44,58,4,72,53,47,29,22,45,24,27,62,78",,,,,,,,,,
land,275,825533,0.0-79.0-2.0,,null,run_exp/static/images/task_images/land.jpg,null,,,,,,99,,,17,,,,,,,,,,,,,,
dig,276,827538,0.0-79.0-3.0,,,,,,,,,,,"[{""stimulus"":""run_exp/static/images/task_images/dig.jpg"",""time"":0.18999993335455656},{""stimulus"":""run_exp/static/images/task_images/land.jpg"",""time"":672.0649999333546},{""stimulus"":""run_exp/static/images/task_images/dig.jpg"",""time"":1336.8749999208376}]",[],17,,,,,,,,,,,,,,
harvest,277,828543,0.0-79.0-4.0,,null,run_exp/static/images/task_images/gems/99.jpg,null,,,,,,75,,,17,,,,,99,0.75452258,0.757575758,,,,,,,
decision,278,828787,0.0-79.0-5.0,,242.155,run_exp/static/images/task_images/land.jpg,65,,,,,,75,,,17,,,,,,,,147183,2,0,FALSE,,,
dig,279,831550,0.0-80.0-0.0,,,,,,,,,,,"[{""stimulus"":""run_exp/static/images/task_images/dig.jpg"",""time"":0.18500001169741154},{""stimulus"":""run_exp/static/images/task_images/land.jpg"",""time"":923.3750000130385},{""stimulus"":""run_exp/static/images/task_images/dig.jpg"",""time"":1840.9049999900162}]",[],17,,,,,,,,,,,,,,
harvest,280,832554,0.0-80.0-1.0,,null,run_exp/static/images/task_images/gems/75.jpg,null,,,,,,58,,,17,,,,,75,0.771596676,0.773333333,,,,,,,
decision,281,832703,0.0-80.0-2.0,,146.575,run_exp/static/images/task_images/land.jpg,65,,,,,,58,,,17,,,,,,,,151099,2,1,FALSE,,,
dig,282,835560,0.0-81.0-0.0,,,,,,,,,,,"[{""stimulus"":""run_exp/static/images/task_images/dig.jpg"",""time"":0.14999997802078724},{""stimulus"":""run_exp/static/images/task_images/land.jpg"",""time"":953.5900000482798},{""stimulus"":""run_exp/static/images/task_images/dig.jpg"",""time"":1907.5799999991432}]",[],17,,,,,,,,,,,,,,
harvest,283,836566,0.0-81.0-1.0,,null,run_exp/static/images/task_images/gems/58.jpg,null,,,,,,49,,,17,,,,,58,0.849956772,0.844827586,,,,,,,
decision,284,836842,0.0-81.0-2.0,,274.685,run_exp/static/images/task_images/land.jpg,65,,,,,,49,,,17,,,,,,,,155238,2,2,FALSE,,,
dig,285,839570,0.0-82.0-0.0,,,,,,,,,,,"[{""stimulus"":""run_exp/static/images/task_images/dig.jpg"",""time"":0.14999997802078724},{""stimulus"":""run_exp/static/images/task_images/land.jpg"",""time"":911.2449999665841},{""stimulus"":""run_exp/static/images/task_images/dig.jpg"",""time"":1817.4000000581145}]",[],17,,,,,,,,,,,,,,
harvest,286,840576,0.0-82.0-1.0,,null,run_exp/static/images/task_images/gems/49.jpg,null,,,,,,43,,,17,,,,,49,0.873727257,0.87755102,,,,,,,
decision,287,841140,0.0-82.0-2.0,,561.74,run_exp/static/images/task_images/land.jpg,76,,,,,,43,,,17,,,,,,,,159536,2,3,TRUE,,,
travel,288,850578,0.0-83.0-0.0,,,,,,,,,,,"[{""stimulus"":""run_exp/static/images/task_images/rocket-01.jpg"",""time"":0.1550000160932541},{""stimulus"":""run_exp/static/images/task_images/rocket-02.jpg"",""time"":1053.1950000440702},{""stimulus"":""run_exp/static/images/task_images/rocket-03.jpg"",""time"":2101.420000079088},{""stimulus"":""run_exp/static/images/task_images/rocket-04.jpg"",""time"":3148.75499997288},{""stimulus"":""run_exp/static/images/task_images/rocket-05.jpg"",""time"":4197.610000032},{""stimulus"":""run_exp/static/images/task_images/rocket-06.jpg"",""time"":5244.285000022501},{""stimulus"":""run_exp/static/images/task_images/rocket-07.jpg"",""time"":6289.270000066608},{""stimulus"":""run_exp/static/images/task_images/rocket-08.jpg"",""time"":7339.975000009872},{""stimulus"":""run_exp/static/images/task_images/rocket-09.jpg"",""time"":8387.22500007134}]",[],17,,,,,,,,,,,,,,
alien_welcome,289,855581,0.0-83.0-1.0,,null,run_exp/static/images/task_images/aliens/old_aliens/planet/alien_planet-33.jpg,null,,,,,,,,,,,,33,"10,35,74,39,5,67,13,43,70,37,50,77,14,56,30,42,34,33,52,80,66,54,9,6,69,19,20,57,38,26,28,71,15,44,58,4,72,53,47,29,22,45,24,27,62,78",,,,,,,,,,
land,290,856083,0.0-83.0-2.0,,null,run_exp/static/images/task_images/land.jpg,null,,,,,,108,,,18,,,,,,,,,,,,,,
dig,291,858089,0.0-83.0-3.0,,,,,,,,,,,"[{""stimulus"":""run_exp/static/images/task_images/dig.jpg"",""time"":0.19500008784234524},{""stimulus"":""run_exp/static/images/task_images/land.jpg"",""time"":670.7700000843033},{""stimulus"":""run_exp/static/images/task_images/dig.jpg"",""time"":1335.5650000739843}]",[],18,,,,,,,,,,,,,,
harvest,292,859091,0.0-83.0-4.0,,null,run_exp/static/images/task_images/gems/108.jpg,null,,,,,,74,,,18,,,,,108,0.682026872,0.685185185,,,,,,,
decision,293,860299,0.0-83.0-5.0,,1206.13,run_exp/static/images/task_images/land.jpg,65,,,,,,74,,,18,,,,,,,,178696,2,0,FALSE,,,
dig,294,862094,0.0-84.0-0.0,,,,,,,,,,,"[{""stimulus"":""run_exp/static/images/task_images/dig.jpg"",""time"":0.16499997582286596},{""stimulus"":""run_exp/static/images/task_images/land.jpg"",""time"":601.7199999187142},{""stimulus"":""run_exp/static/images/task_images/dig.jpg"",""time"":1196.1949999677017}]",[],18,,,,,,,,,,,,,,
harvest,295,863099,0.0-84.0-1.0,,null,run_exp/static/images/task_images/gems/74.jpg,null,,,,,,59,,,18,,,,,74,0.791719833,0.797297297,,,,,,,
decision,296,863416,0.0-84.0-2.0,,315.5400001,run_exp/static/images/task_images/land.jpg,65,,,,,,59,,,18,,,,,,,,181812,2,1,FALSE,,,
dig,297,866105,0.0-85.0-0.0,,,,,,,,,,,"[{""stimulus"":""run_exp/static/images/task_images/dig.jpg"",""time"":0.1700000138953328},{""stimulus"":""run_exp/static/images/task_images/land.jpg"",""time"":898.8499999977648},{""stimulus"":""run_exp/static/images/task_images/dig.jpg"",""time"":1791.8700000736862}]",[],18,,,,,,,,,,,,,,
harvest,298,867110,0.0-85.0-1.0,,null,run_exp/static/images/task_images/gems/59.jpg,null,,,,,,50,,,18,,,,,59,0.84691751,0.847457627,,,,,,,
decision,299,867184,0.0-85.0-2.0,,72.33,run_exp/static/images/task_images/land.jpg,65,,,,,,50,,,18,,,,,,,,185580,2,2,FALSE,,,
dig,300,870116,0.0-86.0-0.0,,,,,,,,,,,"[{""stimulus"":""run_exp/static/images/task_images/dig.jpg"",""time"":0.1550000160932541},{""stimulus"":""run_exp/static/images/task_images/land.jpg"",""time"":979.1449999902397},{""stimulus"":""run_exp/static/images/task_images/dig.jpg"",""time"":1954.3050000211224}]",[],18,,,,,,,,,,,,,,
harvest,301,871118,0.0-86.0-1.0,,null,run_exp/static/images/task_images/gems/50.jpg,null,,,,,,33,,,18,,,,,50,0.667176764,0.66,,,,,,,
decision,302,871560,0.0-86.0-2.0,,440.5,run_exp/static/images/task_images/land.jpg,65,,,,,,33,,,18,,,,,,,,189957,2,3,FALSE,,,
dig,303,874125,0.0-87.0-0.0,,,,,,,,,,,"[{""stimulus"":""run_exp/static/images/task_images/dig.jpg"",""time"":0.21500000730156898},{""stimulus"":""run_exp/static/images/task_images/land.jpg"",""time"":854.6100000385195},{""stimulus"":""run_exp/static/images/task_images/dig.jpg"",""time"":1709.8900000564754}]",[],18,,,,,,,,,,,,,,
harvest,304,875127,0.0-87.0-1.0,,null,run_exp/static/images/task_images/gems/33.jpg,null,,,,,,28,,,18,,,,,33,0.851938391,0.848484848,,,,,,,
decision,305,875948,0.0-87.0-2.0,,819.73,run_exp/static/images/task_images/land.jpg,76,,,,,,28,,,18,,,,,,,,194344,2,4,TRUE,,,
travel,306,885131,0.0-88.0-0.0,,,,,,,,,,,"[{""stimulus"":""run_exp/static/images/task_images/rocket-01.jpg"",""time"":0.1799999736249447},{""stimulus"":""run_exp/static/images/task_images/rocket-02.jpg"",""time"":1020.8300000522286},{""stimulus"":""run_exp/static/images/task_images/rocket-03.jpg"",""time"":2042.505000019446},{""stimulus"":""run_exp/static/images/task_images/rocket-04.jpg"",""time"":3064.185000024736},{""stimulus"":""run_exp/static/images/task_images/rocket-05.jpg"",""time"":4083.959999959916},{""stimulus"":""run_exp/static/images/task_images/rocket-06.jpg"",""time"":5101.765000028536},{""stimulus"":""run_exp/static/images/task_images/rocket-07.jpg"",""time"":6121.554999961518},{""stimulus"":""run_exp/static/images/task_images/rocket-08.jpg"",""time"":7143.210000009276},{""stimulus"":""run_exp/static/images/task_images/rocket-09.jpg"",""time"":8160.834999987856}]",[],18,,,,,,,,,,,,,,
alien_welcome,307,890134,0.0-88.0-1.0,,null,run_exp/static/images/task_images/aliens/old_aliens/planet/alien_planet-52.jpg,null,,,,,,,,,,,,52,"10,35,74,39,5,67,13,43,70,37,50,77,14,56,30,42,34,33,52,80,66,54,9,6,69,19,20,57,38,26,28,71,15,44,58,4,72,53,47,29,22,45,24,27,62,78",,,,,,,,,,
land,308,890638,0.0-88.0-2.0,,null,run_exp/static/images/task_images/land.jpg,null,,,,,,106,,,19,,,,,,,,,,,,,,
dig,309,892644,0.0-88.0-3.0,,,,,,,,,,,"[{""stimulus"":""run_exp/static/images/task_images/dig.jpg"",""time"":0.1799999736249447},{""stimulus"":""run_exp/static/images/task_images/land.jpg"",""time"":672.0299998996779},{""stimulus"":""run_exp/static/images/task_images/dig.jpg"",""time"":1338.6949999257922}]",[],19,,,,,,,,,,,,,,
harvest,310,893649,0.0-88.0-4.0,,null,run_exp/static/images/task_images/gems/106.jpg,null,,,,,,86,,,19,,,,,106,0.806614329,0.811320755,,,,,,,
decision,311,893791,0.0-88.0-5.0,,140.34,run_exp/static/images/task_images/land.jpg,65,,,,,,86,,,19,,,,,,,,212187,2,0,FALSE,,,
dig,312,896654,0.0-89.0-0.0,,,,,,,,,,,"[{""stimulus"":""run_exp/static/images/task_images/dig.jpg"",""time"":0.1599999377503991},{""stimulus"":""run_exp/static/images/task_images/land.jpg"",""time"":956.7650000099093},{""stimulus"":""run_exp/static/images/task_images/dig.jpg"",""time"":1907.1899999398738}]",[],19,,,,,,,,,,,,,,
harvest,313,897660,0.0-89.0-1.0,,null,run_exp/static/images/task_images/gems/86.jpg,null,,,,,,70,,,19,,,,,86,0.815367616,0.813953488,,,,,,,
decision,314,897908,0.0-89.0-2.0,,246.81,run_exp/static/images/task_images/land.jpg,65,,,,,,70,,,19,,,,,,,,216305,2,1,FALSE,,,
dig,315,900666,0.0-90.0-0.0,,,,,,,,,,,"[{""stimulus"":""run_exp/static/images/task_images/dig.jpg"",""time"":0.16000005416572094},{""stimulus"":""run_exp/static/images/task_images/land.jpg"",""time"":920.9000000264496},{""stimulus"":""run_exp/static/images/task_images/dig.jpg"",""time"":1838.1000000517815}]",[],19,,,,,,,,,,,,,,
harvest,316,901669,0.0-90.0-1.0,,null,run_exp/static/images/task_images/gems/70.jpg,null,,,,,,57,,,19,,,,,70,0.808725769,0.814285714,,,,,,,
decision,317,902218,0.0-90.0-2.0,,547.2800001,run_exp/static/images/task_images/land.jpg,65,,,,,,57,,,19,,,,,,,,220614,2,2,FALSE,,,
dig,318,904673,0.0-91.0-0.0,,,,,,,,,,,"[{""stimulus"":""run_exp/static/images/task_images/dig.jpg"",""time"":0.14999997802078724},{""stimulus"":""run_exp/static/images/task_images/land.jpg"",""time"":819.7149999905378},{""stimulus"":""run_exp/static/images/task_images/dig.jpg"",""time"":1637.1949999593198}]",[],19,,,,,,,,,,,,,,
harvest,319,905676,0.0-91.0-1.0,,null,run_exp/static/images/task_images/gems/57.jpg,null,,,,,,46,,,19,,,,,57,0.80864551,0.807017544,,,,,,,
decision,320,905817,0.0-91.0-2.0,,139.68,run_exp/static/images/task_images/land.jpg,65,,,,,,46,,,19,,,,,,,,224213,2,3,FALSE,,,
dig,321,908681,0.0-92.0-0.0,,,,,,,,,,,"[{""stimulus"":""run_exp/static/images/task_images/dig.jpg"",""time"":0.17500005196779966},{""stimulus"":""run_exp/static/images/task_images/land.jpg"",""time"":956.4450000179932},{""stimulus"":""run_exp/static/images/task_images/dig.jpg"",""time"":1910.3350000223145}]",[],19,,,,,,,,,,,,,,
harvest,322,909687,0.0-92.0-1.0,,null,run_exp/static/images/task_images/gems/46.jpg,null,,,,,,39,,,19,,,,,46,0.855103748,0.847826087,,,,,,,
decision,323,910363,0.0-92.0-2.0,,673.955,run_exp/static/images/task_images/land.jpg,76,,,,,,39,,,19,,,,,,,,228759,2,4,TRUE,,,
travel,324,919691,0.0-93.0-0.0,,,,,,,,,,,"[{""stimulus"":""run_exp/static/images/task_images/rocket-01.jpg"",""time"":0.1599999377503991},{""stimulus"":""run_exp/static/images/task_images/rocket-02.jpg"",""time"":1039.229999994859},{""stimulus"":""run_exp/static/images/task_images/rocket-03.jpg"",""time"":2076.2399999657646},{""stimulus"":""run_exp/static/images/task_images/rocket-04.jpg"",""time"":3111.419999971986},{""stimulus"":""run_exp/static/images/task_images/rocket-05.jpg"",""time"":4149.999999906868},{""stimulus"":""run_exp/static/images/task_images/rocket-06.jpg"",""time"":5183.864999911748},{""stimulus"":""run_exp/static/images/task_images/rocket-07.jpg"",""time"":6219.264999963343},{""stimulus"":""run_exp/static/images/task_images/rocket-08.jpg"",""time"":7255.994999897666},{""stimulus"":""run_exp/static/images/task_images/rocket-09.jpg"",""time"":8290.75499996543}]",[],19,,,,,,,,,,,,,,
alien_welcome,325,924692,0.0-93.0-1.0,,null,run_exp/static/images/task_images/aliens/old_aliens/planet/alien_planet-80.jpg,null,,,,,,,,,,,,80,"10,35,74,39,5,67,13,43,70,37,50,77,14,56,30,42,34,33,52,80,66,54,9,6,69,19,20,57,38,26,28,71,15,44,58,4,72,53,47,29,22,45,24,27,62,78",,,,,,,,,,
land,326,925197,0.0-93.0-2.0,,null,run_exp/static/images/task_images/land.jpg,null,,,,,,97,,,20,,,,,,,,,,,,,,
dig,327,927205,0.0-93.0-3.0,,,,,,,,,,,"[{""stimulus"":""run_exp/static/images/task_images/dig.jpg"",""time"":0.1949999714270234},{""stimulus"":""run_exp/static/images/task_images/land.jpg"",""time"":672.0199999399483},{""stimulus"":""run_exp/static/images/task_images/dig.jpg"",""time"":1338.3250000188127}]",[],20,,,,,,,,,,,,,,
harvest,328,928208,0.0-93.0-4.0,,null,run_exp/static/images/task_images/gems/97.jpg,null,,,,,,43,,,20,,,,,97,0.441766861,0.443298969,,,,,,,
decision,329,928385,0.0-93.0-5.0,,175.07,run_exp/static/images/task_images/land.jpg,65,,,,,,43,,,20,,,,,,,,246781,2,0,FALSE,,,
dig,330,931212,0.0-94.0-0.0,,,,,,,,,,,"[{""stimulus"":""run_exp/static/images/task_images/dig.jpg"",""time"":0.14999997802078724},{""stimulus"":""run_exp/static/images/task_images/land.jpg"",""time"":942.2349999658763},{""stimulus"":""run_exp/static/images/task_images/dig.jpg"",""time"":1886.6200000047684}]",[],20,,,,,,,,,,,,,,
harvest,331,932213,0.0-94.0-1.0,,null,run_exp/static/images/task_images/gems/43.jpg,null,,,,,,21,,,20,,,,,43,0.498694741,0.488372093,,,,,,,
decision,332,932953,0.0-94.0-2.0,,737.4,run_exp/static/images/task_images/land.jpg,76,,,,,,21,,,20,,,,,,,,251349,2,1,TRUE,,,
travel,333,942218,0.0-95.0-0.0,,,,,,,,,,,"[{""stimulus"":""run_exp/static/images/task_images/rocket-01.jpg"",""time"":0.1550000160932541},{""stimulus"":""run_exp/static/images/task_images/rocket-02.jpg"",""time"":1033.5699999704957},{""stimulus"":""run_exp/static/images/task_images/rocket-03.jpg"",""time"":2063.13499994576},{""stimulus"":""run_exp/static/images/task_images/rocket-04.jpg"",""time"":3092.5699999788776},{""stimulus"":""run_exp/static/images/task_images/rocket-05.jpg"",""time"":4117.889999994077},{""stimulus"":""run_exp/static/images/task_images/rocket-06.jpg"",""time"":5150.894999969751},{""stimulus"":""run_exp/static/images/task_images/rocket-07.jpg"",""time"":6178.665000014007},{""stimulus"":""run_exp/static/images/task_images/rocket-08.jpg"",""time"":7206.185000017285},{""stimulus"":""run_exp/static/images/task_images/rocket-09.jpg"",""time"":8235.179999959655}]",[],20,,,,,,,,,,,,,,
alien_welcome,334,947224,0.0-95.0-1.0,,null,run_exp/static/images/task_images/aliens/old_aliens/planet/alien_planet-66.jpg,null,,,,,,,,,,,,66,"10,35,74,39,5,67,13,43,70,37,50,77,14,56,30,42,34,33,52,80,66,54,9,6,69,19,20,57,38,26,28,71,15,44,58,4,72,53,47,29,22,45,24,27,62,78",,,,,,,,,,
land,335,947730,0.0-95.0-2.0,,null,run_exp/static/images/task_images/land.jpg,null,,,,,,106,,,21,,,,,,,,,,,,,,
dig,336,949733,0.0-95.0-3.0,,,,,,,,,,,"[{""stimulus"":""run_exp/static/images/task_images/dig.jpg"",""time"":0.19500008784234524},{""stimulus"":""run_exp/static/images/task_images/land.jpg"",""time"":670.8649999927729},{""stimulus"":""run_exp/static/images/task_images/dig.jpg"",""time"":1340.0350000010803}]",[],21,,,,,,,,,,,,,,
harvest,337,950738,0.0-95.0-4.0,,null,run_exp/static/images/task_images/gems/106.jpg,null,,,,,,87,,,21,,,,,106,0.816827187,0.820754717,,,,,,,
decision,338,951021,0.0-95.0-5.0,,281.3599999,run_exp/static/images/task_images/land.jpg,65,,,,,,87,,,21,,,,,,,,269417,2,0,FALSE,,,
dig,339,953744,0.0-96.0-0.0,,,,,,,,,,,"[{""stimulus"":""run_exp/static/images/task_images/dig.jpg"",""time"":0.14500005636364222},{""stimulus"":""run_exp/static/images/task_images/land.jpg"",""time"":911.6550000617281},{""stimulus"":""run_exp/static/images/task_images/dig.jpg"",""time"":1814.9149999953806}]",[],21,,,,,,,,,,,,,,
harvest,340,954749,0.0-96.0-1.0,,null,run_exp/static/images/task_images/gems/87.jpg,null,,,,,,70,,,21,,,,,87,0.806022896,0.804597701,,,,,,,
decision,341,955115,0.0-96.0-2.0,,364.9650001,run_exp/static/images/task_images/land.jpg,65,,,,,,70,,,21,,,,,,,,273511,2,1,FALSE,,,
dig,342,957756,0.0-97.0-0.0,,,,,,,,,,,"[{""stimulus"":""run_exp/static/images/task_images/dig.jpg"",""time"":0.16499997582286596},{""stimulus"":""run_exp/static/images/task_images/land.jpg"",""time"":882.4599999934435},{""stimulus"":""run_exp/static/images/task_images/dig.jpg"",""time"":1760.8349999645725}]",[],21,,,,,,,,,,,,,,
harvest,343,958760,0.0-97.0-1.0,,null,run_exp/static/images/task_images/gems/70.jpg,null,,,,,,54,,,21,,,,,70,0.772559182,0.771428571,,,,,,,
decision,344,959019,0.0-97.0-2.0,,257.3399999,run_exp/static/images/task_images/land.jpg,65,,,,,,54,,,21,,,,,,,,277415,2,2,FALSE,,,
dig,345,961767,0.0-98.0-0.0,,,,,,,,,,,"[{""stimulus"":""run_exp/static/images/task_images/dig.jpg"",""time"":0.17500005196779966},{""stimulus"":""run_exp/static/images/task_images/land.jpg"",""time"":915.4499999713153},{""stimulus"":""run_exp/static/images/task_images/dig.jpg"",""time"":1830.4850000422448}]",[],21,,,,,,,,,,,,,,
harvest,346,962771,0.0-98.0-1.0,,null,run_exp/static/images/task_images/gems/54.jpg,null,,,,,,43,,,21,,,,,54,0.787252654,0.796296296,,,,,,,
decision,347,962957,0.0-98.0-2.0,,184.245,run_exp/static/images/task_images/land.jpg,65,,,,,,43,,,21,,,,,,,,281353,2,3,FALSE,,,
dig,348,965776,0.0-99.0-0.0,,,,,,,,,,,"[{""stimulus"":""run_exp/static/images/task_images/dig.jpg"",""time"":0.1700000138953328},{""stimulus"":""run_exp/static/images/task_images/land.jpg"",""time"":942.3850000603124},{""stimulus"":""run_exp/static/images/task_images/dig.jpg"",""time"":1876.9800000591204}]",[],21,,,,,,,,,,,,,,
harvest,349,966779,0.0-99.0-1.0,,null,run_exp/static/images/task_images/gems/43.jpg,null,,,,,,35,,,21,,,,,43,0.813101639,0.813953488,,,,,,,
decision,350,967052,0.0-99.0-2.0,,271.88,run_exp/static/images/task_images/land.jpg,76,,,,,,35,,,21,,,,,,,,285448,2,4,TRUE,,,
travel,351,976780,0.0-100.0-0.0,,,,,,,,,,,"[{""stimulus"":""run_exp/static/images/task_images/rocket-01.jpg"",""time"":0.15000009443610907},{""stimulus"":""run_exp/static/images/task_images/rocket-02.jpg"",""time"":1084.8650000989437},{""stimulus"":""run_exp/static/images/task_images/rocket-03.jpg"",""time"":2164.865000057034},{""stimulus"":""run_exp/static/images/task_images/rocket-04.jpg"",""time"":3244.6000000927597},{""stimulus"":""run_exp/static/images/task_images/rocket-05.jpg"",""time"":4324.345000088215},{""stimulus"":""run_exp/static/images/task_images/rocket-06.jpg"",""time"":5404.1549999965355},{""stimulus"":""run_exp/static/images/task_images/rocket-07.jpg"",""time"":6483.6900000227615},{""stimulus"":""run_exp/static/images/task_images/rocket-08.jpg"",""time"":7565.825000056066},{""stimulus"":""run_exp/static/images/task_images/rocket-09.jpg"",""time"":8643.215000047348}]",[],21,,,,,,,,,,,,,,
alien_welcome,352,981783,0.0-100.0-1.0,,null,run_exp/static/images/task_images/aliens/old_aliens/planet/alien_planet-54.jpg,null,,,,,,,,,,,,54,"10,35,74,39,5,67,13,43,70,37,50,77,14,56,30,42,34,33,52,80,66,54,9,6,69,19,20,57,38,26,28,71,15,44,58,4,72,53,47,29,22,45,24,27,62,78",,,,,,,,,,
land,353,982285,0.0-100.0-2.0,,null,run_exp/static/images/task_images/land.jpg,null,,,,,,94,,,22,,,,,,,,,,,,,,
dig,354,984291,0.0-100.0-3.0,,,,,,,,,,,"[{""stimulus"":""run_exp/static/images/task_images/dig.jpg"",""time"":0.2050000475719571},{""stimulus"":""run_exp/static/images/task_images/land.jpg"",""time"":670.1200000243261},{""stimulus"":""run_exp/static/images/task_images/dig.jpg"",""time"":1335.3399999905378}]",[],22,,,,,,,,,,,,,,
harvest,355,985293,0.0-100.0-4.0,,null,run_exp/static/images/task_images/gems/94.jpg,null,,,,,,81,,,22,,,,,94,0.861424316,0.861702128,,,,,,,
decision,356,985581,0.0-100.0-5.0,,286.1350001,run_exp/static/images/task_images/land.jpg,65,,,,,,81,,,22,,,,,,,,303977,2,0,TRUE,,,
end_of_block_continue,357,988220,0.0-101.0-0.0,,2634.63,run_exp/static/audio/clip_32_block_end.m4a,,,,,,0,,,,,,,,,,,,,,,,,,
alien_welcome,358,993224,0.0-102.0-0.0,,null,run_exp/static/images/task_images/aliens/old_aliens/planet/alien_planet-9.jpg,null,,,,,,,,,,,,9,"10,35,74,39,5,67,13,43,70,37,50,77,14,56,30,42,34,33,52,80,66,54,9,6,69,19,20,57,38,26,28,71,15,44,58,4,72,53,47,29,22,45,24,27,62,78",,,,,,,,,,
land,359,993727,0.0-102.0-1.0,,null,run_exp/static/images/task_images/land.jpg,null,,,,,,98,,,23,,,,,,,,,,,,,,
dig,360,995735,0.0-102.0-2.0,,,,,,,,,,,"[{""stimulus"":""run_exp/static/images/task_images/dig.jpg"",""time"":0.1900000497698784},{""stimulus"":""run_exp/static/images/task_images/land.jpg"",""time"":672.0750000094995},{""stimulus"":""run_exp/static/images/task_images/dig.jpg"",""time"":1336.2350000534207}]",[],23,,,,,,,,,,,,,,
harvest,361,996740,0.0-102.0-3.0,,null,run_exp/static/images/task_images/gems/98.jpg,null,,,,,,45,,,23,,,,,98,0.457011028,0.459183673,,,,,,,
decision,362,997495,0.0-102.0-4.0,,752.765,run_exp/static/images/task_images/land.jpg,65,,,,,,45,,,23,,,,,,,,9273,3,0,FALSE,,,
dig,363,999746,0.0-103.0-0.0,,,,,,,,,,,"[{""stimulus"":""run_exp/static/images/task_images/dig.jpg"",""time"":0.1599999377503991},{""stimulus"":""run_exp/static/images/task_images/land.jpg"",""time"":753.2149999169633},{""stimulus"":""run_exp/static/images/task_images/dig.jpg"",""time"":1503.78999998793}]",[],23,,,,,,,,,,,,,,
harvest,364,1000751,0.0-103.0-1.0,,null,run_exp/static/images/task_images/gems/45.jpg,null,,,,,,23,,,23,,,,,45,0.515742741,0.511111111,,,,,,,
decision,365,1001612,0.0-103.0-2.0,,859.545,run_exp/static/images/task_images/land.jpg,76,,,,,,23,,,23,,,,,,,,13391,3,1,TRUE,,,
travel,366,1010752,0.0-104.0-0.0,,,,,,,,,,,"[{""stimulus"":""run_exp/static/images/task_images/rocket-01.jpg"",""time"":0.1550000160932541},{""stimulus"":""run_exp/static/images/task_images/rocket-02.jpg"",""time"":1015.745000098832},{""stimulus"":""run_exp/static/images/task_images/rocket-03.jpg"",""time"":2031.6550000570714},{""stimulus"":""run_exp/static/images/task_images/rocket-04.jpg"",""time"":3047.560000093654},{""stimulus"":""run_exp/static/images/task_images/rocket-05.jpg"",""time"":4063.535000081174},{""stimulus"":""run_exp/static/images/task_images/rocket-06.jpg"",""time"":5076.824999996461},{""stimulus"":""run_exp/static/images/task_images/rocket-07.jpg"",""time"":6093.165000085719},{""stimulus"":""run_exp/static/images/task_images/rocket-08.jpg"",""time"":7109.29000005126},{""stimulus"":""run_exp/static/images/task_images/rocket-09.jpg"",""time"":8123.265000060201}]",[],23,,,,,,,,,,,,,,
alien_welcome,367,1015756,0.0-104.0-1.0,,null,run_exp/static/images/task_images/aliens/old_aliens/planet/alien_planet-6.jpg,null,,,,,,,,,,,,6,"10,35,74,39,5,67,13,43,70,37,50,77,14,56,30,42,34,33,52,80,66,54,9,6,69,19,20,57,38,26,28,71,15,44,58,4,72,53,47,29,22,45,24,27,62,78",,,,,,,,,,
land,368,1016259,0.0-104.0-2.0,,null,run_exp/static/images/task_images/land.jpg,null,,,,,,110,,,24,,,,,,,,,,,,,,
dig,369,1018264,0.0-104.0-3.0,,,,,,,,,,,"[{""stimulus"":""run_exp/static/images/task_images/dig.jpg"",""time"":0.2899999963119626},{""stimulus"":""run_exp/static/images/task_images/land.jpg"",""time"":670.9800000535324},{""stimulus"":""run_exp/static/images/task_images/dig.jpg"",""time"":1339.7300000069663}]",[],24,,,,,,,,,,,,,,
harvest,370,1019265,0.0-104.0-4.0,,null,run_exp/static/images/task_images/gems/110.jpg,null,,,,,,82,,,24,,,,,110,0.745733545,0.745454545,,,,,,,
decision,371,1019411,0.0-104.0-5.0,,143.325,run_exp/static/images/task_images/land.jpg,65,,,,,,82,,,24,,,,,,,,31189,3,0,FALSE,,,
dig,372,1022271,0.0-105.0-0.0,,,,,,,,,,,"[{""stimulus"":""run_exp/static/images/task_images/dig.jpg"",""time"":0.16499997582286596},{""stimulus"":""run_exp/static/images/task_images/land.jpg"",""time"":956.83000003919},{""stimulus"":""run_exp/static/images/task_images/dig.jpg"",""time"":1908.655000035651}]",[],24,,,,,,,,,,,,,,
harvest,373,1023273,0.0-105.0-1.0,,null,run_exp/static/images/task_images/gems/82.jpg,null,,,,,,60,,,24,,,,,82,0.731952828,0.731707317,,,,,,,
decision,374,1023506,0.0-105.0-2.0,,230.505,run_exp/static/images/task_images/land.jpg,65,,,,,,60,,,24,,,,,,,,35284,3,1,FALSE,,,
dig,375,1026280,0.0-106.0-0.0,,,,,,,,,,,"[{""stimulus"":""run_exp/static/images/task_images/dig.jpg"",""time"":0.1550000160932541},{""stimulus"":""run_exp/static/images/task_images/land.jpg"",""time"":925.6649999879301},{""stimulus"":""run_exp/static/images/task_images/dig.jpg"",""time"":1848.3199999900535}]",[],24,,,,,,,,,,,,,,
harvest,376,1027283,0.0-106.0-1.0,,null,run_exp/static/images/task_images/gems/60.jpg,null,,,,,,49,,,24,,,,,60,0.815155075,0.816666667,,,,,,,
decision,377,1029311,0.0-106.0-2.0,,2026.495,run_exp/static/images/task_images/land.jpg,65,,,,,,49,,,24,,,,,,,,41089,3,2,FALSE,,,
dig,378,1030288,0.0-107.0-0.0,,,,,,,,,,,"[{""stimulus"":""run_exp/static/images/task_images/dig.jpg"",""time"":0.16499997582286596},{""stimulus"":""run_exp/static/images/task_images/land.jpg"",""time"":325.5450000287965},{""stimulus"":""run_exp/static/images/task_images/dig.jpg"",""time"":651.6500000143424}]",[],24,,,,,,,,,,,,,,
harvest,379,1031289,0.0-107.0-1.0,,null,run_exp/static/images/task_images/gems/49.jpg,null,,,,,,36,,,24,,,,,49,0.728190964,0.734693878,,,,,,,
decision,380,1032449,0.0-107.0-2.0,,1156.47,run_exp/static/images/task_images/land.jpg,76,,,,,,36,,,24,,,,,,,,44227,3,3,TRUE,,,
