trial_type,trial_index,time_elapsed,internal_node_id,interactions,blur_events,focus_events,fullscreenenter_events,fullscreenexit_events,success,rt,stimulus,key_press,prompt,subject_id,participant_id,age,gender,button_pressed,next_reward,animation_sequence,responses,planet,curr_prac_trial,n_prac_rounds,alien,aliens,reward_received,decay_rate_actual,decay_rate_exp,time_in_block,block_num,prt,last_trial_on_planet,button_html,bonus,num_failures
pavlovia,0,3,0.0-0.0,"""event"",""trial"",""time""
""fullscreenenter"",""1"",""19825""
","
","
","""event"",""trial"",""time""
""fullscreenenter"",""1"",""19825""
","
",,,,,,,,,,,,,,,,,,,,,,,,,,,,
fullscreen,1,20770,0.0-1.0,"""event"",""trial"",""time""
""fullscreenenter"",""1"",""19825""
","
","
","""event"",""trial"",""time""
""fullscreenenter"",""1"",""19825""
","
",TRUE,,,,,,,,,,,,,,,,,,,,,,,,,,,
instruc_welcome,2,31474,0.0-2.0,"""event"",""trial"",""time""
""fullscreenenter"",""1"",""19825""
""fullscreenexit"",""3"",""41867""
","
","
","""event"",""trial"",""time""
""fullscreenenter"",""1"",""19825""
","""event"",""trial"",""time""
""fullscreenexit"",""3"",""41867""
",,null,run_exp/static/audio/clip_1_welcome.m4a,null,"<p>Howdy! In this experiment, you’ll be an explorer traveling through space to collect space treasure.</p><p>Your mission is to collect as much treasure as possible.</p><br><br><p><img src='run_exp/static/images/task_images/opening_img-01.jpg' height='300' width='auto'></p>",9693,2068,16.33,Female,,,,,,,,,,,,,,,,,,,
audio-keyboard-response,3,48108,0.0-3.0,"""event"",""trial"",""time""
""fullscreenenter"",""1"",""19825""
""fullscreenexit"",""3"",""41867""
","
","
","""event"",""trial"",""time""
""fullscreenenter"",""1"",""19825""
","""event"",""trial"",""time""
""fullscreenexit"",""3"",""41867""
",,null,run_exp/static/audio/clip_2_move.m4a,null,,,,,,,,,,,,,,,,,,,,,,,,
welcome_dec,4,49147,0.0-4.0,"""event"",""trial"",""time""
""fullscreenenter"",""1"",""19825""
""fullscreenexit"",""3"",""41867""
","
","
","""event"",""trial"",""time""
""fullscreenenter"",""1"",""19825""
","""event"",""trial"",""time""
""fullscreenexit"",""3"",""41867""
",,1033.9,"<p>Howdy! In this experiment, you’ll be an explorer traveling through space to collect space treasure.</p><p>Your mission is to collect as much treasure as possible.</p><br><br><p><img src='run_exp/static/images/task_images/opening_img-01.jpg' height='300' width='auto'></p>",,,,,,,1,,,,,,,,,,,,,,,,,,
html-keyboard-response,5,51016,0.0-5.0,"""event"",""trial"",""time""
""fullscreenenter"",""1"",""19825""
""fullscreenexit"",""3"",""41867""
","
","
","""event"",""trial"",""time""
""fullscreenenter"",""1"",""19825""
","""event"",""trial"",""time""
""fullscreenexit"",""3"",""41867""
",,1864.9,"<p>Howdy! In this experiment, you’ll be an explorer traveling through space to collect space treasure.</p><p>Your mission is to collect as much treasure as possible.</p><br><br><p><img src='run_exp/static/images/task_images/opening_img-01.jpg' height='300' width='auto'></p><button class=""jspsych-html-btn-unchosen""><img src=""run_exp/static/images/task_images/planet-01.jpg"" height=""50""></button><button class=""jspsych-html-btn-chosen""><img src=""run_exp/static/images/task_images/planet-02.jpg"" height=""50""></button><p><b>[press the space bar to lock in your answer]<b><br></p>",32,,,,,,,,,,,,,,,,,,,,,,,,
instruc_goal,6,61078,0.0-6.0-0.0,"""event"",""trial"",""time""
""fullscreenenter"",""1"",""19825""
""fullscreenexit"",""3"",""41867""
","
","
","""event"",""trial"",""time""
""fullscreenenter"",""1"",""19825""
","""event"",""trial"",""time""
""fullscreenexit"",""3"",""41867""
",,null,run_exp/static/audio/clip_3_goal.m4a,null,"<p> As a space explorer, you’ll visit different planets to dig for space treasure, these pink gems.</p> <p> The more treasure you dig up, the more bonus money you’ll win! </p><br><br><p><img src='run_exp/static/images/task_images/pink_gem.jpg' height='300' width='auto'></p>",,,,,,,,,,,,,,,,,,,,,,,
instruc_goal,7,64875,0.0-6.0-1.0,"""event"",""trial"",""time""
""fullscreenenter"",""1"",""19825""
""fullscreenexit"",""3"",""41867""
","
","
","""event"",""trial"",""time""
""fullscreenenter"",""1"",""19825""
","""event"",""trial"",""time""
""fullscreenexit"",""3"",""41867""
",,3792.6,"<p> As a space explorer, you’ll visit different planets to dig for space treasure, these pink gems.</p> <p> The more treasure you dig up, the more bonus money you’ll win! </p><br><br><p><img src='run_exp/static/images/task_images/pink_gem.jpg' height='300' width='auto'></p>",,,,,,,1,,,,,,,,,,,,,,,,,,
html-keyboard-response,8,65766,0.0-6.0-2.0,"""event"",""trial"",""time""
""fullscreenenter"",""1"",""19825""
""fullscreenexit"",""3"",""41867""
","
","
","""event"",""trial"",""time""
""fullscreenenter"",""1"",""19825""
","""event"",""trial"",""time""
""fullscreenexit"",""3"",""41867""
",,889.2,"<p> As a space explorer, you’ll visit different planets to dig for space treasure, these pink gems.</p> <p> The more treasure you dig up, the more bonus money you’ll win! </p><br><br><p><img src='run_exp/static/images/task_images/pink_gem.jpg' height='300' width='auto'></p><button class=""jspsych-html-btn-unchosen""><img src=""run_exp/static/images/task_images/planet-01.jpg"" height=""50""></button><button class=""jspsych-html-btn-chosen""><img src=""run_exp/static/images/task_images/planet-02.jpg"" height=""50""></button><p><b>[press the space bar to lock in your answer]<b><br></p>",32,,,,,,,,,,,,,,,,,,,,,,,,
instruc_dig,9,81778,0.0-7.0-0.0,"""event"",""trial"",""time""
""fullscreenenter"",""1"",""19825""
""fullscreenexit"",""3"",""41867""
","
","
","""event"",""trial"",""time""
""fullscreenenter"",""1"",""19825""
","""event"",""trial"",""time""
""fullscreenexit"",""3"",""41867""
",,null,run_exp/static/audio/clip_4_dig.m4a,null,,,,,,,100,,,,,,,,,,,,,,,,,
instruc_dig_try,10,82868,0.0-7.0-1.0,"""event"",""trial"",""time""
""fullscreenenter"",""1"",""19825""
""fullscreenexit"",""3"",""41867""
","
","
","""event"",""trial"",""time""
""fullscreenenter"",""1"",""19825""
","""event"",""trial"",""time""
""fullscreenexit"",""3"",""41867""
",,1086.3,"<p> When you’ve arrived at a new planet, you will dig once. </p> <p>Then, you get to decide if you want to stay on the planet and dig again or travel to a new planet and dig there.</p> <p> To stay and dig, press the letter <strong>‘A’</strong> on your keyboard. Try pressing it now! </p><p><img src='run_exp/static/images/task_images/land.jpg'  height='700' width='auto'></p>",65,"<p> When you’ve arrived at a new planet, you will dig once. </p> <p>Then, you get to decide if you want to stay on the planet and dig again or travel to a new planet and dig there.</p> <p> To stay and dig, press the letter <strong>‘A’</strong> on your keyboard. Try pressing it now! </p><p><img src='run_exp/static/images/task_images/land.jpg'  height='700' width='auto'></p>",,,,,,100,,,,,,,,,,,,,,,,,
dig_prac,11,84893,0.0-7.0-2.0,"""event"",""trial"",""time""
""fullscreenenter"",""1"",""19825""
""fullscreenexit"",""3"",""41867""
","
","
","""event"",""trial"",""time""
""fullscreenenter"",""1"",""19825""
","""event"",""trial"",""time""
""fullscreenexit"",""3"",""41867""
",,,,,,,,,,,,"[{""stimulus"":""run_exp/static/images/task_images/dig.jpg"",""time"":0.5},{""stimulus"":""run_exp/static/images/task_images/land.jpg"",""time"":673.4000000953674},{""stimulus"":""run_exp/static/images/task_images/dig.jpg"",""time"":1346.6000001430511}]",[],,,,,,,,,,,,,,,
instruc_travel,12,121138,0.0-7.0-3.0,"""event"",""trial"",""time""
""fullscreenenter"",""1"",""19825""
""fullscreenexit"",""3"",""41867""
","
","
","""event"",""trial"",""time""
""fullscreenenter"",""1"",""19825""
","""event"",""trial"",""time""
""fullscreenexit"",""3"",""41867""
",,null,run_exp/static/audio/clip_5_travel.m4a,null,"<p>Every time you dig up gems, there are less gems on the planet, so the more you dig on a planet the fewer gems you’ll get with each dig.</p><p>When gems are running low, you may want to travel to a new planet. </p> <p>  Planets are very far apart in this galaxy, so it will take some time to travel between them. </p> <br><p>There are lots and lots of planets for you to visit, so you won’t be able to return to any planets you’ve seen before. </p><br><p>To leave this planet and travel to a new one, press the letter <strong>‘L’</strong> on your keyboard. Try pressing it now! </p><p><img src='run_exp/static/images/task_images/rocket-01.jpg'  height='600' width='auto'></p>",,,,,,,,,,,,,,,,,,,,,,,
instruc_travel_try,13,122983,0.0-7.0-4.0,"""event"",""trial"",""time""
""fullscreenenter"",""1"",""19825""
""fullscreenexit"",""3"",""41867""
","
","
","""event"",""trial"",""time""
""fullscreenenter"",""1"",""19825""
","""event"",""trial"",""time""
""fullscreenexit"",""3"",""41867""
",,1842.8,"<p>Every time you dig up gems, there are less gems on the planet, so the more you dig on a planet the fewer gems you’ll get with each dig.</p><p>When gems are running low, you may want to travel to a new planet. </p> <p>  Planets are very far apart in this galaxy, so it will take some time to travel between them. </p> <br><p>There are lots and lots of planets for you to visit, so you won’t be able to return to any planets you’ve seen before. </p><br><p>To leave this planet and travel to a new one, press the letter <strong>‘L’</strong> on your keyboard. Try pressing it now! </p><p><img src='run_exp/static/images/task_images/rocket-01.jpg'  height='600' width='auto'></p>",76,"<p>Every time you dig up gems, there are less gems on the planet, so the more you dig on a planet the fewer gems you’ll get with each dig.</p><p>When gems are running low, you may want to travel to a new planet. </p> <p>  Planets are very far apart in this galaxy, so it will take some time to travel between them. </p> <br><p>There are lots and lots of planets for you to visit, so you won’t be able to return to any planets you’ve seen before. </p><br><p>To leave this planet and travel to a new one, press the letter <strong>‘L’</strong> on your keyboard. Try pressing it now! </p><p><img src='run_exp/static/images/task_images/rocket-01.jpg'  height='600' width='auto'></p>",,,,,,,,,,,,,,,,,,,,,,,
travel_prac,14,132996,0.0-7.0-5.0,"""event"",""trial"",""time""
""fullscreenenter"",""1"",""19825""
""fullscreenexit"",""3"",""41867""
","
","
","""event"",""trial"",""time""
""fullscreenenter"",""1"",""19825""
","""event"",""trial"",""time""
""fullscreenexit"",""3"",""41867""
",,,,,,,,,,,,"[{""stimulus"":""run_exp/static/images/task_images/rocket-01.jpg"",""time"":0.40000009536743164},{""stimulus"":""run_exp/static/images/task_images/rocket-02.jpg"",""time"":1112.9000000953674},{""stimulus"":""run_exp/static/images/task_images/rocket-03.jpg"",""time"":2225.7000000476837},{""stimulus"":""run_exp/static/images/task_images/rocket-04.jpg"",""time"":3334.5},{""stimulus"":""run_exp/static/images/task_images/rocket-05.jpg"",""time"":4456.799999952316},{""stimulus"":""run_exp/static/images/task_images/rocket-06.jpg"",""time"":5557.200000047684},{""stimulus"":""run_exp/static/images/task_images/rocket-07.jpg"",""time"":6668},{""stimulus"":""run_exp/static/images/task_images/rocket-08.jpg"",""time"":7791.700000047684},{""stimulus"":""run_exp/static/images/task_images/rocket-09.jpg"",""time"":8892.099999904633}]",[],0,,,,,,,,,,,,,,
instruc_alien_greet,15,160179,0.0-7.0-6.0,"""event"",""trial"",""time""
""fullscreenenter"",""1"",""19825""
""fullscreenexit"",""3"",""41867""
","
","
","""event"",""trial"",""time""
""fullscreenenter"",""1"",""19825""
","""event"",""trial"",""time""
""fullscreenexit"",""3"",""41867""
",,null,run_exp/static/audio/clip_6_alien.m4a,null,"<p>When you arrive at a new planet, the alien who owns the treasure mine on that planet will greet you!</p><p>The better an alien takes care of their mine the easier it is to dig for gems. Some aliens take better care of their mine than others. So, you won’t get exactly the same amount of gems on each planet.</p><p>What the alien looks like does not tell you anything about how many gems there are on the planet.</p><br><p><img src=""run_exp/static/images/task_images/aliens/instructions_aliens/planet/alien_planet-1.jpg""  height=""600"" width=""auto""></p>",,,,,,,,,,,,,,,,,,,,,,,
instruc_alien_greet,16,165698,0.0-7.0-7.0,"""event"",""trial"",""time""
""fullscreenenter"",""1"",""19825""
""fullscreenexit"",""3"",""41867""
","
","
","""event"",""trial"",""time""
""fullscreenenter"",""1"",""19825""
","""event"",""trial"",""time""
""fullscreenexit"",""3"",""41867""
",,5512.8,"<p>When you arrive at a new planet, the alien who owns the treasure mine on that planet will greet you!</p><p>The better an alien takes care of their mine the easier it is to dig for gems. Some aliens take better care of their mine than others. So, you won’t get exactly the same amount of gems on each planet.</p><p>What the alien looks like does not tell you anything about how many gems there are on the planet.</p><br><p><img src=""run_exp/static/images/task_images/aliens/instructions_aliens/planet/alien_planet-1.jpg""  height=""600"" width=""auto""></p>",,,,,,,1,,,,,,,,,,,,,,,,,,
html-keyboard-response,17,166404,0.0-7.0-8.0,"""event"",""trial"",""time""
""fullscreenenter"",""1"",""19825""
""fullscreenexit"",""3"",""41867""
","
","
","""event"",""trial"",""time""
""fullscreenenter"",""1"",""19825""
","""event"",""trial"",""time""
""fullscreenexit"",""3"",""41867""
",,703.2,"<p>When you arrive at a new planet, the alien who owns the treasure mine on that planet will greet you!</p><p>The better an alien takes care of their mine the easier it is to dig for gems. Some aliens take better care of their mine than others. So, you won’t get exactly the same amount of gems on each planet.</p><p>What the alien looks like does not tell you anything about how many gems there are on the planet.</p><br><p><img src=""run_exp/static/images/task_images/aliens/instructions_aliens/planet/alien_planet-1.jpg""  height=""600"" width=""auto""></p><button class=""jspsych-html-btn-unchosen""><img src=""run_exp/static/images/task_images/planet-01.jpg"" height=""50""></button><button class=""jspsych-html-btn-chosen""><img src=""run_exp/static/images/task_images/planet-02.jpg"" height=""50""></button><p><b>[press the space bar to lock in your answer]<b><br></p>",32,,,,,,,,,,,,,,,,,,,,,,,,
time_out,18,177498,0.0-8.0-0.0,"""event"",""trial"",""time""
""fullscreenenter"",""1"",""19825""
""fullscreenexit"",""3"",""41867""
","
","
","""event"",""trial"",""time""
""fullscreenenter"",""1"",""19825""
","""event"",""trial"",""time""
""fullscreenexit"",""3"",""41867""
",,null,run_exp/static/audio/clip_7_timeout.m4a,null,"<p>If you don't make your choice fast enough, you’ll have to wait a few seconds before you can make another one.</p><p>You can’t dig for more gems or travel to new planets. You just have to sit and wait.</p><br><p><img src='run_exp/static/images/task_images/time_out.jpg'  height='600' width='auto'></p>",,,,,,,,,,,,,,,,,,,,,,,
time_out,19,181610,0.0-8.0-1.0,"""event"",""trial"",""time""
""fullscreenenter"",""1"",""19825""
""fullscreenexit"",""3"",""41867""
","
","
","""event"",""trial"",""time""
""fullscreenenter"",""1"",""19825""
","""event"",""trial"",""time""
""fullscreenexit"",""3"",""41867""
",,4108.3,"<p>If you don't make your choice fast enough, you’ll have to wait a few seconds before you can make another one.</p><p>You can’t dig for more gems or travel to new planets. You just have to sit and wait.</p><br><p><img src='run_exp/static/images/task_images/time_out.jpg'  height='600' width='auto'></p>",,,,,,,1,,,,,,,,,,,,,,,,,,
html-keyboard-response,20,182116,0.0-8.0-2.0,"""event"",""trial"",""time""
""fullscreenenter"",""1"",""19825""
""fullscreenexit"",""3"",""41867""
","
","
","""event"",""trial"",""time""
""fullscreenenter"",""1"",""19825""
","""event"",""trial"",""time""
""fullscreenexit"",""3"",""41867""
",,503,"<p>If you don't make your choice fast enough, you’ll have to wait a few seconds before you can make another one.</p><p>You can’t dig for more gems or travel to new planets. You just have to sit and wait.</p><br><p><img src='run_exp/static/images/task_images/time_out.jpg'  height='600' width='auto'></p><button class=""jspsych-html-btn-unchosen""><img src=""run_exp/static/images/task_images/planet-01.jpg"" height=""50""></button><button class=""jspsych-html-btn-chosen""><img src=""run_exp/static/images/task_images/planet-02.jpg"" height=""50""></button><p><b>[press the space bar to lock in your answer]<b><br></p>",32,,,,,,,,,,,,,,,,,,,,,,,,
instruc_break,21,197788,0.0-9.0-0.0,"""event"",""trial"",""time""
""fullscreenenter"",""1"",""19825""
""fullscreenexit"",""3"",""41867""
","
","
","""event"",""trial"",""time""
""fullscreenenter"",""1"",""19825""
","""event"",""trial"",""time""
""fullscreenexit"",""3"",""41867""
",,null,run_exp/static/audio/clip_8_break.m4a,null,"<p> After digging and traveling for a while, you’ll be able to take a break at home base. </p><p>The game will last 20 minutes no matter what.</p><p>You will visit home base every 5 minutes, so, you will visit home base three times during the game.</p><br><p><img src='run_exp/static/images/task_images/home_base.jpg' height='600' width='auto'></p>",,,,,,,,,,,,,,,,,,,,,,,
instruc_break,22,201434,0.0-9.0-1.0,"""event"",""trial"",""time""
""fullscreenenter"",""1"",""19825""
""fullscreenexit"",""3"",""41867""
","
","
","""event"",""trial"",""time""
""fullscreenenter"",""1"",""19825""
","""event"",""trial"",""time""
""fullscreenexit"",""3"",""41867""
",,3641.6,"<p> After digging and traveling for a while, you’ll be able to take a break at home base. </p><p>The game will last 20 minutes no matter what.</p><p>You will visit home base every 5 minutes, so, you will visit home base three times during the game.</p><br><p><img src='run_exp/static/images/task_images/home_base.jpg' height='600' width='auto'></p>",,,,,,,1,,,,,,,,,,,,,,,,,,
html-keyboard-response,23,202416,0.0-9.0-2.0,"""event"",""trial"",""time""
""fullscreenenter"",""1"",""19825""
""fullscreenexit"",""3"",""41867""
","
","
","""event"",""trial"",""time""
""fullscreenenter"",""1"",""19825""
","""event"",""trial"",""time""
""fullscreenexit"",""3"",""41867""
",,979.1999998,"<p> After digging and traveling for a while, you’ll be able to take a break at home base. </p><p>The game will last 20 minutes no matter what.</p><p>You will visit home base every 5 minutes, so, you will visit home base three times during the game.</p><br><p><img src='run_exp/static/images/task_images/home_base.jpg' height='600' width='auto'></p><button class=""jspsych-html-btn-unchosen""><img src=""run_exp/static/images/task_images/planet-01.jpg"" height=""50""></button><button class=""jspsych-html-btn-chosen""><img src=""run_exp/static/images/task_images/planet-02.jpg"" height=""50""></button><p><b>[press the space bar to lock in your answer]<b><br></p>",32,,,,,,,,,,,,,,,,,,,,,,,,
instruc_prac_game,24,212558,0.0-10.0-0.0,"""event"",""trial"",""time""
""fullscreenenter"",""1"",""19825""
""fullscreenexit"",""3"",""41867""
","
","
","""event"",""trial"",""time""
""fullscreenenter"",""1"",""19825""
","""event"",""trial"",""time""
""fullscreenexit"",""3"",""41867""
",,null,run_exp/static/audio/clip_9_practice.m4a,null,"<p> Are you ready to play a practice game? </p> <p>In this practice game, you'll be digging up barrels of gems. But, in the real game, you'll be digging up the gems themselves. </p>",,,,,,,,,,,,,,,,,,,,,,,
html-button-response,25,216194,0.0-10.0-1.0,"""event"",""trial"",""time""
""fullscreenenter"",""1"",""19825""
""fullscreenexit"",""3"",""41867""
","
","
","""event"",""trial"",""time""
""fullscreenenter"",""1"",""19825""
","""event"",""trial"",""time""
""fullscreenexit"",""3"",""41867""
",,3634.3,"<p> Are you ready to play a practice game? </p> <p>In this practice game, you'll be digging up barrels of gems. But, in the real game, you'll be digging up the gems themselves. </p>",,,,,,,0,,,,,,,,,,,,,,,,,,
alien_welcome_prac,26,221199,0.0-11.0-0.0,"""event"",""trial"",""time""
""fullscreenenter"",""1"",""19825""
""fullscreenexit"",""3"",""41867""
","
","
","""event"",""trial"",""time""
""fullscreenenter"",""1"",""19825""
","""event"",""trial"",""time""
""fullscreenexit"",""3"",""41867""
",,null,run_exp/static/images/task_images/aliens/practice_aliens/planet/alien_planet-5.jpg,null,,,,,,,,,,,,,,,,,,,,,,,,
land_prac,27,221714,0.0-11.0-1.0,"""event"",""trial"",""time""
""fullscreenenter"",""1"",""19825""
""fullscreenexit"",""3"",""41867""
","
","
","""event"",""trial"",""time""
""fullscreenenter"",""1"",""19825""
","""event"",""trial"",""time""
""fullscreenexit"",""3"",""41867""
",,null,run_exp/static/images/task_images/land.jpg,null,,,,,,,107,,,0,,,,,,,,,,,,,,
dig_prac,28,223729,0.0-11.0-2.0,"""event"",""trial"",""time""
""fullscreenenter"",""1"",""19825""
""fullscreenexit"",""3"",""41867""
","
","
","""event"",""trial"",""time""
""fullscreenenter"",""1"",""19825""
","""event"",""trial"",""time""
""fullscreenexit"",""3"",""41867""
",,,,,,,,,,,,"[{""stimulus"":""run_exp/static/images/task_images/dig.jpg"",""time"":0.5},{""stimulus"":""run_exp/static/images/task_images/land.jpg"",""time"":678.4000000953674},{""stimulus"":""run_exp/static/images/task_images/dig.jpg"",""time"":1344.7000000476837}]",[],,,,,,,,,,,,,,,
harvest_prac,29,224731,0.0-11.0-3.0,"""event"",""trial"",""time""
""fullscreenenter"",""1"",""19825""
""fullscreenexit"",""3"",""41867""
","
","
","""event"",""trial"",""time""
""fullscreenenter"",""1"",""19825""
","""event"",""trial"",""time""
""fullscreenexit"",""3"",""41867""
",,null,run_exp/static/images/task_images/barrel_text.jpg,null,,,,,,,,,,,,,,,,,,,,,,,,
decision_prac,30,225453,0.0-11.0-4.0,"""event"",""trial"",""time""
""fullscreenenter"",""1"",""19825""
""fullscreenexit"",""3"",""41867""
","
","
","""event"",""trial"",""time""
""fullscreenenter"",""1"",""19825""
","""event"",""trial"",""time""
""fullscreenexit"",""3"",""41867""
",,720.5999999,run_exp/static/images/task_images/land.jpg,65,,,,,,,,,,,1,,,,,,,,,,,,,
dig_prac,31,227463,0.0-12.0-0.0,"""event"",""trial"",""time""
""fullscreenenter"",""1"",""19825""
""fullscreenexit"",""3"",""41867""
","
","
","""event"",""trial"",""time""
""fullscreenenter"",""1"",""19825""
","""event"",""trial"",""time""
""fullscreenexit"",""3"",""41867""
",,,,,,,,,,,,"[{""stimulus"":""run_exp/static/images/task_images/dig.jpg"",""time"":0.2999999523162842},{""stimulus"":""run_exp/static/images/task_images/land.jpg"",""time"":672},{""stimulus"":""run_exp/static/images/task_images/dig.jpg"",""time"":1338.5999999046326}]",[],,,,,,,,,,,,,,,
harvest_prac,32,228464,0.0-12.0-1.0,"""event"",""trial"",""time""
""fullscreenenter"",""1"",""19825""
""fullscreenexit"",""3"",""41867""
","
","
","""event"",""trial"",""time""
""fullscreenenter"",""1"",""19825""
","""event"",""trial"",""time""
""fullscreenexit"",""3"",""41867""
",,null,run_exp/static/images/task_images/barrel_text.jpg,null,,,,,,,,,,,,,,,,,,,,,,,,
decision_prac,33,230082,0.0-12.0-2.0,"""event"",""trial"",""time""
""fullscreenenter"",""1"",""19825""
""fullscreenexit"",""3"",""41867""
","
","
","""event"",""trial"",""time""
""fullscreenenter"",""1"",""19825""
","""event"",""trial"",""time""
""fullscreenexit"",""3"",""41867""
",,1615.4,run_exp/static/images/task_images/land.jpg,65,,,,,,,,,,,2,,,,,,,,,,,,,
dig_prac,34,232096,0.0-13.0-0.0,"""event"",""trial"",""time""
""fullscreenenter"",""1"",""19825""
""fullscreenexit"",""3"",""41867""
","
","
","""event"",""trial"",""time""
""fullscreenenter"",""1"",""19825""
","""event"",""trial"",""time""
""fullscreenexit"",""3"",""41867""
",,,,,,,,,,,,"[{""stimulus"":""run_exp/static/images/task_images/dig.jpg"",""time"":0.40000009536743164},{""stimulus"":""run_exp/static/images/task_images/land.jpg"",""time"":677.6000001430511},{""stimulus"":""run_exp/static/images/task_images/dig.jpg"",""time"":1344.7000000476837}]",[],,,,,,,,,,,,,,,
harvest_prac,35,233115,0.0-13.0-1.0,"""event"",""trial"",""time""
""fullscreenenter"",""1"",""19825""
""fullscreenexit"",""3"",""41867""
","
","
","""event"",""trial"",""time""
""fullscreenenter"",""1"",""19825""
","""event"",""trial"",""time""
""fullscreenexit"",""3"",""41867""
",,null,run_exp/static/images/task_images/barrel_text.jpg,null,,,,,,,,,,,,,,,,,,,,,,,,
decision_prac,36,233330,0.0-13.0-2.0,"""event"",""trial"",""time""
""fullscreenenter"",""1"",""19825""
""fullscreenexit"",""3"",""41867""
","
","
","""event"",""trial"",""time""
""fullscreenenter"",""1"",""19825""
","""event"",""trial"",""time""
""fullscreenexit"",""3"",""41867""
",,213.3000002,run_exp/static/images/task_images/land.jpg,65,,,,,,,,,,,3,,,,,,,,,,,,,
dig_prac,37,235351,0.0-14.0-0.0,"""event"",""trial"",""time""
""fullscreenenter"",""1"",""19825""
""fullscreenexit"",""3"",""41867""
","
","
","""event"",""trial"",""time""
""fullscreenenter"",""1"",""19825""
","""event"",""trial"",""time""
""fullscreenexit"",""3"",""41867""
",,,,,,,,,,,,"[{""stimulus"":""run_exp/static/images/task_images/dig.jpg"",""time"":0.2999999523162842},{""stimulus"":""run_exp/static/images/task_images/land.jpg"",""time"":668.2999999523163},{""stimulus"":""run_exp/static/images/task_images/dig.jpg"",""time"":1345.5999999046326}]",[],,,,,,,,,,,,,,,
harvest_prac,38,236356,0.0-14.0-1.0,"""event"",""trial"",""time""
""fullscreenenter"",""1"",""19825""
""fullscreenexit"",""3"",""41867""
","
","
","""event"",""trial"",""time""
""fullscreenenter"",""1"",""19825""
","""event"",""trial"",""time""
""fullscreenexit"",""3"",""41867""
",,null,run_exp/static/images/task_images/barrel_text.jpg,null,,,,,,,,,,,,,,,,,,,,,,,,
decision_prac,39,239370,0.0-14.0-2.0,"""event"",""trial"",""time""
""fullscreenenter"",""1"",""19825""
""fullscreenexit"",""3"",""41867""
","
","
","""event"",""trial"",""time""
""fullscreenenter"",""1"",""19825""
","""event"",""trial"",""time""
""fullscreenexit"",""3"",""41867""
",,null,run_exp/static/images/task_images/land.jpg,null,,,,,,,,,,,4,,,,,,,,,,,,,
time_out,40,241384,0.0-15.0-0.0,"""event"",""trial"",""time""
""fullscreenenter"",""1"",""19825""
""fullscreenexit"",""3"",""41867""
","
","
","""event"",""trial"",""time""
""fullscreenenter"",""1"",""19825""
","""event"",""trial"",""time""
""fullscreenexit"",""3"",""41867""
",,null,run_exp/static/images/task_images/time_out.jpg,null,,,,,,,,,,,,,,,,,,,,,,,,
decision_prac,41,241984,0.0-15.0-1.0,"""event"",""trial"",""time""
""fullscreenenter"",""1"",""19825""
""fullscreenexit"",""3"",""41867""
","
","
","""event"",""trial"",""time""
""fullscreenenter"",""1"",""19825""
","""event"",""trial"",""time""
""fullscreenexit"",""3"",""41867""
",,598.4000001,run_exp/static/images/task_images/land.jpg,65,,,,,,,,,,,,1,,,,,,,,,,,,
quiz_instruc,42,252811,0.0-16.0-0.0,"""event"",""trial"",""time""
""fullscreenenter"",""1"",""19825""
""fullscreenexit"",""3"",""41867""
","
","
","""event"",""trial"",""time""
""fullscreenenter"",""1"",""19825""
","""event"",""trial"",""time""
""fullscreenexit"",""3"",""41867""
",,10822,run_exp/static/audio/clip_10_quiz.m4a,,,,,,,0,,,,,,,,,,,,,,,,,,
instruc_repeat,43,295598,0.0-16.0-1.0,"""event"",""trial"",""time""
""fullscreenenter"",""1"",""19825""
""fullscreenexit"",""3"",""41867""
","
","
","""event"",""trial"",""time""
""fullscreenenter"",""1"",""19825""
","""event"",""trial"",""time""
""fullscreenexit"",""3"",""41867""
",,null,"<p> Are you ready to play a practice game? </p> <p>In this practice game, you'll be digging up barrels of gems. But, in the real game, you'll be digging up the gems themselves. </p>",null,"<p>In this game, your goal is to collect as many gems as you can. That’s how you will win bonus money. </p> <p>The entire game will last 20 minutes no matter how many gems you collect or how many planets you visit. </p><p>To stay on a planet and dig again, press the letter A on your keyboard. To leave for a new planet, press the letter L.</p><p>The more you dig on a planet, the fewer gems you’ll get with each dig which is why you might consider leaving for a new planet. </p><p>When you arrive at a new planet, you’ll be greeted by an alien. What the alien looks like does not tell you anything about how much treasure is on the planet. </p>",,,,,,,,,,,,,,,,,,,,,,,
instruc_repeat_continue,44,304050,0.0-16.0-2.0,"""event"",""trial"",""time""
""fullscreenenter"",""1"",""19825""
""fullscreenexit"",""3"",""41867""
","
","
","""event"",""trial"",""time""
""fullscreenenter"",""1"",""19825""
","""event"",""trial"",""time""
""fullscreenexit"",""3"",""41867""
",,8449.5,"<p> Are you ready to play a practice game? </p> <p>In this practice game, you'll be digging up barrels of gems. But, in the real game, you'll be digging up the gems themselves. </p>",,,,,,,0,,,,,,,,,,,,,,,,,,
quiz_q_1_ask,45,307842,0.0-16.0-3.0,"""event"",""trial"",""time""
""fullscreenenter"",""1"",""19825""
""fullscreenexit"",""3"",""41867""
","
","
","""event"",""trial"",""time""
""fullscreenenter"",""1"",""19825""
","""event"",""trial"",""time""
""fullscreenexit"",""3"",""41867""
",,3789.6,run_exp/static/audio/clip_11_q1_ask.m4a,,,,,,,2,,,,,,,,,,,,,,,,,,
quiz_q_1_fb_correct,46,311698,0.0-17.0-0.0,"""event"",""trial"",""time""
""fullscreenenter"",""1"",""19825""
""fullscreenexit"",""3"",""41867""
","
","
","""event"",""trial"",""time""
""fullscreenenter"",""1"",""19825""
","""event"",""trial"",""time""
""fullscreenexit"",""3"",""41867""
",,null,run_exp/static/audio/clip_12_q1_correct.m4a,null,<p>That’s correct. You win extra money by collecting more gems.</p>,,,,,,,,,,,,,,,,,,,,,,,
quiz_q_2_ask,47,314138,0.0-17.0-1.0,"""event"",""trial"",""time""
""fullscreenenter"",""1"",""19825""
""fullscreenexit"",""3"",""41867""
","
","
","""event"",""trial"",""time""
""fullscreenenter"",""1"",""19825""
","""event"",""trial"",""time""
""fullscreenexit"",""3"",""41867""
",,2437.8,run_exp/static/audio/clip_14_q2_ask.m4a,,,,,,,1,,,,,,,,,,,,,,,,,,
quiz_q_2_fb_correct,48,318138,0.0-18.0-0.0,"""event"",""trial"",""time""
""fullscreenenter"",""1"",""19825""
""fullscreenexit"",""3"",""41867""
","
","
","""event"",""trial"",""time""
""fullscreenenter"",""1"",""19825""
","""event"",""trial"",""time""
""fullscreenexit"",""3"",""41867""
",,null,run_exp/static/audio/clip_15_q2_correct.m4a,null,<p>That’s correct. The experiment is 20 minutes no matter what.</p>,,,,,,,,,,,,,,,,,,,,,,,
quiz_q_3_ask,49,322522,0.0-18.0-1.0,"""event"",""trial"",""time""
""fullscreenenter"",""1"",""19825""
""fullscreenexit"",""3"",""41867""
","
","
","""event"",""trial"",""time""
""fullscreenenter"",""1"",""19825""
","""event"",""trial"",""time""
""fullscreenexit"",""3"",""41867""
",,4382.2,run_exp/static/audio/clip_17_q3_ask.m4a,,,,,,,1,,,,,,,,,,,,,,,,,,
quiz_q_3_fb_correct,50,326518,0.0-19.0-0.0,"""event"",""trial"",""time""
""fullscreenenter"",""1"",""19825""
""fullscreenexit"",""3"",""41867""
","
","
","""event"",""trial"",""time""
""fullscreenenter"",""1"",""19825""
","""event"",""trial"",""time""
""fullscreenexit"",""3"",""41867""
",,null,run_exp/static/audio/clip_18_q3_correct.m4a,null,<p> That’s correct. You press the letter L to travel to a new planet.</p>,,,,,,,,,,,,,,,,,,,,,,,
quiz_q_4_ask,51,332146,0.0-19.0-1.0,"""event"",""trial"",""time""
""fullscreenenter"",""1"",""19825""
""fullscreenexit"",""3"",""41867""
","
","
","""event"",""trial"",""time""
""fullscreenenter"",""1"",""19825""
","""event"",""trial"",""time""
""fullscreenexit"",""3"",""41867""
",,5625.8,run_exp/static/audio/clip_20_q4_ask.m4a,,,,,,,0,,,,,,,,,,,,,,,,,,
quiz_q_4_fb_correct,52,337478,0.0-20.0-0.0,"""event"",""trial"",""time""
""fullscreenenter"",""1"",""19825""
""fullscreenexit"",""3"",""41867""
","
","
","""event"",""trial"",""time""
""fullscreenenter"",""1"",""19825""
","""event"",""trial"",""time""
""fullscreenexit"",""3"",""41867""
",,null,run_exp/static/audio/clip_21_q4_correct.m4a,null,<p> That’s correct. The more you dig on a planet the fewer gems you’ll get with each dig. </p>,,,,,,,,,,,,,,,,,,,,,,,
quiz_q_5_ask,53,344986,0.0-20.0-1.0,"""event"",""trial"",""time""
""fullscreenenter"",""1"",""19825""
""fullscreenexit"",""3"",""41867""
","
","
","""event"",""trial"",""time""
""fullscreenenter"",""1"",""19825""
","""event"",""trial"",""time""
""fullscreenexit"",""3"",""41867""
",,7506.5,run_exp/static/audio/clip_23_q5_ask.m4a,,,,,,,1,,,,,,,,,,,,,,,,,,
quiz_q_5_fb_correct,54,350018,0.0-21.0-0.0,"""event"",""trial"",""time""
""fullscreenenter"",""1"",""19825""
""fullscreenexit"",""3"",""41867""
","
","
","""event"",""trial"",""time""
""fullscreenenter"",""1"",""19825""
","""event"",""trial"",""time""
""fullscreenexit"",""3"",""41867""
",,null,run_exp/static/audio/clip_24_q5_correct.m4a,null,<p> That’s correct. The alien tells you nothing about how much treasure is on the planet.</p>,,,,,,,,,,,,,,,,,,,,,,,
quiz_correct,55,353498,0.0-22.0-0.0,"""event"",""trial"",""time""
""fullscreenenter"",""1"",""19825""
""fullscreenexit"",""3"",""41867""
","
","
","""event"",""trial"",""time""
""fullscreenenter"",""1"",""19825""
","""event"",""trial"",""time""
""fullscreenexit"",""3"",""41867""
",,null,run_exp/static/audio/clip_26_correct_quiz.m4a,null,,,,,,,,,,,,,,,,,,,,,,,,
quiz_correct_continue,56,354305,0.0-22.0-1.0,"""event"",""trial"",""time""
""fullscreenenter"",""1"",""19825""
""fullscreenexit"",""3"",""41867""
","
","
","""event"",""trial"",""time""
""fullscreenenter"",""1"",""19825""
","""event"",""trial"",""time""
""fullscreenexit"",""3"",""41867""
",,806.1999998,<p>Good job! You're now ready to move on to the real game!</p>,,,,,,,0,,,,,,,,,,,,,,,,,,
audio-keyboard-response,57,364438,0.0-22.0-2.0,"""event"",""trial"",""time""
""fullscreenenter"",""1"",""19825""
""fullscreenexit"",""3"",""41867""
","
","
","""event"",""trial"",""time""
""fullscreenenter"",""1"",""19825""
","""event"",""trial"",""time""
""fullscreenexit"",""3"",""41867""
",,null,run_exp/static/audio/clip_28_real_game.m4a,null,,,,,,,,,,,,,,,,,,,,,,,,
instruc_begin_exp_contine,58,365634,0.0-22.0-3.0,"""event"",""trial"",""time""
""fullscreenenter"",""1"",""19825""
""fullscreenexit"",""3"",""41867""
","
","
","""event"",""trial"",""time""
""fullscreenenter"",""1"",""19825""
","""event"",""trial"",""time""
""fullscreenexit"",""3"",""41867""
",,1193.9,"<p>Now that you know how  to dig for space treasure and travel to new planets,you can start exploring! </p><p>Do you want to go over the instructions again or get started with the real game?</p>",,,,,,,1,,,,,,1,,,,,,,,,,,,
alien_welcome,59,370649,0.0-23.0-0.0,"""event"",""trial"",""time""
""fullscreenenter"",""1"",""19825""
""fullscreenexit"",""3"",""41867""
","
","
","""event"",""trial"",""time""
""fullscreenenter"",""1"",""19825""
","""event"",""trial"",""time""
""fullscreenexit"",""3"",""41867""
",,null,run_exp/static/images/task_images/aliens/old_aliens/planet/alien_planet-5.jpg,null,,,,,,,,,,,,,5,"5,13,49,33,64,51,1,24,18,12,50,21,35,60,22,62,67,17,16,2,61,37,48,47,65,26,78,45,53,41,30,9,72,59,3,19",,,,,,,,,,
land,60,371153,0.0-23.0-1.0,"""event"",""trial"",""time""
""fullscreenenter"",""1"",""19825""
""fullscreenexit"",""3"",""41867""
","
","
","""event"",""trial"",""time""
""fullscreenenter"",""1"",""19825""
","""event"",""trial"",""time""
""fullscreenexit"",""3"",""41867""
",,null,run_exp/static/images/task_images/land.jpg,null,,,,,,,98,,,1,,,,,,,,,,,,,,
dig,61,373168,0.0-23.0-2.0,"""event"",""trial"",""time""
""fullscreenenter"",""1"",""19825""
""fullscreenexit"",""3"",""41867""
","
","
","""event"",""trial"",""time""
""fullscreenenter"",""1"",""19825""
","""event"",""trial"",""time""
""fullscreenexit"",""3"",""41867""
",,,,,,,,,,,,"[{""stimulus"":""run_exp/static/images/task_images/dig.jpg"",""time"":0.2999999523162842},{""stimulus"":""run_exp/static/images/task_images/land.jpg"",""time"":679.2999999523163},{""stimulus"":""run_exp/static/images/task_images/dig.jpg"",""time"":1346.6000001430511}]",[],1,,,,,,,,,,,,,,
harvest,62,374186,0.0-23.0-3.0,"""event"",""trial"",""time""
""fullscreenenter"",""1"",""19825""
""fullscreenexit"",""3"",""41867""
","
","
","""event"",""trial"",""time""
""fullscreenenter"",""1"",""19825""
","""event"",""trial"",""time""
""fullscreenexit"",""3"",""41867""
",,null,run_exp/static/images/task_images/gems/98.jpg,null,,,,,,,15,,,1,,,,,98,0.149898161,0.153061224,,,,,,,
decision,63,374550,0.0-23.0-4.0,"""event"",""trial"",""time""
""fullscreenenter"",""1"",""19825""
""fullscreenexit"",""3"",""41867""
","
","
","""event"",""trial"",""time""
""fullscreenenter"",""1"",""19825""
","""event"",""trial"",""time""
""fullscreenexit"",""3"",""41867""
",,360.9000001,run_exp/static/images/task_images/land.jpg,65,,,,,,,15,,,1,,,,,,,,8913,1,0,FALSE,,,
dig,64,377200,0.0-24.0-0.0,"""event"",""trial"",""time""
""fullscreenenter"",""1"",""19825""
""fullscreenexit"",""3"",""41867""
","
","
","""event"",""trial"",""time""
""fullscreenenter"",""1"",""19825""
","""event"",""trial"",""time""
""fullscreenexit"",""3"",""41867""
",,,,,,,,,,,,"[{""stimulus"":""run_exp/static/images/task_images/dig.jpg"",""time"":0.40000009536743164},{""stimulus"":""run_exp/static/images/task_images/land.jpg"",""time"":880.4000000953674},{""stimulus"":""run_exp/static/images/task_images/dig.jpg"",""time"":1764.0999999046326}]",[],1,,,,,,,,,,,,,,
harvest,65,378206,0.0-24.0-1.0,"""event"",""trial"",""time""
""fullscreenenter"",""1"",""19825""
""fullscreenexit"",""3"",""41867""
","
","
","""event"",""trial"",""time""
""fullscreenenter"",""1"",""19825""
","""event"",""trial"",""time""
""fullscreenexit"",""3"",""41867""
",,null,run_exp/static/images/task_images/gems/15.jpg,null,,,,,,,3,,,1,,,,,15,0.172902341,0.2,,,,,,,
decision,66,378560,0.0-24.0-2.0,"""event"",""trial"",""time""
""fullscreenenter"",""1"",""19825""
""fullscreenexit"",""3"",""41867""
","
","
","""event"",""trial"",""time""
""fullscreenenter"",""1"",""19825""
","""event"",""trial"",""time""
""fullscreenexit"",""3"",""41867""
",,353.1000001,run_exp/static/images/task_images/land.jpg,65,,,,,,,3,,,1,,,,,,,,12923,1,1,FALSE,,,
dig,67,381216,0.0-25.0-0.0,"""event"",""trial"",""time""
""fullscreenenter"",""1"",""19825""
""fullscreenexit"",""3"",""41867""
","
","
","""event"",""trial"",""time""
""fullscreenenter"",""1"",""19825""
","""event"",""trial"",""time""
""fullscreenexit"",""3"",""41867""
",,,,,,,,,,,,"[{""stimulus"":""run_exp/static/images/task_images/dig.jpg"",""time"":0.2999999523162842},{""stimulus"":""run_exp/static/images/task_images/land.jpg"",""time"":886.3999998569489},{""stimulus"":""run_exp/static/images/task_images/dig.jpg"",""time"":1772.2000000476837}]",[],1,,,,,,,,,,,,,,
harvest,68,382219,0.0-25.0-1.0,"""event"",""trial"",""time""
""fullscreenenter"",""1"",""19825""
""fullscreenexit"",""3"",""41867""
","
","
","""event"",""trial"",""time""
""fullscreenenter"",""1"",""19825""
","""event"",""trial"",""time""
""fullscreenexit"",""3"",""41867""
",,null,run_exp/static/images/task_images/gems/3.jpg,null,,,,,,,1,,,1,,,,,3,0.223209118,0.333333333,,,,,,,
decision,69,382597,0.0-25.0-2.0,"""event"",""trial"",""time""
""fullscreenenter"",""1"",""19825""
""fullscreenexit"",""3"",""41867""
","
","
","""event"",""trial"",""time""
""fullscreenenter"",""1"",""19825""
","""event"",""trial"",""time""
""fullscreenexit"",""3"",""41867""
",,375.8999999,run_exp/static/images/task_images/land.jpg,65,,,,,,,1,,,1,,,,,,,,16960,1,2,FALSE,,,
dig,70,385239,0.0-26.0-0.0,"""event"",""trial"",""time""
""fullscreenenter"",""1"",""19825""
""fullscreenexit"",""3"",""41867""
","
","
","""event"",""trial"",""time""
""fullscreenenter"",""1"",""19825""
","""event"",""trial"",""time""
""fullscreenexit"",""3"",""41867""
",,,,,,,,,,,,"[{""stimulus"":""run_exp/static/images/task_images/dig.jpg"",""time"":0.39999985694885254},{""stimulus"":""run_exp/static/images/task_images/land.jpg"",""time"":885},{""stimulus"":""run_exp/static/images/task_images/dig.jpg"",""time"":1752.8999998569489}]",[],1,,,,,,,,,,,,,,
harvest,71,386251,0.0-26.0-1.0,"""event"",""trial"",""time""
""fullscreenenter"",""1"",""19825""
""fullscreenexit"",""3"",""41867""
","
","
","""event"",""trial"",""time""
""fullscreenenter"",""1"",""19825""
","""event"",""trial"",""time""
""fullscreenexit"",""3"",""41867""
",,null,run_exp/static/images/task_images/gems/1.jpg,null,,,,,,,0,,,1,,,,,1,0.177467481,0,,,,,,,
decision,72,386346,0.0-26.0-2.0,"""event"",""trial"",""time""
""fullscreenenter"",""1"",""19825""
""fullscreenexit"",""3"",""41867""
","
","
","""event"",""trial"",""time""
""fullscreenenter"",""1"",""19825""
","""event"",""trial"",""time""
""fullscreenexit"",""3"",""41867""
",,93.70000005,run_exp/static/images/task_images/land.jpg,76,,,,,,,0,,,1,,,,,,,,20709,1,3,TRUE,,,
travel,73,396261,0.0-27.0-0.0,"""event"",""trial"",""time""
""fullscreenenter"",""1"",""19825""
""fullscreenexit"",""3"",""41867""
","
","
","""event"",""trial"",""time""
""fullscreenenter"",""1"",""19825""
","""event"",""trial"",""time""
""fullscreenexit"",""3"",""41867""
",,,,,,,,,,,,"[{""stimulus"":""run_exp/static/images/task_images/rocket-01.jpg"",""time"":0.20000004768371582},{""stimulus"":""run_exp/static/images/task_images/rocket-02.jpg"",""time"":1108.5999999046326},{""stimulus"":""run_exp/static/images/task_images/rocket-03.jpg"",""time"":2201.399999856949},{""stimulus"":""run_exp/static/images/task_images/rocket-04.jpg"",""time"":3307.0999999046326},{""stimulus"":""run_exp/static/images/task_images/rocket-05.jpg"",""time"":4414.299999952316},{""stimulus"":""run_exp/static/images/task_images/rocket-06.jpg"",""time"":5511.799999952316},{""stimulus"":""run_exp/static/images/task_images/rocket-07.jpg"",""time"":6614.599999904633},{""stimulus"":""run_exp/static/images/task_images/rocket-08.jpg"",""time"":7707.899999856949},{""stimulus"":""run_exp/static/images/task_images/rocket-09.jpg"",""time"":8810.299999952316}]",[],1,,,,,,,,,,,,,,
alien_welcome,74,401272,0.0-27.0-1.0,"""event"",""trial"",""time""
""fullscreenenter"",""1"",""19825""
""fullscreenexit"",""3"",""41867""
","
","
","""event"",""trial"",""time""
""fullscreenenter"",""1"",""19825""
","""event"",""trial"",""time""
""fullscreenexit"",""3"",""41867""
",,null,run_exp/static/images/task_images/aliens/old_aliens/planet/alien_planet-13.jpg,null,,,,,,,,,,,,,13,"5,13,49,33,64,51,1,24,18,12,50,21,35,60,22,62,67,17,16,2,61,37,48,47,65,26,78,45,53,41,30,9,72,59,3,19",,,,,,,,,,
land,75,401777,0.0-27.0-2.0,"""event"",""trial"",""time""
""fullscreenenter"",""1"",""19825""
""fullscreenexit"",""3"",""41867""
","
","
","""event"",""trial"",""time""
""fullscreenenter"",""1"",""19825""
","""event"",""trial"",""time""
""fullscreenexit"",""3"",""41867""
",,null,run_exp/static/images/task_images/land.jpg,null,,,,,,,96,,,2,,,,,,,,,,,,,,
dig,76,403796,0.0-27.0-3.0,"""event"",""trial"",""time""
""fullscreenenter"",""1"",""19825""
""fullscreenexit"",""3"",""41867""
","
","
","""event"",""trial"",""time""
""fullscreenenter"",""1"",""19825""
","""event"",""trial"",""time""
""fullscreenexit"",""3"",""41867""
",,,,,,,,,,,,"[{""stimulus"":""run_exp/static/images/task_images/dig.jpg"",""time"":0.39999985694885254},{""stimulus"":""run_exp/static/images/task_images/land.jpg"",""time"":683.7999999523163},{""stimulus"":""run_exp/static/images/task_images/dig.jpg"",""time"":1336.1999998092651}]",[],2,,,,,,,,,,,,,,
harvest,77,404812,0.0-27.0-4.0,"""event"",""trial"",""time""
""fullscreenenter"",""1"",""19825""
""fullscreenexit"",""3"",""41867""
","
","
","""event"",""trial"",""time""
""fullscreenenter"",""1"",""19825""
","""event"",""trial"",""time""
""fullscreenexit"",""3"",""41867""
",,null,run_exp/static/images/task_images/gems/96.jpg,null,,,,,,,21,,,2,,,,,96,0.217167152,0.21875,,,,,,,
decision,78,407106,0.0-27.0-5.0,"""event"",""trial"",""time""
""fullscreenenter"",""1"",""19825""
""fullscreenexit"",""3"",""41867""
","
","
","""event"",""trial"",""time""
""fullscreenenter"",""1"",""19825""
","""event"",""trial"",""time""
""fullscreenexit"",""3"",""41867""
",,2292.1,run_exp/static/images/task_images/land.jpg,65,,,,,,,21,,,2,,,,,,,,41469,1,0,FALSE,,,
dig,79,407816,0.0-28.0-0.0,"""event"",""trial"",""time""
""fullscreenenter"",""1"",""19825""
""fullscreenexit"",""3"",""41867""
","
","
","""event"",""trial"",""time""
""fullscreenenter"",""1"",""19825""
","""event"",""trial"",""time""
""fullscreenexit"",""3"",""41867""
",,,,,,,,,,,,"[{""stimulus"":""run_exp/static/images/task_images/dig.jpg"",""time"":0.19999980926513672},{""stimulus"":""run_exp/static/images/task_images/land.jpg"",""time"":236.39999985694885},{""stimulus"":""run_exp/static/images/task_images/dig.jpg"",""time"":471.39999985694885}]",[],2,,,,,,,,,,,,,,
harvest,80,408826,0.0-28.0-1.0,"""event"",""trial"",""time""
""fullscreenenter"",""1"",""19825""
""fullscreenexit"",""3"",""41867""
","
","
","""event"",""trial"",""time""
""fullscreenenter"",""1"",""19825""
","""event"",""trial"",""time""
""fullscreenexit"",""3"",""41867""
",,null,run_exp/static/images/task_images/gems/21.jpg,null,,,,,,,5,,,2,,,,,21,0.229439035,0.238095238,,,,,,,
decision,81,409184,0.0-28.0-2.0,"""event"",""trial"",""time""
""fullscreenenter"",""1"",""19825""
""fullscreenexit"",""3"",""41867""
","
","
","""event"",""trial"",""time""
""fullscreenenter"",""1"",""19825""
","""event"",""trial"",""time""
""fullscreenexit"",""3"",""41867""
",,356.3999999,run_exp/static/images/task_images/land.jpg,65,,,,,,,5,,,2,,,,,,,,43547,1,1,FALSE,,,
dig,82,411835,0.0-29.0-0.0,"""event"",""trial"",""time""
""fullscreenenter"",""1"",""19825""
""fullscreenexit"",""3"",""41867""
","
","
","""event"",""trial"",""time""
""fullscreenenter"",""1"",""19825""
","""event"",""trial"",""time""
""fullscreenexit"",""3"",""41867""
",,,,,,,,,,,,"[{""stimulus"":""run_exp/static/images/task_images/dig.jpg"",""time"":0.39999985694885254},{""stimulus"":""run_exp/static/images/task_images/land.jpg"",""time"":891.5},{""stimulus"":""run_exp/static/images/task_images/dig.jpg"",""time"":1773.2000000476837}]",[],2,,,,,,,,,,,,,,
harvest,83,412836,0.0-29.0-1.0,"""event"",""trial"",""time""
""fullscreenenter"",""1"",""19825""
""fullscreenexit"",""3"",""41867""
","
","
","""event"",""trial"",""time""
""fullscreenenter"",""1"",""19825""
","""event"",""trial"",""time""
""fullscreenexit"",""3"",""41867""
",,null,run_exp/static/images/task_images/gems/5.jpg,null,,,,,,,1,,,2,,,,,5,0.254742054,0.2,,,,,,,
decision,84,415266,0.0-29.0-2.0,"""event"",""trial"",""time""
""fullscreenenter"",""1"",""19825""
""fullscreenexit"",""3"",""41867""
","
","
","""event"",""trial"",""time""
""fullscreenenter"",""1"",""19825""
","""event"",""trial"",""time""
""fullscreenexit"",""3"",""41867""
",,2428.3,run_exp/static/images/task_images/land.jpg,65,,,,,,,1,,,2,,,,,,,,49629,1,2,FALSE,,,
dig,85,415842,0.0-30.0-0.0,"""event"",""trial"",""time""
""fullscreenenter"",""1"",""19825""
""fullscreenexit"",""3"",""41867""
","
","
","""event"",""trial"",""time""
""fullscreenenter"",""1"",""19825""
","""event"",""trial"",""time""
""fullscreenexit"",""3"",""41867""
",,,,,,,,,,,,"[{""stimulus"":""run_exp/static/images/task_images/dig.jpg"",""time"":0.2999999523162842},{""stimulus"":""run_exp/static/images/task_images/land.jpg"",""time"":198.29999995231628},{""stimulus"":""run_exp/static/images/task_images/dig.jpg"",""time"":381.2999999523163}]",[],2,,,,,,,,,,,,,,
harvest,86,416851,0.0-30.0-1.0,"""event"",""trial"",""time""
""fullscreenenter"",""1"",""19825""
""fullscreenexit"",""3"",""41867""
","
","
","""event"",""trial"",""time""
""fullscreenenter"",""1"",""19825""
","""event"",""trial"",""time""
""fullscreenexit"",""3"",""41867""
",,null,run_exp/static/images/task_images/gems/1.jpg,null,,,,,,,0,,,2,,,,,1,0.146806165,0,,,,,,,
decision,87,416932,0.0-30.0-2.0,"""event"",""trial"",""time""
""fullscreenenter"",""1"",""19825""
""fullscreenexit"",""3"",""41867""
","
","
","""event"",""trial"",""time""
""fullscreenenter"",""1"",""19825""
","""event"",""trial"",""time""
""fullscreenexit"",""3"",""41867""
",,78.79999995,run_exp/static/images/task_images/land.jpg,76,,,,,,,0,,,2,,,,,,,,51295,1,3,TRUE,,,
travel,88,426856,0.0-31.0-0.0,"""event"",""trial"",""time""
""fullscreenenter"",""1"",""19825""
""fullscreenexit"",""3"",""41867""
","
","
","""event"",""trial"",""time""
""fullscreenenter"",""1"",""19825""
","""event"",""trial"",""time""
""fullscreenexit"",""3"",""41867""
",,,,,,,,,,,,"[{""stimulus"":""run_exp/static/images/task_images/rocket-01.jpg"",""time"":0.2999999523162842},{""stimulus"":""run_exp/static/images/task_images/rocket-02.jpg"",""time"":1117.5},{""stimulus"":""run_exp/static/images/task_images/rocket-03.jpg"",""time"":2215.199999809265},{""stimulus"":""run_exp/static/images/task_images/rocket-04.jpg"",""time"":3311.5999999046326},{""stimulus"":""run_exp/static/images/task_images/rocket-05.jpg"",""time"":4416.5},{""stimulus"":""run_exp/static/images/task_images/rocket-06.jpg"",""time"":5517.099999904633},{""stimulus"":""run_exp/static/images/task_images/rocket-07.jpg"",""time"":6613.199999809265},{""stimulus"":""run_exp/static/images/task_images/rocket-08.jpg"",""time"":7718.599999904633},{""stimulus"":""run_exp/static/images/task_images/rocket-09.jpg"",""time"":8818.899999856949}]",[],2,,,,,,,,,,,,,,
alien_welcome,89,431869,0.0-31.0-1.0,"""event"",""trial"",""time""
""fullscreenenter"",""1"",""19825""
""fullscreenexit"",""3"",""41867""
","
","
","""event"",""trial"",""time""
""fullscreenenter"",""1"",""19825""
","""event"",""trial"",""time""
""fullscreenexit"",""3"",""41867""
",,null,run_exp/static/images/task_images/aliens/old_aliens/planet/alien_planet-49.jpg,null,,,,,,,,,,,,,49,"5,13,49,33,64,51,1,24,18,12,50,21,35,60,22,62,67,17,16,2,61,37,48,47,65,26,78,45,53,41,30,9,72,59,3,19",,,,,,,,,,
land,90,432372,0.0-31.0-2.0,"""event"",""trial"",""time""
""fullscreenenter"",""1"",""19825""
""fullscreenexit"",""3"",""41867""
","
","
","""event"",""trial"",""time""
""fullscreenenter"",""1"",""19825""
","""event"",""trial"",""time""
""fullscreenexit"",""3"",""41867""
",,null,run_exp/static/images/task_images/land.jpg,null,,,,,,,90,,,3,,,,,,,,,,,,,,
dig,91,434392,0.0-31.0-3.0,"""event"",""trial"",""time""
""fullscreenenter"",""1"",""19825""
""fullscreenexit"",""3"",""41867""
","
","
","""event"",""trial"",""time""
""fullscreenenter"",""1"",""19825""
","""event"",""trial"",""time""
""fullscreenexit"",""3"",""41867""
",,,,,,,,,,,,"[{""stimulus"":""run_exp/static/images/task_images/dig.jpg"",""time"":0.40000009536743164},{""stimulus"":""run_exp/static/images/task_images/land.jpg"",""time"":680.2000000476837},{""stimulus"":""run_exp/static/images/task_images/dig.jpg"",""time"":1347.7999999523163}]",[],3,,,,,,,,,,,,,,
harvest,92,435408,0.0-31.0-4.0,"""event"",""trial"",""time""
""fullscreenenter"",""1"",""19825""
""fullscreenexit"",""3"",""41867""
","
","
","""event"",""trial"",""time""
""fullscreenenter"",""1"",""19825""
","""event"",""trial"",""time""
""fullscreenexit"",""3"",""41867""
",,null,run_exp/static/images/task_images/gems/90.jpg,null,,,,,,,45,,,3,,,,,90,0.49548196,0.5,,,,,,,
decision,93,435516,0.0-31.0-5.0,"""event"",""trial"",""time""
""fullscreenenter"",""1"",""19825""
""fullscreenexit"",""3"",""41867""
","
","
","""event"",""trial"",""time""
""fullscreenenter"",""1"",""19825""
","""event"",""trial"",""time""
""fullscreenexit"",""3"",""41867""
",,106.7,run_exp/static/images/task_images/land.jpg,65,,,,,,,45,,,3,,,,,,,,69879,1,0,FALSE,,,
dig,94,438425,0.0-32.0-0.0,"""event"",""trial"",""time""
""fullscreenenter"",""1"",""19825""
""fullscreenexit"",""3"",""41867""
","
","
","""event"",""trial"",""time""
""fullscreenenter"",""1"",""19825""
","""event"",""trial"",""time""
""fullscreenexit"",""3"",""41867""
",,,,,,,,,,,,"[{""stimulus"":""run_exp/static/images/task_images/dig.jpg"",""time"":0.3000001907348633},{""stimulus"":""run_exp/static/images/task_images/land.jpg"",""time"":971.6000001430511},{""stimulus"":""run_exp/static/images/task_images/dig.jpg"",""time"":1940.2000000476837}]",[],3,,,,,,,,,,,,,,
harvest,95,439427,0.0-32.0-1.0,"""event"",""trial"",""time""
""fullscreenenter"",""1"",""19825""
""fullscreenexit"",""3"",""41867""
","
","
","""event"",""trial"",""time""
""fullscreenenter"",""1"",""19825""
","""event"",""trial"",""time""
""fullscreenexit"",""3"",""41867""
",,null,run_exp/static/images/task_images/gems/45.jpg,null,,,,,,,22,,,3,,,,,45,0.498994021,0.488888889,,,,,,,
decision,96,439528,0.0-32.0-2.0,"""event"",""trial"",""time""
""fullscreenenter"",""1"",""19825""
""fullscreenexit"",""3"",""41867""
","
","
","""event"",""trial"",""time""
""fullscreenenter"",""1"",""19825""
","""event"",""trial"",""time""
""fullscreenexit"",""3"",""41867""
",,98.89999986,run_exp/static/images/task_images/land.jpg,65,,,,,,,22,,,3,,,,,,,,73891,1,1,FALSE,,,
dig,97,442444,0.0-33.0-0.0,"""event"",""trial"",""time""
""fullscreenenter"",""1"",""19825""
""fullscreenexit"",""3"",""41867""
","
","
","""event"",""trial"",""time""
""fullscreenenter"",""1"",""19825""
","""event"",""trial"",""time""
""fullscreenexit"",""3"",""41867""
",,,,,,,,,,,,"[{""stimulus"":""run_exp/static/images/task_images/dig.jpg"",""time"":0.3000001907348633},{""stimulus"":""run_exp/static/images/task_images/land.jpg"",""time"":976.8000001907349},{""stimulus"":""run_exp/static/images/task_images/dig.jpg"",""time"":1943.9000000953674}]",[],3,,,,,,,,,,,,,,
harvest,98,443446,0.0-33.0-1.0,"""event"",""trial"",""time""
""fullscreenenter"",""1"",""19825""
""fullscreenexit"",""3"",""41867""
","
","
","""event"",""trial"",""time""
""fullscreenenter"",""1"",""19825""
","""event"",""trial"",""time""
""fullscreenexit"",""3"",""41867""
",,null,run_exp/static/images/task_images/gems/22.jpg,null,,,,,,,10,,,3,,,,,22,0.471782009,0.454545455,,,,,,,
decision,99,445064,0.0-33.0-2.0,"""event"",""trial"",""time""
""fullscreenenter"",""1"",""19825""
""fullscreenexit"",""3"",""41867""
","
","
","""event"",""trial"",""time""
""fullscreenenter"",""1"",""19825""
","""event"",""trial"",""time""
""fullscreenexit"",""3"",""41867""
",,1615.9,run_exp/static/images/task_images/land.jpg,65,,,,,,,10,,,3,,,,,,,,79427,1,2,FALSE,,,
dig,100,446458,0.0-34.0-0.0,"""event"",""trial"",""time""
""fullscreenenter"",""1"",""19825""
""fullscreenexit"",""3"",""41867""
","
","
","""event"",""trial"",""time""
""fullscreenenter"",""1"",""19825""
","""event"",""trial"",""time""
""fullscreenexit"",""3"",""41867""
",,,,,,,,,,,,"[{""stimulus"":""run_exp/static/images/task_images/dig.jpg"",""time"":0.40000009536743164},{""stimulus"":""run_exp/static/images/task_images/land.jpg"",""time"":467.40000009536743},{""stimulus"":""run_exp/static/images/task_images/dig.jpg"",""time"":925.7000000476837}]",[],3,,,,,,,,,,,,,,
harvest,101,447462,0.0-34.0-1.0,"""event"",""trial"",""time""
""fullscreenenter"",""1"",""19825""
""fullscreenexit"",""3"",""41867""
","
","
","""event"",""trial"",""time""
""fullscreenenter"",""1"",""19825""
","""event"",""trial"",""time""
""fullscreenexit"",""3"",""41867""
",,null,run_exp/static/images/task_images/gems/10.jpg,null,,,,,,,5,,,3,,,,,10,0.53220298,0.5,,,,,,,
decision,102,448195,0.0-34.0-2.0,"""event"",""trial"",""time""
""fullscreenenter"",""1"",""19825""
""fullscreenexit"",""3"",""41867""
","
","
","""event"",""trial"",""time""
""fullscreenenter"",""1"",""19825""
","""event"",""trial"",""time""
""fullscreenexit"",""3"",""41867""
",,731.1999998,run_exp/static/images/task_images/land.jpg,65,,,,,,,5,,,3,,,,,,,,82558,1,3,FALSE,,,
dig,103,450476,0.0-35.0-0.0,"""event"",""trial"",""time""
""fullscreenenter"",""1"",""19825""
""fullscreenexit"",""3"",""41867""
","
","
","""event"",""trial"",""time""
""fullscreenenter"",""1"",""19825""
","""event"",""trial"",""time""
""fullscreenexit"",""3"",""41867""
",,,,,,,,,,,,"[{""stimulus"":""run_exp/static/images/task_images/dig.jpg"",""time"":0.2999999523162842},{""stimulus"":""run_exp/static/images/task_images/land.jpg"",""time"":757.7999999523163},{""stimulus"":""run_exp/static/images/task_images/dig.jpg"",""time"":1514.7999999523163}]",[],3,,,,,,,,,,,,,,
harvest,104,451481,0.0-35.0-1.0,"""event"",""trial"",""time""
""fullscreenenter"",""1"",""19825""
""fullscreenexit"",""3"",""41867""
","
","
","""event"",""trial"",""time""
""fullscreenenter"",""1"",""19825""
","""event"",""trial"",""time""
""fullscreenexit"",""3"",""41867""
",,null,run_exp/static/images/task_images/gems/5.jpg,null,,,,,,,3,,,3,,,,,5,0.504308877,0.6,,,,,,,
decision,105,452312,0.0-35.0-2.0,"""event"",""trial"",""time""
""fullscreenenter"",""1"",""19825""
""fullscreenexit"",""3"",""41867""
","
","
","""event"",""trial"",""time""
""fullscreenenter"",""1"",""19825""
","""event"",""trial"",""time""
""fullscreenexit"",""3"",""41867""
",,829.8000002,run_exp/static/images/task_images/land.jpg,76,,,,,,,3,,,3,,,,,,,,86675,1,4,TRUE,,,
travel,106,461483,0.0-36.0-0.0,"""event"",""trial"",""time""
""fullscreenenter"",""1"",""19825""
""fullscreenexit"",""3"",""41867""
","
","
","""event"",""trial"",""time""
""fullscreenenter"",""1"",""19825""
","""event"",""trial"",""time""
""fullscreenexit"",""3"",""41867""
",,,,,,,,,,,,"[{""stimulus"":""run_exp/static/images/task_images/rocket-01.jpg"",""time"":0.40000009536743164},{""stimulus"":""run_exp/static/images/task_images/rocket-02.jpg"",""time"":1029.7000000476837},{""stimulus"":""run_exp/static/images/task_images/rocket-03.jpg"",""time"":2049.7000000476837},{""stimulus"":""run_exp/static/images/task_images/rocket-04.jpg"",""time"":3064},{""stimulus"":""run_exp/static/images/task_images/rocket-05.jpg"",""time"":4083},{""stimulus"":""run_exp/static/images/task_images/rocket-06.jpg"",""time"":5098},{""stimulus"":""run_exp/static/images/task_images/rocket-07.jpg"",""time"":6115.400000095367},{""stimulus"":""run_exp/static/images/task_images/rocket-08.jpg"",""time"":7131.5},{""stimulus"":""run_exp/static/images/task_images/rocket-09.jpg"",""time"":8150.900000095367}]",[],3,,,,,,,,,,,,,,
alien_welcome,107,466485,0.0-36.0-1.0,"""event"",""trial"",""time""
""fullscreenenter"",""1"",""19825""
""fullscreenexit"",""3"",""41867""
","
","
","""event"",""trial"",""time""
""fullscreenenter"",""1"",""19825""
","""event"",""trial"",""time""
""fullscreenexit"",""3"",""41867""
",,null,run_exp/static/images/task_images/aliens/old_aliens/planet/alien_planet-33.jpg,null,,,,,,,,,,,,,33,"5,13,49,33,64,51,1,24,18,12,50,21,35,60,22,62,67,17,16,2,61,37,48,47,65,26,78,45,53,41,30,9,72,59,3,19",,,,,,,,,,
land,108,467001,0.0-36.0-2.0,"""event"",""trial"",""time""
""fullscreenenter"",""1"",""19825""
""fullscreenexit"",""3"",""41867""
","
","
","""event"",""trial"",""time""
""fullscreenenter"",""1"",""19825""
","""event"",""trial"",""time""
""fullscreenexit"",""3"",""41867""
",,null,run_exp/static/images/task_images/land.jpg,null,,,,,,,98,,,4,,,,,,,,,,,,,,
dig,109,469019,0.0-36.0-3.0,"""event"",""trial"",""time""
""fullscreenenter"",""1"",""19825""
""fullscreenexit"",""3"",""41867""
","
","
","""event"",""trial"",""time""
""fullscreenenter"",""1"",""19825""
","""event"",""trial"",""time""
""fullscreenexit"",""3"",""41867""
",,,,,,,,,,,,"[{""stimulus"":""run_exp/static/images/task_images/dig.jpg"",""time"":0.40000009536743164},{""stimulus"":""run_exp/static/images/task_images/land.jpg"",""time"":679.6000001430511},{""stimulus"":""run_exp/static/images/task_images/dig.jpg"",""time"":1336.1000001430511}]",[],4,,,,,,,,,,,,,,
harvest,110,470022,0.0-36.0-4.0,"""event"",""trial"",""time""
""fullscreenenter"",""1"",""19825""
""fullscreenexit"",""3"",""41867""
","
","
","""event"",""trial"",""time""
""fullscreenenter"",""1"",""19825""
","""event"",""trial"",""time""
""fullscreenexit"",""3"",""41867""
",,null,run_exp/static/images/task_images/gems/98.jpg,null,,,,,,,47,,,4,,,,,98,0.48137787,0.479591837,,,,,,,
decision,111,470880,0.0-36.0-5.0,"""event"",""trial"",""time""
""fullscreenenter"",""1"",""19825""
""fullscreenexit"",""3"",""41867""
","
","
","""event"",""trial"",""time""
""fullscreenenter"",""1"",""19825""
","""event"",""trial"",""time""
""fullscreenexit"",""3"",""41867""
",,856.3999999,run_exp/static/images/task_images/land.jpg,65,,,,,,,47,,,4,,,,,,,,105243,1,0,FALSE,,,
dig,112,473040,0.0-37.0-0.0,"""event"",""trial"",""time""
""fullscreenenter"",""1"",""19825""
""fullscreenexit"",""3"",""41867""
","
","
","""event"",""trial"",""time""
""fullscreenenter"",""1"",""19825""
","""event"",""trial"",""time""
""fullscreenexit"",""3"",""41867""
",,,,,,,,,,,,"[{""stimulus"":""run_exp/static/images/task_images/dig.jpg"",""time"":0.20000004768371582},{""stimulus"":""run_exp/static/images/task_images/land.jpg"",""time"":717.6000001430511},{""stimulus"":""run_exp/static/images/task_images/dig.jpg"",""time"":1437.7000000476837}]",[],4,,,,,,,,,,,,,,
harvest,113,474042,0.0-37.0-1.0,"""event"",""trial"",""time""
""fullscreenenter"",""1"",""19825""
""fullscreenexit"",""3"",""41867""
","
","
","""event"",""trial"",""time""
""fullscreenenter"",""1"",""19825""
","""event"",""trial"",""time""
""fullscreenexit"",""3"",""41867""
",,null,run_exp/static/images/task_images/gems/47.jpg,null,,,,,,,24,,,4,,,,,47,0.508013701,0.510638298,,,,,,,
decision,114,474990,0.0-37.0-2.0,"""event"",""trial"",""time""
""fullscreenenter"",""1"",""19825""
""fullscreenexit"",""3"",""41867""
","
","
","""event"",""trial"",""time""
""fullscreenenter"",""1"",""19825""
","""event"",""trial"",""time""
""fullscreenexit"",""3"",""41867""
",,946.5,run_exp/static/images/task_images/land.jpg,65,,,,,,,24,,,4,,,,,,,,109353,1,1,FALSE,,,
dig,115,477055,0.0-38.0-0.0,"""event"",""trial"",""time""
""fullscreenenter"",""1"",""19825""
""fullscreenexit"",""3"",""41867""
","
","
","""event"",""trial"",""time""
""fullscreenenter"",""1"",""19825""
","""event"",""trial"",""time""
""fullscreenexit"",""3"",""41867""
",,,,,,,,,,,,"[{""stimulus"":""run_exp/static/images/task_images/dig.jpg"",""time"":0.39999985694885254},{""stimulus"":""run_exp/static/images/task_images/land.jpg"",""time"":698},{""stimulus"":""run_exp/static/images/task_images/dig.jpg"",""time"":1379.5}]",[],4,,,,,,,,,,,,,,
harvest,116,478072,0.0-38.0-1.0,"""event"",""trial"",""time""
""fullscreenenter"",""1"",""19825""
""fullscreenexit"",""3"",""41867""
","
","
","""event"",""trial"",""time""
""fullscreenenter"",""1"",""19825""
","""event"",""trial"",""time""
""fullscreenexit"",""3"",""41867""
",,null,run_exp/static/images/task_images/gems/24.jpg,null,,,,,,,12,,,4,,,,,24,0.494642097,0.5,,,,,,,
decision,117,478092,0.0-38.0-2.0,"""event"",""trial"",""time""
""fullscreenenter"",""1"",""19825""
""fullscreenexit"",""3"",""41867""
","
","
","""event"",""trial"",""time""
""fullscreenenter"",""1"",""19825""
","""event"",""trial"",""time""
""fullscreenexit"",""3"",""41867""
",,17.80000019,run_exp/static/images/task_images/land.jpg,65,,,,,,,12,,,4,,,,,,,,112455,1,2,FALSE,,,
dig,118,481092,0.0-39.0-0.0,"""event"",""trial"",""time""
""fullscreenenter"",""1"",""19825""
""fullscreenexit"",""3"",""41867""
","
","
","""event"",""trial"",""time""
""fullscreenenter"",""1"",""19825""
","""event"",""trial"",""time""
""fullscreenexit"",""3"",""41867""
",,,,,,,,,,,,"[{""stimulus"":""run_exp/static/images/task_images/dig.jpg"",""time"":0.2999999523162842},{""stimulus"":""run_exp/static/images/task_images/land.jpg"",""time"":997.2999999523163},{""stimulus"":""run_exp/static/images/task_images/dig.jpg"",""time"":1995.7000000476837}]",[],4,,,,,,,,,,,,,,
harvest,119,482107,0.0-39.0-1.0,"""event"",""trial"",""time""
""fullscreenenter"",""1"",""19825""
""fullscreenexit"",""3"",""41867""
","
","
","""event"",""trial"",""time""
""fullscreenenter"",""1"",""19825""
","""event"",""trial"",""time""
""fullscreenexit"",""3"",""41867""
",,null,run_exp/static/images/task_images/gems/12.jpg,null,,,,,,,6,,,4,,,,,12,0.487825723,0.5,,,,,,,
decision,120,482639,0.0-39.0-2.0,"""event"",""trial"",""time""
""fullscreenenter"",""1"",""19825""
""fullscreenexit"",""3"",""41867""
","
","
","""event"",""trial"",""time""
""fullscreenenter"",""1"",""19825""
","""event"",""trial"",""time""
""fullscreenexit"",""3"",""41867""
",,530.5999999,run_exp/static/images/task_images/land.jpg,65,,,,,,,6,,,4,,,,,,,,117003,1,3,FALSE,,,
dig,121,485125,0.0-40.0-0.0,"""event"",""trial"",""time""
""fullscreenenter"",""1"",""19825""
""fullscreenexit"",""3"",""41867""
","
","
","""event"",""trial"",""time""
""fullscreenenter"",""1"",""19825""
","""event"",""trial"",""time""
""fullscreenexit"",""3"",""41867""
",,,,,,,,,,,,"[{""stimulus"":""run_exp/static/images/task_images/dig.jpg"",""time"":0.40000009536743164},{""stimulus"":""run_exp/static/images/task_images/land.jpg"",""time"":832.9000000953674},{""stimulus"":""run_exp/static/images/task_images/dig.jpg"",""time"":1651.0999999046326}]",[],4,,,,,,,,,,,,,,
harvest,122,486127,0.0-40.0-1.0,"""event"",""trial"",""time""
""fullscreenenter"",""1"",""19825""
""fullscreenexit"",""3"",""41867""
","
","
","""event"",""trial"",""time""
""fullscreenenter"",""1"",""19825""
","""event"",""trial"",""time""
""fullscreenexit"",""3"",""41867""
",,null,run_exp/static/images/task_images/gems/6.jpg,null,,,,,,,3,,,4,,,,,6,0.510137329,0.5,,,,,,,
decision,123,486585,0.0-40.0-2.0,"""event"",""trial"",""time""
""fullscreenenter"",""1"",""19825""
""fullscreenexit"",""3"",""41867""
","
","
","""event"",""trial"",""time""
""fullscreenenter"",""1"",""19825""
","""event"",""trial"",""time""
""fullscreenexit"",""3"",""41867""
",,455.9000001,run_exp/static/images/task_images/land.jpg,76,,,,,,,3,,,4,,,,,,,,120948,1,4,TRUE,,,
travel,124,496131,0.0-41.0-0.0,"""event"",""trial"",""time""
""fullscreenenter"",""1"",""19825""
""fullscreenexit"",""3"",""41867""
","
","
","""event"",""trial"",""time""
""fullscreenenter"",""1"",""19825""
","""event"",""trial"",""time""
""fullscreenexit"",""3"",""41867""
",,,,,,,,,,,,"[{""stimulus"":""run_exp/static/images/task_images/rocket-01.jpg"",""time"":0.20000004768371582},{""stimulus"":""run_exp/static/images/task_images/rocket-02.jpg"",""time"":1061.1000001430511},{""stimulus"":""run_exp/static/images/task_images/rocket-03.jpg"",""time"":2121.2000000476837},{""stimulus"":""run_exp/static/images/task_images/rocket-04.jpg"",""time"":3188.5},{""stimulus"":""run_exp/static/images/task_images/rocket-05.jpg"",""time"":4254.400000095367},{""stimulus"":""run_exp/static/images/task_images/rocket-06.jpg"",""time"":5305.300000190735},{""stimulus"":""run_exp/static/images/task_images/rocket-07.jpg"",""time"":6367.600000143051},{""stimulus"":""run_exp/static/images/task_images/rocket-08.jpg"",""time"":7422.900000095367},{""stimulus"":""run_exp/static/images/task_images/rocket-09.jpg"",""time"":8492.100000143051}]",[],4,,,,,,,,,,,,,,
alien_welcome,125,501149,0.0-41.0-1.0,"""event"",""trial"",""time""
""fullscreenenter"",""1"",""19825""
""fullscreenexit"",""3"",""41867""
","
","
","""event"",""trial"",""time""
""fullscreenenter"",""1"",""19825""
","""event"",""trial"",""time""
""fullscreenexit"",""3"",""41867""
",,null,run_exp/static/images/task_images/aliens/old_aliens/planet/alien_planet-64.jpg,null,,,,,,,,,,,,,64,"5,13,49,33,64,51,1,24,18,12,50,21,35,60,22,62,67,17,16,2,61,37,48,47,65,26,78,45,53,41,30,9,72,59,3,19",,,,,,,,,,
land,126,501651,0.0-41.0-2.0,"""event"",""trial"",""time""
""fullscreenenter"",""1"",""19825""
""fullscreenexit"",""3"",""41867""
","
","
","""event"",""trial"",""time""
""fullscreenenter"",""1"",""19825""
","""event"",""trial"",""time""
""fullscreenexit"",""3"",""41867""
",,null,run_exp/static/images/task_images/land.jpg,null,,,,,,,96,,,5,,,,,,,,,,,,,,
dig,127,503666,0.0-41.0-3.0,"""event"",""trial"",""time""
""fullscreenenter"",""1"",""19825""
""fullscreenexit"",""3"",""41867""
","
","
","""event"",""trial"",""time""
""fullscreenenter"",""1"",""19825""
","""event"",""trial"",""time""
""fullscreenexit"",""3"",""41867""
",,,,,,,,,,,,"[{""stimulus"":""run_exp/static/images/task_images/dig.jpg"",""time"":0.39999985694885254},{""stimulus"":""run_exp/static/images/task_images/land.jpg"",""time"":681.5999999046326},{""stimulus"":""run_exp/static/images/task_images/dig.jpg"",""time"":1349}]",[],5,,,,,,,,,,,,,,
harvest,128,504669,0.0-41.0-4.0,"""event"",""trial"",""time""
""fullscreenenter"",""1"",""19825""
""fullscreenexit"",""3"",""41867""
","
","
","""event"",""trial"",""time""
""fullscreenenter"",""1"",""19825""
","""event"",""trial"",""time""
""fullscreenexit"",""3"",""41867""
",,null,run_exp/static/images/task_images/gems/96.jpg,null,,,,,,,47,,,5,,,,,96,0.4917816,0.489583333,,,,,,,
decision,129,504954,0.0-41.0-5.0,"""event"",""trial"",""time""
""fullscreenenter"",""1"",""19825""
""fullscreenexit"",""3"",""41867""
","
","
","""event"",""trial"",""time""
""fullscreenenter"",""1"",""19825""
","""event"",""trial"",""time""
""fullscreenexit"",""3"",""41867""
",,283.8,run_exp/static/images/task_images/land.jpg,65,,,,,,,47,,,5,,,,,,,,139317,1,0,FALSE,,,
dig,130,507685,0.0-42.0-0.0,"""event"",""trial"",""time""
""fullscreenenter"",""1"",""19825""
""fullscreenexit"",""3"",""41867""
","
","
","""event"",""trial"",""time""
""fullscreenenter"",""1"",""19825""
","""event"",""trial"",""time""
""fullscreenexit"",""3"",""41867""
",,,,,,,,,,,,"[{""stimulus"":""run_exp/static/images/task_images/dig.jpg"",""time"":0.3000001907348633},{""stimulus"":""run_exp/static/images/task_images/land.jpg"",""time"":906.3000001907349},{""stimulus"":""run_exp/static/images/task_images/dig.jpg"",""time"":1825.4000000953674}]",[],5,,,,,,,,,,,,,,
harvest,131,508686,0.0-42.0-1.0,"""event"",""trial"",""time""
""fullscreenenter"",""1"",""19825""
""fullscreenexit"",""3"",""41867""
","
","
","""event"",""trial"",""time""
""fullscreenenter"",""1"",""19825""
","""event"",""trial"",""time""
""fullscreenexit"",""3"",""41867""
",,null,run_exp/static/images/task_images/gems/47.jpg,null,,,,,,,26,,,5,,,,,47,0.562085894,0.553191489,,,,,,,
decision,132,508775,0.0-42.0-2.0,"""event"",""trial"",""time""
""fullscreenenter"",""1"",""19825""
""fullscreenexit"",""3"",""41867""
","
","
","""event"",""trial"",""time""
""fullscreenenter"",""1"",""19825""
","""event"",""trial"",""time""
""fullscreenexit"",""3"",""41867""
",,86.80000019,run_exp/static/images/task_images/land.jpg,65,,,,,,,26,,,5,,,,,,,,143138,1,1,FALSE,,,
dig,133,511700,0.0-43.0-0.0,"""event"",""trial"",""time""
""fullscreenenter"",""1"",""19825""
""fullscreenexit"",""3"",""41867""
","
","
","""event"",""trial"",""time""
""fullscreenenter"",""1"",""19825""
","""event"",""trial"",""time""
""fullscreenexit"",""3"",""41867""
",,,,,,,,,,,,"[{""stimulus"":""run_exp/static/images/task_images/dig.jpg"",""time"":0.2999999523162842},{""stimulus"":""run_exp/static/images/task_images/land.jpg"",""time"":985.4000000953674},{""stimulus"":""run_exp/static/images/task_images/dig.jpg"",""time"":1951.5999999046326}]",[],5,,,,,,,,,,,,,,
harvest,134,512703,0.0-43.0-1.0,"""event"",""trial"",""time""
""fullscreenenter"",""1"",""19825""
""fullscreenexit"",""3"",""41867""
","
","
","""event"",""trial"",""time""
""fullscreenenter"",""1"",""19825""
","""event"",""trial"",""time""
""fullscreenexit"",""3"",""41867""
",,null,run_exp/static/images/task_images/gems/26.jpg,null,,,,,,,14,,,5,,,,,26,0.53425966,0.538461538,,,,,,,
decision,135,513710,0.0-43.0-2.0,"""event"",""trial"",""time""
""fullscreenenter"",""1"",""19825""
""fullscreenexit"",""3"",""41867""
","
","
","""event"",""trial"",""time""
""fullscreenenter"",""1"",""19825""
","""event"",""trial"",""time""
""fullscreenexit"",""3"",""41867""
",,1005.9,run_exp/static/images/task_images/land.jpg,65,,,,,,,14,,,5,,,,,,,,148073,1,2,FALSE,,,
dig,136,515721,0.0-44.0-0.0,"""event"",""trial"",""time""
""fullscreenenter"",""1"",""19825""
""fullscreenexit"",""3"",""41867""
","
","
","""event"",""trial"",""time""
""fullscreenenter"",""1"",""19825""
","""event"",""trial"",""time""
""fullscreenexit"",""3"",""41867""
",,,,,,,,,,,,"[{""stimulus"":""run_exp/static/images/task_images/dig.jpg"",""time"":0.19999980926513672},{""stimulus"":""run_exp/static/images/task_images/land.jpg"",""time"":673.2999999523163},{""stimulus"":""run_exp/static/images/task_images/dig.jpg"",""time"":1341.3999998569489}]",[],5,,,,,,,,,,,,,,
harvest,137,516723,0.0-44.0-1.0,"""event"",""trial"",""time""
""fullscreenenter"",""1"",""19825""
""fullscreenexit"",""3"",""41867""
","
","
","""event"",""trial"",""time""
""fullscreenenter"",""1"",""19825""
","""event"",""trial"",""time""
""fullscreenexit"",""3"",""41867""
",,null,run_exp/static/images/task_images/gems/14.jpg,null,,,,,,,7,,,5,,,,,14,0.480111344,0.5,,,,,,,
decision,138,517964,0.0-44.0-2.0,"""event"",""trial"",""time""
""fullscreenenter"",""1"",""19825""
""fullscreenexit"",""3"",""41867""
","
","
","""event"",""trial"",""time""
""fullscreenenter"",""1"",""19825""
","""event"",""trial"",""time""
""fullscreenexit"",""3"",""41867""
",,1239.4,run_exp/static/images/task_images/land.jpg,65,,,,,,,7,,,5,,,,,,,,152327,1,3,FALSE,,,
dig,139,519739,0.0-45.0-0.0,"""event"",""trial"",""time""
""fullscreenenter"",""1"",""19825""
""fullscreenexit"",""3"",""41867""
","
","
","""event"",""trial"",""time""
""fullscreenenter"",""1"",""19825""
","""event"",""trial"",""time""
""fullscreenexit"",""3"",""41867""
",,,,,,,,,,,,"[{""stimulus"":""run_exp/static/images/task_images/dig.jpg"",""time"":0.2999999523162842},{""stimulus"":""run_exp/static/images/task_images/land.jpg"",""time"":588.9000000953674},{""stimulus"":""run_exp/static/images/task_images/dig.jpg"",""time"":1173.2000000476837}]",[],5,,,,,,,,,,,,,,
harvest,140,520741,0.0-45.0-1.0,"""event"",""trial"",""time""
""fullscreenenter"",""1"",""19825""
""fullscreenexit"",""3"",""41867""
","
","
","""event"",""trial"",""time""
""fullscreenenter"",""1"",""19825""
","""event"",""trial"",""time""
""fullscreenexit"",""3"",""41867""
",,null,run_exp/static/images/task_images/gems/7.jpg,null,,,,,,,4,,,5,,,,,7,0.543433651,0.571428571,,,,,,,
decision,141,521141,0.0-45.0-2.0,"""event"",""trial"",""time""
""fullscreenenter"",""1"",""19825""
""fullscreenexit"",""3"",""41867""
","
","
","""event"",""trial"",""time""
""fullscreenenter"",""1"",""19825""
","""event"",""trial"",""time""
""fullscreenexit"",""3"",""41867""
",,399,run_exp/static/images/task_images/land.jpg,76,,,,,,,4,,,5,,,,,,,,155504,1,4,TRUE,,,
travel,142,530746,0.0-46.0-0.0,"""event"",""trial"",""time""
""fullscreenenter"",""1"",""19825""
""fullscreenexit"",""3"",""41867""
","
","
","""event"",""trial"",""time""
""fullscreenenter"",""1"",""19825""
","""event"",""trial"",""time""
""fullscreenexit"",""3"",""41867""
",,,,,,,,,,,,"[{""stimulus"":""run_exp/static/images/task_images/rocket-01.jpg"",""time"":0.40000009536743164},{""stimulus"":""run_exp/static/images/task_images/rocket-02.jpg"",""time"":1075.4000000953674},{""stimulus"":""run_exp/static/images/task_images/rocket-03.jpg"",""time"":2141.5},{""stimulus"":""run_exp/static/images/task_images/rocket-04.jpg"",""time"":3209.5999999046326},{""stimulus"":""run_exp/static/images/task_images/rocket-05.jpg"",""time"":4277.299999952316},{""stimulus"":""run_exp/static/images/task_images/rocket-06.jpg"",""time"":5343.299999952316},{""stimulus"":""run_exp/static/images/task_images/rocket-07.jpg"",""time"":6413},{""stimulus"":""run_exp/static/images/task_images/rocket-08.jpg"",""time"":7478.799999952316},{""stimulus"":""run_exp/static/images/task_images/rocket-09.jpg"",""time"":8529.5}]",[],5,,,,,,,,,,,,,,
alien_welcome,143,535760,0.0-46.0-1.0,"""event"",""trial"",""time""
""fullscreenenter"",""1"",""19825""
""fullscreenexit"",""3"",""41867""
","
","
","""event"",""trial"",""time""
""fullscreenenter"",""1"",""19825""
","""event"",""trial"",""time""
""fullscreenexit"",""3"",""41867""
",,null,run_exp/static/images/task_images/aliens/old_aliens/planet/alien_planet-51.jpg,null,,,,,,,,,,,,,51,"5,13,49,33,64,51,1,24,18,12,50,21,35,60,22,62,67,17,16,2,61,37,48,47,65,26,78,45,53,41,30,9,72,59,3,19",,,,,,,,,,
land,144,536263,0.0-46.0-2.0,"""event"",""trial"",""time""
""fullscreenenter"",""1"",""19825""
""fullscreenexit"",""3"",""41867""
","
","
","""event"",""trial"",""time""
""fullscreenenter"",""1"",""19825""
","""event"",""trial"",""time""
""fullscreenexit"",""3"",""41867""
",,null,run_exp/static/images/task_images/land.jpg,null,,,,,,,103,,,6,,,,,,,,,,,,,,
dig,145,538278,0.0-46.0-3.0,"""event"",""trial"",""time""
""fullscreenenter"",""1"",""19825""
""fullscreenexit"",""3"",""41867""
","
","
","""event"",""trial"",""time""
""fullscreenenter"",""1"",""19825""
","""event"",""trial"",""time""
""fullscreenexit"",""3"",""41867""
",,,,,,,,,,,,"[{""stimulus"":""run_exp/static/images/task_images/dig.jpg"",""time"":0.40000009536743164},{""stimulus"":""run_exp/static/images/task_images/land.jpg"",""time"":682},{""stimulus"":""run_exp/static/images/task_images/dig.jpg"",""time"":1348.2999999523163}]",[],6,,,,,,,,,,,,,,
harvest,146,539297,0.0-46.0-4.0,"""event"",""trial"",""time""
""fullscreenenter"",""1"",""19825""
""fullscreenexit"",""3"",""41867""
","
","
","""event"",""trial"",""time""
""fullscreenenter"",""1"",""19825""
","""event"",""trial"",""time""
""fullscreenexit"",""3"",""41867""
",,null,run_exp/static/images/task_images/gems/103.jpg,null,,,,,,,83,,,6,,,,,103,0.805734074,0.805825243,,,,,,,
decision,147,540954,0.0-46.0-5.0,"""event"",""trial"",""time""
""fullscreenenter"",""1"",""19825""
""fullscreenexit"",""3"",""41867""
","
","
","""event"",""trial"",""time""
""fullscreenenter"",""1"",""19825""
","""event"",""trial"",""time""
""fullscreenexit"",""3"",""41867""
",,1656,run_exp/static/images/task_images/land.jpg,65,,,,,,,83,,,6,,,,,,,,175317,1,0,FALSE,,,
dig,148,542305,0.0-47.0-0.0,"""event"",""trial"",""time""
""fullscreenenter"",""1"",""19825""
""fullscreenexit"",""3"",""41867""
","
","
","""event"",""trial"",""time""
""fullscreenenter"",""1"",""19825""
","""event"",""trial"",""time""
""fullscreenexit"",""3"",""41867""
",,,,,,,,,,,,"[{""stimulus"":""run_exp/static/images/task_images/dig.jpg"",""time"":0.39999985694885254},{""stimulus"":""run_exp/static/images/task_images/land.jpg"",""time"":451.89999985694885},{""stimulus"":""run_exp/static/images/task_images/dig.jpg"",""time"":906.3999998569489}]",[],6,,,,,,,,,,,,,,
harvest,149,543313,0.0-47.0-1.0,"""event"",""trial"",""time""
""fullscreenenter"",""1"",""19825""
""fullscreenexit"",""3"",""41867""
","
","
","""event"",""trial"",""time""
""fullscreenenter"",""1"",""19825""
","""event"",""trial"",""time""
""fullscreenexit"",""3"",""41867""
",,null,run_exp/static/images/task_images/gems/83.jpg,null,,,,,,,70,,,6,,,,,83,0.837402208,0.843373494,,,,,,,
decision,150,545430,0.0-47.0-2.0,"""event"",""trial"",""time""
""fullscreenenter"",""1"",""19825""
""fullscreenexit"",""3"",""41867""
","
","
","""event"",""trial"",""time""
""fullscreenenter"",""1"",""19825""
","""event"",""trial"",""time""
""fullscreenexit"",""3"",""41867""
",,2115.2,run_exp/static/images/task_images/land.jpg,65,,,,,,,70,,,6,,,,,,,,179793,1,1,FALSE,,,
dig,151,546319,0.0-48.0-0.0,"""event"",""trial"",""time""
""fullscreenenter"",""1"",""19825""
""fullscreenexit"",""3"",""41867""
","
","
","""event"",""trial"",""time""
""fullscreenenter"",""1"",""19825""
","""event"",""trial"",""time""
""fullscreenexit"",""3"",""41867""
",,,,,,,,,,,,"[{""stimulus"":""run_exp/static/images/task_images/dig.jpg"",""time"":0.39999985694885254},{""stimulus"":""run_exp/static/images/task_images/land.jpg"",""time"":298.09999990463257},{""stimulus"":""run_exp/static/images/task_images/dig.jpg"",""time"":595.8999998569489}]",[],6,,,,,,,,,,,,,,
harvest,152,547331,0.0-48.0-1.0,"""event"",""trial"",""time""
""fullscreenenter"",""1"",""19825""
""fullscreenexit"",""3"",""41867""
","
","
","""event"",""trial"",""time""
""fullscreenenter"",""1"",""19825""
","""event"",""trial"",""time""
""fullscreenexit"",""3"",""41867""
",,null,run_exp/static/images/task_images/gems/70.jpg,null,,,,,,,60,,,6,,,,,70,0.864005238,0.857142857,,,,,,,
decision,153,547480,0.0-48.0-2.0,"""event"",""trial"",""time""
""fullscreenenter"",""1"",""19825""
""fullscreenexit"",""3"",""41867""
","
","
","""event"",""trial"",""time""
""fullscreenenter"",""1"",""19825""
","""event"",""trial"",""time""
""fullscreenexit"",""3"",""41867""
",,148.0999999,run_exp/static/images/task_images/land.jpg,65,,,,,,,60,,,6,,,,,,,,181844,1,2,FALSE,,,
dig,154,550351,0.0-49.0-0.0,"""event"",""trial"",""time""
""fullscreenenter"",""1"",""19825""
""fullscreenexit"",""3"",""41867""
","
","
","""event"",""trial"",""time""
""fullscreenenter"",""1"",""19825""
","""event"",""trial"",""time""
""fullscreenexit"",""3"",""41867""
",,,,,,,,,,,,"[{""stimulus"":""run_exp/static/images/task_images/dig.jpg"",""time"":0.20000004768371582},{""stimulus"":""run_exp/static/images/task_images/land.jpg"",""time"":962.2999999523163},{""stimulus"":""run_exp/static/images/task_images/dig.jpg"",""time"":1913.2000000476837}]",[],6,,,,,,,,,,,,,,
harvest,155,551353,0.0-49.0-1.0,"""event"",""trial"",""time""
""fullscreenenter"",""1"",""19825""
""fullscreenexit"",""3"",""41867""
","
","
","""event"",""trial"",""time""
""fullscreenenter"",""1"",""19825""
","""event"",""trial"",""time""
""fullscreenexit"",""3"",""41867""
",,null,run_exp/static/images/task_images/gems/60.jpg,null,,,,,,,49,,,6,,,,,60,0.808924709,0.816666667,,,,,,,
decision,156,551628,0.0-49.0-2.0,"""event"",""trial"",""time""
""fullscreenenter"",""1"",""19825""
""fullscreenexit"",""3"",""41867""
","
","
","""event"",""trial"",""time""
""fullscreenenter"",""1"",""19825""
","""event"",""trial"",""time""
""fullscreenexit"",""3"",""41867""
",,273.6000001,run_exp/static/images/task_images/land.jpg,65,,,,,,,49,,,6,,,,,,,,185992,1,3,FALSE,,,
dig,157,554358,0.0-50.0-0.0,"""event"",""trial"",""time""
""fullscreenenter"",""1"",""19825""
""fullscreenexit"",""3"",""41867""
","
","
","""event"",""trial"",""time""
""fullscreenenter"",""1"",""19825""
","""event"",""trial"",""time""
""fullscreenexit"",""3"",""41867""
",,,,,,,,,,,,"[{""stimulus"":""run_exp/static/images/task_images/dig.jpg"",""time"":0.2999999523162842},{""stimulus"":""run_exp/static/images/task_images/land.jpg"",""time"":915.5999999046326},{""stimulus"":""run_exp/static/images/task_images/dig.jpg"",""time"":1818.7999999523163}]",[],6,,,,,,,,,,,,,,
harvest,158,555370,0.0-50.0-1.0,"""event"",""trial"",""time""
""fullscreenenter"",""1"",""19825""
""fullscreenexit"",""3"",""41867""
","
","
","""event"",""trial"",""time""
""fullscreenenter"",""1"",""19825""
","""event"",""trial"",""time""
""fullscreenexit"",""3"",""41867""
",,null,run_exp/static/images/task_images/gems/49.jpg,null,,,,,,,40,,,6,,,,,49,0.814054914,0.816326531,,,,,,,
decision,159,557623,0.0-50.0-2.0,"""event"",""trial"",""time""
""fullscreenenter"",""1"",""19825""
""fullscreenexit"",""3"",""41867""
","
","
","""event"",""trial"",""time""
""fullscreenenter"",""1"",""19825""
","""event"",""trial"",""time""
""fullscreenexit"",""3"",""41867""
",,2251.2,run_exp/static/images/task_images/land.jpg,65,,,,,,,40,,,6,,,,,,,,191986,1,4,FALSE,,,
dig,160,558388,0.0-51.0-0.0,"""event"",""trial"",""time""
""fullscreenenter"",""1"",""19825""
""fullscreenexit"",""3"",""41867""
","
","
","""event"",""trial"",""time""
""fullscreenenter"",""1"",""19825""
","""event"",""trial"",""time""
""fullscreenexit"",""3"",""41867""
",,,,,,,,,,,,"[{""stimulus"":""run_exp/static/images/task_images/dig.jpg"",""time"":0.2999999523162842},{""stimulus"":""run_exp/static/images/task_images/land.jpg"",""time"":259.7999999523163},{""stimulus"":""run_exp/static/images/task_images/dig.jpg"",""time"":508.10000014305115}]",[],6,,,,,,,,,,,,,,
harvest,161,559391,0.0-51.0-1.0,"""event"",""trial"",""time""
""fullscreenenter"",""1"",""19825""
""fullscreenexit"",""3"",""41867""
","
","
","""event"",""trial"",""time""
""fullscreenenter"",""1"",""19825""
","""event"",""trial"",""time""
""fullscreenexit"",""3"",""41867""
",,null,run_exp/static/images/task_images/gems/40.jpg,null,,,,,,,31,,,6,,,,,40,0.786394419,0.775,,,,,,,
decision,162,559899,0.0-51.0-2.0,"""event"",""trial"",""time""
""fullscreenenter"",""1"",""19825""
""fullscreenexit"",""3"",""41867""
","
","
","""event"",""trial"",""time""
""fullscreenenter"",""1"",""19825""
","""event"",""trial"",""time""
""fullscreenexit"",""3"",""41867""
",,505.6999998,run_exp/static/images/task_images/land.jpg,65,,,,,,,31,,,6,,,,,,,,194262,1,5,FALSE,,,
dig,163,562405,0.0-52.0-0.0,"""event"",""trial"",""time""
""fullscreenenter"",""1"",""19825""
""fullscreenexit"",""3"",""41867""
","
","
","""event"",""trial"",""time""
""fullscreenenter"",""1"",""19825""
","""event"",""trial"",""time""
""fullscreenexit"",""3"",""41867""
",,,,,,,,,,,,"[{""stimulus"":""run_exp/static/images/task_images/dig.jpg"",""time"":0.2999999523162842},{""stimulus"":""run_exp/static/images/task_images/land.jpg"",""time"":833.3999998569489},{""stimulus"":""run_exp/static/images/task_images/dig.jpg"",""time"":1683.6999998092651}]",[],6,,,,,,,,,,,,,,
harvest,164,563406,0.0-52.0-1.0,"""event"",""trial"",""time""
""fullscreenenter"",""1"",""19825""
""fullscreenexit"",""3"",""41867""
","
","
","""event"",""trial"",""time""
""fullscreenenter"",""1"",""19825""
","""event"",""trial"",""time""
""fullscreenexit"",""3"",""41867""
",,null,run_exp/static/images/task_images/gems/31.jpg,null,,,,,,,27,,,6,,,,,31,0.86466324,0.870967742,,,,,,,
decision,165,563414,0.0-52.0-2.0,"""event"",""trial"",""time""
""fullscreenenter"",""1"",""19825""
""fullscreenexit"",""3"",""41867""
","
","
","""event"",""trial"",""time""
""fullscreenenter"",""1"",""19825""
","""event"",""trial"",""time""
""fullscreenexit"",""3"",""41867""
",,5.799999952,run_exp/static/images/task_images/land.jpg,65,,,,,,,27,,,6,,,,,,,,197778,1,6,FALSE,,,
dig,166,566424,0.0-53.0-0.0,"""event"",""trial"",""time""
""fullscreenenter"",""1"",""19825""
""fullscreenexit"",""3"",""41867""
","
","
","""event"",""trial"",""time""
""fullscreenenter"",""1"",""19825""
","""event"",""trial"",""time""
""fullscreenexit"",""3"",""41867""
",,,,,,,,,,,,"[{""stimulus"":""run_exp/static/images/task_images/dig.jpg"",""time"":0.2999999523162842},{""stimulus"":""run_exp/static/images/task_images/land.jpg"",""time"":1005},{""stimulus"":""run_exp/static/images/task_images/dig.jpg"",""time"":2000.8999998569489}]",[],6,,,,,,,,,,,,,,
harvest,167,567439,0.0-53.0-1.0,"""event"",""trial"",""time""
""fullscreenenter"",""1"",""19825""
""fullscreenexit"",""3"",""41867""
","
","
","""event"",""trial"",""time""
""fullscreenenter"",""1"",""19825""
","""event"",""trial"",""time""
""fullscreenexit"",""3"",""41867""
",,null,run_exp/static/images/task_images/gems/27.jpg,null,,,,,,,21,,,6,,,,,27,0.78916613,0.777777778,,,,,,,
decision,168,567579,0.0-53.0-2.0,"""event"",""trial"",""time""
""fullscreenenter"",""1"",""19825""
""fullscreenexit"",""3"",""41867""
","
","
","""event"",""trial"",""time""
""fullscreenenter"",""1"",""19825""
","""event"",""trial"",""time""
""fullscreenexit"",""3"",""41867""
",,139.1000001,run_exp/static/images/task_images/land.jpg,65,,,,,,,21,,,6,,,,,,,,201942,1,7,FALSE,,,
dig,169,570456,0.0-54.0-0.0,"""event"",""trial"",""time""
""fullscreenenter"",""1"",""19825""
""fullscreenexit"",""3"",""41867""
","
","
","""event"",""trial"",""time""
""fullscreenenter"",""1"",""19825""
","""event"",""trial"",""time""
""fullscreenexit"",""3"",""41867""
",,,,,,,,,,,,"[{""stimulus"":""run_exp/static/images/task_images/dig.jpg"",""time"":0.3000001907348633},{""stimulus"":""run_exp/static/images/task_images/land.jpg"",""time"":958.3000001907349},{""stimulus"":""run_exp/static/images/task_images/dig.jpg"",""time"":1907.4000000953674}]",[],6,,,,,,,,,,,,,,
harvest,170,571458,0.0-54.0-1.0,"""event"",""trial"",""time""
""fullscreenenter"",""1"",""19825""
""fullscreenexit"",""3"",""41867""
","
","
","""event"",""trial"",""time""
""fullscreenenter"",""1"",""19825""
","""event"",""trial"",""time""
""fullscreenexit"",""3"",""41867""
",,null,run_exp/static/images/task_images/gems/21.jpg,null,,,,,,,17,,,6,,,,,21,0.798718618,0.80952381,,,,,,,
decision,171,571808,0.0-54.0-2.0,"""event"",""trial"",""time""
""fullscreenenter"",""1"",""19825""
""fullscreenexit"",""3"",""41867""
","
","
","""event"",""trial"",""time""
""fullscreenenter"",""1"",""19825""
","""event"",""trial"",""time""
""fullscreenexit"",""3"",""41867""
",,348,run_exp/static/images/task_images/land.jpg,65,,,,,,,17,,,6,,,,,,,,206171,1,8,FALSE,,,
dig,172,574476,0.0-55.0-0.0,"""event"",""trial"",""time""
""fullscreenenter"",""1"",""19825""
""fullscreenexit"",""3"",""41867""
","
","
","""event"",""trial"",""time""
""fullscreenenter"",""1"",""19825""
","""event"",""trial"",""time""
""fullscreenexit"",""3"",""41867""
",,,,,,,,,,,,"[{""stimulus"":""run_exp/static/images/task_images/dig.jpg"",""time"":0.20000004768371582},{""stimulus"":""run_exp/static/images/task_images/land.jpg"",""time"":893.7000000476837},{""stimulus"":""run_exp/static/images/task_images/dig.jpg"",""time"":1779}]",[],6,,,,,,,,,,,,,,
harvest,173,575478,0.0-55.0-1.0,"""event"",""trial"",""time""
""fullscreenenter"",""1"",""19825""
""fullscreenexit"",""3"",""41867""
","
","
","""event"",""trial"",""time""
""fullscreenenter"",""1"",""19825""
","""event"",""trial"",""time""
""fullscreenexit"",""3"",""41867""
",,null,run_exp/static/images/task_images/gems/17.jpg,null,,,,,,,14,,,6,,,,,17,0.819179427,0.823529412,,,,,,,
decision,174,575723,0.0-55.0-2.0,"""event"",""trial"",""time""
""fullscreenenter"",""1"",""19825""
""fullscreenexit"",""3"",""41867""
","
","
","""event"",""trial"",""time""
""fullscreenenter"",""1"",""19825""
","""event"",""trial"",""time""
""fullscreenexit"",""3"",""41867""
",,242.5999999,run_exp/static/images/task_images/land.jpg,65,,,,,,,14,,,6,,,,,,,,210086,1,9,FALSE,,,
dig,175,578496,0.0-56.0-0.0,"""event"",""trial"",""time""
""fullscreenenter"",""1"",""19825""
""fullscreenexit"",""3"",""41867""
","
","
","""event"",""trial"",""time""
""fullscreenenter"",""1"",""19825""
","""event"",""trial"",""time""
""fullscreenexit"",""3"",""41867""
",,,,,,,,,,,,"[{""stimulus"":""run_exp/static/images/task_images/dig.jpg"",""time"":0.3000001907348633},{""stimulus"":""run_exp/static/images/task_images/land.jpg"",""time"":932.6000001430511},{""stimulus"":""run_exp/static/images/task_images/dig.jpg"",""time"":1839.6000001430511}]",[],6,,,,,,,,,,,,,,
harvest,176,579498,0.0-56.0-1.0,"""event"",""trial"",""time""
""fullscreenenter"",""1"",""19825""
""fullscreenexit"",""3"",""41867""
","
","
","""event"",""trial"",""time""
""fullscreenenter"",""1"",""19825""
","""event"",""trial"",""time""
""fullscreenexit"",""3"",""41867""
",,null,run_exp/static/images/task_images/gems/14.jpg,null,,,,,,,10,,,6,,,,,14,0.746776043,0.714285714,,,,,,,
decision,177,579917,0.0-56.0-2.0,"""event"",""trial"",""time""
""fullscreenenter"",""1"",""19825""
""fullscreenexit"",""3"",""41867""
","
","
","""event"",""trial"",""time""
""fullscreenenter"",""1"",""19825""
","""event"",""trial"",""time""
""fullscreenexit"",""3"",""41867""
",,417.1999998,run_exp/static/images/task_images/land.jpg,76,,,,,,,10,,,6,,,,,,,,214280,1,10,TRUE,,,
travel,178,589512,0.0-57.0-0.0,"""event"",""trial"",""time""
""fullscreenenter"",""1"",""19825""
""fullscreenexit"",""3"",""41867""
","
","
","""event"",""trial"",""time""
""fullscreenenter"",""1"",""19825""
","""event"",""trial"",""time""
""fullscreenexit"",""3"",""41867""
",,,,,,,,,,,,"[{""stimulus"":""run_exp/static/images/task_images/rocket-01.jpg"",""time"":0.2999999523162842},{""stimulus"":""run_exp/static/images/task_images/rocket-02.jpg"",""time"":1072.4000000953674},{""stimulus"":""run_exp/static/images/task_images/rocket-03.jpg"",""time"":2134.7000000476837},{""stimulus"":""run_exp/static/images/task_images/rocket-04.jpg"",""time"":3205.4000000953674},{""stimulus"":""run_exp/static/images/task_images/rocket-05.jpg"",""time"":4258.900000095367},{""stimulus"":""run_exp/static/images/task_images/rocket-06.jpg"",""time"":5325.400000095367},{""stimulus"":""run_exp/static/images/task_images/rocket-07.jpg"",""time"":6386.599999904633},{""stimulus"":""run_exp/static/images/task_images/rocket-08.jpg"",""time"":7460},{""stimulus"":""run_exp/static/images/task_images/rocket-09.jpg"",""time"":8526.299999952316}]",[],6,,,,,,,,,,,,,,
alien_welcome,179,594515,0.0-57.0-1.0,"""event"",""trial"",""time""
""fullscreenenter"",""1"",""19825""
""fullscreenexit"",""3"",""41867""
","
","
","""event"",""trial"",""time""
""fullscreenenter"",""1"",""19825""
","""event"",""trial"",""time""
""fullscreenexit"",""3"",""41867""
",,null,run_exp/static/images/task_images/aliens/old_aliens/planet/alien_planet-1.jpg,null,,,,,,,,,,,,,1,"5,13,49,33,64,51,1,24,18,12,50,21,35,60,22,62,67,17,16,2,61,37,48,47,65,26,78,45,53,41,30,9,72,59,3,19",,,,,,,,,,
land,180,595018,0.0-57.0-2.0,"""event"",""trial"",""time""
""fullscreenenter"",""1"",""19825""
""fullscreenexit"",""3"",""41867""
","
","
","""event"",""trial"",""time""
""fullscreenenter"",""1"",""19825""
","""event"",""trial"",""time""
""fullscreenexit"",""3"",""41867""
",,null,run_exp/static/images/task_images/land.jpg,null,,,,,,,104,,,7,,,,,,,,,,,,,,
dig,181,597033,0.0-57.0-3.0,"""event"",""trial"",""time""
""fullscreenenter"",""1"",""19825""
""fullscreenexit"",""3"",""41867""
","
","
","""event"",""trial"",""time""
""fullscreenenter"",""1"",""19825""
","""event"",""trial"",""time""
""fullscreenexit"",""3"",""41867""
",,,,,,,,,,,,"[{""stimulus"":""run_exp/static/images/task_images/dig.jpg"",""time"":0.40000009536743164},{""stimulus"":""run_exp/static/images/task_images/land.jpg"",""time"":681.5},{""stimulus"":""run_exp/static/images/task_images/dig.jpg"",""time"":1348.2999999523163}]",[],7,,,,,,,,,,,,,,
harvest,182,598049,0.0-57.0-4.0,"""event"",""trial"",""time""
""fullscreenenter"",""1"",""19825""
""fullscreenexit"",""3"",""41867""
","
","
","""event"",""trial"",""time""
""fullscreenenter"",""1"",""19825""
","""event"",""trial"",""time""
""fullscreenexit"",""3"",""41867""
",,null,run_exp/static/images/task_images/gems/104.jpg,null,,,,,,,87,,,7,,,,,104,0.839855805,0.836538462,,,,,,,
decision,183,598532,0.0-57.0-5.0,"""event"",""trial"",""time""
""fullscreenenter"",""1"",""19825""
""fullscreenexit"",""3"",""41867""
","
","
","""event"",""trial"",""time""
""fullscreenenter"",""1"",""19825""
","""event"",""trial"",""time""
""fullscreenexit"",""3"",""41867""
",,480.8,run_exp/static/images/task_images/land.jpg,65,,,,,,,87,,,7,,,,,,,,232895,1,0,FALSE,,,
dig,184,601068,0.0-58.0-0.0,"""event"",""trial"",""time""
""fullscreenenter"",""1"",""19825""
""fullscreenexit"",""3"",""41867""
","
","
","""event"",""trial"",""time""
""fullscreenenter"",""1"",""19825""
","""event"",""trial"",""time""
""fullscreenexit"",""3"",""41867""
",,,,,,,,,,,,"[{""stimulus"":""run_exp/static/images/task_images/dig.jpg"",""time"":0.20000004768371582},{""stimulus"":""run_exp/static/images/task_images/land.jpg"",""time"":846.0999999046326},{""stimulus"":""run_exp/static/images/task_images/dig.jpg"",""time"":1682.3999998569489}]",[],7,,,,,,,,,,,,,,
harvest,185,602087,0.0-58.0-1.0,"""event"",""trial"",""time""
""fullscreenenter"",""1"",""19825""
""fullscreenexit"",""3"",""41867""
","
","
","""event"",""trial"",""time""
""fullscreenenter"",""1"",""19825""
","""event"",""trial"",""time""
""fullscreenexit"",""3"",""41867""
",,null,run_exp/static/images/task_images/gems/87.jpg,null,,,,,,,65,,,7,,,,,87,0.75189268,0.747126437,,,,,,,
decision,186,603152,0.0-58.0-2.0,"""event"",""trial"",""time""
""fullscreenenter"",""1"",""19825""
""fullscreenexit"",""3"",""41867""
","
","
","""event"",""trial"",""time""
""fullscreenenter"",""1"",""19825""
","""event"",""trial"",""time""
""fullscreenexit"",""3"",""41867""
",,1063.7,run_exp/static/images/task_images/land.jpg,65,,,,,,,65,,,7,,,,,,,,237515,1,1,FALSE,,,
dig,187,605104,0.0-59.0-0.0,"""event"",""trial"",""time""
""fullscreenenter"",""1"",""19825""
""fullscreenexit"",""3"",""41867""
","
","
","""event"",""trial"",""time""
""fullscreenenter"",""1"",""19825""
","""event"",""trial"",""time""
""fullscreenexit"",""3"",""41867""
",,,,,,,,,,,,"[{""stimulus"":""run_exp/static/images/task_images/dig.jpg"",""time"":0.39999985694885254},{""stimulus"":""run_exp/static/images/task_images/land.jpg"",""time"":661.6999998092651},{""stimulus"":""run_exp/static/images/task_images/dig.jpg"",""time"":1297.5}]",[],7,,,,,,,,,,,,,,
harvest,188,606107,0.0-59.0-1.0,"""event"",""trial"",""time""
""fullscreenenter"",""1"",""19825""
""fullscreenexit"",""3"",""41867""
","
","
","""event"",""trial"",""time""
""fullscreenenter"",""1"",""19825""
","""event"",""trial"",""time""
""fullscreenexit"",""3"",""41867""
",,null,run_exp/static/images/task_images/gems/65.jpg,null,,,,,,,56,,,7,,,,,65,0.863663327,0.861538462,,,,,,,
decision,189,607182,0.0-59.0-2.0,"""event"",""trial"",""time""
""fullscreenenter"",""1"",""19825""
""fullscreenexit"",""3"",""41867""
","
","
","""event"",""trial"",""time""
""fullscreenenter"",""1"",""19825""
","""event"",""trial"",""time""
""fullscreenexit"",""3"",""41867""
",,1072.8,run_exp/static/images/task_images/land.jpg,65,,,,,,,56,,,7,,,,,,,,241545,1,2,FALSE,,,
dig,190,609123,0.0-60.0-0.0,"""event"",""trial"",""time""
""fullscreenenter"",""1"",""19825""
""fullscreenexit"",""3"",""41867""
","
","
","""event"",""trial"",""time""
""fullscreenenter"",""1"",""19825""
","""event"",""trial"",""time""
""fullscreenexit"",""3"",""41867""
",,,,,,,,,,,,"[{""stimulus"":""run_exp/static/images/task_images/dig.jpg"",""time"":0.20000004768371582},{""stimulus"":""run_exp/static/images/task_images/land.jpg"",""time"":651.2999999523163},{""stimulus"":""run_exp/static/images/task_images/dig.jpg"",""time"":1288.2000000476837}]",[],7,,,,,,,,,,,,,,
harvest,191,610140,0.0-60.0-1.0,"""event"",""trial"",""time""
""fullscreenenter"",""1"",""19825""
""fullscreenexit"",""3"",""41867""
","
","
","""event"",""trial"",""time""
""fullscreenenter"",""1"",""19825""
","""event"",""trial"",""time""
""fullscreenexit"",""3"",""41867""
",,null,run_exp/static/images/task_images/gems/56.jpg,null,,,,,,,44,,,7,,,,,56,0.777952315,0.785714286,,,,,,,
decision,192,610458,0.0-60.0-2.0,"""event"",""trial"",""time""
""fullscreenenter"",""1"",""19825""
""fullscreenexit"",""3"",""41867""
","
","
","""event"",""trial"",""time""
""fullscreenenter"",""1"",""19825""
","""event"",""trial"",""time""
""fullscreenexit"",""3"",""41867""
",,316,run_exp/static/images/task_images/land.jpg,65,,,,,,,44,,,7,,,,,,,,244821,1,3,FALSE,,,
dig,193,613157,0.0-61.0-0.0,"""event"",""trial"",""time""
""fullscreenenter"",""1"",""19825""
""fullscreenexit"",""3"",""41867""
","
","
","""event"",""trial"",""time""
""fullscreenenter"",""1"",""19825""
","""event"",""trial"",""time""
""fullscreenexit"",""3"",""41867""
",,,,,,,,,,,,"[{""stimulus"":""run_exp/static/images/task_images/dig.jpg"",""time"":0.20000004768371582},{""stimulus"":""run_exp/static/images/task_images/land.jpg"",""time"":906.1000001430511},{""stimulus"":""run_exp/static/images/task_images/dig.jpg"",""time"":1791.7000000476837}]",[],7,,,,,,,,,,,,,,
harvest,194,614174,0.0-61.0-1.0,"""event"",""trial"",""time""
""fullscreenenter"",""1"",""19825""
""fullscreenexit"",""3"",""41867""
","
","
","""event"",""trial"",""time""
""fullscreenenter"",""1"",""19825""
","""event"",""trial"",""time""
""fullscreenexit"",""3"",""41867""
",,null,run_exp/static/images/task_images/gems/44.jpg,null,,,,,,,36,,,7,,,,,44,0.814830333,0.818181818,,,,,,,
decision,195,615145,0.0-61.0-2.0,"""event"",""trial"",""time""
""fullscreenenter"",""1"",""19825""
""fullscreenexit"",""3"",""41867""
","
","
","""event"",""trial"",""time""
""fullscreenenter"",""1"",""19825""
","""event"",""trial"",""time""
""fullscreenexit"",""3"",""41867""
",,970.3000002,run_exp/static/images/task_images/land.jpg,65,,,,,,,36,,,7,,,,,,,,249509,1,4,FALSE,,,
dig,196,617192,0.0-62.0-0.0,"""event"",""trial"",""time""
""fullscreenenter"",""1"",""19825""
""fullscreenexit"",""3"",""41867""
","
","
","""event"",""trial"",""time""
""fullscreenenter"",""1"",""19825""
","""event"",""trial"",""time""
""fullscreenexit"",""3"",""41867""
",,,,,,,,,,,,"[{""stimulus"":""run_exp/static/images/task_images/dig.jpg"",""time"":0.2999999523162842},{""stimulus"":""run_exp/static/images/task_images/land.jpg"",""time"":677.4000000953674},{""stimulus"":""run_exp/static/images/task_images/dig.jpg"",""time"":1358.4000000953674}]",[],7,,,,,,,,,,,,,,
harvest,197,618208,0.0-62.0-1.0,"""event"",""trial"",""time""
""fullscreenenter"",""1"",""19825""
""fullscreenexit"",""3"",""41867""
","
","
","""event"",""trial"",""time""
""fullscreenenter"",""1"",""19825""
","""event"",""trial"",""time""
""fullscreenexit"",""3"",""41867""
",,null,run_exp/static/images/task_images/gems/36.jpg,null,,,,,,,29,,,7,,,,,36,0.812979597,0.805555556,,,,,,,
