trial_type,trial_index,time_elapsed,internal_node_id,success,rt,stimulus,key_press,prompt,subject_id,age,gender,button_pressed,next_reward,animation_sequence,responses,planet,curr_prac_trial,n_prac_rounds,alien,aliens,reward_received,decay_rate_actual,decay_rate_exp,time_in_block,block_num,prt,last_trial_on_planet,button_html,bonus,num_failures
pavlovia,0,229,0.0-0.0,,,,,,,,,,,,,,,,,,,,,,,,,,,
fullscreen,1,4605,0.0-1.0,TRUE,,,,,,,,,,,,,,,,,,,,,,,,,,
instruc_welcome,2,14640,0.0-2.0,,null,run_exp/static/audio/clip_1_welcome.m4a,null,"<p>Howdy! In this experiment, you’ll be an explorer traveling through space to collect space treasure.</p><p>Your mission is to collect as much treasure as possible.</p><br><br><p><img src='run_exp/static/images/task_images/opening_img-01.jpg' height='300' width='auto'></p>",QFth44Y2vlatbHS_1Y3uCvx5VSxv8Zo_MLRP_b0WEY6McWwsLcSa,15.54,female,,,,,,,,,,,,,,,,,,,
audio-keyboard-response,3,31511,0.0-3.0,,null,run_exp/static/audio/clip_2_move.m4a,null,,,,,,,,,,,,,,,,,,,,,,,
welcome_dec,4,48826,0.0-4.0,,17309,"<p>Howdy! In this experiment, you’ll be an explorer traveling through space to collect space treasure.</p><p>Your mission is to collect as much treasure as possible.</p><br><br><p><img src='run_exp/static/images/task_images/opening_img-01.jpg' height='300' width='auto'></p>",,,,,,1,,,,,,,,,,,,,,,,,,
html-keyboard-response,5,51572,0.0-5.0,,2721,"<p>Howdy! In this experiment, you’ll be an explorer traveling through space to collect space treasure.</p><p>Your mission is to collect as much treasure as possible.</p><br><br><p><img src='run_exp/static/images/task_images/opening_img-01.jpg' height='300' width='auto'></p><button class=""jspsych-html-btn-unchosen""><img src=""run_exp/static/images/task_images/planet-01.jpg"" height=""50""></button><button class=""jspsych-html-btn-chosen""><img src=""run_exp/static/images/task_images/planet-02.jpg"" height=""50""></button><p><b>[press the space bar to lock in your answer]<b><br></p>",32,,,,,,,,,,,,,,,,,,,,,,,
instruc_goal,6,61722,0.0-6.0-0.0,,null,run_exp/static/audio/clip_3_goal.m4a,null,"<p> As a space explorer, you’ll visit different planets to dig for space treasure, these pink gems.</p> <p> The more treasure you dig up, the more bonus money you’ll win! </p><br><br><p><img src='run_exp/static/images/task_images/pink_gem.jpg' height='300' width='auto'></p>",,,,,,,,,,,,,,,,,,,,,,
instruc_goal,7,67621,0.0-6.0-1.0,,5895,"<p> As a space explorer, you’ll visit different planets to dig for space treasure, these pink gems.</p> <p> The more treasure you dig up, the more bonus money you’ll win! </p><br><br><p><img src='run_exp/static/images/task_images/pink_gem.jpg' height='300' width='auto'></p>",,,,,,1,,,,,,,,,,,,,,,,,,
html-keyboard-response,8,69330,0.0-6.0-2.0,,1706,"<p> As a space explorer, you’ll visit different planets to dig for space treasure, these pink gems.</p> <p> The more treasure you dig up, the more bonus money you’ll win! </p><br><br><p><img src='run_exp/static/images/task_images/pink_gem.jpg' height='300' width='auto'></p><button class=""jspsych-html-btn-unchosen""><img src=""run_exp/static/images/task_images/planet-01.jpg"" height=""50""></button><button class=""jspsych-html-btn-chosen""><img src=""run_exp/static/images/task_images/planet-02.jpg"" height=""50""></button><p><b>[press the space bar to lock in your answer]<b><br></p>",32,,,,,,,,,,,,,,,,,,,,,,,
instruc_dig,9,85395,0.0-7.0-0.0,,null,run_exp/static/audio/clip_4_dig.m4a,null,,,,,,100,,,,,,,,,,,,,,,,,
instruc_dig_try,10,95285,0.0-7.0-1.0,,9885,"<p> When you’ve arrived at a new planet, you will dig once. </p> <p>Then, you get to decide if you want to stay on the planet and dig again or travel to a new planet and dig there.</p> <p> To stay and dig, press the letter <strong>‘A’</strong> on your keyboard. Try pressing it now! </p><p><img src='run_exp/static/images/task_images/land.jpg'  height='700' width='auto'></p>",65,"<p> When you’ve arrived at a new planet, you will dig once. </p> <p>Then, you get to decide if you want to stay on the planet and dig again or travel to a new planet and dig there.</p> <p> To stay and dig, press the letter <strong>‘A’</strong> on your keyboard. Try pressing it now! </p><p><img src='run_exp/static/images/task_images/land.jpg'  height='700' width='auto'></p>",,,,,100,,,,,,,,,,,,,,,,,
dig_prac,11,97589,0.0-7.0-2.0,,,,,,,,,,,"[{""stimulus"":""run_exp/static/images/task_images/dig.jpg"",""time"":0},{""stimulus"":""run_exp/static/images/task_images/land.jpg"",""time"":668},{""stimulus"":""run_exp/static/images/task_images/dig.jpg"",""time"":1335}]",[],,,,,,,,,,,,,,,
instruc_travel,12,133873,0.0-7.0-3.0,,null,run_exp/static/audio/clip_5_travel.m4a,null,"<p>Every time you dig up gems, there are less gems on the planet, so the more you dig on a planet the fewer gems you’ll get with each dig.</p><p>When gems are running low, you may want to travel to a new planet. </p> <p>  Planets are very far apart in this galaxy, so it will take some time to travel between them. </p> <br><p>There are lots and lots of planets for you to visit, so you won’t be able to return to any planets you’ve seen before. </p><br><p>To leave this planet and travel to a new one, press the letter <strong>‘L’</strong> on your keyboard. Try pressing it now! </p><p><img src='run_exp/static/images/task_images/rocket-01.jpg'  height='600' width='auto'></p>",,,,,,,,,,,,,,,,,,,,,,
instruc_travel_try,13,136626,0.0-7.0-4.0,,2747,"<p>Every time you dig up gems, there are less gems on the planet, so the more you dig on a planet the fewer gems you’ll get with each dig.</p><p>When gems are running low, you may want to travel to a new planet. </p> <p>  Planets are very far apart in this galaxy, so it will take some time to travel between them. </p> <br><p>There are lots and lots of planets for you to visit, so you won’t be able to return to any planets you’ve seen before. </p><br><p>To leave this planet and travel to a new one, press the letter <strong>‘L’</strong> on your keyboard. Try pressing it now! </p><p><img src='run_exp/static/images/task_images/rocket-01.jpg'  height='600' width='auto'></p>",76,"<p>Every time you dig up gems, there are less gems on the planet, so the more you dig on a planet the fewer gems you’ll get with each dig.</p><p>When gems are running low, you may want to travel to a new planet. </p> <p>  Planets are very far apart in this galaxy, so it will take some time to travel between them. </p> <br><p>There are lots and lots of planets for you to visit, so you won’t be able to return to any planets you’ve seen before. </p><br><p>To leave this planet and travel to a new one, press the letter <strong>‘L’</strong> on your keyboard. Try pressing it now! </p><p><img src='run_exp/static/images/task_images/rocket-01.jpg'  height='600' width='auto'></p>",,,,,,,,,,,,,,,,,,,,,,
travel_prac,14,146627,0.0-7.0-5.0,,,,,,,,,,,"[{""stimulus"":""run_exp/static/images/task_images/rocket-01.jpg"",""time"":0},{""stimulus"":""run_exp/static/images/task_images/rocket-02.jpg"",""time"":1116},{""stimulus"":""run_exp/static/images/task_images/rocket-03.jpg"",""time"":2229},{""stimulus"":""run_exp/static/images/task_images/rocket-04.jpg"",""time"":3333},{""stimulus"":""run_exp/static/images/task_images/rocket-05.jpg"",""time"":4455},{""stimulus"":""run_exp/static/images/task_images/rocket-06.jpg"",""time"":5561},{""stimulus"":""run_exp/static/images/task_images/rocket-07.jpg"",""time"":6666},{""stimulus"":""run_exp/static/images/task_images/rocket-08.jpg"",""time"":7778},{""stimulus"":""run_exp/static/images/task_images/rocket-09.jpg"",""time"":8890}]",[],0,,,,,,,,,,,,,,
instruc_alien_greet,15,173852,0.0-7.0-6.0,,null,run_exp/static/audio/clip_6_alien.m4a,null,"<p>When you arrive at a new planet, the alien who owns the treasure mine on that planet will greet you!</p><p>The better an alien takes care of their mine the easier it is to dig for gems. Some aliens take better care of their mine than others. So, you won’t get exactly the same amount of gems on each planet.</p><p>What the alien looks like does not tell you anything about how many gems there are on the planet.</p><br><p><img src=""run_exp/static/images/task_images/aliens/instructions_aliens/planet/alien_planet-1.jpg""  height=""600"" width=""auto""></p>",,,,,,,,,,,,,,,,,,,,,,
instruc_alien_greet,16,187624,0.0-7.0-7.0,,13768,"<p>When you arrive at a new planet, the alien who owns the treasure mine on that planet will greet you!</p><p>The better an alien takes care of their mine the easier it is to dig for gems. Some aliens take better care of their mine than others. So, you won’t get exactly the same amount of gems on each planet.</p><p>What the alien looks like does not tell you anything about how many gems there are on the planet.</p><br><p><img src=""run_exp/static/images/task_images/aliens/instructions_aliens/planet/alien_planet-1.jpg""  height=""600"" width=""auto""></p>",,,,,,1,,,,,,,,,,,,,,,,,,
html-keyboard-response,17,191193,0.0-7.0-8.0,,3568,"<p>When you arrive at a new planet, the alien who owns the treasure mine on that planet will greet you!</p><p>The better an alien takes care of their mine the easier it is to dig for gems. Some aliens take better care of their mine than others. So, you won’t get exactly the same amount of gems on each planet.</p><p>What the alien looks like does not tell you anything about how many gems there are on the planet.</p><br><p><img src=""run_exp/static/images/task_images/aliens/instructions_aliens/planet/alien_planet-1.jpg""  height=""600"" width=""auto""></p><button class=""jspsych-html-btn-unchosen""><img src=""run_exp/static/images/task_images/planet-01.jpg"" height=""50""></button><button class=""jspsych-html-btn-chosen""><img src=""run_exp/static/images/task_images/planet-02.jpg"" height=""50""></button><p><b>[press the space bar to lock in your answer]<b><br></p>",32,,,,,,,,,,,,,,,,,,,,,,,
time_out,18,202349,0.0-8.0-0.0,,null,run_exp/static/audio/clip_7_timeout.m4a,null,"<p>If you don't make your choice fast enough, you’ll have to wait a few seconds before you can make another one.</p><p>You can’t dig for more gems or travel to new planets. You just have to sit and wait.</p><br><p><img src='run_exp/static/images/task_images/time_out.jpg'  height='600' width='auto'></p>",,,,,,,,,,,,,,,,,,,,,,
time_out,19,204689,0.0-8.0-1.0,,2338,"<p>If you don't make your choice fast enough, you’ll have to wait a few seconds before you can make another one.</p><p>You can’t dig for more gems or travel to new planets. You just have to sit and wait.</p><br><p><img src='run_exp/static/images/task_images/time_out.jpg'  height='600' width='auto'></p>",,,,,,1,,,,,,,,,,,,,,,,,,
html-keyboard-response,20,205713,0.0-8.0-2.0,,1023,"<p>If you don't make your choice fast enough, you’ll have to wait a few seconds before you can make another one.</p><p>You can’t dig for more gems or travel to new planets. You just have to sit and wait.</p><br><p><img src='run_exp/static/images/task_images/time_out.jpg'  height='600' width='auto'></p><button class=""jspsych-html-btn-unchosen""><img src=""run_exp/static/images/task_images/planet-01.jpg"" height=""50""></button><button class=""jspsych-html-btn-chosen""><img src=""run_exp/static/images/task_images/planet-02.jpg"" height=""50""></button><p><b>[press the space bar to lock in your answer]<b><br></p>",32,,,,,,,,,,,,,,,,,,,,,,,
instruc_break,21,221409,0.0-9.0-0.0,,null,run_exp/static/audio/clip_8_break.m4a,null,"<p> After digging and traveling for a while, you’ll be able to take a break at home base. </p><p>The game will last 20 minutes no matter what.</p><p>You will visit home base every 5 minutes, so, you will visit home base three times during the game.</p><br><p><img src='run_exp/static/images/task_images/home_base.jpg' height='600' width='auto'></p>",,,,,,,,,,,,,,,,,,,,,,
instruc_break,22,229920,0.0-9.0-1.0,,8508,"<p> After digging and traveling for a while, you’ll be able to take a break at home base. </p><p>The game will last 20 minutes no matter what.</p><p>You will visit home base every 5 minutes, so, you will visit home base three times during the game.</p><br><p><img src='run_exp/static/images/task_images/home_base.jpg' height='600' width='auto'></p>",,,,,,1,,,,,,,,,,,,,,,,,,
html-keyboard-response,23,233186,0.0-9.0-2.0,,3263,"<p> After digging and traveling for a while, you’ll be able to take a break at home base. </p><p>The game will last 20 minutes no matter what.</p><p>You will visit home base every 5 minutes, so, you will visit home base three times during the game.</p><br><p><img src='run_exp/static/images/task_images/home_base.jpg' height='600' width='auto'></p><button class=""jspsych-html-btn-unchosen""><img src=""run_exp/static/images/task_images/planet-01.jpg"" height=""50""></button><button class=""jspsych-html-btn-chosen""><img src=""run_exp/static/images/task_images/planet-02.jpg"" height=""50""></button><p><b>[press the space bar to lock in your answer]<b><br></p>",32,,,,,,,,,,,,,,,,,,,,,,,
instruc_prac_game,24,243319,0.0-10.0-0.0,,null,run_exp/static/audio/clip_9_practice.m4a,null,"<p> Are you ready to play a practice game? </p> <p>In this practice game, you'll be digging up barrels of gems. But, in the real game, you'll be digging up the gems themselves. </p>",,,,,,,,,,,,,,,,,,,,,,
html-button-response,25,246697,0.0-10.0-1.0,,3375,"<p> Are you ready to play a practice game? </p> <p>In this practice game, you'll be digging up barrels of gems. But, in the real game, you'll be digging up the gems themselves. </p>",,,,,,0,,,,,,,,,,,,,,,,,,
alien_welcome_prac,26,251701,0.0-11.0-0.0,,null,run_exp/static/images/task_images/aliens/practice_aliens/planet/alien_planet-5.jpg,null,,,,,,,,,,,,,,,,,,,,,,,
land_prac,27,252203,0.0-11.0-1.0,,null,run_exp/static/images/task_images/land.jpg,null,,,,,,103,,,0,,,,,,,,,,,,,,
dig_prac,28,254208,0.0-11.0-2.0,,,,,,,,,,,"[{""stimulus"":""run_exp/static/images/task_images/dig.jpg"",""time"":1},{""stimulus"":""run_exp/static/images/task_images/land.jpg"",""time"":670},{""stimulus"":""run_exp/static/images/task_images/dig.jpg"",""time"":1335}]",[],,,,,,,,,,,,,,,
harvest_prac,29,255227,0.0-11.0-3.0,,null,run_exp/static/images/task_images/barrel_text.jpg,null,,,,,,,,,,,,,,,,,,,,,,,
decision_prac,30,256114,0.0-11.0-4.0,,886,run_exp/static/images/task_images/land.jpg,76,,,,,,,,,,1,,,,,,,,,,,,,
travel,31,265231,0.0-12.0-0.0,,,,,,,,,,,"[{""stimulus"":""run_exp/static/images/task_images/rocket-01.jpg"",""time"":0},{""stimulus"":""run_exp/static/images/task_images/rocket-02.jpg"",""time"":1015},{""stimulus"":""run_exp/static/images/task_images/rocket-03.jpg"",""time"":2027},{""stimulus"":""run_exp/static/images/task_images/rocket-04.jpg"",""time"":3038},{""stimulus"":""run_exp/static/images/task_images/rocket-05.jpg"",""time"":4051},{""stimulus"":""run_exp/static/images/task_images/rocket-06.jpg"",""time"":5061},{""stimulus"":""run_exp/static/images/task_images/rocket-07.jpg"",""time"":6076},{""stimulus"":""run_exp/static/images/task_images/rocket-08.jpg"",""time"":7087},{""stimulus"":""run_exp/static/images/task_images/rocket-09.jpg"",""time"":8097}]",[],0,,,,,,,,,,,,,,
alien_welcome_prac,32,270232,0.0-12.0-1.0,,null,run_exp/static/images/task_images/aliens/practice_aliens/planet/alien_planet-4.jpg,null,,,,,,,,,,,,,,,,,,,,,,,
land_prac,33,270738,0.0-12.0-2.0,,null,run_exp/static/images/task_images/land.jpg,null,,,,,,102,,,0,,,,,,,,,,,,,,
dig_prac,34,272749,0.0-12.0-3.0,,,,,,,,,,,"[{""stimulus"":""run_exp/static/images/task_images/dig.jpg"",""time"":0},{""stimulus"":""run_exp/static/images/task_images/land.jpg"",""time"":678},{""stimulus"":""run_exp/static/images/task_images/dig.jpg"",""time"":1337}]",[],,,,,,,,,,,,,,,
harvest_prac,35,273770,0.0-12.0-4.0,,null,run_exp/static/images/task_images/barrel_text.jpg,null,,,,,,,,,,,,,,,,,,,,,,,
decision_prac,36,274138,0.0-12.0-5.0,,366,run_exp/static/images/task_images/land.jpg,65,,,,,,,,,,2,,,,,,,,,,,,,
dig_prac,37,276148,0.0-13.0-0.0,,,,,,,,,,,"[{""stimulus"":""run_exp/static/images/task_images/dig.jpg"",""time"":0},{""stimulus"":""run_exp/static/images/task_images/land.jpg"",""time"":667},{""stimulus"":""run_exp/static/images/task_images/dig.jpg"",""time"":1346}]",[],,,,,,,,,,,,,,,
harvest_prac,38,277254,0.0-13.0-1.0,,null,run_exp/static/images/task_images/barrel_text.jpg,null,,,,,,,,,,,,,,,,,,,,,,,
decision_prac,39,280268,0.0-13.0-2.0,,null,run_exp/static/images/task_images/land.jpg,null,,,,,,,,,,3,,,,,,,,,,,,,
time_out,40,282281,0.0-14.0-0.0,,null,run_exp/static/images/task_images/time_out.jpg,null,,,,,,,,,,,,,,,,,,,,,,,
decision_prac,41,285388,0.0-14.0-1.0,,null,run_exp/static/images/task_images/land.jpg,null,,,,,,,,,,4,,,,,,,,,,,,,
time_out,42,287407,0.0-15.0-0.0,,null,run_exp/static/images/task_images/time_out.jpg,null,,,,,,,,,,,,,,,,,,,,,,,
decision_prac,43,287618,0.0-15.0-1.0,,198,run_exp/static/images/task_images/land.jpg,65,,,,,,,,,,,1,,,,,,,,,,,,
quiz_instruc,44,300834,0.0-16.0-0.0,,13210,run_exp/static/audio/clip_10_quiz.m4a,,,,,,0,,,,,,,,,,,,,,,,,,
instruc_repeat,45,343609,0.0-16.0-1.0,,null,"<p> Are you ready to play a practice game? </p> <p>In this practice game, you'll be digging up barrels of gems. But, in the real game, you'll be digging up the gems themselves. </p>",null,"<p>In this game, your goal is to collect as many gems as you can. That’s how you will win bonus money. </p> <p>The entire game will last 20 minutes no matter how many gems you collect or how many planets you visit. </p><p>To stay on a planet and dig again, press the letter A on your keyboard. To leave for a new planet, press the letter L.</p><p>The more you dig on a planet, the fewer gems you’ll get with each dig which is why you might consider leaving for a new planet. </p><p>When you arrive at a new planet, you’ll be greeted by an alien. What the alien looks like does not tell you anything about how much treasure is on the planet. </p>",,,,,,,,,,,,,,,,,,,,,,
instruc_repeat_continue,46,346185,0.0-16.0-2.0,,2575,"<p> Are you ready to play a practice game? </p> <p>In this practice game, you'll be digging up barrels of gems. But, in the real game, you'll be digging up the gems themselves. </p>",,,,,,0,,,,,,,,,,,,,,,,,,
quiz_q_1_ask,47,359745,0.0-16.0-3.0,,13557,run_exp/static/audio/clip_11_q1_ask.m4a,,,,,,2,,,,,,,,,,,,,,,,,,
quiz_q_1_fb_correct,48,363607,0.0-17.0-0.0,,null,run_exp/static/audio/clip_12_q1_corrrect.m4a,null,<p>That’s correct. You win extra money by collecting more gems.</p>,,,,,,,,,,,,,,,,,,,,,,
quiz_q_2_ask,49,375952,0.0-17.0-1.0,,12343,run_exp/static/audio/clip_14_q2_ask.m4a,,,,,,1,,,,,,,,,,,,,,,,,,
quiz_q_2_fb_correct,50,379967,0.0-18.0-0.0,,null,run_exp/static/audio/clip_15_q2_correct.m4a,null,<p>That’s correct. The experiment is 20 minutes no matter what.</p>,,,,,,,,,,,,,,,,,,,,,,
quiz_q_3_ask,51,385562,0.0-18.0-1.0,,5594,run_exp/static/audio/clip_17_q3_ask.m4a,,,,,,1,,,,,,,,,,,,,,,,,,
quiz_q_3_fb_correct,52,389577,0.0-19.0-0.0,,null,run_exp/static/audio/clip_18_q3_correct.m4a,null,<p> That’s correct. You press the letter L to travel to a new planet.</p>,,,,,,,,,,,,,,,,,,,,,,
quiz_q_4_ask,53,417793,0.0-19.0-1.0,,28214,run_exp/static/audio/clip_20_q4_ask.m4a,,,,,,0,,,,,,,,,,,,,,,,,,
quiz_q_4_fb_correct,54,423186,0.0-20.0-0.0,,null,run_exp/static/audio/clip_21_q4_correct.m4a,null,<p> That’s correct. The more you dig on a planet the fewer gems you’ll get with each dig. </p>,,,,,,,,,,,,,,,,,,,,,,
quiz_q_5_ask,55,438929,0.0-20.0-1.0,,15739,run_exp/static/audio/clip_23_q5_ask.m4a,,,,,,1,,,,,,,,,,,,,,,,,,
quiz_q_5_fb_correct,56,443946,0.0-21.0-0.0,,null,run_exp/static/audio/clip_24_q5_correct.m4a,null,<p> That’s correct. The alien tells you nothing about how much treasure is on the planet.</p>,,,,,,,,,,,,,,,,,,,,,,
quiz_correct,57,447427,0.0-22.0-0.0,,null,run_exp/static/audio/clip_26_correct_quiz.m4a,null,,,,,,,,,,,,,,,,,,,,,,,
quiz_correct_continue,58,466130,0.0-22.0-1.0,,18701,<p>Good job! You're now ready to move on to the real game!</p>,,,,,,0,,,,,,,,,,,,,,,,,,
audio-keyboard-response,59,476291,0.0-22.0-2.0,,null,run_exp/static/audio/clip_28_real_game.m4a,null,,,,,,,,,,,,,,,,,,,,,,,
instruc_begin_exp_contine,60,480170,0.0-22.0-3.0,,3876,"<p>Now that you know how  to dig for space treasure and travel to new planets,you can start exploring! </p><p>Do you want to go over the instructions again or get started with the real game?</p>",,,,,,1,,,,,,1,,,,,,,,,,,,
alien_welcome,61,485189,0.0-23.0-0.0,,null,run_exp/static/images/task_images/aliens/old_aliens/planet/alien_planet-21.jpg,null,,,,,,,,,,,,21,"21,8,30,49,63,50,75,17,65,36,48,51,2,46,54,57,47,45,18,76,80,72,11,43,14,22,1,71,44,13,4,28,62,39,52,10,64,40,27,16,38,68,6,56,55,60,73,61,31",,,,,,,,,,
land,62,485699,0.0-23.0-1.0,,null,run_exp/static/images/task_images/land.jpg,null,,,,,,99,,,1,,,,,,,,,,,,,,
dig,63,487720,0.0-23.0-2.0,,,,,,,,,,,"[{""stimulus"":""run_exp/static/images/task_images/dig.jpg"",""time"":1},{""stimulus"":""run_exp/static/images/task_images/land.jpg"",""time"":670},{""stimulus"":""run_exp/static/images/task_images/dig.jpg"",""time"":1336}]",[],1,,,,,,,,,,,,,,
harvest,64,488729,0.0-23.0-3.0,,null,run_exp/static/images/task_images/gems/99.jpg,null,,,,,,18,,,1,,,,,99,0.186004742,0.181818182,,,,,,,
decision,65,490602,0.0-23.0-4.0,,1871,run_exp/static/images/task_images/land.jpg,65,,,,,,18,,,1,,,,,,,,10431,1,0,FALSE,,,
dig,66,491737,0.0-24.0-0.0,,,,,,,,,,,"[{""stimulus"":""run_exp/static/images/task_images/dig.jpg"",""time"":1},{""stimulus"":""run_exp/static/images/task_images/land.jpg"",""time"":382},{""stimulus"":""run_exp/static/images/task_images/dig.jpg"",""time"":761}]",[],1,,,,,,,,,,,,,,
harvest,67,492741,0.0-24.0-1.0,,null,run_exp/static/images/task_images/gems/18.jpg,null,,,,,,5,,,1,,,,,18,0.251917017,0.277777778,,,,,,,
decision,68,494138,0.0-24.0-2.0,,1395,run_exp/static/images/task_images/land.jpg,65,,,,,,5,,,1,,,,,,,,13966,1,1,FALSE,,,
dig,69,495749,0.0-25.0-0.0,,,,,,,,,,,"[{""stimulus"":""run_exp/static/images/task_images/dig.jpg"",""time"":0},{""stimulus"":""run_exp/static/images/task_images/land.jpg"",""time"":536},{""stimulus"":""run_exp/static/images/task_images/dig.jpg"",""time"":1086}]",[],1,,,,,,,,,,,,,,
harvest,70,496780,0.0-25.0-1.0,,null,run_exp/static/images/task_images/gems/5.jpg,null,,,,,,1,,,1,,,,,5,0.156353165,0.2,,,,,,,
decision,71,496850,0.0-25.0-2.0,,67,run_exp/static/images/task_images/land.jpg,65,,,,,,1,,,1,,,,,,,,16678,1,2,FALSE,,,
dig,72,499799,0.0-26.0-0.0,,,,,,,,,,,"[{""stimulus"":""run_exp/static/images/task_images/dig.jpg"",""time"":0},{""stimulus"":""run_exp/static/images/task_images/land.jpg"",""time"":978},{""stimulus"":""run_exp/static/images/task_images/dig.jpg"",""time"":1957}]",[],1,,,,,,,,,,,,,,
harvest,73,500800,0.0-26.0-1.0,,null,run_exp/static/images/task_images/gems/1.jpg,null,,,,,,0,,,1,,,,,1,0.187900866,0,,,,,,,
decision,74,500962,0.0-26.0-2.0,,161,run_exp/static/images/task_images/land.jpg,65,,,,,,0,,,1,,,,,,,,20791,1,3,FALSE,,,
dig,75,503819,0.0-27.0-0.0,,,,,,,,,,,"[{""stimulus"":""run_exp/static/images/task_images/dig.jpg"",""time"":0},{""stimulus"":""run_exp/static/images/task_images/land.jpg"",""time"":961},{""stimulus"":""run_exp/static/images/task_images/dig.jpg"",""time"":1902}]",[],1,,,,,,,,,,,,,,
harvest,76,504823,0.0-27.0-1.0,,null,run_exp/static/images/task_images/gems/0.jpg,null,,,,,,0,,,1,,,,,0,0.156147607,NaN,,,,,,,
decision,77,505630,0.0-27.0-2.0,,804,run_exp/static/images/task_images/land.jpg,65,,,,,,0,,,1,,,,,,,,25458,1,4,FALSE,,,
dig,78,507839,0.0-28.0-0.0,,,,,,,,,,,"[{""stimulus"":""run_exp/static/images/task_images/dig.jpg"",""time"":0},{""stimulus"":""run_exp/static/images/task_images/land.jpg"",""time"":746},{""stimulus"":""run_exp/static/images/task_images/dig.jpg"",""time"":1475}]",[],1,,,,,,,,,,,,,,
harvest,79,508852,0.0-28.0-1.0,,null,run_exp/static/images/task_images/gems/0.jpg,null,,,,,,0,,,1,,,,,0,0.208621253,NaN,,,,,,,
decision,80,509418,0.0-28.0-2.0,,561,run_exp/static/images/task_images/land.jpg,76,,,,,,0,,,1,,,,,,,,29249,1,5,TRUE,,,
travel,81,518869,0.0-29.0-0.0,,,,,,,,,,,"[{""stimulus"":""run_exp/static/images/task_images/rocket-01.jpg"",""time"":0},{""stimulus"":""run_exp/static/images/task_images/rocket-02.jpg"",""time"":1053},{""stimulus"":""run_exp/static/images/task_images/rocket-03.jpg"",""time"":2104},{""stimulus"":""run_exp/static/images/task_images/rocket-04.jpg"",""time"":3146},{""stimulus"":""run_exp/static/images/task_images/rocket-05.jpg"",""time"":4194},{""stimulus"":""run_exp/static/images/task_images/rocket-06.jpg"",""time"":5243},{""stimulus"":""run_exp/static/images/task_images/rocket-07.jpg"",""time"":6303},{""stimulus"":""run_exp/static/images/task_images/rocket-08.jpg"",""time"":7337},{""stimulus"":""run_exp/static/images/task_images/rocket-09.jpg"",""time"":8404}]",[],1,,,,,,,,,,,,,,
alien_welcome,82,523876,0.0-29.0-1.0,,null,run_exp/static/images/task_images/aliens/old_aliens/planet/alien_planet-8.jpg,null,,,,,,,,,,,,8,"21,8,30,49,63,50,75,17,65,36,48,51,2,46,54,57,47,45,18,76,80,72,11,43,14,22,1,71,44,13,4,28,62,39,52,10,64,40,27,16,38,68,6,56,55,60,73,61,31",,,,,,,,,,
land,83,524390,0.0-29.0-2.0,,null,run_exp/static/images/task_images/land.jpg,null,,,,,,100,,,2,,,,,,,,,,,,,,
dig,84,526401,0.0-29.0-3.0,,,,,,,,,,,"[{""stimulus"":""run_exp/static/images/task_images/dig.jpg"",""time"":0},{""stimulus"":""run_exp/static/images/task_images/land.jpg"",""time"":679},{""stimulus"":""run_exp/static/images/task_images/dig.jpg"",""time"":1337}]",[],2,,,,,,,,,,,,,,
harvest,85,527409,0.0-29.0-4.0,,null,run_exp/static/images/task_images/gems/100.jpg,null,,,,,,20,,,2,,,,,100,0.195733482,0.2,,,,,,,
decision,86,528954,0.0-29.0-5.0,,1539,run_exp/static/images/task_images/land.jpg,65,,,,,,20,,,2,,,,,,,,48782,1,0,FALSE,,,
dig,87,530422,0.0-30.0-0.0,,,,,,,,,,,"[{""stimulus"":""run_exp/static/images/task_images/dig.jpg"",""time"":0},{""stimulus"":""run_exp/static/images/task_images/land.jpg"",""time"":489},{""stimulus"":""run_exp/static/images/task_images/dig.jpg"",""time"":975}]",[],2,,,,,,,,,,,,,,
harvest,88,531423,0.0-30.0-1.0,,null,run_exp/static/images/task_images/gems/20.jpg,null,,,,,,3,,,2,,,,,20,0.150354051,0.15,,,,,,,
decision,89,533426,0.0-30.0-2.0,,2001,run_exp/static/images/task_images/land.jpg,65,,,,,,3,,,2,,,,,,,,53254,1,1,FALSE,,,
dig,90,534431,0.0-31.0-0.0,,,,,,,,,,,"[{""stimulus"":""run_exp/static/images/task_images/dig.jpg"",""time"":0},{""stimulus"":""run_exp/static/images/task_images/land.jpg"",""time"":334},{""stimulus"":""run_exp/static/images/task_images/dig.jpg"",""time"":667}]",[],2,,,,,,,,,,,,,,
harvest,91,535432,0.0-31.0-1.0,,null,run_exp/static/images/task_images/gems/3.jpg,null,,,,,,0,,,2,,,,,3,0.119601164,0,,,,,,,
decision,92,536578,0.0-31.0-2.0,,1145,run_exp/static/images/task_images/land.jpg,65,,,,,,0,,,2,,,,,,,,56406,1,2,FALSE,,,
dig,93,538438,0.0-32.0-0.0,,,,,,,,,,,"[{""stimulus"":""run_exp/static/images/task_images/dig.jpg"",""time"":0},{""stimulus"":""run_exp/static/images/task_images/land.jpg"",""time"":618},{""stimulus"":""run_exp/static/images/task_images/dig.jpg"",""time"":1236}]",[],2,,,,,,,,,,,,,,
harvest,94,539440,0.0-32.0-1.0,,null,run_exp/static/images/task_images/gems/0.jpg,null,,,,,,0,,,2,,,,,0,0.261511378,NaN,,,,,,,
decision,95,540050,0.0-32.0-2.0,,608,run_exp/static/images/task_images/land.jpg,65,,,,,,0,,,2,,,,,,,,59878,1,3,FALSE,,,
dig,96,542447,0.0-33.0-0.0,,,,,,,,,,,"[{""stimulus"":""run_exp/static/images/task_images/dig.jpg"",""time"":0},{""stimulus"":""run_exp/static/images/task_images/land.jpg"",""time"":797},{""stimulus"":""run_exp/static/images/task_images/dig.jpg"",""time"":1594}]",[],2,,,,,,,,,,,,,,
harvest,97,543448,0.0-33.0-1.0,,null,run_exp/static/images/task_images/gems/0.jpg,null,,,,,,0,,,2,,,,,0,0.264050747,NaN,,,,,,,
decision,98,544690,0.0-33.0-2.0,,1241,run_exp/static/images/task_images/land.jpg,65,,,,,,0,,,2,,,,,,,,64519,1,4,FALSE,,,
dig,99,546455,0.0-34.0-0.0,,,,,,,,,,,"[{""stimulus"":""run_exp/static/images/task_images/dig.jpg"",""time"":0},{""stimulus"":""run_exp/static/images/task_images/land.jpg"",""time"":586},{""stimulus"":""run_exp/static/images/task_images/dig.jpg"",""time"":1173}]",[],2,,,,,,,,,,,,,,
harvest,100,547457,0.0-34.0-1.0,,null,run_exp/static/images/task_images/gems/0.jpg,null,,,,,,0,,,2,,,,,0,0.204056241,NaN,,,,,,,
decision,101,547651,0.0-34.0-2.0,,192,run_exp/static/images/task_images/land.jpg,65,,,,,,0,,,2,,,,,,,,67479,1,5,FALSE,,,
dig,102,550465,0.0-35.0-0.0,,,,,,,,,,,"[{""stimulus"":""run_exp/static/images/task_images/dig.jpg"",""time"":0},{""stimulus"":""run_exp/static/images/task_images/land.jpg"",""time"":937},{""stimulus"":""run_exp/static/images/task_images/dig.jpg"",""time"":1874}]",[],2,,,,,,,,,,,,,,
harvest,103,551466,0.0-35.0-1.0,,null,run_exp/static/images/task_images/gems/0.jpg,null,,,,,,0,,,2,,,,,0,0.173259142,NaN,,,,,,,
decision,104,554467,0.0-35.0-2.0,,null,run_exp/static/images/task_images/land.jpg,null,,,,,,0,,,2,,,,,,,,74295,1,6,FALSE,,,
time_out,105,556471,0.0-36.0-0.0,,null,run_exp/static/images/task_images/time_out.jpg,null,,,,,,0,,,,,,,,,,,,,,,,,
decision,106,557634,0.0-36.0-1.0,,1162,run_exp/static/images/task_images/land.jpg,76,,,,,,0,,,2,,,,,,,,77463,1,6,TRUE,,,
travel,107,566480,0.0-37.0-0.0,,,,,,,,,,,"[{""stimulus"":""run_exp/static/images/task_images/rocket-01.jpg"",""time"":0},{""stimulus"":""run_exp/static/images/task_images/rocket-02.jpg"",""time"":982},{""stimulus"":""run_exp/static/images/task_images/rocket-03.jpg"",""time"":1964},{""stimulus"":""run_exp/static/images/task_images/rocket-04.jpg"",""time"":2946},{""stimulus"":""run_exp/static/images/task_images/rocket-05.jpg"",""time"":3928},{""stimulus"":""run_exp/static/images/task_images/rocket-06.jpg"",""time"":4910},{""stimulus"":""run_exp/static/images/task_images/rocket-07.jpg"",""time"":5892},{""stimulus"":""run_exp/static/images/task_images/rocket-08.jpg"",""time"":6875},{""stimulus"":""run_exp/static/images/task_images/rocket-09.jpg"",""time"":7856}]",[],2,,,,,,,,,,,,,,
alien_welcome,108,571482,0.0-37.0-1.0,,null,run_exp/static/images/task_images/aliens/old_aliens/planet/alien_planet-30.jpg,null,,,,,,,,,,,,30,"21,8,30,49,63,50,75,17,65,36,48,51,2,46,54,57,47,45,18,76,80,72,11,43,14,22,1,71,44,13,4,28,62,39,52,10,64,40,27,16,38,68,6,56,55,60,73,61,31",,,,,,,,,,
land,109,571983,0.0-37.0-2.0,,null,run_exp/static/images/task_images/land.jpg,null,,,,,,106,,,3,,,,,,,,,,,,,,
dig,110,573987,0.0-37.0-3.0,,,,,,,,,,,"[{""stimulus"":""run_exp/static/images/task_images/dig.jpg"",""time"":1},{""stimulus"":""run_exp/static/images/task_images/land.jpg"",""time"":668},{""stimulus"":""run_exp/static/images/task_images/dig.jpg"",""time"":1335}]",[],3,,,,,,,,,,,,,,
harvest,111,574988,0.0-37.0-4.0,,null,run_exp/static/images/task_images/gems/106.jpg,null,,,,,,57,,,3,,,,,106,0.533457023,0.537735849,,,,,,,
decision,112,575226,0.0-37.0-5.0,,237,run_exp/static/images/task_images/land.jpg,65,,,,,,57,,,3,,,,,,,,95054,1,0,FALSE,,,
dig,113,577995,0.0-38.0-0.0,,,,,,,,,,,"[{""stimulus"":""run_exp/static/images/task_images/dig.jpg"",""time"":1},{""stimulus"":""run_exp/static/images/task_images/land.jpg"",""time"":922},{""stimulus"":""run_exp/static/images/task_images/dig.jpg"",""time"":1844}]",[],3,,,,,,,,,,,,,,
harvest,114,578996,0.0-38.0-1.0,,null,run_exp/static/images/task_images/gems/57.jpg,null,,,,,,27,,,3,,,,,57,0.468398492,0.473684211,,,,,,,
decision,115,580066,0.0-38.0-2.0,,1069,run_exp/static/images/task_images/land.jpg,65,,,,,,27,,,3,,,,,,,,99894,1,1,FALSE,,,
dig,116,582000,0.0-39.0-0.0,,,,,,,,,,,"[{""stimulus"":""run_exp/static/images/task_images/dig.jpg"",""time"":0},{""stimulus"":""run_exp/static/images/task_images/land.jpg"",""time"":645},{""stimulus"":""run_exp/static/images/task_images/dig.jpg"",""time"":1288}]",[],3,,,,,,,,,,,,,,
harvest,117,583002,0.0-39.0-1.0,,null,run_exp/static/images/task_images/gems/27.jpg,null,,,,,,11,,,3,,,,,27,0.402761905,0.407407407,,,,,,,
decision,118,585066,0.0-39.0-2.0,,2063,run_exp/static/images/task_images/land.jpg,65,,,,,,11,,,3,,,,,,,,104894,1,2,FALSE,,,
dig,119,586010,0.0-40.0-0.0,,,,,,,,,,,"[{""stimulus"":""run_exp/static/images/task_images/dig.jpg"",""time"":0},{""stimulus"":""run_exp/static/images/task_images/land.jpg"",""time"":313},{""stimulus"":""run_exp/static/images/task_images/dig.jpg"",""time"":625}]",[],3,,,,,,,,,,,,,,
harvest,120,587012,0.0-40.0-1.0,,null,run_exp/static/images/task_images/gems/11.jpg,null,,,,,,6,,,3,,,,,11,0.569455261,0.545454545,,,,,,,
decision,121,587058,0.0-40.0-2.0,,44,run_exp/static/images/task_images/land.jpg,65,,,,,,6,,,3,,,,,,,,106886,1,3,FALSE,,,
dig,122,590017,0.0-41.0-0.0,,,,,,,,,,,"[{""stimulus"":""run_exp/static/images/task_images/dig.jpg"",""time"":0},{""stimulus"":""run_exp/static/images/task_images/land.jpg"",""time"":987},{""stimulus"":""run_exp/static/images/task_images/dig.jpg"",""time"":1970}]",[],3,,,,,,,,,,,,,,
harvest,123,591019,0.0-41.0-1.0,,null,run_exp/static/images/task_images/gems/6.jpg,null,,,,,,3,,,3,,,,,6,0.583288567,0.5,,,,,,,
decision,124,592682,0.0-41.0-2.0,,1661,run_exp/static/images/task_images/land.jpg,65,,,,,,3,,,3,,,,,,,,112510,1,4,FALSE,,,
dig,125,594027,0.0-42.0-0.0,,,,,,,,,,,"[{""stimulus"":""run_exp/static/images/task_images/dig.jpg"",""time"":1},{""stimulus"":""run_exp/static/images/task_images/land.jpg"",""time"":447},{""stimulus"":""run_exp/static/images/task_images/dig.jpg"",""time"":893}]",[],3,,,,,,,,,,,,,,
harvest,126,595029,0.0-42.0-1.0,,null,run_exp/static/images/task_images/gems/3.jpg,null,,,,,,2,,,3,,,,,3,0.511486156,0.666666667,,,,,,,
decision,127,596754,0.0-42.0-2.0,,1724,run_exp/static/images/task_images/land.jpg,65,,,,,,2,,,3,,,,,,,,116582,1,5,FALSE,,,
dig,128,598036,0.0-43.0-0.0,,,,,,,,,,,"[{""stimulus"":""run_exp/static/images/task_images/dig.jpg"",""time"":1},{""stimulus"":""run_exp/static/images/task_images/land.jpg"",""time"":426},{""stimulus"":""run_exp/static/images/task_images/dig.jpg"",""time"":852}]",[],3,,,,,,,,,,,,,,
harvest,129,599037,0.0-43.0-1.0,,null,run_exp/static/images/task_images/gems/2.jpg,null,,,,,,1,,,3,,,,,2,0.571260737,0.5,,,,,,,
decision,130,600730,0.0-43.0-2.0,,1692,run_exp/static/images/task_images/land.jpg,65,,,,,,1,,,3,,,,,,,,120558,1,6,FALSE,,,
dig,131,602044,0.0-44.0-0.0,,,,,,,,,,,"[{""stimulus"":""run_exp/static/images/task_images/dig.jpg"",""time"":0},{""stimulus"":""run_exp/static/images/task_images/land.jpg"",""time"":437},{""stimulus"":""run_exp/static/images/task_images/dig.jpg"",""time"":873}]",[],3,,,,,,,,,,,,,,
harvest,132,603045,0.0-44.0-1.0,,null,run_exp/static/images/task_images/gems/1.jpg,null,,,,,,1,,,3,,,,,1,0.508454965,1,,,,,,,
decision,133,606046,0.0-44.0-2.0,,null,run_exp/static/images/task_images/land.jpg,null,,,,,,1,,,3,,,,,,,,125874,1,7,FALSE,,,
time_out,134,608052,0.0-45.0-0.0,,null,run_exp/static/images/task_images/time_out.jpg,null,,,,,,1,,,,,,,,,,,,,,,,,
decision,135,610458,0.0-45.0-1.0,,2404,run_exp/static/images/task_images/land.jpg,76,,,,,,1,,,3,,,,,,,,130286,1,7,TRUE,,,
travel,136,618061,0.0-46.0-0.0,,,,,,,,,,,"[{""stimulus"":""run_exp/static/images/task_images/rocket-01.jpg"",""time"":0},{""stimulus"":""run_exp/static/images/task_images/rocket-02.jpg"",""time"":844},{""stimulus"":""run_exp/static/images/task_images/rocket-03.jpg"",""time"":1688},{""stimulus"":""run_exp/static/images/task_images/rocket-04.jpg"",""time"":2532},{""stimulus"":""run_exp/static/images/task_images/rocket-05.jpg"",""time"":3378},{""stimulus"":""run_exp/static/images/task_images/rocket-06.jpg"",""time"":4220},{""stimulus"":""run_exp/static/images/task_images/rocket-07.jpg"",""time"":5064},{""stimulus"":""run_exp/static/images/task_images/rocket-08.jpg"",""time"":5908},{""stimulus"":""run_exp/static/images/task_images/rocket-09.jpg"",""time"":6753}]",[],3,,,,,,,,,,,,,,
alien_welcome,137,623063,0.0-46.0-1.0,,null,run_exp/static/images/task_images/aliens/old_aliens/planet/alien_planet-49.jpg,null,,,,,,,,,,,,49,"21,8,30,49,63,50,75,17,65,36,48,51,2,46,54,57,47,45,18,76,80,72,11,43,14,22,1,71,44,13,4,28,62,39,52,10,64,40,27,16,38,68,6,56,55,60,73,61,31",,,,,,,,,,
land,138,623564,0.0-46.0-2.0,,null,run_exp/static/images/task_images/land.jpg,null,,,,,,102,,,4,,,,,,,,,,,,,,
dig,139,625567,0.0-46.0-3.0,,,,,,,,,,,"[{""stimulus"":""run_exp/static/images/task_images/dig.jpg"",""time"":0},{""stimulus"":""run_exp/static/images/task_images/land.jpg"",""time"":667},{""stimulus"":""run_exp/static/images/task_images/dig.jpg"",""time"":1335}]",[],4,,,,,,,,,,,,,,
harvest,140,626568,0.0-46.0-4.0,,null,run_exp/static/images/task_images/gems/102.jpg,null,,,,,,53,,,4,,,,,102,0.516787469,0.519607843,,,,,,,
decision,141,627474,0.0-46.0-5.0,,904,run_exp/static/images/task_images/land.jpg,65,,,,,,53,,,4,,,,,,,,147302,1,0,FALSE,,,
dig,142,629572,0.0-47.0-0.0,,,,,,,,,,,"[{""stimulus"":""run_exp/static/images/task_images/dig.jpg"",""time"":0},{""stimulus"":""run_exp/static/images/task_images/land.jpg"",""time"":698},{""stimulus"":""run_exp/static/images/task_images/dig.jpg"",""time"":1397}]",[],4,,,,,,,,,,,,,,
harvest,143,630577,0.0-47.0-1.0,,null,run_exp/static/images/task_images/gems/53.jpg,null,,,,,,25,,,4,,,,,53,0.47327812,0.471698113,,,,,,,
decision,144,632242,0.0-47.0-2.0,,1663,run_exp/static/images/task_images/land.jpg,65,,,,,,25,,,4,,,,,,,,152070,1,1,FALSE,,,
dig,145,633580,0.0-48.0-0.0,,,,,,,,,,,"[{""stimulus"":""run_exp/static/images/task_images/dig.jpg"",""time"":0},{""stimulus"":""run_exp/static/images/task_images/land.jpg"",""time"":445},{""stimulus"":""run_exp/static/images/task_images/dig.jpg"",""time"":891}]",[],4,,,,,,,,,,,,,,
harvest,146,634581,0.0-48.0-1.0,,null,run_exp/static/images/task_images/gems/25.jpg,null,,,,,,12,,,4,,,,,25,0.466081463,0.48,,,,,,,
decision,147,636106,0.0-48.0-2.0,,1524,run_exp/static/images/task_images/land.jpg,65,,,,,,12,,,4,,,,,,,,155934,1,2,FALSE,,,
dig,148,637588,0.0-49.0-0.0,,,,,,,,,,,"[{""stimulus"":""run_exp/static/images/task_images/dig.jpg"",""time"":0},{""stimulus"":""run_exp/static/images/task_images/land.jpg"",""time"":492},{""stimulus"":""run_exp/static/images/task_images/dig.jpg"",""time"":984}]",[],4,,,,,,,,,,,,,,
harvest,149,638590,0.0-49.0-1.0,,null,run_exp/static/images/task_images/gems/12.jpg,null,,,,,,6,,,4,,,,,12,0.479807363,0.5,,,,,,,
decision,150,639354,0.0-49.0-2.0,,762,run_exp/static/images/task_images/land.jpg,65,,,,,,6,,,4,,,,,,,,159182,1,3,FALSE,,,
dig,151,641598,0.0-50.0-0.0,,,,,,,,,,,"[{""stimulus"":""run_exp/static/images/task_images/dig.jpg"",""time"":0},{""stimulus"":""run_exp/static/images/task_images/land.jpg"",""time"":746},{""stimulus"":""run_exp/static/images/task_images/dig.jpg"",""time"":1492}]",[],4,,,,,,,,,,,,,,
harvest,152,642599,0.0-50.0-1.0,,null,run_exp/static/images/task_images/gems/6.jpg,null,,,,,,3,,,4,,,,,6,0.518358056,0.5,,,,,,,
decision,153,644106,0.0-50.0-2.0,,1506,run_exp/static/images/task_images/land.jpg,65,,,,,,3,,,4,,,,,,,,163934,1,4,FALSE,,,
dig,154,645607,0.0-51.0-0.0,,,,,,,,,,,"[{""stimulus"":""run_exp/static/images/task_images/dig.jpg"",""time"":0},{""stimulus"":""run_exp/static/images/task_images/land.jpg"",""time"":498},{""stimulus"":""run_exp/static/images/task_images/dig.jpg"",""time"":996}]",[],4,,,,,,,,,,,,,,
harvest,155,646608,0.0-51.0-1.0,,null,run_exp/static/images/task_images/gems/3.jpg,null,,,,,,1,,,4,,,,,3,0.404665843,0.333333333,,,,,,,
decision,156,647746,0.0-51.0-2.0,,1137,run_exp/static/images/task_images/land.jpg,65,,,,,,1,,,4,,,,,,,,167574,1,5,FALSE,,,
dig,157,649616,0.0-52.0-0.0,,,,,,,,,,,"[{""stimulus"":""run_exp/static/images/task_images/dig.jpg"",""time"":0},{""stimulus"":""run_exp/static/images/task_images/land.jpg"",""time"":622},{""stimulus"":""run_exp/static/images/task_images/dig.jpg"",""time"":1243}]",[],4,,,,,,,,,,,,,,
harvest,158,650617,0.0-52.0-1.0,,null,run_exp/static/images/task_images/gems/1.jpg,null,,,,,,0,,,4,,,,,1,0.491731361,0,,,,,,,
decision,159,653619,0.0-52.0-2.0,,null,run_exp/static/images/task_images/land.jpg,null,,,,,,0,,,4,,,,,,,,173447,1,6,FALSE,,,
time_out,160,655628,0.0-53.0-0.0,,null,run_exp/static/images/task_images/time_out.jpg,null,,,,,,0,,,,,,,,,,,,,,,,,
decision,161,656458,0.0-53.0-1.0,,829,run_exp/static/images/task_images/land.jpg,76,,,,,,0,,,4,,,,,,,,176286,1,6,TRUE,,,
travel,162,665636,0.0-54.0-0.0,,,,,,,,,,,"[{""stimulus"":""run_exp/static/images/task_images/rocket-01.jpg"",""time"":0},{""stimulus"":""run_exp/static/images/task_images/rocket-02.jpg"",""time"":1019},{""stimulus"":""run_exp/static/images/task_images/rocket-03.jpg"",""time"":2039},{""stimulus"":""run_exp/static/images/task_images/rocket-04.jpg"",""time"":3058},{""stimulus"":""run_exp/static/images/task_images/rocket-05.jpg"",""time"":4077},{""stimulus"":""run_exp/static/images/task_images/rocket-06.jpg"",""time"":5095},{""stimulus"":""run_exp/static/images/task_images/rocket-07.jpg"",""time"":6114},{""stimulus"":""run_exp/static/images/task_images/rocket-08.jpg"",""time"":7134},{""stimulus"":""run_exp/static/images/task_images/rocket-09.jpg"",""time"":8152}]",[],4,,,,,,,,,,,,,,
alien_welcome,163,670638,0.0-54.0-1.0,,null,run_exp/static/images/task_images/aliens/old_aliens/planet/alien_planet-63.jpg,null,,,,,,,,,,,,63,"21,8,30,49,63,50,75,17,65,36,48,51,2,46,54,57,47,45,18,76,80,72,11,43,14,22,1,71,44,13,4,28,62,39,52,10,64,40,27,16,38,68,6,56,55,60,73,61,31",,,,,,,,,,
land,164,671141,0.0-54.0-2.0,,null,run_exp/static/images/task_images/land.jpg,null,,,,,,107,,,5,,,,,,,,,,,,,,
dig,165,673144,0.0-54.0-3.0,,,,,,,,,,,"[{""stimulus"":""run_exp/static/images/task_images/dig.jpg"",""time"":0},{""stimulus"":""run_exp/static/images/task_images/land.jpg"",""time"":668},{""stimulus"":""run_exp/static/images/task_images/dig.jpg"",""time"":1334}]",[],5,,,,,,,,,,,,,,
harvest,166,674145,0.0-54.0-4.0,,null,run_exp/static/images/task_images/gems/107.jpg,null,,,,,,51,,,5,,,,,107,0.473864844,0.476635514,,,,,,,
decision,167,675009,0.0-54.0-5.0,,863,run_exp/static/images/task_images/land.jpg,65,,,,,,51,,,5,,,,,,,,194838,1,0,FALSE,,,
dig,168,677151,0.0-55.0-0.0,,,,,,,,,,,"[{""stimulus"":""run_exp/static/images/task_images/dig.jpg"",""time"":0},{""stimulus"":""run_exp/static/images/task_images/land.jpg"",""time"":712},{""stimulus"":""run_exp/static/images/task_images/dig.jpg"",""time"":1425}]",[],5,,,,,,,,,,,,,,
harvest,169,678153,0.0-55.0-1.0,,null,run_exp/static/images/task_images/gems/51.jpg,null,,,,,,24,,,5,,,,,51,0.471795498,0.470588235,,,,,,,
decision,170,680259,0.0-55.0-2.0,,2104,run_exp/static/images/task_images/land.jpg,76,,,,,,24,,,5,,,,,,,,200087,1,1,TRUE,,,
travel,171,688158,0.0-56.0-0.0,,,,,,,,,,,"[{""stimulus"":""run_exp/static/images/task_images/rocket-01.jpg"",""time"":1},{""stimulus"":""run_exp/static/images/task_images/rocket-02.jpg"",""time"":878},{""stimulus"":""run_exp/static/images/task_images/rocket-03.jpg"",""time"":1757},{""stimulus"":""run_exp/static/images/task_images/rocket-04.jpg"",""time"":2632},{""stimulus"":""run_exp/static/images/task_images/rocket-05.jpg"",""time"":3509},{""stimulus"":""run_exp/static/images/task_images/rocket-06.jpg"",""time"":4387},{""stimulus"":""run_exp/static/images/task_images/rocket-07.jpg"",""time"":5263},{""stimulus"":""run_exp/static/images/task_images/rocket-08.jpg"",""time"":6140},{""stimulus"":""run_exp/static/images/task_images/rocket-09.jpg"",""time"":7017}]",[],5,,,,,,,,,,,,,,
alien_welcome,172,693160,0.0-56.0-1.0,,null,run_exp/static/images/task_images/aliens/old_aliens/planet/alien_planet-50.jpg,null,,,,,,,,,,,,50,"21,8,30,49,63,50,75,17,65,36,48,51,2,46,54,57,47,45,18,76,80,72,11,43,14,22,1,71,44,13,4,28,62,39,52,10,64,40,27,16,38,68,6,56,55,60,73,61,31",,,,,,,,,,
land,173,693662,0.0-56.0-2.0,,null,run_exp/static/images/task_images/land.jpg,null,,,,,,106,,,6,,,,,,,,,,,,,,
dig,174,695665,0.0-56.0-3.0,,,,,,,,,,,"[{""stimulus"":""run_exp/static/images/task_images/dig.jpg"",""time"":0},{""stimulus"":""run_exp/static/images/task_images/land.jpg"",""time"":668},{""stimulus"":""run_exp/static/images/task_images/dig.jpg"",""time"":1334}]",[],6,,,,,,,,,,,,,,
harvest,175,696672,0.0-56.0-4.0,,null,run_exp/static/images/task_images/gems/106.jpg,null,,,,,,82,,,6,,,,,106,0.774614928,0.773584906,,,,,,,
decision,176,697882,0.0-56.0-5.0,,1208,run_exp/static/images/task_images/land.jpg,65,,,,,,82,,,6,,,,,,,,217710,1,0,FALSE,,,
dig,177,699680,0.0-57.0-0.0,,,,,,,,,,,"[{""stimulus"":""run_exp/static/images/task_images/dig.jpg"",""time"":0},{""stimulus"":""run_exp/static/images/task_images/land.jpg"",""time"":598},{""stimulus"":""run_exp/static/images/task_images/dig.jpg"",""time"":1196}]",[],6,,,,,,,,,,,,,,
harvest,178,700682,0.0-57.0-1.0,,null,run_exp/static/images/task_images/gems/82.jpg,null,,,,,,68,,,6,,,,,82,0.826994078,0.829268293,,,,,,,
decision,179,702330,0.0-57.0-2.0,,1647,run_exp/static/images/task_images/land.jpg,65,,,,,,68,,,6,,,,,,,,222158,1,1,FALSE,,,
dig,180,703690,0.0-58.0-0.0,,,,,,,,,,,"[{""stimulus"":""run_exp/static/images/task_images/dig.jpg"",""time"":1},{""stimulus"":""run_exp/static/images/task_images/land.jpg"",""time"":452},{""stimulus"":""run_exp/static/images/task_images/dig.jpg"",""time"":903}]",[],6,,,,,,,,,,,,,,
harvest,181,704691,0.0-58.0-1.0,,null,run_exp/static/images/task_images/gems/68.jpg,null,,,,,,56,,,6,,,,,68,0.823341563,0.823529412,,,,,,,
decision,182,705746,0.0-58.0-2.0,,1054,run_exp/static/images/task_images/land.jpg,65,,,,,,56,,,6,,,,,,,,225574,1,2,FALSE,,,
dig,183,707697,0.0-59.0-0.0,,,,,,,,,,,"[{""stimulus"":""run_exp/static/images/task_images/dig.jpg"",""time"":0},{""stimulus"":""run_exp/static/images/task_images/land.jpg"",""time"":649},{""stimulus"":""run_exp/static/images/task_images/dig.jpg"",""time"":1297}]",[],6,,,,,,,,,,,,,,
harvest,184,708699,0.0-59.0-1.0,,null,run_exp/static/images/task_images/gems/56.jpg,null,,,,,,46,,,6,,,,,56,0.813023044,0.821428571,,,,,,,
decision,185,709866,0.0-59.0-2.0,,1165,run_exp/static/images/task_images/land.jpg,65,,,,,,46,,,6,,,,,,,,229694,1,3,FALSE,,,
dig,186,711706,0.0-60.0-0.0,,,,,,,,,,,"[{""stimulus"":""run_exp/static/images/task_images/dig.jpg"",""time"":0},{""stimulus"":""run_exp/static/images/task_images/land.jpg"",""time"":611},{""stimulus"":""run_exp/static/images/task_images/dig.jpg"",""time"":1222}]",[],6,,,,,,,,,,,,,,
harvest,187,712707,0.0-60.0-1.0,,null,run_exp/static/images/task_images/gems/46.jpg,null,,,,,,35,,,6,,,,,46,0.764407867,0.760869565,,,,,,,
decision,188,713554,0.0-60.0-2.0,,846,run_exp/static/images/task_images/land.jpg,76,,,,,,35,,,6,,,,,,,,233382,1,4,TRUE,,,
travel,189,722713,0.0-61.0-0.0,,,,,,,,,,,"[{""stimulus"":""run_exp/static/images/task_images/rocket-01.jpg"",""time"":0},{""stimulus"":""run_exp/static/images/task_images/rocket-02.jpg"",""time"":1019},{""stimulus"":""run_exp/static/images/task_images/rocket-03.jpg"",""time"":2036},{""stimulus"":""run_exp/static/images/task_images/rocket-04.jpg"",""time"":3052},{""stimulus"":""run_exp/static/images/task_images/rocket-05.jpg"",""time"":4069},{""stimulus"":""run_exp/static/images/task_images/rocket-06.jpg"",""time"":5086},{""stimulus"":""run_exp/static/images/task_images/rocket-07.jpg"",""time"":6103},{""stimulus"":""run_exp/static/images/task_images/rocket-08.jpg"",""time"":7120},{""stimulus"":""run_exp/static/images/task_images/rocket-09.jpg"",""time"":8137}]",[],6,,,,,,,,,,,,,,
alien_welcome,190,727715,0.0-61.0-1.0,,null,run_exp/static/images/task_images/aliens/old_aliens/planet/alien_planet-75.jpg,null,,,,,,,,,,,,75,"21,8,30,49,63,50,75,17,65,36,48,51,2,46,54,57,47,45,18,76,80,72,11,43,14,22,1,71,44,13,4,28,62,39,52,10,64,40,27,16,38,68,6,56,55,60,73,61,31",,,,,,,,,,
land,191,728216,0.0-61.0-2.0,,null,run_exp/static/images/task_images/land.jpg,null,,,,,,99,,,7,,,,,,,,,,,,,,
dig,192,730219,0.0-61.0-3.0,,,,,,,,,,,"[{""stimulus"":""run_exp/static/images/task_images/dig.jpg"",""time"":0},{""stimulus"":""run_exp/static/images/task_images/land.jpg"",""time"":667},{""stimulus"":""run_exp/static/images/task_images/dig.jpg"",""time"":1335}]",[],7,,,,,,,,,,,,,,
harvest,193,731221,0.0-61.0-4.0,,null,run_exp/static/images/task_images/gems/99.jpg,null,,,,,,81,,,7,,,,,99,0.820953801,0.818181818,,,,,,,
decision,194,733666,0.0-61.0-5.0,,2444,run_exp/static/images/task_images/land.jpg,65,,,,,,81,,,7,,,,,,,,253494,1,0,FALSE,,,
dig,195,734227,0.0-62.0-0.0,,,,,,,,,,,"[{""stimulus"":""run_exp/static/images/task_images/dig.jpg"",""time"":1},{""stimulus"":""run_exp/static/images/task_images/land.jpg"",""time"":186},{""stimulus"":""run_exp/static/images/task_images/dig.jpg"",""time"":372}]",[],7,,,,,,,,,,,,,,
harvest,196,735228,0.0-62.0-1.0,,null,run_exp/static/images/task_images/gems/81.jpg,null,,,,,,68,,,7,,,,,81,0.837353977,0.839506173,,,,,,,
decision,197,736442,0.0-62.0-2.0,,1213,run_exp/static/images/task_images/land.jpg,65,,,,,,68,,,7,,,,,,,,256270,1,1,FALSE,,,
dig,198,738233,0.0-63.0-0.0,,,,,,,,,,,"[{""stimulus"":""run_exp/static/images/task_images/dig.jpg"",""time"":0},{""stimulus"":""run_exp/static/images/task_images/land.jpg"",""time"":596},{""stimulus"":""run_exp/static/images/task_images/dig.jpg"",""time"":1191}]",[],7,,,,,,,,,,,,,,
harvest,199,739234,0.0-63.0-1.0,,null,run_exp/static/images/task_images/gems/68.jpg,null,,,,,,56,,,7,,,,,68,0.825654447,0.823529412,,,,,,,
decision,200,742235,0.0-63.0-2.0,,null,run_exp/static/images/task_images/land.jpg,null,,,,,,56,,,7,,,,,,,,262063,1,2,FALSE,,,
time_out,201,744241,0.0-64.0-0.0,,null,run_exp/static/images/task_images/time_out.jpg,null,,,,,,56,,,,,,,,,,,,,,,,,
decision,202,745459,0.0-64.0-1.0,,1216,run_exp/static/images/task_images/land.jpg,76,,,,,,56,,,7,,,,,,,,265287,1,2,TRUE,,,
travel,203,754251,0.0-65.0-0.0,,,,,,,,,,,"[{""stimulus"":""run_exp/static/images/task_images/rocket-01.jpg"",""time"":1},{""stimulus"":""run_exp/static/images/task_images/rocket-02.jpg"",""time"":979},{""stimulus"":""run_exp/static/images/task_images/rocket-03.jpg"",""time"":1953},{""stimulus"":""run_exp/static/images/task_images/rocket-04.jpg"",""time"":2930},{""stimulus"":""run_exp/static/images/task_images/rocket-05.jpg"",""time"":3905},{""stimulus"":""run_exp/static/images/task_images/rocket-06.jpg"",""time"":4881},{""stimulus"":""run_exp/static/images/task_images/rocket-07.jpg"",""time"":5858},{""stimulus"":""run_exp/static/images/task_images/rocket-08.jpg"",""time"":6833},{""stimulus"":""run_exp/static/images/task_images/rocket-09.jpg"",""time"":7809}]",[],7,,,,,,,,,,,,,,
alien_welcome,204,759253,0.0-65.0-1.0,,null,run_exp/static/images/task_images/aliens/old_aliens/planet/alien_planet-17.jpg,null,,,,,,,,,,,,17,"21,8,30,49,63,50,75,17,65,36,48,51,2,46,54,57,47,45,18,76,80,72,11,43,14,22,1,71,44,13,4,28,62,39,52,10,64,40,27,16,38,68,6,56,55,60,73,61,31",,,,,,,,,,
land,205,759755,0.0-65.0-2.0,,null,run_exp/static/images/task_images/land.jpg,null,,,,,,99,,,8,,,,,,,,,,,,,,
dig,206,761759,0.0-65.0-3.0,,,,,,,,,,,"[{""stimulus"":""run_exp/static/images/task_images/dig.jpg"",""time"":0},{""stimulus"":""run_exp/static/images/task_images/land.jpg"",""time"":668},{""stimulus"":""run_exp/static/images/task_images/dig.jpg"",""time"":1334}]",[],8,,,,,,,,,,,,,,
harvest,207,762760,0.0-65.0-4.0,,null,run_exp/static/images/task_images/gems/99.jpg,null,,,,,,77,,,8,,,,,99,0.775471733,0.777777778,,,,,,,
decision,208,763378,0.0-65.0-5.0,,617,run_exp/static/images/task_images/land.jpg,65,,,,,,77,,,8,,,,,,,,283206,1,0,FALSE,,,
dig,209,765766,0.0-66.0-0.0,,,,,,,,,,,"[{""stimulus"":""run_exp/static/images/task_images/dig.jpg"",""time"":1},{""stimulus"":""run_exp/static/images/task_images/land.jpg"",""time"":795},{""stimulus"":""run_exp/static/images/task_images/dig.jpg"",""time"":1589}]",[],8,,,,,,,,,,,,,,
harvest,210,766767,0.0-66.0-1.0,,null,run_exp/static/images/task_images/gems/77.jpg,null,,,,,,64,,,8,,,,,77,0.837368989,0.831168831,,,,,,,
decision,211,766946,0.0-66.0-2.0,,178,run_exp/static/images/task_images/land.jpg,65,,,,,,64,,,8,,,,,,,,286774,1,1,FALSE,,,
dig,212,769773,0.0-67.0-0.0,,,,,,,,,,,"[{""stimulus"":""run_exp/static/images/task_images/dig.jpg"",""time"":1},{""stimulus"":""run_exp/static/images/task_images/land.jpg"",""time"":941},{""stimulus"":""run_exp/static/images/task_images/dig.jpg"",""time"":1881}]",[],8,,,,,,,,,,,,,,
harvest,213,770774,0.0-67.0-1.0,,null,run_exp/static/images/task_images/gems/64.jpg,null,,,,,,50,,,8,,,,,64,0.780158281,0.78125,,,,,,,
decision,214,770954,0.0-67.0-2.0,,179,run_exp/static/images/task_images/land.jpg,65,,,,,,50,,,8,,,,,,,,290782,1,2,FALSE,,,
dig,215,773782,0.0-68.0-0.0,,,,,,,,,,,"[{""stimulus"":""run_exp/static/images/task_images/dig.jpg"",""time"":1},{""stimulus"":""run_exp/static/images/task_images/land.jpg"",""time"":941},{""stimulus"":""run_exp/static/images/task_images/dig.jpg"",""time"":1881}]",[],8,,,,,,,,,,,,,,
harvest,216,774783,0.0-68.0-1.0,,null,run_exp/static/images/task_images/gems/50.jpg,null,,,,,,39,,,8,,,,,50,0.776825312,0.78,,,,,,,
decision,217,775810,0.0-68.0-2.0,,1026,run_exp/static/images/task_images/land.jpg,65,,,,,,39,,,8,,,,,,,,295638,1,3,FALSE,,,
dig,218,777790,0.0-69.0-0.0,,,,,,,,,,,"[{""stimulus"":""run_exp/static/images/task_images/dig.jpg"",""time"":0},{""stimulus"":""run_exp/static/images/task_images/land.jpg"",""time"":658},{""stimulus"":""run_exp/static/images/task_images/dig.jpg"",""time"":1316}]",[],8,,,,,,,,,,,,,,
harvest,219,778791,0.0-69.0-1.0,,null,run_exp/static/images/task_images/gems/39.jpg,null,,,,,,33,,,8,,,,,39,0.83448865,0.846153846,,,,,,,
decision,220,780922,0.0-69.0-2.0,,2130,run_exp/static/images/task_images/land.jpg,76,,,,,,33,,,8,,,,,,,,300750,1,4,TRUE,,,
end_of_block_continue,221,789811,0.0-70.0-0.0,,null,run_exp/static/audio/clip_32_block_end.m4a,,,,,,null,,,,,,,,,,,,,,,,,,
alien_welcome,222,794839,0.0-71.0-0.0,,null,run_exp/static/images/task_images/aliens/old_aliens/planet/alien_planet-65.jpg,null,,,,,,,,,,,,65,"21,8,30,49,63,50,75,17,65,36,48,51,2,46,54,57,47,45,18,76,80,72,11,43,14,22,1,71,44,13,4,28,62,39,52,10,64,40,27,16,38,68,6,56,55,60,73,61,31",,,,,,,,,,
land,223,795351,0.0-71.0-1.0,,null,run_exp/static/images/task_images/land.jpg,null,,,,,,100,,,9,,,,,,,,,,,,,,
dig,224,797369,0.0-71.0-2.0,,,,,,,,,,,"[{""stimulus"":""run_exp/static/images/task_images/dig.jpg"",""time"":1},{""stimulus"":""run_exp/static/images/task_images/land.jpg"",""time"":674},{""stimulus"":""run_exp/static/images/task_images/dig.jpg"",""time"":1336}]",[],9,,,,,,,,,,,,,,
harvest,225,798393,0.0-71.0-3.0,,null,run_exp/static/images/task_images/gems/100.jpg,null,,,,,,20,,,9,,,,,100,0.200254555,0.2,,,,,,,
decision,226,799871,0.0-71.0-4.0,,1474,run_exp/static/images/task_images/land.jpg,76,,,,,,20,,,9,,,,,,,,10049,2,0,TRUE,,,
travel,227,808410,0.0-72.0-0.0,,,,,,,,,,,"[{""stimulus"":""run_exp/static/images/task_images/rocket-01.jpg"",""time"":0},{""stimulus"":""run_exp/static/images/task_images/rocket-02.jpg"",""time"":950},{""stimulus"":""run_exp/static/images/task_images/rocket-03.jpg"",""time"":1905},{""stimulus"":""run_exp/static/images/task_images/rocket-04.jpg"",""time"":2845},{""stimulus"":""run_exp/static/images/task_images/rocket-05.jpg"",""time"":3795},{""stimulus"":""run_exp/static/images/task_images/rocket-06.jpg"",""time"":4754},{""stimulus"":""run_exp/static/images/task_images/rocket-07.jpg"",""time"":5685},{""stimulus"":""run_exp/static/images/task_images/rocket-08.jpg"",""time"":6635},{""stimulus"":""run_exp/static/images/task_images/rocket-09.jpg"",""time"":7584}]",[],9,,,,,,,,,,,,,,
alien_welcome,228,813431,0.0-72.0-1.0,,null,run_exp/static/images/task_images/aliens/old_aliens/planet/alien_planet-36.jpg,null,,,,,,,,,,,,36,"21,8,30,49,63,50,75,17,65,36,48,51,2,46,54,57,47,45,18,76,80,72,11,43,14,22,1,71,44,13,4,28,62,39,52,10,64,40,27,16,38,68,6,56,55,60,73,61,31",,,,,,,,,,
land,229,813949,0.0-72.0-2.0,,null,run_exp/static/images/task_images/land.jpg,null,,,,,,93,,,10,,,,,,,,,,,,,,
dig,230,815960,0.0-72.0-3.0,,,,,,,,,,,"[{""stimulus"":""run_exp/static/images/task_images/dig.jpg"",""time"":1},{""stimulus"":""run_exp/static/images/task_images/land.jpg"",""time"":681},{""stimulus"":""run_exp/static/images/task_images/dig.jpg"",""time"":1336}]",[],10,,,,,,,,,,,,,,
harvest,231,816971,0.0-72.0-4.0,,null,run_exp/static/images/task_images/gems/93.jpg,null,,,,,,19,,,10,,,,,93,0.205085078,0.204301075,,,,,,,
decision,232,819482,0.0-72.0-5.0,,2506,run_exp/static/images/task_images/land.jpg,65,,,,,,19,,,10,,,,,,,,29660,2,0,FALSE,,,
dig,233,819989,0.0-73.0-0.0,,,,,,,,,,,"[{""stimulus"":""run_exp/static/images/task_images/dig.jpg"",""time"":0},{""stimulus"":""run_exp/static/images/task_images/land.jpg"",""time"":171},{""stimulus"":""run_exp/static/images/task_images/dig.jpg"",""time"":341}]",[],10,,,,,,,,,,,,,,
harvest,234,821001,0.0-73.0-1.0,,null,run_exp/static/images/task_images/gems/19.jpg,null,,,,,,6,,,10,,,,,19,0.297953108,0.315789474,,,,,,,
decision,235,821858,0.0-73.0-2.0,,851,run_exp/static/images/task_images/land.jpg,65,,,,,,6,,,10,,,,,,,,32036,2,1,FALSE,,,
dig,236,824029,0.0-74.0-0.0,,,,,,,,,,,"[{""stimulus"":""run_exp/static/images/task_images/dig.jpg"",""time"":0},{""stimulus"":""run_exp/static/images/task_images/land.jpg"",""time"":725},{""stimulus"":""run_exp/static/images/task_images/dig.jpg"",""time"":1446}]",[],10,,,,,,,,,,,,,,
harvest,237,825051,0.0-74.0-1.0,,null,run_exp/static/images/task_images/gems/6.jpg,null,,,,,,1,,,10,,,,,6,0.227627596,0.166666667,,,,,,,
decision,238,826354,0.0-74.0-2.0,,1296,run_exp/static/images/task_images/land.jpg,65,,,,,,1,,,10,,,,,,,,36532,2,2,FALSE,,,
dig,239,828079,0.0-75.0-0.0,,,,,,,,,,,"[{""stimulus"":""run_exp/static/images/task_images/dig.jpg"",""time"":1},{""stimulus"":""run_exp/static/images/task_images/land.jpg"",""time"":580},{""stimulus"":""run_exp/static/images/task_images/dig.jpg"",""time"":1137}]",[],10,,,,,,,,,,,,,,
harvest,240,829097,0.0-75.0-1.0,,null,run_exp/static/images/task_images/gems/1.jpg,null,,,,,,0,,,10,,,,,1,0.173936971,0,,,,,,,
decision,241,831106,0.0-75.0-2.0,,2000,run_exp/static/images/task_images/land.jpg,76,,,,,,0,,,10,,,,,,,,41284,2,3,TRUE,,,
travel,242,839119,0.0-76.0-0.0,,,,,,,,,,,"[{""stimulus"":""run_exp/static/images/task_images/rocket-01.jpg"",""time"":0},{""stimulus"":""run_exp/static/images/task_images/rocket-02.jpg"",""time"":897},{""stimulus"":""run_exp/static/images/task_images/rocket-03.jpg"",""time"":1777},{""stimulus"":""run_exp/static/images/task_images/rocket-04.jpg"",""time"":2665},{""stimulus"":""run_exp/static/images/task_images/rocket-05.jpg"",""time"":3553},{""stimulus"":""run_exp/static/images/task_images/rocket-06.jpg"",""time"":4453},{""stimulus"":""run_exp/static/images/task_images/rocket-07.jpg"",""time"":5348},{""stimulus"":""run_exp/static/images/task_images/rocket-08.jpg"",""time"":6217},{""stimulus"":""run_exp/static/images/task_images/rocket-09.jpg"",""time"":7109}]",[],10,,,,,,,,,,,,,,
alien_welcome,243,844129,0.0-76.0-1.0,,null,run_exp/static/images/task_images/aliens/old_aliens/planet/alien_planet-48.jpg,null,,,,,,,,,,,,48,"21,8,30,49,63,50,75,17,65,36,48,51,2,46,54,57,47,45,18,76,80,72,11,43,14,22,1,71,44,13,4,28,62,39,52,10,64,40,27,16,38,68,6,56,55,60,73,61,31",,,,,,,,,,
land,244,844648,0.0-76.0-2.0,,null,run_exp/static/images/task_images/land.jpg,null,,,,,,105,,,11,,,,,,,,,,,,,,
dig,245,846668,0.0-76.0-3.0,,,,,,,,,,,"[{""stimulus"":""run_exp/static/images/task_images/dig.jpg"",""time"":0},{""stimulus"":""run_exp/static/images/task_images/land.jpg"",""time"":686},{""stimulus"":""run_exp/static/images/task_images/dig.jpg"",""time"":1338}]",[],11,,,,,,,,,,,,,,
harvest,246,847679,0.0-76.0-4.0,,null,run_exp/static/images/task_images/gems/105.jpg,null,,,,,,18,,,11,,,,,105,0.16846291,0.171428571,,,,,,,
decision,247,849361,0.0-76.0-5.0,,1676,run_exp/static/images/task_images/land.jpg,76,,,,,,18,,,11,,,,,,,,59539,2,0,TRUE,,,
travel,248,857681,0.0-77.0-0.0,,,,,,,,,,,"[{""stimulus"":""run_exp/static/images/task_images/rocket-01.jpg"",""time"":0},{""stimulus"":""run_exp/static/images/task_images/rocket-02.jpg"",""time"":934},{""stimulus"":""run_exp/static/images/task_images/rocket-03.jpg"",""time"":1865},{""stimulus"":""run_exp/static/images/task_images/rocket-04.jpg"",""time"":2772},{""stimulus"":""run_exp/static/images/task_images/rocket-05.jpg"",""time"":3697},{""stimulus"":""run_exp/static/images/task_images/rocket-06.jpg"",""time"":4620},{""stimulus"":""run_exp/static/images/task_images/rocket-07.jpg"",""time"":5545},{""stimulus"":""run_exp/static/images/task_images/rocket-08.jpg"",""time"":6468},{""stimulus"":""run_exp/static/images/task_images/rocket-09.jpg"",""time"":7392}]",[],11,,,,,,,,,,,,,,
alien_welcome,249,862683,0.0-77.0-1.0,,null,run_exp/static/images/task_images/aliens/old_aliens/planet/alien_planet-51.jpg,null,,,,,,,,,,,,51,"21,8,30,49,63,50,75,17,65,36,48,51,2,46,54,57,47,45,18,76,80,72,11,43,14,22,1,71,44,13,4,28,62,39,52,10,64,40,27,16,38,68,6,56,55,60,73,61,31",,,,,,,,,,
land,250,863185,0.0-77.0-2.0,,null,run_exp/static/images/task_images/land.jpg,null,,,,,,107,,,12,,,,,,,,,,,,,,
dig,251,865189,0.0-77.0-3.0,,,,,,,,,,,"[{""stimulus"":""run_exp/static/images/task_images/dig.jpg"",""time"":0},{""stimulus"":""run_exp/static/images/task_images/land.jpg"",""time"":668},{""stimulus"":""run_exp/static/images/task_images/dig.jpg"",""time"":1335}]",[],12,,,,,,,,,,,,,,
harvest,252,866190,0.0-77.0-4.0,,null,run_exp/static/images/task_images/gems/107.jpg,null,,,,,,95,,,12,,,,,107,0.889221815,0.887850467,,,,,,,
decision,253,867809,0.0-77.0-5.0,,1618,run_exp/static/images/task_images/land.jpg,65,,,,,,95,,,12,,,,,,,,77987,2,0,FALSE,,,
dig,254,869198,0.0-78.0-0.0,,,,,,,,,,,"[{""stimulus"":""run_exp/static/images/task_images/dig.jpg"",""time"":0},{""stimulus"":""run_exp/static/images/task_images/land.jpg"",""time"":461},{""stimulus"":""run_exp/static/images/task_images/dig.jpg"",""time"":921}]",[],12,,,,,,,,,,,,,,
harvest,255,870199,0.0-78.0-1.0,,null,run_exp/static/images/task_images/gems/95.jpg,null,,,,,,79,,,12,,,,,95,0.831601451,0.831578947,,,,,,,
decision,256,871937,0.0-78.0-2.0,,1737,run_exp/static/images/task_images/land.jpg,65,,,,,,79,,,12,,,,,,,,82115,2,1,FALSE,,,
dig,257,873208,0.0-79.0-0.0,,,,,,,,,,,"[{""stimulus"":""run_exp/static/images/task_images/dig.jpg"",""time"":0},{""stimulus"":""run_exp/static/images/task_images/land.jpg"",""time"":422},{""stimulus"":""run_exp/static/images/task_images/dig.jpg"",""time"":843}]",[],12,,,,,,,,,,,,,,
harvest,258,874210,0.0-79.0-1.0,,null,run_exp/static/images/task_images/gems/79.jpg,null,,,,,,65,,,12,,,,,79,0.823521776,0.82278481,,,,,,,
decision,259,875641,0.0-79.0-2.0,,1430,run_exp/static/images/task_images/land.jpg,76,,,,,,65,,,12,,,,,,,,85819,2,2,TRUE,,,
travel,260,884216,0.0-80.0-0.0,,,,,,,,,,,"[{""stimulus"":""run_exp/static/images/task_images/rocket-01.jpg"",""time"":1},{""stimulus"":""run_exp/static/images/task_images/rocket-02.jpg"",""time"":954},{""stimulus"":""run_exp/static/images/task_images/rocket-03.jpg"",""time"":1905},{""stimulus"":""run_exp/static/images/task_images/rocket-04.jpg"",""time"":2857},{""stimulus"":""run_exp/static/images/task_images/rocket-05.jpg"",""time"":3809},{""stimulus"":""run_exp/static/images/task_images/rocket-06.jpg"",""time"":4762},{""stimulus"":""run_exp/static/images/task_images/rocket-07.jpg"",""time"":5714},{""stimulus"":""run_exp/static/images/task_images/rocket-08.jpg"",""time"":6665},{""stimulus"":""run_exp/static/images/task_images/rocket-09.jpg"",""time"":7617}]",[],12,,,,,,,,,,,,,,
alien_welcome,261,889219,0.0-80.0-1.0,,null,run_exp/static/images/task_images/aliens/old_aliens/planet/alien_planet-2.jpg,null,,,,,,,,,,,,2,"21,8,30,49,63,50,75,17,65,36,48,51,2,46,54,57,47,45,18,76,80,72,11,43,14,22,1,71,44,13,4,28,62,39,52,10,64,40,27,16,38,68,6,56,55,60,73,61,31",,,,,,,,,,
land,262,889722,0.0-80.0-2.0,,null,run_exp/static/images/task_images/land.jpg,null,,,,,,103,,,13,,,,,,,,,,,,,,
dig,263,891725,0.0-80.0-3.0,,,,,,,,,,,"[{""stimulus"":""run_exp/static/images/task_images/dig.jpg"",""time"":0},{""stimulus"":""run_exp/static/images/task_images/land.jpg"",""time"":667},{""stimulus"":""run_exp/static/images/task_images/dig.jpg"",""time"":1335}]",[],13,,,,,,,,,,,,,,
harvest,264,892726,0.0-80.0-4.0,,null,run_exp/static/images/task_images/gems/103.jpg,null,,,,,,76,,,13,,,,,103,0.733425621,0.737864078,,,,,,,
decision,265,893969,0.0-80.0-5.0,,1242,run_exp/static/images/task_images/land.jpg,65,,,,,,76,,,13,,,,,,,,104147,2,0,FALSE,,,
dig,266,895734,0.0-81.0-0.0,,,,,,,,,,,"[{""stimulus"":""run_exp/static/images/task_images/dig.jpg"",""time"":0},{""stimulus"":""run_exp/static/images/task_images/land.jpg"",""time"":586},{""stimulus"":""run_exp/static/images/task_images/dig.jpg"",""time"":1172}]",[],13,,,,,,,,,,,,,,
harvest,267,896736,0.0-81.0-1.0,,null,run_exp/static/images/task_images/gems/76.jpg,null,,,,,,54,,,13,,,,,76,0.70723316,0.710526316,,,,,,,
decision,268,898209,0.0-81.0-2.0,,1472,run_exp/static/images/task_images/land.jpg,76,,,,,,54,,,13,,,,,,,,108387,2,1,TRUE,,,
travel,269,906740,0.0-82.0-0.0,,,,,,,,,,,"[{""stimulus"":""run_exp/static/images/task_images/rocket-01.jpg"",""time"":0},{""stimulus"":""run_exp/static/images/task_images/rocket-02.jpg"",""time"":947},{""stimulus"":""run_exp/static/images/task_images/rocket-03.jpg"",""time"":1894},{""stimulus"":""run_exp/static/images/task_images/rocket-04.jpg"",""time"":2841},{""stimulus"":""run_exp/static/images/task_images/rocket-05.jpg"",""time"":3789},{""stimulus"":""run_exp/static/images/task_images/rocket-06.jpg"",""time"":4735},{""stimulus"":""run_exp/static/images/task_images/rocket-07.jpg"",""time"":5683},{""stimulus"":""run_exp/static/images/task_images/rocket-08.jpg"",""time"":6630},{""stimulus"":""run_exp/static/images/task_images/rocket-09.jpg"",""time"":7576}]",[],13,,,,,,,,,,,,,,
alien_welcome,270,911750,0.0-82.0-1.0,,null,run_exp/static/images/task_images/aliens/old_aliens/planet/alien_planet-46.jpg,null,,,,,,,,,,,,46,"21,8,30,49,63,50,75,17,65,36,48,51,2,46,54,57,47,45,18,76,80,72,11,43,14,22,1,71,44,13,4,28,62,39,52,10,64,40,27,16,38,68,6,56,55,60,73,61,31",,,,,,,,,,
land,271,912252,0.0-82.0-2.0,,null,run_exp/static/images/task_images/land.jpg,null,,,,,,102,,,14,,,,,,,,,,,,,,
dig,272,914256,0.0-82.0-3.0,,,,,,,,,,,"[{""stimulus"":""run_exp/static/images/task_images/dig.jpg"",""time"":1},{""stimulus"":""run_exp/static/images/task_images/land.jpg"",""time"":668},{""stimulus"":""run_exp/static/images/task_images/dig.jpg"",""time"":1335}]",[],14,,,,,,,,,,,,,,
harvest,273,915257,0.0-82.0-4.0,,null,run_exp/static/images/task_images/gems/102.jpg,null,,,,,,84,,,14,,,,,102,0.821907313,0.823529412,,,,,,,
decision,274,917626,0.0-82.0-5.0,,2368,run_exp/static/images/task_images/land.jpg,76,,,,,,84,,,14,,,,,,,,127804,2,0,TRUE,,,
travel,275,925267,0.0-83.0-0.0,,,,,,,,,,,"[{""stimulus"":""run_exp/static/images/task_images/rocket-01.jpg"",""time"":0},{""stimulus"":""run_exp/static/images/task_images/rocket-02.jpg"",""time"":849},{""stimulus"":""run_exp/static/images/task_images/rocket-03.jpg"",""time"":1697},{""stimulus"":""run_exp/static/images/task_images/rocket-04.jpg"",""time"":2545},{""stimulus"":""run_exp/static/images/task_images/rocket-05.jpg"",""time"":3393},{""stimulus"":""run_exp/static/images/task_images/rocket-06.jpg"",""time"":4241},{""stimulus"":""run_exp/static/images/task_images/rocket-07.jpg"",""time"":5089},{""stimulus"":""run_exp/static/images/task_images/rocket-08.jpg"",""time"":5937},{""stimulus"":""run_exp/static/images/task_images/rocket-09.jpg"",""time"":6785}]",[],14,,,,,,,,,,,,,,
alien_welcome,276,930270,0.0-83.0-1.0,,null,run_exp/static/images/task_images/aliens/old_aliens/planet/alien_planet-54.jpg,null,,,,,,,,,,,,54,"21,8,30,49,63,50,75,17,65,36,48,51,2,46,54,57,47,45,18,76,80,72,11,43,14,22,1,71,44,13,4,28,62,39,52,10,64,40,27,16,38,68,6,56,55,60,73,61,31",,,,,,,,,,
land,277,930771,0.0-83.0-2.0,,null,run_exp/static/images/task_images/land.jpg,null,,,,,,98,,,15,,,,,,,,,,,,,,
dig,278,932774,0.0-83.0-3.0,,,,,,,,,,,"[{""stimulus"":""run_exp/static/images/task_images/dig.jpg"",""time"":0},{""stimulus"":""run_exp/static/images/task_images/land.jpg"",""time"":667},{""stimulus"":""run_exp/static/images/task_images/dig.jpg"",""time"":1334}]",[],15,,,,,,,,,,,,,,
harvest,279,933775,0.0-83.0-4.0,,null,run_exp/static/images/task_images/gems/98.jpg,null,,,,,,73,,,15,,,,,98,0.743076221,0.744897959,,,,,,,
decision,280,936776,0.0-83.0-5.0,,null,run_exp/static/images/task_images/land.jpg,null,,,,,,73,,,15,,,,,,,,146954,2,0,FALSE,,,
time_out,281,938781,0.0-84.0-0.0,,null,run_exp/static/images/task_images/time_out.jpg,null,,,,,,73,,,,,,,,,,,,,,,,,
decision,282,939178,0.0-84.0-1.0,,396,run_exp/static/images/task_images/land.jpg,76,,,,,,73,,,15,,,,,,,,149356,2,0,TRUE,,,
travel,283,948793,0.0-85.0-0.0,,,,,,,,,,,"[{""stimulus"":""run_exp/static/images/task_images/rocket-01.jpg"",""time"":0},{""stimulus"":""run_exp/static/images/task_images/rocket-02.jpg"",""time"":1067},{""stimulus"":""run_exp/static/images/task_images/rocket-03.jpg"",""time"":2134},{""stimulus"":""run_exp/static/images/task_images/rocket-04.jpg"",""time"":3201},{""stimulus"":""run_exp/static/images/task_images/rocket-05.jpg"",""time"":4268},{""stimulus"":""run_exp/static/images/task_images/rocket-06.jpg"",""time"":5335},{""stimulus"":""run_exp/static/images/task_images/rocket-07.jpg"",""time"":6403},{""stimulus"":""run_exp/static/images/task_images/rocket-08.jpg"",""time"":7470},{""stimulus"":""run_exp/static/images/task_images/rocket-09.jpg"",""time"":8537}]",[],15,,,,,,,,,,,,,,
alien_welcome,284,953795,0.0-85.0-1.0,,null,run_exp/static/images/task_images/aliens/old_aliens/planet/alien_planet-57.jpg,null,,,,,,,,,,,,57,"21,8,30,49,63,50,75,17,65,36,48,51,2,46,54,57,47,45,18,76,80,72,11,43,14,22,1,71,44,13,4,28,62,39,52,10,64,40,27,16,38,68,6,56,55,60,73,61,31",,,,,,,,,,
land,285,954297,0.0-85.0-2.0,,null,run_exp/static/images/task_images/land.jpg,null,,,,,,97,,,16,,,,,,,,,,,,,,
dig,286,956300,0.0-85.0-3.0,,,,,,,,,,,"[{""stimulus"":""run_exp/static/images/task_images/dig.jpg"",""time"":0},{""stimulus"":""run_exp/static/images/task_images/land.jpg"",""time"":667},{""stimulus"":""run_exp/static/images/task_images/dig.jpg"",""time"":1335}]",[],16,,,,,,,,,,,,,,
harvest,287,957302,0.0-85.0-4.0,,null,run_exp/static/images/task_images/gems/97.jpg,null,,,,,,73,,,16,,,,,97,0.757226503,0.75257732,,,,,,,
decision,288,958794,0.0-85.0-5.0,,1491,run_exp/static/images/task_images/land.jpg,76,,,,,,73,,,16,,,,,,,,168972,2,0,TRUE,,,
travel,289,967305,0.0-86.0-0.0,,,,,,,,,,,"[{""stimulus"":""run_exp/static/images/task_images/rocket-01.jpg"",""time"":0},{""stimulus"":""run_exp/static/images/task_images/rocket-02.jpg"",""time"":946},{""stimulus"":""run_exp/static/images/task_images/rocket-03.jpg"",""time"":1891},{""stimulus"":""run_exp/static/images/task_images/rocket-04.jpg"",""time"":2835},{""stimulus"":""run_exp/static/images/task_images/rocket-05.jpg"",""time"":3780},{""stimulus"":""run_exp/static/images/task_images/rocket-06.jpg"",""time"":4725},{""stimulus"":""run_exp/static/images/task_images/rocket-07.jpg"",""time"":5670},{""stimulus"":""run_exp/static/images/task_images/rocket-08.jpg"",""time"":6616},{""stimulus"":""run_exp/static/images/task_images/rocket-09.jpg"",""time"":7561}]",[],16,,,,,,,,,,,,,,
alien_welcome,290,972307,0.0-86.0-1.0,,null,run_exp/static/images/task_images/aliens/old_aliens/planet/alien_planet-47.jpg,null,,,,,,,,,,,,47,"21,8,30,49,63,50,75,17,65,36,48,51,2,46,54,57,47,45,18,76,80,72,11,43,14,22,1,71,44,13,4,28,62,39,52,10,64,40,27,16,38,68,6,56,55,60,73,61,31",,,,,,,,,,
land,291,972808,0.0-86.0-2.0,,null,run_exp/static/images/task_images/land.jpg,null,,,,,,95,,,17,,,,,,,,,,,,,,
dig,292,974811,0.0-86.0-3.0,,,,,,,,,,,"[{""stimulus"":""run_exp/static/images/task_images/dig.jpg"",""time"":0},{""stimulus"":""run_exp/static/images/task_images/land.jpg"",""time"":667},{""stimulus"":""run_exp/static/images/task_images/dig.jpg"",""time"":1334}]",[],17,,,,,,,,,,,,,,
harvest,293,975813,0.0-86.0-4.0,,null,run_exp/static/images/task_images/gems/95.jpg,null,,,,,,50,,,17,,,,,95,0.524317116,0.526315789,,,,,,,
decision,294,976441,0.0-86.0-5.0,,627,run_exp/static/images/task_images/land.jpg,65,,,,,,50,,,17,,,,,,,,186619,2,0,FALSE,,,
dig,295,978821,0.0-87.0-0.0,,,,,,,,,,,"[{""stimulus"":""run_exp/static/images/task_images/dig.jpg"",""time"":1},{""stimulus"":""run_exp/static/images/task_images/land.jpg"",""time"":793},{""stimulus"":""run_exp/static/images/task_images/dig.jpg"",""time"":1583}]",[],17,,,,,,,,,,,,,,
harvest,296,979822,0.0-87.0-1.0,,null,run_exp/static/images/task_images/gems/50.jpg,null,,,,,,22,,,17,,,,,50,0.439813035,0.44,,,,,,,
decision,297,981985,0.0-87.0-2.0,,2161,run_exp/static/images/task_images/land.jpg,76,,,,,,22,,,17,,,,,,,,192163,2,1,TRUE,,,
travel,298,989831,0.0-88.0-0.0,,,,,,,,,,,"[{""stimulus"":""run_exp/static/images/task_images/rocket-01.jpg"",""time"":1},{""stimulus"":""run_exp/static/images/task_images/rocket-02.jpg"",""time"":872},{""stimulus"":""run_exp/static/images/task_images/rocket-03.jpg"",""time"":1743},{""stimulus"":""run_exp/static/images/task_images/rocket-04.jpg"",""time"":2614},{""stimulus"":""run_exp/static/images/task_images/rocket-05.jpg"",""time"":3485},{""stimulus"":""run_exp/static/images/task_images/rocket-06.jpg"",""time"":4356},{""stimulus"":""run_exp/static/images/task_images/rocket-07.jpg"",""time"":5228},{""stimulus"":""run_exp/static/images/task_images/rocket-08.jpg"",""time"":6098},{""stimulus"":""run_exp/static/images/task_images/rocket-09.jpg"",""time"":6969}]",[],17,,,,,,,,,,,,,,
alien_welcome,299,994834,0.0-88.0-1.0,,null,run_exp/static/images/task_images/aliens/old_aliens/planet/alien_planet-45.jpg,null,,,,,,,,,,,,45,"21,8,30,49,63,50,75,17,65,36,48,51,2,46,54,57,47,45,18,76,80,72,11,43,14,22,1,71,44,13,4,28,62,39,52,10,64,40,27,16,38,68,6,56,55,60,73,61,31",,,,,,,,,,
land,300,995338,0.0-88.0-2.0,,null,run_exp/static/images/task_images/land.jpg,null,,,,,,106,,,18,,,,,,,,,,,,,,
dig,301,997343,0.0-88.0-3.0,,,,,,,,,,,"[{""stimulus"":""run_exp/static/images/task_images/dig.jpg"",""time"":1},{""stimulus"":""run_exp/static/images/task_images/land.jpg"",""time"":669},{""stimulus"":""run_exp/static/images/task_images/dig.jpg"",""time"":1336}]",[],18,,,,,,,,,,,,,,
harvest,302,998344,0.0-88.0-4.0,,null,run_exp/static/images/task_images/gems/106.jpg,null,,,,,,95,,,18,,,,,106,0.894786466,0.896226415,,,,,,,
decision,303,1000329,0.0-88.0-5.0,,1984,run_exp/static/images/task_images/land.jpg,76,,,,,,95,,,18,,,,,,,,210507,2,0,TRUE,,,
travel,304,1008346,0.0-89.0-0.0,,,,,,,,,,,"[{""stimulus"":""run_exp/static/images/task_images/rocket-01.jpg"",""time"":1},{""stimulus"":""run_exp/static/images/task_images/rocket-02.jpg"",""time"":891},{""stimulus"":""run_exp/static/images/task_images/rocket-03.jpg"",""time"":1781},{""stimulus"":""run_exp/static/images/task_images/rocket-04.jpg"",""time"":2671},{""stimulus"":""run_exp/static/images/task_images/rocket-05.jpg"",""time"":3561},{""stimulus"":""run_exp/static/images/task_images/rocket-06.jpg"",""time"":4451},{""stimulus"":""run_exp/static/images/task_images/rocket-07.jpg"",""time"":5341},{""stimulus"":""run_exp/static/images/task_images/rocket-08.jpg"",""time"":6231},{""stimulus"":""run_exp/static/images/task_images/rocket-09.jpg"",""time"":7121}]",[],18,,,,,,,,,,,,,,
alien_welcome,305,1013349,0.0-89.0-1.0,,null,run_exp/static/images/task_images/aliens/old_aliens/planet/alien_planet-18.jpg,null,,,,,,,,,,,,18,"21,8,30,49,63,50,75,17,65,36,48,51,2,46,54,57,47,45,18,76,80,72,11,43,14,22,1,71,44,13,4,28,62,39,52,10,64,40,27,16,38,68,6,56,55,60,73,61,31",,,,,,,,,,
land,306,1013851,0.0-89.0-2.0,,null,run_exp/static/images/task_images/land.jpg,null,,,,,,96,,,19,,,,,,,,,,,,,,
dig,307,1015854,0.0-89.0-3.0,,,,,,,,,,,"[{""stimulus"":""run_exp/static/images/task_images/dig.jpg"",""time"":0},{""stimulus"":""run_exp/static/images/task_images/land.jpg"",""time"":668},{""stimulus"":""run_exp/static/images/task_images/dig.jpg"",""time"":1334}]",[],19,,,,,,,,,,,,,,
harvest,308,1016855,0.0-89.0-4.0,,null,run_exp/static/images/task_images/gems/96.jpg,null,,,,,,75,,,19,,,,,96,0.781719319,0.78125,,,,,,,
decision,309,1017593,0.0-89.0-5.0,,737,run_exp/static/images/task_images/land.jpg,65,,,,,,75,,,19,,,,,,,,227771,2,0,FALSE,,,
dig,310,1019863,0.0-90.0-0.0,,,,,,,,,,,"[{""stimulus"":""run_exp/static/images/task_images/dig.jpg"",""time"":0},{""stimulus"":""run_exp/static/images/task_images/land.jpg"",""time"":755},{""stimulus"":""run_exp/static/images/task_images/dig.jpg"",""time"":1510}]",[],19,,,,,,,,,,,,,,
harvest,311,1020864,0.0-90.0-1.0,,null,run_exp/static/images/task_images/gems/75.jpg,null,,,,,,60,,,19,,,,,75,0.793335245,0.8,,,,,,,
decision,312,1022705,0.0-90.0-2.0,,1840,run_exp/static/images/task_images/land.jpg,76,,,,,,60,,,19,,,,,,,,232883,2,1,TRUE,,,
travel,313,1030867,0.0-91.0-0.0,,,,,,,,,,,"[{""stimulus"":""run_exp/static/images/task_images/rocket-01.jpg"",""time"":0},{""stimulus"":""run_exp/static/images/task_images/rocket-02.jpg"",""time"":906},{""stimulus"":""run_exp/static/images/task_images/rocket-03.jpg"",""time"":1812},{""stimulus"":""run_exp/static/images/task_images/rocket-04.jpg"",""time"":2718},{""stimulus"":""run_exp/static/images/task_images/rocket-05.jpg"",""time"":3624},{""stimulus"":""run_exp/static/images/task_images/rocket-06.jpg"",""time"":4530},{""stimulus"":""run_exp/static/images/task_images/rocket-07.jpg"",""time"":5437},{""stimulus"":""run_exp/static/images/task_images/rocket-08.jpg"",""time"":6342},{""stimulus"":""run_exp/static/images/task_images/rocket-09.jpg"",""time"":7249}]",[],19,,,,,,,,,,,,,,
alien_welcome,314,1035870,0.0-91.0-1.0,,null,run_exp/static/images/task_images/aliens/old_aliens/planet/alien_planet-76.jpg,null,,,,,,,,,,,,76,"21,8,30,49,63,50,75,17,65,36,48,51,2,46,54,57,47,45,18,76,80,72,11,43,14,22,1,71,44,13,4,28,62,39,52,10,64,40,27,16,38,68,6,56,55,60,73,61,31",,,,,,,,,,
land,315,1036372,0.0-91.0-2.0,,null,run_exp/static/images/task_images/land.jpg,null,,,,,,101,,,20,,,,,,,,,,,,,,
dig,316,1038375,0.0-91.0-3.0,,,,,,,,,,,"[{""stimulus"":""run_exp/static/images/task_images/dig.jpg"",""time"":0},{""stimulus"":""run_exp/static/images/task_images/land.jpg"",""time"":667},{""stimulus"":""run_exp/static/images/task_images/dig.jpg"",""time"":1334}]",[],20,,,,,,,,,,,,,,
harvest,317,1039376,0.0-91.0-4.0,,null,run_exp/static/images/task_images/gems/101.jpg,null,,,,,,30,,,20,,,,,101,0.29882832,0.297029703,,,,,,,
decision,318,1040666,0.0-91.0-5.0,,1289,run_exp/static/images/task_images/land.jpg,76,,,,,,30,,,20,,,,,,,,250844,2,0,TRUE,,,
travel,319,1049378,0.0-92.0-0.0,,,,,,,,,,,"[{""stimulus"":""run_exp/static/images/task_images/rocket-01.jpg"",""time"":0},{""stimulus"":""run_exp/static/images/task_images/rocket-02.jpg"",""time"":968},{""stimulus"":""run_exp/static/images/task_images/rocket-03.jpg"",""time"":1935},{""stimulus"":""run_exp/static/images/task_images/rocket-04.jpg"",""time"":2901},{""stimulus"":""run_exp/static/images/task_images/rocket-05.jpg"",""time"":3868},{""stimulus"":""run_exp/static/images/task_images/rocket-06.jpg"",""time"":4836},{""stimulus"":""run_exp/static/images/task_images/rocket-07.jpg"",""time"":5803},{""stimulus"":""run_exp/static/images/task_images/rocket-08.jpg"",""time"":6769},{""stimulus"":""run_exp/static/images/task_images/rocket-09.jpg"",""time"":7737}]",[],20,,,,,,,,,,,,,,
alien_welcome,320,1054380,0.0-92.0-1.0,,null,run_exp/static/images/task_images/aliens/old_aliens/planet/alien_planet-80.jpg,null,,,,,,,,,,,,80,"21,8,30,49,63,50,75,17,65,36,48,51,2,46,54,57,47,45,18,76,80,72,11,43,14,22,1,71,44,13,4,28,62,39,52,10,64,40,27,16,38,68,6,56,55,60,73,61,31",,,,,,,,,,
land,321,1054882,0.0-92.0-2.0,,null,run_exp/static/images/task_images/land.jpg,null,,,,,,106,,,21,,,,,,,,,,,,,,
dig,322,1056886,0.0-92.0-3.0,,,,,,,,,,,"[{""stimulus"":""run_exp/static/images/task_images/dig.jpg"",""time"":0},{""stimulus"":""run_exp/static/images/task_images/land.jpg"",""time"":668},{""stimulus"":""run_exp/static/images/task_images/dig.jpg"",""time"":1334}]",[],21,,,,,,,,,,,,,,
harvest,323,1057887,0.0-92.0-4.0,,null,run_exp/static/images/task_images/gems/106.jpg,null,,,,,,26,,,21,,,,,106,0.246075002,0.245283019,,,,,,,
decision,324,1059490,0.0-92.0-5.0,,1601,run_exp/static/images/task_images/land.jpg,76,,,,,,26,,,21,,,,,,,,269668,2,0,TRUE,,,
travel,325,1067894,0.0-93.0-0.0,,,,,,,,,,,"[{""stimulus"":""run_exp/static/images/task_images/rocket-01.jpg"",""time"":1},{""stimulus"":""run_exp/static/images/task_images/rocket-02.jpg"",""time"":934},{""stimulus"":""run_exp/static/images/task_images/rocket-03.jpg"",""time"":1867},{""stimulus"":""run_exp/static/images/task_images/rocket-04.jpg"",""time"":2800},{""stimulus"":""run_exp/static/images/task_images/rocket-05.jpg"",""time"":3734},{""stimulus"":""run_exp/static/images/task_images/rocket-06.jpg"",""time"":4666},{""stimulus"":""run_exp/static/images/task_images/rocket-07.jpg"",""time"":5599},{""stimulus"":""run_exp/static/images/task_images/rocket-08.jpg"",""time"":6533},{""stimulus"":""run_exp/static/images/task_images/rocket-09.jpg"",""time"":7465}]",[],21,,,,,,,,,,,,,,
alien_welcome,326,1072896,0.0-93.0-1.0,,null,run_exp/static/images/task_images/aliens/old_aliens/planet/alien_planet-72.jpg,null,,,,,,,,,,,,72,"21,8,30,49,63,50,75,17,65,36,48,51,2,46,54,57,47,45,18,76,80,72,11,43,14,22,1,71,44,13,4,28,62,39,52,10,64,40,27,16,38,68,6,56,55,60,73,61,31",,,,,,,,,,
land,327,1073397,0.0-93.0-2.0,,null,run_exp/static/images/task_images/land.jpg,null,,,,,,101,,,22,,,,,,,,,,,,,,
dig,328,1075402,0.0-93.0-3.0,,,,,,,,,,,"[{""stimulus"":""run_exp/static/images/task_images/dig.jpg"",""time"":0},{""stimulus"":""run_exp/static/images/task_images/land.jpg"",""time"":668},{""stimulus"":""run_exp/static/images/task_images/dig.jpg"",""time"":1334}]",[],22,,,,,,,,,,,,,,
harvest,329,1076404,0.0-93.0-4.0,,null,run_exp/static/images/task_images/gems/101.jpg,null,,,,,,22,,,22,,,,,101,0.221716035,0.217821782,,,,,,,
decision,330,1077586,0.0-93.0-5.0,,1181,run_exp/static/images/task_images/land.jpg,65,,,,,,22,,,22,,,,,,,,287764,2,0,FALSE,,,
dig,331,1079412,0.0-94.0-0.0,,,,,,,,,,,"[{""stimulus"":""run_exp/static/images/task_images/dig.jpg"",""time"":0},{""stimulus"":""run_exp/static/images/task_images/land.jpg"",""time"":606},{""stimulus"":""run_exp/static/images/task_images/dig.jpg"",""time"":1213}]",[],22,,,,,,,,,,,,,,
harvest,332,1080413,0.0-94.0-1.0,,null,run_exp/static/images/task_images/gems/22.jpg,null,,,,,,6,,,22,,,,,22,0.278155001,0.272727273,,,,,,,
decision,333,1083178,0.0-94.0-2.0,,2764,run_exp/static/images/task_images/land.jpg,65,,,,,,6,,,22,,,,,,,,293356,2,1,FALSE,,,
dig,334,1083420,0.0-95.0-0.0,,,,,,,,,,,"[{""stimulus"":""run_exp/static/images/task_images/dig.jpg"",""time"":0},{""stimulus"":""run_exp/static/images/task_images/land.jpg"",""time"":78},{""stimulus"":""run_exp/static/images/task_images/dig.jpg"",""time"":156}]",[],22,,,,,,,,,,,,,,
harvest,335,1084421,0.0-95.0-1.0,,null,run_exp/static/images/task_images/gems/6.jpg,null,,,,,,1,,,22,,,,,6,0.221124401,0.166666667,,,,,,,
decision,336,1086106,0.0-95.0-2.0,,1684,run_exp/static/images/task_images/land.jpg,76,,,,,,1,,,22,,,,,,,,296284,2,2,TRUE,,,
travel,337,1094430,0.0-96.0-0.0,,,,,,,,,,,"[{""stimulus"":""run_exp/static/images/task_images/rocket-01.jpg"",""time"":0},{""stimulus"":""run_exp/static/images/task_images/rocket-02.jpg"",""time"":924},{""stimulus"":""run_exp/static/images/task_images/rocket-03.jpg"",""time"":1848},{""stimulus"":""run_exp/static/images/task_images/rocket-04.jpg"",""time"":2772},{""stimulus"":""run_exp/static/images/task_images/rocket-05.jpg"",""time"":3696},{""stimulus"":""run_exp/static/images/task_images/rocket-06.jpg"",""time"":4620},{""stimulus"":""run_exp/static/images/task_images/rocket-07.jpg"",""time"":5544},{""stimulus"":""run_exp/static/images/task_images/rocket-08.jpg"",""time"":6468},{""stimulus"":""run_exp/static/images/task_images/rocket-09.jpg"",""time"":7392}]",[],22,,,,,,,,,,,,,,
alien_welcome,338,1099432,0.0-96.0-1.0,,null,run_exp/static/images/task_images/aliens/old_aliens/planet/alien_planet-11.jpg,null,,,,,,,,,,,,11,"21,8,30,49,63,50,75,17,65,36,48,51,2,46,54,57,47,45,18,76,80,72,11,43,14,22,1,71,44,13,4,28,62,39,52,10,64,40,27,16,38,68,6,56,55,60,73,61,31",,,,,,,,,,
land,339,1099935,0.0-96.0-2.0,,null,run_exp/static/images/task_images/land.jpg,null,,,,,,94,,,23,,,,,,,,,,,,,,
dig,340,1101938,0.0-96.0-3.0,,,,,,,,,,,"[{""stimulus"":""run_exp/static/images/task_images/dig.jpg"",""time"":0},{""stimulus"":""run_exp/static/images/task_images/land.jpg"",""time"":667},{""stimulus"":""run_exp/static/images/task_images/dig.jpg"",""time"":1334}]",[],23,,,,,,,,,,,,,,
harvest,341,1102939,0.0-96.0-4.0,,null,run_exp/static/images/task_images/gems/94.jpg,null,,,,,,20,,,23,,,,,94,0.217384806,0.212765957,,,,,,,
decision,342,1104298,0.0-96.0-5.0,,1358,run_exp/static/images/task_images/land.jpg,76,,,,,,20,,,23,,,,,,,,314476,2,0,TRUE,,,
end_of_block_continue,343,1113191,0.0-97.0-0.0,,null,run_exp/static/audio/clip_32_block_end.m4a,,,,,,null,,,,,,,,,,,,,,,,,,
alien_welcome,344,1118200,0.0-98.0-0.0,,null,run_exp/static/images/task_images/aliens/old_aliens/planet/alien_planet-43.jpg,null,,,,,,,,,,,,43,"21,8,30,49,63,50,75,17,65,36,48,51,2,46,54,57,47,45,18,76,80,72,11,43,14,22,1,71,44,13,4,28,62,39,52,10,64,40,27,16,38,68,6,56,55,60,73,61,31",,,,,,,,,,
land,345,1118702,0.0-98.0-1.0,,null,run_exp/static/images/task_images/land.jpg,null,,,,,,99,,,24,,,,,,,,,,,,,,
dig,346,1120706,0.0-98.0-2.0,,,,,,,,,,,"[{""stimulus"":""run_exp/static/images/task_images/dig.jpg"",""time"":0},{""stimulus"":""run_exp/static/images/task_images/land.jpg"",""time"":668},{""stimulus"":""run_exp/static/images/task_images/dig.jpg"",""time"":1334}]",[],24,,,,,,,,,,,,,,
harvest,347,1121716,0.0-98.0-3.0,,null,run_exp/static/images/task_images/gems/99.jpg,null,,,,,,42,,,24,,,,,99,0.425982807,0.424242424,,,,,,,
decision,348,1123442,0.0-98.0-4.0,,1720,run_exp/static/images/task_images/land.jpg,76,,,,,,42,,,24,,,,,,,,10244,3,0,TRUE,,,
travel,349,1131730,0.0-99.0-0.0,,,,,,,,,,,"[{""stimulus"":""run_exp/static/images/task_images/rocket-01.jpg"",""time"":0},{""stimulus"":""run_exp/static/images/task_images/rocket-02.jpg"",""time"":921},{""stimulus"":""run_exp/static/images/task_images/rocket-03.jpg"",""time"":1841},{""stimulus"":""run_exp/static/images/task_images/rocket-04.jpg"",""time"":2761},{""stimulus"":""run_exp/static/images/task_images/rocket-05.jpg"",""time"":3681},{""stimulus"":""run_exp/static/images/task_images/rocket-06.jpg"",""time"":4601},{""stimulus"":""run_exp/static/images/task_images/rocket-07.jpg"",""time"":5520},{""stimulus"":""run_exp/static/images/task_images/rocket-08.jpg"",""time"":6441},{""stimulus"":""run_exp/static/images/task_images/rocket-09.jpg"",""time"":7361}]",[],24,,,,,,,,,,,,,,
alien_welcome,350,1136732,0.0-99.0-1.0,,null,run_exp/static/images/task_images/aliens/old_aliens/planet/alien_planet-14.jpg,null,,,,,,,,,,,,14,"21,8,30,49,63,50,75,17,65,36,48,51,2,46,54,57,47,45,18,76,80,72,11,43,14,22,1,71,44,13,4,28,62,39,52,10,64,40,27,16,38,68,6,56,55,60,73,61,31",,,,,,,,,,
land,351,1137236,0.0-99.0-2.0,,null,run_exp/static/images/task_images/land.jpg,null,,,,,,100,,,25,,,,,,,,,,,,,,
dig,352,1139241,0.0-99.0-3.0,,,,,,,,,,,"[{""stimulus"":""run_exp/static/images/task_images/dig.jpg"",""time"":0},{""stimulus"":""run_exp/static/images/task_images/land.jpg"",""time"":667},{""stimulus"":""run_exp/static/images/task_images/dig.jpg"",""time"":1334}]",[],25,,,,,,,,,,,,,,
harvest,353,1140242,0.0-99.0-4.0,,null,run_exp/static/images/task_images/gems/100.jpg,null,,,,,,87,,,25,,,,,100,0.87048849,0.87,,,,,,,
decision,354,1141538,0.0-99.0-5.0,,1295,run_exp/static/images/task_images/land.jpg,76,,,,,,87,,,25,,,,,,,,28340,3,0,TRUE,,,
travel,355,1150250,0.0-100.0-0.0,,,,,,,,,,,"[{""stimulus"":""run_exp/static/images/task_images/rocket-01.jpg"",""time"":0},{""stimulus"":""run_exp/static/images/task_images/rocket-02.jpg"",""time"":967},{""stimulus"":""run_exp/static/images/task_images/rocket-03.jpg"",""time"":1934},{""stimulus"":""run_exp/static/images/task_images/rocket-04.jpg"",""time"":2901},{""stimulus"":""run_exp/static/images/task_images/rocket-05.jpg"",""time"":3868},{""stimulus"":""run_exp/static/images/task_images/rocket-06.jpg"",""time"":4835},{""stimulus"":""run_exp/static/images/task_images/rocket-07.jpg"",""time"":5802},{""stimulus"":""run_exp/static/images/task_images/rocket-08.jpg"",""time"":6769},{""stimulus"":""run_exp/static/images/task_images/rocket-09.jpg"",""time"":7737}]",[],25,,,,,,,,,,,,,,
alien_welcome,356,1155252,0.0-100.0-1.0,,null,run_exp/static/images/task_images/aliens/old_aliens/planet/alien_planet-22.jpg,null,,,,,,,,,,,,22,"21,8,30,49,63,50,75,17,65,36,48,51,2,46,54,57,47,45,18,76,80,72,11,43,14,22,1,71,44,13,4,28,62,39,52,10,64,40,27,16,38,68,6,56,55,60,73,61,31",,,,,,,,,,
land,357,1155753,0.0-100.0-2.0,,null,run_exp/static/images/task_images/land.jpg,null,,,,,,102,,,26,,,,,,,,,,,,,,
dig,358,1157756,0.0-100.0-3.0,,,,,,,,,,,"[{""stimulus"":""run_exp/static/images/task_images/dig.jpg"",""time"":0},{""stimulus"":""run_exp/static/images/task_images/land.jpg"",""time"":667},{""stimulus"":""run_exp/static/images/task_images/dig.jpg"",""time"":1335}]",[],26,,,,,,,,,,,,,,
harvest,359,1158757,0.0-100.0-4.0,,null,run_exp/static/images/task_images/gems/102.jpg,null,,,,,,55,,,26,,,,,102,0.537604283,0.539215686,,,,,,,
decision,360,1160930,0.0-100.0-5.0,,2172,run_exp/static/images/task_images/land.jpg,65,,,,,,55,,,26,,,,,,,,47732,3,0,FALSE,,,
dig,361,1161766,0.0-101.0-0.0,,,,,,,,,,,"[{""stimulus"":""run_exp/static/images/task_images/dig.jpg"",""time"":0},{""stimulus"":""run_exp/static/images/task_images/land.jpg"",""time"":276},{""stimulus"":""run_exp/static/images/task_images/dig.jpg"",""time"":553}]",[],26,,,,,,,,,,,,,,
harvest,362,1162767,0.0-101.0-1.0,,null,run_exp/static/images/task_images/gems/55.jpg,null,,,,,,23,,,26,,,,,55,0.421297179,0.418181818,,,,,,,
decision,363,1164242,0.0-101.0-2.0,,1473,run_exp/static/images/task_images/land.jpg,76,,,,,,23,,,26,,,,,,,,51044,3,1,TRUE,,,
travel,364,1172773,0.0-102.0-0.0,,,,,,,,,,,"[{""stimulus"":""run_exp/static/images/task_images/rocket-01.jpg"",""time"":1},{""stimulus"":""run_exp/static/images/task_images/rocket-02.jpg"",""time"":948},{""stimulus"":""run_exp/static/images/task_images/rocket-03.jpg"",""time"":1895},{""stimulus"":""run_exp/static/images/task_images/rocket-04.jpg"",""time"":2843},{""stimulus"":""run_exp/static/images/task_images/rocket-05.jpg"",""time"":3789},{""stimulus"":""run_exp/static/images/task_images/rocket-06.jpg"",""time"":4736},{""stimulus"":""run_exp/static/images/task_images/rocket-07.jpg"",""time"":5683},{""stimulus"":""run_exp/static/images/task_images/rocket-08.jpg"",""time"":6630},{""stimulus"":""run_exp/static/images/task_images/rocket-09.jpg"",""time"":7577}]",[],26,,,,,,,,,,,,,,
alien_welcome,365,1177775,0.0-102.0-1.0,,null,run_exp/static/images/task_images/aliens/old_aliens/planet/alien_planet-1.jpg,null,,,,,,,,,,,,1,"21,8,30,49,63,50,75,17,65,36,48,51,2,46,54,57,47,45,18,76,80,72,11,43,14,22,1,71,44,13,4,28,62,39,52,10,64,40,27,16,38,68,6,56,55,60,73,61,31",,,,,,,,,,
land,366,1178276,0.0-102.0-2.0,,null,run_exp/static/images/task_images/land.jpg,null,,,,,,102,,,27,,,,,,,,,,,,,,
dig,367,1180281,0.0-102.0-3.0,,,,,,,,,,,"[{""stimulus"":""run_exp/static/images/task_images/dig.jpg"",""time"":0},{""stimulus"":""run_exp/static/images/task_images/land.jpg"",""time"":669},{""stimulus"":""run_exp/static/images/task_images/dig.jpg"",""time"":1335}]",[],27,,,,,,,,,,,,,,
harvest,368,1181283,0.0-102.0-4.0,,null,run_exp/static/images/task_images/gems/102.jpg,null,,,,,,61,,,27,,,,,102,0.598714444,0.598039216,,,,,,,
decision,369,1182786,0.0-102.0-5.0,,1502,run_exp/static/images/task_images/land.jpg,65,,,,,,61,,,27,,,,,,,,69588,3,0,FALSE,,,
dig,370,1184291,0.0-103.0-0.0,,,,,,,,,,,"[{""stimulus"":""run_exp/static/images/task_images/dig.jpg"",""time"":0},{""stimulus"":""run_exp/static/images/task_images/land.jpg"",""time"":499},{""stimulus"":""run_exp/static/images/task_images/dig.jpg"",""time"":998}]",[],27,,,,,,,,,,,,,,
harvest,371,1185292,0.0-103.0-1.0,,null,run_exp/static/images/task_images/gems/61.jpg,null,,,,,,29,,,27,,,,,61,0.480958869,0.475409836,,,,,,,
decision,372,1186714,0.0-103.0-2.0,,1420,run_exp/static/images/task_images/land.jpg,76,,,,,,29,,,27,,,,,,,,73516,3,1,TRUE,,,
travel,373,1195299,0.0-104.0-0.0,,,,,,,,,,,"[{""stimulus"":""run_exp/static/images/task_images/rocket-01.jpg"",""time"":0},{""stimulus"":""run_exp/static/images/task_images/rocket-02.jpg"",""time"":954},{""stimulus"":""run_exp/static/images/task_images/rocket-03.jpg"",""time"":1906},{""stimulus"":""run_exp/static/images/task_images/rocket-04.jpg"",""time"":2859},{""stimulus"":""run_exp/static/images/task_images/rocket-05.jpg"",""time"":3812},{""stimulus"":""run_exp/static/images/task_images/rocket-06.jpg"",""time"":4765},{""stimulus"":""run_exp/static/images/task_images/rocket-07.jpg"",""time"":5719},{""stimulus"":""run_exp/static/images/task_images/rocket-08.jpg"",""time"":6671},{""stimulus"":""run_exp/static/images/task_images/rocket-09.jpg"",""time"":7625}]",[],27,,,,,,,,,,,,,,
alien_welcome,374,1200303,0.0-104.0-1.0,,null,run_exp/static/images/task_images/aliens/old_aliens/planet/alien_planet-71.jpg,null,,,,,,,,,,,,71,"21,8,30,49,63,50,75,17,65,36,48,51,2,46,54,57,47,45,18,76,80,72,11,43,14,22,1,71,44,13,4,28,62,39,52,10,64,40,27,16,38,68,6,56,55,60,73,61,31",,,,,,,,,,
land,375,1200806,0.0-104.0-2.0,,null,run_exp/static/images/task_images/land.jpg,null,,,,,,103,,,28,,,,,,,,,,,,,,
dig,376,1202809,0.0-104.0-3.0,,,,,,,,,,,"[{""stimulus"":""run_exp/static/images/task_images/dig.jpg"",""time"":0},{""stimulus"":""run_exp/static/images/task_images/land.jpg"",""time"":668},{""stimulus"":""run_exp/static/images/task_images/dig.jpg"",""time"":1334}]",[],28,,,,,,,,,,,,,,
harvest,377,1203810,0.0-104.0-4.0,,null,run_exp/static/images/task_images/gems/103.jpg,null,,,,,,58,,,28,,,,,103,0.559106481,0.563106796,,,,,,,
decision,378,1205514,0.0-104.0-5.0,,1703,run_exp/static/images/task_images/land.jpg,76,,,,,,58,,,28,,,,,,,,92316,3,0,TRUE,,,
travel,379,1213812,0.0-105.0-0.0,,,,,,,,,,,"[{""stimulus"":""run_exp/static/images/task_images/rocket-01.jpg"",""time"":0},{""stimulus"":""run_exp/static/images/task_images/rocket-02.jpg"",""time"":922},{""stimulus"":""run_exp/static/images/task_images/rocket-03.jpg"",""time"":1843},{""stimulus"":""run_exp/static/images/task_images/rocket-04.jpg"",""time"":2764},{""stimulus"":""run_exp/static/images/task_images/rocket-05.jpg"",""time"":3685},{""stimulus"":""run_exp/static/images/task_images/rocket-06.jpg"",""time"":4607},{""stimulus"":""run_exp/static/images/task_images/rocket-07.jpg"",""time"":5527},{""stimulus"":""run_exp/static/images/task_images/rocket-08.jpg"",""time"":6448},{""stimulus"":""run_exp/static/images/task_images/rocket-09.jpg"",""time"":7369}]",[],28,,,,,,,,,,,,,,
alien_welcome,380,1218814,0.0-105.0-1.0,,null,run_exp/static/images/task_images/aliens/old_aliens/planet/alien_planet-44.jpg,null,,,,,,,,,,,,44,"21,8,30,49,63,50,75,17,65,36,48,51,2,46,54,57,47,45,18,76,80,72,11,43,14,22,1,71,44,13,4,28,62,39,52,10,64,40,27,16,38,68,6,56,55,60,73,61,31",,,,,,,,,,
land,381,1219315,0.0-105.0-2.0,,null,run_exp/static/images/task_images/land.jpg,null,,,,,,93,,,29,,,,,,,,,,,,,,
dig,382,1221322,0.0-105.0-3.0,,,,,,,,,,,"[{""stimulus"":""run_exp/static/images/task_images/dig.jpg"",""time"":0},{""stimulus"":""run_exp/static/images/task_images/land.jpg"",""time"":670},{""stimulus"":""run_exp/static/images/task_images/dig.jpg"",""time"":1338}]",[],29,,,,,,,,,,,,,,
harvest,383,1222323,0.0-105.0-4.0,,null,run_exp/static/images/task_images/gems/93.jpg,null,,,,,,45,,,29,,,,,93,0.481284737,0.483870968,,,,,,,
decision,384,1223458,0.0-105.0-5.0,,1134,run_exp/static/images/task_images/land.jpg,76,,,,,,45,,,29,,,,,,,,110261,3,0,TRUE,,,
travel,385,1232331,0.0-106.0-0.0,,,,,,,,,,,"[{""stimulus"":""run_exp/static/images/task_images/rocket-01.jpg"",""time"":0},{""stimulus"":""run_exp/static/images/task_images/rocket-02.jpg"",""time"":986},{""stimulus"":""run_exp/static/images/task_images/rocket-03.jpg"",""time"":1970},{""stimulus"":""run_exp/static/images/task_images/rocket-04.jpg"",""time"":2957},{""stimulus"":""run_exp/static/images/task_images/rocket-05.jpg"",""time"":3940},{""stimulus"":""run_exp/static/images/task_images/rocket-06.jpg"",""time"":4926},{""stimulus"":""run_exp/static/images/task_images/rocket-07.jpg"",""time"":5910},{""stimulus"":""run_exp/static/images/task_images/rocket-08.jpg"",""time"":6896},{""stimulus"":""run_exp/static/images/task_images/rocket-09.jpg"",""time"":7880}]",[],29,,,,,,,,,,,,,,
alien_welcome,386,1237333,0.0-106.0-1.0,,null,run_exp/static/images/task_images/aliens/old_aliens/planet/alien_planet-13.jpg,null,,,,,,,,,,,,13,"21,8,30,49,63,50,75,17,65,36,48,51,2,46,54,57,47,45,18,76,80,72,11,43,14,22,1,71,44,13,4,28,62,39,52,10,64,40,27,16,38,68,6,56,55,60,73,61,31",,,,,,,,,,
land,387,1237834,0.0-106.0-2.0,,null,run_exp/static/images/task_images/land.jpg,null,,,,,,97,,,30,,,,,,,,,,,,,,
dig,388,1239838,0.0-106.0-3.0,,,,,,,,,,,"[{""stimulus"":""run_exp/static/images/task_images/dig.jpg"",""time"":1},{""stimulus"":""run_exp/static/images/task_images/land.jpg"",""time"":668},{""stimulus"":""run_exp/static/images/task_images/dig.jpg"",""time"":1336}]",[],30,,,,,,,,,,,,,,
harvest,389,1240839,0.0-106.0-4.0,,null,run_exp/static/images/task_images/gems/97.jpg,null,,,,,,85,,,30,,,,,97,0.878063464,0.87628866,,,,,,,
decision,390,1240890,0.0-106.0-5.0,,49,run_exp/static/images/task_images/land.jpg,65,,,,,,85,,,30,,,,,,,,127692,3,0,FALSE,,,
dig,391,1243843,0.0-107.0-0.0,,,,,,,,,,,"[{""stimulus"":""run_exp/static/images/task_images/dig.jpg"",""time"":0},{""stimulus"":""run_exp/static/images/task_images/land.jpg"",""time"":983},{""stimulus"":""run_exp/static/images/task_images/dig.jpg"",""time"":1967}]",[],30,,,,,,,,,,,,,,
harvest,392,1244844,0.0-107.0-1.0,,null,run_exp/static/images/task_images/gems/85.jpg,null,,,,,,74,,,30,,,,,85,0.867244943,0.870588235,,,,,,,
decision,393,1247202,0.0-107.0-2.0,,2357,run_exp/static/images/task_images/land.jpg,65,,,,,,74,,,30,,,,,,,,134004,3,1,FALSE,,,
dig,394,1247854,0.0-108.0-0.0,,,,,,,,,,,"[{""stimulus"":""run_exp/static/images/task_images/dig.jpg"",""time"":0},{""stimulus"":""run_exp/static/images/task_images/land.jpg"",""time"":215},{""stimulus"":""run_exp/static/images/task_images/dig.jpg"",""time"":429}]",[],30,,,,,,,,,,,,,,
harvest,395,1248855,0.0-108.0-1.0,,null,run_exp/static/images/task_images/gems/74.jpg,null,,,,,,61,,,30,,,,,74,0.826106058,0.824324324,,,,,,,
decision,396,1249611,0.0-108.0-2.0,,753,run_exp/static/images/task_images/land.jpg,65,,,,,,61,,,30,,,,,,,,136413,3,2,FALSE,,,
dig,397,1251865,0.0-109.0-0.0,,,,,,,,,,,"[{""stimulus"":""run_exp/static/images/task_images/dig.jpg"",""time"":0},{""stimulus"":""run_exp/static/images/task_images/land.jpg"",""time"":750},{""stimulus"":""run_exp/static/images/task_images/dig.jpg"",""time"":1498}]",[],30,,,,,,,,,,,,,,
harvest,398,1252866,0.0-109.0-1.0,,null,run_exp/static/images/task_images/gems/61.jpg,null,,,,,,44,,,30,,,,,61,0.71955933,0.721311475,,,,,,,
decision,399,1254426,0.0-109.0-2.0,,1559,run_exp/static/images/task_images/land.jpg,76,,,,,,44,,,30,,,,,,,,141228,3,3,TRUE,,,
travel,400,1262868,0.0-110.0-0.0,,,,,,,,,,,"[{""stimulus"":""run_exp/static/images/task_images/rocket-01.jpg"",""time"":1},{""stimulus"":""run_exp/static/images/task_images/rocket-02.jpg"",""time"":938},{""stimulus"":""run_exp/static/images/task_images/rocket-03.jpg"",""time"":1876},{""stimulus"":""run_exp/static/images/task_images/rocket-04.jpg"",""time"":2812},{""stimulus"":""run_exp/static/images/task_images/rocket-05.jpg"",""time"":3749},{""stimulus"":""run_exp/static/images/task_images/rocket-06.jpg"",""time"":4686},{""stimulus"":""run_exp/static/images/task_images/rocket-07.jpg"",""time"":5623},{""stimulus"":""run_exp/static/images/task_images/rocket-08.jpg"",""time"":6560},{""stimulus"":""run_exp/static/images/task_images/rocket-09.jpg"",""time"":7498}]",[],30,,,,,,,,,,,,,,
alien_welcome,401,1267871,0.0-110.0-1.0,,null,run_exp/static/images/task_images/aliens/old_aliens/planet/alien_planet-4.jpg,null,,,,,,,,,,,,4,"21,8,30,49,63,50,75,17,65,36,48,51,2,46,54,57,47,45,18,76,80,72,11,43,14,22,1,71,44,13,4,28,62,39,52,10,64,40,27,16,38,68,6,56,55,60,73,61,31",,,,,,,,,,
