trial_type,trial_index,time_elapsed,internal_node_id,interactions,blur_events,focus_events,fullscreenenter_events,fullscreenexit_events,success,rt,stimulus,key_press,prompt,subject_id,participant_id,age,gender,button_pressed,next_reward,animation_sequence,responses,planet,curr_prac_trial,n_prac_rounds,alien,aliens,reward_received,decay_rate_actual,decay_rate_exp,time_in_block,block_num,prt,last_trial_on_planet,button_html,bonus,num_failures
pavlovia,0,7,0.0-0.0,"""event"",""trial"",""time""
""fullscreenenter"",""1"",""47218""
","
","
","""event"",""trial"",""time""
""fullscreenenter"",""1"",""47218""
","
",,,,,,,,,,,,,,,,,,,,,,,,,,,,
fullscreen,1,48145,0.0-1.0,"""event"",""trial"",""time""
""fullscreenenter"",""1"",""47218""
","
","
","""event"",""trial"",""time""
""fullscreenenter"",""1"",""47218""
","
",TRUE,,,,,,,,,,,,,,,,,,,,,,,,,,,
instruc_welcome,2,58626,0.0-2.0,"""event"",""trial"",""time""
""fullscreenenter"",""1"",""47218""
","
","
","""event"",""trial"",""time""
""fullscreenenter"",""1"",""47218""
","
",,null,run_exp/static/audio/clip_1_welcome.m4a,null,"<p>Howdy! In this experiment, you’ll be an explorer traveling through space to collect space treasure.</p><p>Your mission is to collect as much treasure as possible.</p><br><br><p><img src='run_exp/static/images/task_images/opening_img-01.jpg' height='300' width='auto'></p>",8897,23,8.4,Female,,,,,,,,,,,,,,,,,,,
audio-keyboard-response,3,75244,0.0-3.0,"""event"",""trial"",""time""
""fullscreenenter"",""1"",""47218""
","
","
","""event"",""trial"",""time""
""fullscreenenter"",""1"",""47218""
","
",,null,run_exp/static/audio/clip_2_move.m4a,null,,,,,,,,,,,,,,,,,,,,,,,,
welcome_dec,4,77429,0.0-4.0,"""event"",""trial"",""time""
""fullscreenenter"",""1"",""47218""
","
","
","""event"",""trial"",""time""
""fullscreenenter"",""1"",""47218""
","
",,2176,"<p>Howdy! In this experiment, you’ll be an explorer traveling through space to collect space treasure.</p><p>Your mission is to collect as much treasure as possible.</p><br><br><p><img src='run_exp/static/images/task_images/opening_img-01.jpg' height='300' width='auto'></p>",,,,,,,0,,,,,,,,,,,,,,,,,,
html-keyboard-response,5,79431,0.0-5.0,"""event"",""trial"",""time""
""fullscreenenter"",""1"",""47218""
","
","
","""event"",""trial"",""time""
""fullscreenenter"",""1"",""47218""
","
",,1994.3,"<p>Howdy! In this experiment, you’ll be an explorer traveling through space to collect space treasure.</p><p>Your mission is to collect as much treasure as possible.</p><br><br><p><img src='run_exp/static/images/task_images/opening_img-01.jpg' height='300' width='auto'></p><button class=""jspsych-html-btn-chosen""><img src=""run_exp/static/images/task_images/planet-01.jpg"" height=""50""></button><button class=""jspsych-html-btn-unchosen""><img src=""run_exp/static/images/task_images/planet-02.jpg"" height=""50""></button><p><b>[press the space bar to lock in your answer]<b><br></p>",32,,,,,,,,,,,,,,,,,,,,,,,,
instruc_welcome,6,89224,0.0-6.0-0.0,"""event"",""trial"",""time""
""fullscreenenter"",""1"",""47218""
","
","
","""event"",""trial"",""time""
""fullscreenenter"",""1"",""47218""
","
",,null,run_exp/static/audio/clip_1_welcome.m4a,null,"<p>Howdy! In this experiment, you’ll be an explorer traveling through space to collect space treasure.</p><p>Your mission is to collect as much treasure as possible.</p><br><br><p><img src='run_exp/static/images/task_images/opening_img-01.jpg' height='300' width='auto'></p>",8897,23,8.4,Female,,,,,,,,,,,,,,,,,,,
audio-keyboard-response,7,105822,0.0-6.0-1.0,"""event"",""trial"",""time""
""fullscreenenter"",""1"",""47218""
","
","
","""event"",""trial"",""time""
""fullscreenenter"",""1"",""47218""
","
",,null,run_exp/static/audio/clip_2_move.m4a,null,,,,,,,,,,,,,,,,,,,,,,,,
welcome_dec,8,107166,0.0-6.0-2.0,"""event"",""trial"",""time""
""fullscreenenter"",""1"",""47218""
","
","
","""event"",""trial"",""time""
""fullscreenenter"",""1"",""47218""
","
",,1338.4,"<p>Howdy! In this experiment, you’ll be an explorer traveling through space to collect space treasure.</p><p>Your mission is to collect as much treasure as possible.</p><br><br><p><img src='run_exp/static/images/task_images/opening_img-01.jpg' height='300' width='auto'></p>",,,,,,,1,,,,,,,,,,,,,,,,,,
html-keyboard-response,9,107837,0.0-6.0-3.0,"""event"",""trial"",""time""
""fullscreenenter"",""1"",""47218""
","
","
","""event"",""trial"",""time""
""fullscreenenter"",""1"",""47218""
","
",,666.2,"<p>Howdy! In this experiment, you’ll be an explorer traveling through space to collect space treasure.</p><p>Your mission is to collect as much treasure as possible.</p><br><br><p><img src='run_exp/static/images/task_images/opening_img-01.jpg' height='300' width='auto'></p><button class=""jspsych-html-btn-unchosen""><img src=""run_exp/static/images/task_images/planet-01.jpg"" height=""50""></button><button class=""jspsych-html-btn-chosen""><img src=""run_exp/static/images/task_images/planet-02.jpg"" height=""50""></button><p><b>[press the space bar to lock in your answer]<b><br></p>",32,,,,,,,,,,,,,,,,,,,,,,,,
instruc_goal,10,117944,0.0-7.0-0.0,"""event"",""trial"",""time""
""fullscreenenter"",""1"",""47218""
","
","
","""event"",""trial"",""time""
""fullscreenenter"",""1"",""47218""
","
",,null,run_exp/static/audio/clip_3_goal.m4a,null,"<p> As a space explorer, you’ll visit different planets to dig for space treasure, these pink gems.</p> <p> The more treasure you dig up, the more bonus money you’ll win! </p><br><br><p><img src='run_exp/static/images/task_images/pink_gem.jpg' height='300' width='auto'></p>",,,,,,,,,,,,,,,,,,,,,,,
instruc_goal,11,121524,0.0-7.0-1.0,"""event"",""trial"",""time""
""fullscreenenter"",""1"",""47218""
","
","
","""event"",""trial"",""time""
""fullscreenenter"",""1"",""47218""
","
",,3574.4,"<p> As a space explorer, you’ll visit different planets to dig for space treasure, these pink gems.</p> <p> The more treasure you dig up, the more bonus money you’ll win! </p><br><br><p><img src='run_exp/static/images/task_images/pink_gem.jpg' height='300' width='auto'></p>",,,,,,,1,,,,,,,,,,,,,,,,,,
html-keyboard-response,12,122938,0.0-7.0-2.0,"""event"",""trial"",""time""
""fullscreenenter"",""1"",""47218""
","
","
","""event"",""trial"",""time""
""fullscreenenter"",""1"",""47218""
","
",,1409.9,"<p> As a space explorer, you’ll visit different planets to dig for space treasure, these pink gems.</p> <p> The more treasure you dig up, the more bonus money you’ll win! </p><br><br><p><img src='run_exp/static/images/task_images/pink_gem.jpg' height='300' width='auto'></p><button class=""jspsych-html-btn-unchosen""><img src=""run_exp/static/images/task_images/planet-01.jpg"" height=""50""></button><button class=""jspsych-html-btn-chosen""><img src=""run_exp/static/images/task_images/planet-02.jpg"" height=""50""></button><p><b>[press the space bar to lock in your answer]<b><br></p>",32,,,,,,,,,,,,,,,,,,,,,,,,
instruc_dig,13,138964,0.0-8.0-0.0,"""event"",""trial"",""time""
""fullscreenenter"",""1"",""47218""
","
","
","""event"",""trial"",""time""
""fullscreenenter"",""1"",""47218""
","
",,null,run_exp/static/audio/clip_4_dig.m4a,null,,,,,,,100,,,,,,,,,,,,,,,,,
instruc_dig_try,14,139475,0.0-8.0-1.0,"""event"",""trial"",""time""
""fullscreenenter"",""1"",""47218""
","
","
","""event"",""trial"",""time""
""fullscreenenter"",""1"",""47218""
","
",,506.5,"<p> When you’ve arrived at a new planet, you will dig once. </p> <p>Then, you get to decide if you want to stay on the planet and dig again or travel to a new planet and dig there.</p> <p> To stay and dig, press the letter <strong>‘A’</strong> on your keyboard. Try pressing it now! </p><p><img src='run_exp/static/images/task_images/land.jpg'  height='700' width='auto'></p>",65,"<p> When you’ve arrived at a new planet, you will dig once. </p> <p>Then, you get to decide if you want to stay on the planet and dig again or travel to a new planet and dig there.</p> <p> To stay and dig, press the letter <strong>‘A’</strong> on your keyboard. Try pressing it now! </p><p><img src='run_exp/static/images/task_images/land.jpg'  height='700' width='auto'></p>",,,,,,100,,,,,,,,,,,,,,,,,
dig_prac,15,141510,0.0-8.0-2.0,"""event"",""trial"",""time""
""fullscreenenter"",""1"",""47218""
","
","
","""event"",""trial"",""time""
""fullscreenenter"",""1"",""47218""
","
",,,,,,,,,,,,"[{""stimulus"":""run_exp/static/images/task_images/dig.jpg"",""time"":1},{""stimulus"":""run_exp/static/images/task_images/land.jpg"",""time"":670.5},{""stimulus"":""run_exp/static/images/task_images/dig.jpg"",""time"":1340}]",[],,,,,,,,,,,,,,,
instruc_travel,16,177784,0.0-8.0-3.0,"""event"",""trial"",""time""
""fullscreenenter"",""1"",""47218""
","
","
","""event"",""trial"",""time""
""fullscreenenter"",""1"",""47218""
","
",,null,run_exp/static/audio/clip_5_travel.m4a,null,"<p>Every time you dig up gems, there are less gems on the planet, so the more you dig on a planet the fewer gems you’ll get with each dig.</p><p>When gems are running low, you may want to travel to a new planet. </p> <p>  Planets are very far apart in this galaxy, so it will take some time to travel between them. </p> <br><p>There are lots and lots of planets for you to visit, so you won’t be able to return to any planets you’ve seen before. </p><br><p>To leave this planet and travel to a new one, press the letter <strong>‘L’</strong> on your keyboard. Try pressing it now! </p><p><img src='run_exp/static/images/task_images/rocket-01.jpg'  height='600' width='auto'></p>",,,,,,,,,,,,,,,,,,,,,,,
instruc_travel_try,17,180860,0.0-8.0-4.0,"""event"",""trial"",""time""
""fullscreenenter"",""1"",""47218""
","
","
","""event"",""trial"",""time""
""fullscreenenter"",""1"",""47218""
","
",,3069.8,"<p>Every time you dig up gems, there are less gems on the planet, so the more you dig on a planet the fewer gems you’ll get with each dig.</p><p>When gems are running low, you may want to travel to a new planet. </p> <p>  Planets are very far apart in this galaxy, so it will take some time to travel between them. </p> <br><p>There are lots and lots of planets for you to visit, so you won’t be able to return to any planets you’ve seen before. </p><br><p>To leave this planet and travel to a new one, press the letter <strong>‘L’</strong> on your keyboard. Try pressing it now! </p><p><img src='run_exp/static/images/task_images/rocket-01.jpg'  height='600' width='auto'></p>",76,"<p>Every time you dig up gems, there are less gems on the planet, so the more you dig on a planet the fewer gems you’ll get with each dig.</p><p>When gems are running low, you may want to travel to a new planet. </p> <p>  Planets are very far apart in this galaxy, so it will take some time to travel between them. </p> <br><p>There are lots and lots of planets for you to visit, so you won’t be able to return to any planets you’ve seen before. </p><br><p>To leave this planet and travel to a new one, press the letter <strong>‘L’</strong> on your keyboard. Try pressing it now! </p><p><img src='run_exp/static/images/task_images/rocket-01.jpg'  height='600' width='auto'></p>",,,,,,,,,,,,,,,,,,,,,,,
travel_prac,18,190872,0.0-8.0-5.0,"""event"",""trial"",""time""
""fullscreenenter"",""1"",""47218""
","
","
","""event"",""trial"",""time""
""fullscreenenter"",""1"",""47218""
","
",,,,,,,,,,,,"[{""stimulus"":""run_exp/static/images/task_images/rocket-01.jpg"",""time"":0.7999999821186066},{""stimulus"":""run_exp/static/images/task_images/rocket-02.jpg"",""time"":1121.4000000059605},{""stimulus"":""run_exp/static/images/task_images/rocket-03.jpg"",""time"":2228.9000000059605},{""stimulus"":""run_exp/static/images/task_images/rocket-04.jpg"",""time"":3339.9000000059605},{""stimulus"":""run_exp/static/images/task_images/rocket-05.jpg"",""time"":4462.0999999940395},{""stimulus"":""run_exp/static/images/task_images/rocket-06.jpg"",""time"":5572.799999982119},{""stimulus"":""run_exp/static/images/task_images/rocket-07.jpg"",""time"":6670},{""stimulus"":""run_exp/static/images/task_images/rocket-08.jpg"",""time"":7790.299999982119},{""stimulus"":""run_exp/static/images/task_images/rocket-09.jpg"",""time"":8900.299999982119}]",[],0,,,,,,,,,,,,,,
instruc_alien_greet,19,218094,0.0-8.0-6.0,"""event"",""trial"",""time""
""fullscreenenter"",""1"",""47218""
","
","
","""event"",""trial"",""time""
""fullscreenenter"",""1"",""47218""
","
",,null,run_exp/static/audio/clip_6_alien.m4a,null,"<p>When you arrive at a new planet, the alien who owns the treasure mine on that planet will greet you!</p><p>The better an alien takes care of their mine the easier it is to dig for gems. Some aliens take better care of their mine than others. So, you won’t get exactly the same amount of gems on each planet.</p><p>What the alien looks like does not tell you anything about how many gems there are on the planet.</p><br><p><img src=""run_exp/static/images/task_images/aliens/instructions_aliens/planet/alien_planet-1.jpg""  height=""600"" width=""auto""></p>",,,,,,,,,,,,,,,,,,,,,,,
instruc_alien_greet,20,228808,0.0-8.0-7.0,"""event"",""trial"",""time""
""fullscreenenter"",""1"",""47218""
","
","
","""event"",""trial"",""time""
""fullscreenenter"",""1"",""47218""
","
",,10707.7,"<p>When you arrive at a new planet, the alien who owns the treasure mine on that planet will greet you!</p><p>The better an alien takes care of their mine the easier it is to dig for gems. Some aliens take better care of their mine than others. So, you won’t get exactly the same amount of gems on each planet.</p><p>What the alien looks like does not tell you anything about how many gems there are on the planet.</p><br><p><img src=""run_exp/static/images/task_images/aliens/instructions_aliens/planet/alien_planet-1.jpg""  height=""600"" width=""auto""></p>",,,,,,,1,,,,,,,,,,,,,,,,,,
html-keyboard-response,21,232820,0.0-8.0-8.0,"""event"",""trial"",""time""
""fullscreenenter"",""1"",""47218""
","
","
","""event"",""trial"",""time""
""fullscreenenter"",""1"",""47218""
","
",,4005.9,"<p>When you arrive at a new planet, the alien who owns the treasure mine on that planet will greet you!</p><p>The better an alien takes care of their mine the easier it is to dig for gems. Some aliens take better care of their mine than others. So, you won’t get exactly the same amount of gems on each planet.</p><p>What the alien looks like does not tell you anything about how many gems there are on the planet.</p><br><p><img src=""run_exp/static/images/task_images/aliens/instructions_aliens/planet/alien_planet-1.jpg""  height=""600"" width=""auto""></p><button class=""jspsych-html-btn-unchosen""><img src=""run_exp/static/images/task_images/planet-01.jpg"" height=""50""></button><button class=""jspsych-html-btn-chosen""><img src=""run_exp/static/images/task_images/planet-02.jpg"" height=""50""></button><p><b>[press the space bar to lock in your answer]<b><br></p>",32,,,,,,,,,,,,,,,,,,,,,,,,
time_out,22,244695,0.0-9.0-0.0,"""event"",""trial"",""time""
""fullscreenenter"",""1"",""47218""
","
","
","""event"",""trial"",""time""
""fullscreenenter"",""1"",""47218""
","
",,null,run_exp/static/audio/clip_7_timeout.m4a,null,"<p>If you don't make your choice fast enough, you’ll have to wait a few seconds before you can make another one.</p><p>You can’t dig for more gems or travel to new planets. You just have to sit and wait.</p><br><p><img src='run_exp/static/images/task_images/time_out.jpg'  height='600' width='auto'></p>",,,,,,,,,,,,,,,,,,,,,,,
time_out,23,247759,0.0-9.0-1.0,"""event"",""trial"",""time""
""fullscreenenter"",""1"",""47218""
","
","
","""event"",""trial"",""time""
""fullscreenenter"",""1"",""47218""
","
",,3058.4,"<p>If you don't make your choice fast enough, you’ll have to wait a few seconds before you can make another one.</p><p>You can’t dig for more gems or travel to new planets. You just have to sit and wait.</p><br><p><img src='run_exp/static/images/task_images/time_out.jpg'  height='600' width='auto'></p>",,,,,,,1,,,,,,,,,,,,,,,,,,
html-keyboard-response,24,249587,0.0-9.0-2.0,"""event"",""trial"",""time""
""fullscreenenter"",""1"",""47218""
","
","
","""event"",""trial"",""time""
""fullscreenenter"",""1"",""47218""
","
",,1822.6,"<p>If you don't make your choice fast enough, you’ll have to wait a few seconds before you can make another one.</p><p>You can’t dig for more gems or travel to new planets. You just have to sit and wait.</p><br><p><img src='run_exp/static/images/task_images/time_out.jpg'  height='600' width='auto'></p><button class=""jspsych-html-btn-unchosen""><img src=""run_exp/static/images/task_images/planet-01.jpg"" height=""50""></button><button class=""jspsych-html-btn-chosen""><img src=""run_exp/static/images/task_images/planet-02.jpg"" height=""50""></button><p><b>[press the space bar to lock in your answer]<b><br></p>",32,,,,,,,,,,,,,,,,,,,,,,,,
instruc_break,25,265295,0.0-10.0-0.0,"""event"",""trial"",""time""
""fullscreenenter"",""1"",""47218""
","
","
","""event"",""trial"",""time""
""fullscreenenter"",""1"",""47218""
","
",,null,run_exp/static/audio/clip_8_break.m4a,null,"<p> After digging and traveling for a while, you’ll be able to take a break at home base. </p><p>The game will last 20 minutes no matter what.</p><p>You will visit home base every 5 minutes, so, you will visit home base three times during the game.</p><br><p><img src='run_exp/static/images/task_images/home_base.jpg' height='600' width='auto'></p>",,,,,,,,,,,,,,,,,,,,,,,
instruc_break,26,269447,0.0-10.0-1.0,"""event"",""trial"",""time""
""fullscreenenter"",""1"",""47218""
","
","
","""event"",""trial"",""time""
""fullscreenenter"",""1"",""47218""
","
",,4144.9,"<p> After digging and traveling for a while, you’ll be able to take a break at home base. </p><p>The game will last 20 minutes no matter what.</p><p>You will visit home base every 5 minutes, so, you will visit home base three times during the game.</p><br><p><img src='run_exp/static/images/task_images/home_base.jpg' height='600' width='auto'></p>",,,,,,,1,,,,,,,,,,,,,,,,,,
html-keyboard-response,27,270099,0.0-10.0-2.0,"""event"",""trial"",""time""
""fullscreenenter"",""1"",""47218""
","
","
","""event"",""trial"",""time""
""fullscreenenter"",""1"",""47218""
","
",,646.4,"<p> After digging and traveling for a while, you’ll be able to take a break at home base. </p><p>The game will last 20 minutes no matter what.</p><p>You will visit home base every 5 minutes, so, you will visit home base three times during the game.</p><br><p><img src='run_exp/static/images/task_images/home_base.jpg' height='600' width='auto'></p><button class=""jspsych-html-btn-unchosen""><img src=""run_exp/static/images/task_images/planet-01.jpg"" height=""50""></button><button class=""jspsych-html-btn-chosen""><img src=""run_exp/static/images/task_images/planet-02.jpg"" height=""50""></button><p><b>[press the space bar to lock in your answer]<b><br></p>",32,,,,,,,,,,,,,,,,,,,,,,,,
instruc_prac_game,28,280255,0.0-11.0-0.0,"""event"",""trial"",""time""
""fullscreenenter"",""1"",""47218""
","
","
","""event"",""trial"",""time""
""fullscreenenter"",""1"",""47218""
","
",,null,run_exp/static/audio/clip_9_practice.m4a,null,"<p> Are you ready to play a practice game? </p> <p>In this practice game, you'll be digging up barrels of gems. But, in the real game, you'll be digging up the gems themselves. </p>",,,,,,,,,,,,,,,,,,,,,,,
html-button-response,29,282369,0.0-11.0-1.0,"""event"",""trial"",""time""
""fullscreenenter"",""1"",""47218""
","
","
","""event"",""trial"",""time""
""fullscreenenter"",""1"",""47218""
","
",,2110.2,"<p> Are you ready to play a practice game? </p> <p>In this practice game, you'll be digging up barrels of gems. But, in the real game, you'll be digging up the gems themselves. </p>",,,,,,,0,,,,,,,,,,,,,,,,,,
alien_welcome_prac,30,287389,0.0-12.0-0.0,"""event"",""trial"",""time""
""fullscreenenter"",""1"",""47218""
","
","
","""event"",""trial"",""time""
""fullscreenenter"",""1"",""47218""
","
",,null,run_exp/static/images/task_images/aliens/practice_aliens/planet/alien_planet-5.jpg,null,,,,,,,,,,,,,,,,,,,,,,,,
land_prac,31,287904,0.0-12.0-1.0,"""event"",""trial"",""time""
""fullscreenenter"",""1"",""47218""
","
","
","""event"",""trial"",""time""
""fullscreenenter"",""1"",""47218""
","
",,null,run_exp/static/images/task_images/land.jpg,null,,,,,,,96,,,0,,,,,,,,,,,,,,
dig_prac,32,289914,0.0-12.0-2.0,"""event"",""trial"",""time""
""fullscreenenter"",""1"",""47218""
","
","
","""event"",""trial"",""time""
""fullscreenenter"",""1"",""47218""
","
",,,,,,,,,,,,"[{""stimulus"":""run_exp/static/images/task_images/dig.jpg"",""time"":0.7000000178813934},{""stimulus"":""run_exp/static/images/task_images/land.jpg"",""time"":679.8000000119209},{""stimulus"":""run_exp/static/images/task_images/dig.jpg"",""time"":1350.6000000238419}]",[],,,,,,,,,,,,,,,
harvest_prac,33,290917,0.0-12.0-3.0,"""event"",""trial"",""time""
""fullscreenenter"",""1"",""47218""
","
","
","""event"",""trial"",""time""
""fullscreenenter"",""1"",""47218""
","
",,null,run_exp/static/images/task_images/barrel_text.jpg,null,,,,,,,,,,,,,,,,,,,,,,,,
decision_prac,34,293922,0.0-12.0-4.0,"""event"",""trial"",""time""
""fullscreenenter"",""1"",""47218""
","
","
","""event"",""trial"",""time""
""fullscreenenter"",""1"",""47218""
","
",,null,run_exp/static/images/task_images/land.jpg,null,,,,,,,,,,,1,,,,,,,,,,,,,
time_out,35,295935,0.0-13.0-0.0,"""event"",""trial"",""time""
""fullscreenenter"",""1"",""47218""
","
","
","""event"",""trial"",""time""
""fullscreenenter"",""1"",""47218""
","
",,null,run_exp/static/images/task_images/time_out.jpg,null,,,,,,,,,,,,,,,,,,,,,,,,
decision_prac,36,295949,0.0-13.0-1.0,"""event"",""trial"",""time""
""fullscreenenter"",""1"",""47218""
","
","
","""event"",""trial"",""time""
""fullscreenenter"",""1"",""47218""
","
",,9.900000006,run_exp/static/images/task_images/land.jpg,65,,,,,,,,,,,2,,,,,,,,,,,,,
dig_prac,37,297976,0.0-14.0-0.0,"""event"",""trial"",""time""
""fullscreenenter"",""1"",""47218""
","
","
","""event"",""trial"",""time""
""fullscreenenter"",""1"",""47218""
","
",,,,,,,,,,,,"[{""stimulus"":""run_exp/static/images/task_images/dig.jpg"",""time"":0.699999988079071},{""stimulus"":""run_exp/static/images/task_images/land.jpg"",""time"":676.2999999821186},{""stimulus"":""run_exp/static/images/task_images/dig.jpg"",""time"":1348.5999999940395}]",[],,,,,,,,,,,,,,,
harvest_prac,38,298992,0.0-14.0-1.0,"""event"",""trial"",""time""
""fullscreenenter"",""1"",""47218""
","
","
","""event"",""trial"",""time""
""fullscreenenter"",""1"",""47218""
","
",,null,run_exp/static/images/task_images/barrel_text.jpg,null,,,,,,,,,,,,,,,,,,,,,,,,
decision_prac,39,299764,0.0-14.0-2.0,"""event"",""trial"",""time""
""fullscreenenter"",""1"",""47218""
","
","
","""event"",""trial"",""time""
""fullscreenenter"",""1"",""47218""
","
",,767.8,run_exp/static/images/task_images/land.jpg,65,,,,,,,,,,,3,,,,,,,,,,,,,
dig_prac,40,301792,0.0-15.0-0.0,"""event"",""trial"",""time""
""fullscreenenter"",""1"",""47218""
","
","
","""event"",""trial"",""time""
""fullscreenenter"",""1"",""47218""
","
",,,,,,,,,,,,"[{""stimulus"":""run_exp/static/images/task_images/dig.jpg"",""time"":0.5999999940395355},{""stimulus"":""run_exp/static/images/task_images/land.jpg"",""time"":672.5999999940395},{""stimulus"":""run_exp/static/images/task_images/dig.jpg"",""time"":1343.699999988079}]",[],,,,,,,,,,,,,,,
harvest_prac,41,302808,0.0-15.0-1.0,"""event"",""trial"",""time""
""fullscreenenter"",""1"",""47218""
","
","
","""event"",""trial"",""time""
""fullscreenenter"",""1"",""47218""
","
",,null,run_exp/static/images/task_images/barrel_text.jpg,null,,,,,,,,,,,,,,,,,,,,,,,,
decision_prac,42,303308,0.0-15.0-2.0,"""event"",""trial"",""time""
""fullscreenenter"",""1"",""47218""
","
","
","""event"",""trial"",""time""
""fullscreenenter"",""1"",""47218""
","
",,496.9,run_exp/static/images/task_images/land.jpg,65,,,,,,,,,,,4,,,,,,,,,,,,,
dig_prac,43,305336,0.0-16.0-0.0,"""event"",""trial"",""time""
""fullscreenenter"",""1"",""47218""
","
","
","""event"",""trial"",""time""
""fullscreenenter"",""1"",""47218""
","
",,,,,,,,,,,,"[{""stimulus"":""run_exp/static/images/task_images/dig.jpg"",""time"":0.699999988079071},{""stimulus"":""run_exp/static/images/task_images/land.jpg"",""time"":679},{""stimulus"":""run_exp/static/images/task_images/dig.jpg"",""time"":1346.5999999940395}]",[],,,,,,,,,,,,,,,
harvest_prac,44,306354,0.0-16.0-1.0,"""event"",""trial"",""time""
""fullscreenenter"",""1"",""47218""
","
","
","""event"",""trial"",""time""
""fullscreenenter"",""1"",""47218""
","
",,null,run_exp/static/images/task_images/barrel_text.jpg,null,,,,,,,,,,,,,,,,,,,,,,,,
decision_prac,45,306553,0.0-16.0-2.0,"""event"",""trial"",""time""
""fullscreenenter"",""1"",""47218""
","
","
","""event"",""trial"",""time""
""fullscreenenter"",""1"",""47218""
","
",,195.6,run_exp/static/images/task_images/land.jpg,65,,,,,,,,,,,,1,,,,,,,,,,,,
quiz_instruc,46,318157,0.0-17.0-0.0,"""event"",""trial"",""time""
""fullscreenenter"",""1"",""47218""
","
","
","""event"",""trial"",""time""
""fullscreenenter"",""1"",""47218""
","
",,11594.3,run_exp/static/audio/clip_10_quiz.m4a,,,,,,,0,,,,,,,,,,,,,,,,,,
instruc_repeat,47,360945,0.0-17.0-1.0,"""event"",""trial"",""time""
""fullscreenenter"",""1"",""47218""
","
","
","""event"",""trial"",""time""
""fullscreenenter"",""1"",""47218""
","
",,null,"<p> Are you ready to play a practice game? </p> <p>In this practice game, you'll be digging up barrels of gems. But, in the real game, you'll be digging up the gems themselves. </p>",null,"<p>In this game, your goal is to collect as many gems as you can. That’s how you will win bonus money. </p> <p>The entire game will last 20 minutes no matter how many gems you collect or how many planets you visit. </p><p>To stay on a planet and dig again, press the letter A on your keyboard. To leave for a new planet, press the letter L.</p><p>The more you dig on a planet, the fewer gems you’ll get with each dig which is why you might consider leaving for a new planet. </p><p>When you arrive at a new planet, you’ll be greeted by an alien. What the alien looks like does not tell you anything about how much treasure is on the planet. </p>",,,,,,,,,,,,,,,,,,,,,,,
instruc_repeat_continue,48,362355,0.0-17.0-2.0,"""event"",""trial"",""time""
""fullscreenenter"",""1"",""47218""
","
","
","""event"",""trial"",""time""
""fullscreenenter"",""1"",""47218""
","
",,1406.7,"<p> Are you ready to play a practice game? </p> <p>In this practice game, you'll be digging up barrels of gems. But, in the real game, you'll be digging up the gems themselves. </p>",,,,,,,0,,,,,,,,,,,,,,,,,,
quiz_q_1_ask,49,374871,0.0-17.0-3.0,"""event"",""trial"",""time""
""fullscreenenter"",""1"",""47218""
","
","
","""event"",""trial"",""time""
""fullscreenenter"",""1"",""47218""
","
",,12512.2,run_exp/static/audio/clip_11_q1_ask.m4a,,,,,,,2,,,,,,,,,,,,,,,,,,
quiz_q_1_fb_correct,50,378744,0.0-18.0-0.0,"""event"",""trial"",""time""
""fullscreenenter"",""1"",""47218""
","
","
","""event"",""trial"",""time""
""fullscreenenter"",""1"",""47218""
","
",,null,run_exp/static/audio/clip_12_q1_correct.m4a,null,<p>That’s correct. You win extra money by collecting more gems.</p>,,,,,,,,,,,,,,,,,,,,,,,
quiz_q_2_ask,51,390621,0.0-18.0-1.0,"""event"",""trial"",""time""
""fullscreenenter"",""1"",""47218""
","
","
","""event"",""trial"",""time""
""fullscreenenter"",""1"",""47218""
","
",,11873.5,run_exp/static/audio/clip_14_q2_ask.m4a,,,,,,,2,,,,,,,,,,,,,,,,,,
quiz_q_2_fb_incorrect,52,394745,0.0-19.0-0.0,"""event"",""trial"",""time""
""fullscreenenter"",""1"",""47218""
","
","
","""event"",""trial"",""time""
""fullscreenenter"",""1"",""47218""
","
",,null,run_exp/static/audio/clip_16_q2_incorrect.m4a,null,<p>That’s incorrect. The experiment is 20 minutes no matter what.</p>,,,,,,,,,,,,,,,,,,,,,,,
quiz_q_3_ask,53,400788,0.0-19.0-1.0,"""event"",""trial"",""time""
""fullscreenenter"",""1"",""47218""
","
","
","""event"",""trial"",""time""
""fullscreenenter"",""1"",""47218""
","
",,6039.4,run_exp/static/audio/clip_17_q3_ask.m4a,,,,,,,1,,,,,,,,,,,,,,,,,,
quiz_q_3_fb_correct,54,404805,0.0-20.0-0.0,"""event"",""trial"",""time""
""fullscreenenter"",""1"",""47218""
","
","
","""event"",""trial"",""time""
""fullscreenenter"",""1"",""47218""
","
",,null,run_exp/static/audio/clip_18_q3_correct.m4a,null,<p> That’s correct. You press the letter L to travel to a new planet.</p>,,,,,,,,,,,,,,,,,,,,,,,
quiz_q_4_ask,55,407530,0.0-20.0-1.0,"""event"",""trial"",""time""
""fullscreenenter"",""1"",""47218""
","
","
","""event"",""trial"",""time""
""fullscreenenter"",""1"",""47218""
","
",,2720.7,run_exp/static/audio/clip_20_q4_ask.m4a,,,,,,,0,,,,,,,,,,,,,,,,,,
quiz_q_4_fb_correct,56,412865,0.0-21.0-0.0,"""event"",""trial"",""time""
""fullscreenenter"",""1"",""47218""
","
","
","""event"",""trial"",""time""
""fullscreenenter"",""1"",""47218""
","
",,null,run_exp/static/audio/clip_21_q4_correct.m4a,null,<p> That’s correct. The more you dig on a planet the fewer gems you’ll get with each dig. </p>,,,,,,,,,,,,,,,,,,,,,,,
quiz_q_5_ask,57,415771,0.0-21.0-1.0,"""event"",""trial"",""time""
""fullscreenenter"",""1"",""47218""
","
","
","""event"",""trial"",""time""
""fullscreenenter"",""1"",""47218""
","
",,2902,run_exp/static/audio/clip_23_q5_ask.m4a,,,,,,,1,,,,,,,,,,,,,,,,,,
quiz_q_5_fb_correct,58,420804,0.0-22.0-0.0,"""event"",""trial"",""time""
""fullscreenenter"",""1"",""47218""
","
","
","""event"",""trial"",""time""
""fullscreenenter"",""1"",""47218""
","
",,null,run_exp/static/audio/clip_24_q5_correct.m4a,null,<p> That’s correct. The alien tells you nothing about how much treasure is on the planet.</p>,,,,,,,,,,,,,,,,,,,,,,,
quiz_incorrect,59,426385,0.0-23.0-0.0,"""event"",""trial"",""time""
""fullscreenenter"",""1"",""47218""
","
","
","""event"",""trial"",""time""
""fullscreenenter"",""1"",""47218""
","
",,null,run_exp/static/audio/clip_27_incorrect_quiz.m4a,null,,,,,,,,,,,,,,,,,,,,,,,,
quiz_incorrect_continue,60,427602,0.0-23.0-1.0,"""event"",""trial"",""time""
""fullscreenenter"",""1"",""47218""
","
","
","""event"",""trial"",""time""
""fullscreenenter"",""1"",""47218""
","
",,1214.6,"<p>Oops, you missed some questions.</p><p>Now that you’ve heard the correct answers. Try the quiz again!</p>",,,,,,,0,,,,,,,,,,,,,,,,,,
quiz_q_1_ask,61,430045,0.0-23.0-2.0,"""event"",""trial"",""time""
""fullscreenenter"",""1"",""47218""
","
","
","""event"",""trial"",""time""
""fullscreenenter"",""1"",""47218""
","
",,2439.2,run_exp/static/audio/clip_11_q1_ask.m4a,,,,,,,2,,,,,,,,,,,,,,,,,,
quiz_q_1_fb_correct,62,433906,0.0-24.0-0.0,"""event"",""trial"",""time""
""fullscreenenter"",""1"",""47218""
","
","
","""event"",""trial"",""time""
""fullscreenenter"",""1"",""47218""
","
",,null,run_exp/static/audio/clip_12_q1_correct.m4a,null,<p>That’s correct. You win extra money by collecting more gems.</p>,,,,,,,,,,,,,,,,,,,,,,,
quiz_q_2_ask,63,435100,0.0-24.0-1.0,"""event"",""trial"",""time""
""fullscreenenter"",""1"",""47218""
","
","
","""event"",""trial"",""time""
""fullscreenenter"",""1"",""47218""
","
",,1190.1,run_exp/static/audio/clip_14_q2_ask.m4a,,,,,,,1,,,,,,,,,,,,,,,,,,
quiz_q_2_fb_correct,64,439126,0.0-25.0-0.0,"""event"",""trial"",""time""
""fullscreenenter"",""1"",""47218""
","
","
","""event"",""trial"",""time""
""fullscreenenter"",""1"",""47218""
","
",,null,run_exp/static/audio/clip_15_q2_correct.m4a,null,<p>That’s correct. The experiment is 20 minutes no matter what.</p>,,,,,,,,,,,,,,,,,,,,,,,
quiz_q_3_ask,65,441619,0.0-25.0-1.0,"""event"",""trial"",""time""
""fullscreenenter"",""1"",""47218""
","
","
","""event"",""trial"",""time""
""fullscreenenter"",""1"",""47218""
","
",,2490.1,run_exp/static/audio/clip_17_q3_ask.m4a,,,,,,,1,,,,,,,,,,,,,,,,,,
quiz_q_3_fb_correct,66,445625,0.0-26.0-0.0,"""event"",""trial"",""time""
""fullscreenenter"",""1"",""47218""
","
","
","""event"",""trial"",""time""
""fullscreenenter"",""1"",""47218""
","
",,null,run_exp/static/audio/clip_18_q3_correct.m4a,null,<p> That’s correct. You press the letter L to travel to a new planet.</p>,,,,,,,,,,,,,,,,,,,,,,,
quiz_q_4_ask,67,448534,0.0-26.0-1.0,"""event"",""trial"",""time""
""fullscreenenter"",""1"",""47218""
","
","
","""event"",""trial"",""time""
""fullscreenenter"",""1"",""47218""
","
",,2905,run_exp/static/audio/clip_20_q4_ask.m4a,,,,,,,0,,,,,,,,,,,,,,,,,,
quiz_q_4_fb_correct,68,453886,0.0-27.0-0.0,"""event"",""trial"",""time""
""fullscreenenter"",""1"",""47218""
","
","
","""event"",""trial"",""time""
""fullscreenenter"",""1"",""47218""
","
",,null,run_exp/static/audio/clip_21_q4_correct.m4a,null,<p> That’s correct. The more you dig on a planet the fewer gems you’ll get with each dig. </p>,,,,,,,,,,,,,,,,,,,,,,,
quiz_q_5_ask,69,455553,0.0-27.0-1.0,"""event"",""trial"",""time""
""fullscreenenter"",""1"",""47218""
","
","
","""event"",""trial"",""time""
""fullscreenenter"",""1"",""47218""
","
",,1662.4,run_exp/static/audio/clip_23_q5_ask.m4a,,,,,,,1,,,,,,,,,,,,,,,,,,
quiz_q_5_fb_correct,70,460585,0.0-28.0-0.0,"""event"",""trial"",""time""
""fullscreenenter"",""1"",""47218""
","
","
","""event"",""trial"",""time""
""fullscreenenter"",""1"",""47218""
","
",,null,run_exp/static/audio/clip_24_q5_correct.m4a,null,<p> That’s correct. The alien tells you nothing about how much treasure is on the planet.</p>,,,,,,,,,,,,,,,,,,,,,,,
quiz_correct,71,464085,0.0-29.0-0.0,"""event"",""trial"",""time""
""fullscreenenter"",""1"",""47218""
","
","
","""event"",""trial"",""time""
""fullscreenenter"",""1"",""47218""
","
",,null,run_exp/static/audio/clip_26_correct_quiz.m4a,null,,,,,,,,,,,,,,,,,,,,,,,,
quiz_correct_continue,72,465587,0.0-29.0-1.0,"""event"",""trial"",""time""
""fullscreenenter"",""1"",""47218""
","
","
","""event"",""trial"",""time""
""fullscreenenter"",""1"",""47218""
","
",,1499.3,<p>Good job! You're now ready to move on to the real game!</p>,,,,,,,0,,,,,,,,,,,,,,,,,,
audio-keyboard-response,73,475725,0.0-29.0-2.0,"""event"",""trial"",""time""
""fullscreenenter"",""1"",""47218""
","
","
","""event"",""trial"",""time""
""fullscreenenter"",""1"",""47218""
","
",,null,run_exp/static/audio/clip_28_real_game.m4a,null,,,,,,,,,,,,,,,,,,,,,,,,
instruc_begin_exp_contine,74,478667,0.0-29.0-3.0,"""event"",""trial"",""time""
""fullscreenenter"",""1"",""47218""
","
","
","""event"",""trial"",""time""
""fullscreenenter"",""1"",""47218""
","
",,2937.8,"<p>Now that you know how  to dig for space treasure and travel to new planets,you can start exploring! </p><p>Do you want to go over the instructions again or get started with the real game?</p>",,,,,,,1,,,,,,1,,,,,,,,,,,,
alien_welcome,75,483689,0.0-30.0-0.0,"""event"",""trial"",""time""
""fullscreenenter"",""1"",""47218""
","
","
","""event"",""trial"",""time""
""fullscreenenter"",""1"",""47218""
","
",,null,run_exp/static/images/task_images/aliens/old_aliens/planet/alien_planet-6.jpg,null,,,,,,,,,,,,,6,"6,3,13,41,64,26,57,72,10,18,60,12,2,47,66,69,34,29,33,59,46",,,,,,,,,,
land,76,484203,0.0-30.0-1.0,"""event"",""trial"",""time""
""fullscreenenter"",""1"",""47218""
","
","
","""event"",""trial"",""time""
""fullscreenenter"",""1"",""47218""
","
",,null,run_exp/static/images/task_images/land.jpg,null,,,,,,,101,,,1,,,,,,,,,,,,,,
dig,77,486215,0.0-30.0-2.0,"""event"",""trial"",""time""
""fullscreenenter"",""1"",""47218""
","
","
","""event"",""trial"",""time""
""fullscreenenter"",""1"",""47218""
","
",,,,,,,,,,,,"[{""stimulus"":""run_exp/static/images/task_images/dig.jpg"",""time"":0.699999988079071},{""stimulus"":""run_exp/static/images/task_images/land.jpg"",""time"":677},{""stimulus"":""run_exp/static/images/task_images/dig.jpg"",""time"":1347.8999999761581}]",[],1,,,,,,,,,,,,,,
harvest,78,487234,0.0-30.0-3.0,"""event"",""trial"",""time""
""fullscreenenter"",""1"",""47218""
","
","
","""event"",""trial"",""time""
""fullscreenenter"",""1"",""47218""
","
",,null,run_exp/static/images/task_images/gems/101.jpg,null,,,,,,,18,,,1,,,,,101,0.180043405,0.178217822,,,,,,,
decision,79,487782,0.0-30.0-4.0,"""event"",""trial"",""time""
""fullscreenenter"",""1"",""47218""
","
","
","""event"",""trial"",""time""
""fullscreenenter"",""1"",""47218""
","
",,543.4,run_exp/static/images/task_images/land.jpg,65,,,,,,,18,,,1,,,,,,,,9109,1,0,FALSE,,,
dig,80,490252,0.0-31.0-0.0,"""event"",""trial"",""time""
""fullscreenenter"",""1"",""47218""
","
","
","""event"",""trial"",""time""
""fullscreenenter"",""1"",""47218""
","
",,,,,,,,,,,,"[{""stimulus"":""run_exp/static/images/task_images/dig.jpg"",""time"":0.5},{""stimulus"":""run_exp/static/images/task_images/land.jpg"",""time"":835.8000000119209},{""stimulus"":""run_exp/static/images/task_images/dig.jpg"",""time"":1638.7000000178814}]",[],1,,,,,,,,,,,,,,
harvest,81,491265,0.0-31.0-1.0,"""event"",""trial"",""time""
""fullscreenenter"",""1"",""47218""
","
","
","""event"",""trial"",""time""
""fullscreenenter"",""1"",""47218""
","
",,null,run_exp/static/images/task_images/gems/18.jpg,null,,,,,,,5,,,1,,,,,18,0.260805078,0.277777778,,,,,,,
decision,82,491740,0.0-31.0-2.0,"""event"",""trial"",""time""
""fullscreenenter"",""1"",""47218""
","
","
","""event"",""trial"",""time""
""fullscreenenter"",""1"",""47218""
","
",,471,run_exp/static/images/task_images/land.jpg,65,,,,,,,5,,,1,,,,,,,,13066,1,1,FALSE,,,
dig,83,494297,0.0-32.0-0.0,"""event"",""trial"",""time""
""fullscreenenter"",""1"",""47218""
","
","
","""event"",""trial"",""time""
""fullscreenenter"",""1"",""47218""
","
",,,,,,,,,,,,"[{""stimulus"":""run_exp/static/images/task_images/dig.jpg"",""time"":0.699999988079071},{""stimulus"":""run_exp/static/images/task_images/land.jpg"",""time"":858.3999999761581},{""stimulus"":""run_exp/static/images/task_images/dig.jpg"",""time"":1701.7999999821186}]",[],1,,,,,,,,,,,,,,
harvest,84,495315,0.0-32.0-1.0,"""event"",""trial"",""time""
""fullscreenenter"",""1"",""47218""
","
","
","""event"",""trial"",""time""
""fullscreenenter"",""1"",""47218""
","
",,null,run_exp/static/images/task_images/gems/5.jpg,null,,,,,,,1,,,1,,,,,5,0.138093268,0.2,,,,,,,
decision,85,495622,0.0-32.0-2.0,"""event"",""trial"",""time""
""fullscreenenter"",""1"",""47218""
","
","
","""event"",""trial"",""time""
""fullscreenenter"",""1"",""47218""
","
",,301.1,run_exp/static/images/task_images/land.jpg,65,,,,,,,1,,,1,,,,,,,,16948,1,2,FALSE,,,
dig,86,498337,0.0-33.0-0.0,"""event"",""trial"",""time""
""fullscreenenter"",""1"",""47218""
","
","
","""event"",""trial"",""time""
""fullscreenenter"",""1"",""47218""
","
",,,,,,,,,,,,"[{""stimulus"":""run_exp/static/images/task_images/dig.jpg"",""time"":0.699999988079071},{""stimulus"":""run_exp/static/images/task_images/land.jpg"",""time"":906.3999999761581},{""stimulus"":""run_exp/static/images/task_images/dig.jpg"",""time"":1813.5999999940395}]",[],1,,,,,,,,,,,,,,
harvest,87,499343,0.0-33.0-1.0,"""event"",""trial"",""time""
""fullscreenenter"",""1"",""47218""
","
","
","""event"",""trial"",""time""
""fullscreenenter"",""1"",""47218""
","
",,null,run_exp/static/images/task_images/gems/1.jpg,null,,,,,,,0,,,1,,,,,1,0.197946866,0,,,,,,,
decision,88,500018,0.0-33.0-2.0,"""event"",""trial"",""time""
""fullscreenenter"",""1"",""47218""
","
","
","""event"",""trial"",""time""
""fullscreenenter"",""1"",""47218""
","
",,671.7,run_exp/static/images/task_images/land.jpg,65,,,,,,,0,,,1,,,,,,,,21345,1,3,FALSE,,,
dig,89,502364,0.0-34.0-0.0,"""event"",""trial"",""time""
""fullscreenenter"",""1"",""47218""
","
","
","""event"",""trial"",""time""
""fullscreenenter"",""1"",""47218""
","
",,,,,,,,,,,,"[{""stimulus"":""run_exp/static/images/task_images/dig.jpg"",""time"":0.699999988079071},{""stimulus"":""run_exp/static/images/task_images/land.jpg"",""time"":779.4000000059605},{""stimulus"":""run_exp/static/images/task_images/dig.jpg"",""time"":1564.0999999940395}]",[],1,,,,,,,,,,,,,,
harvest,90,503385,0.0-34.0-1.0,"""event"",""trial"",""time""
""fullscreenenter"",""1"",""47218""
","
","
","""event"",""trial"",""time""
""fullscreenenter"",""1"",""47218""
","
",,null,run_exp/static/images/task_images/gems/0.jpg,null,,,,,,,0,,,1,,,,,0,0.232468237,NaN,,,,,,,
decision,91,504893,0.0-34.0-2.0,"""event"",""trial"",""time""
""fullscreenenter"",""1"",""47218""
","
","
","""event"",""trial"",""time""
""fullscreenenter"",""1"",""47218""
","
",,1502.4,run_exp/static/images/task_images/land.jpg,76,,,,,,,0,,,1,,,,,,,,26220,1,4,TRUE,,,
travel,92,513415,0.0-35.0-0.0,"""event"",""trial"",""time""
""fullscreenenter"",""1"",""47218""
","
","
","""event"",""trial"",""time""
""fullscreenenter"",""1"",""47218""
","
",,,,,,,,,,,,"[{""stimulus"":""run_exp/static/images/task_images/rocket-01.jpg"",""time"":0.5999999940395355},{""stimulus"":""run_exp/static/images/task_images/rocket-02.jpg"",""time"":947.3000000119209},{""stimulus"":""run_exp/static/images/task_images/rocket-03.jpg"",""time"":1903.800000011921},{""stimulus"":""run_exp/static/images/task_images/rocket-04.jpg"",""time"":2844.2000000178814},{""stimulus"":""run_exp/static/images/task_images/rocket-05.jpg"",""time"":3786.0999999940395},{""stimulus"":""run_exp/static/images/task_images/rocket-06.jpg"",""time"":4738},{""stimulus"":""run_exp/static/images/task_images/rocket-07.jpg"",""time"":5671.4000000059605},{""stimulus"":""run_exp/static/images/task_images/rocket-08.jpg"",""time"":6623.5999999940395},{""stimulus"":""run_exp/static/images/task_images/rocket-09.jpg"",""time"":7559.5}]",[],1,,,,,,,,,,,,,,
alien_welcome,93,518429,0.0-35.0-1.0,"""event"",""trial"",""time""
""fullscreenenter"",""1"",""47218""
","
","
","""event"",""trial"",""time""
""fullscreenenter"",""1"",""47218""
","
",,null,run_exp/static/images/task_images/aliens/old_aliens/planet/alien_planet-3.jpg,null,,,,,,,,,,,,,3,"6,3,13,41,64,26,57,72,10,18,60,12,2,47,66,69,34,29,33,59,46",,,,,,,,,,
land,94,518932,0.0-35.0-2.0,"""event"",""trial"",""time""
""fullscreenenter"",""1"",""47218""
","
","
","""event"",""trial"",""time""
""fullscreenenter"",""1"",""47218""
","
",,null,run_exp/static/images/task_images/land.jpg,null,,,,,,,101,,,2,,,,,,,,,,,,,,
dig,95,520952,0.0-35.0-3.0,"""event"",""trial"",""time""
""fullscreenenter"",""1"",""47218""
","
","
","""event"",""trial"",""time""
""fullscreenenter"",""1"",""47218""
","
",,,,,,,,,,,,"[{""stimulus"":""run_exp/static/images/task_images/dig.jpg"",""time"":0.699999988079071},{""stimulus"":""run_exp/static/images/task_images/land.jpg"",""time"":672.9000000059605},{""stimulus"":""run_exp/static/images/task_images/dig.jpg"",""time"":1345.300000011921}]",[],2,,,,,,,,,,,,,,
harvest,96,521965,0.0-35.0-4.0,"""event"",""trial"",""time""
""fullscreenenter"",""1"",""47218""
","
","
","""event"",""trial"",""time""
""fullscreenenter"",""1"",""47218""
","
",,null,run_exp/static/images/task_images/gems/101.jpg,null,,,,,,,24,,,2,,,,,101,0.238356104,0.237623762,,,,,,,
decision,97,523415,0.0-35.0-5.0,"""event"",""trial"",""time""
""fullscreenenter"",""1"",""47218""
","
","
","""event"",""trial"",""time""
""fullscreenenter"",""1"",""47218""
","
",,1445.9,run_exp/static/images/task_images/land.jpg,65,,,,,,,24,,,2,,,,,,,,44742,1,0,FALSE,,,
dig,98,524989,0.0-36.0-0.0,"""event"",""trial"",""time""
""fullscreenenter"",""1"",""47218""
","
","
","""event"",""trial"",""time""
""fullscreenenter"",""1"",""47218""
","
",,,,,,,,,,,,"[{""stimulus"":""run_exp/static/images/task_images/dig.jpg"",""time"":0.5999999940395355},{""stimulus"":""run_exp/static/images/task_images/land.jpg"",""time"":535.6999999880791},{""stimulus"":""run_exp/static/images/task_images/dig.jpg"",""time"":1048.300000011921}]",[],2,,,,,,,,,,,,,,
harvest,99,526003,0.0-36.0-1.0,"""event"",""trial"",""time""
""fullscreenenter"",""1"",""47218""
","
","
","""event"",""trial"",""time""
""fullscreenenter"",""1"",""47218""
","
",,null,run_exp/static/images/task_images/gems/24.jpg,null,,,,,,,8,,,2,,,,,24,0.342358213,0.333333333,,,,,,,
decision,100,526330,0.0-36.0-2.0,"""event"",""trial"",""time""
""fullscreenenter"",""1"",""47218""
","
","
","""event"",""trial"",""time""
""fullscreenenter"",""1"",""47218""
","
",,324.4,run_exp/static/images/task_images/land.jpg,65,,,,,,,8,,,2,,,,,,,,47656,1,1,FALSE,,,
dig,101,529030,0.0-37.0-0.0,"""event"",""trial"",""time""
""fullscreenenter"",""1"",""47218""
","
","
","""event"",""trial"",""time""
""fullscreenenter"",""1"",""47218""
","
",,,,,,,,,,,,"[{""stimulus"":""run_exp/static/images/task_images/dig.jpg"",""time"":0.5999999940395355},{""stimulus"":""run_exp/static/images/task_images/land.jpg"",""time"":896.0999999940395},{""stimulus"":""run_exp/static/images/task_images/dig.jpg"",""time"":1799}]",[],2,,,,,,,,,,,,,,
harvest,102,530033,0.0-37.0-1.0,"""event"",""trial"",""time""
""fullscreenenter"",""1"",""47218""
","
","
","""event"",""trial"",""time""
""fullscreenenter"",""1"",""47218""
","
",,null,run_exp/static/images/task_images/gems/8.jpg,null,,,,,,,1,,,2,,,,,8,0.174542031,0.125,,,,,,,
decision,103,530670,0.0-37.0-2.0,"""event"",""trial"",""time""
""fullscreenenter"",""1"",""47218""
","
","
","""event"",""trial"",""time""
""fullscreenenter"",""1"",""47218""
","
",,635.6,run_exp/static/images/task_images/land.jpg,65,,,,,,,1,,,2,,,,,,,,51997,1,2,FALSE,,,
dig,104,533059,0.0-38.0-0.0,"""event"",""trial"",""time""
""fullscreenenter"",""1"",""47218""
","
","
","""event"",""trial"",""time""
""fullscreenenter"",""1"",""47218""
","
",,,,,,,,,,,,"[{""stimulus"":""run_exp/static/images/task_images/dig.jpg"",""time"":0.5},{""stimulus"":""run_exp/static/images/task_images/land.jpg"",""time"":806.2000000178814},{""stimulus"":""run_exp/static/images/task_images/dig.jpg"",""time"":1585.7000000178814}]",[],2,,,,,,,,,,,,,,
harvest,105,534072,0.0-38.0-1.0,"""event"",""trial"",""time""
""fullscreenenter"",""1"",""47218""
","
","
","""event"",""trial"",""time""
""fullscreenenter"",""1"",""47218""
","
",,null,run_exp/static/images/task_images/gems/1.jpg,null,,,,,,,0,,,2,,,,,1,0.229868477,0,,,,,,,
decision,106,534386,0.0-38.0-2.0,"""event"",""trial"",""time""
""fullscreenenter"",""1"",""47218""
","
","
","""event"",""trial"",""time""
""fullscreenenter"",""1"",""47218""
","
",,310.4,run_exp/static/images/task_images/land.jpg,65,,,,,,,0,,,2,,,,,,,,55712,1,3,FALSE,,,
dig,107,537095,0.0-39.0-0.0,"""event"",""trial"",""time""
""fullscreenenter"",""1"",""47218""
","
","
","""event"",""trial"",""time""
""fullscreenenter"",""1"",""47218""
","
",,,,,,,,,,,,"[{""stimulus"":""run_exp/static/images/task_images/dig.jpg"",""time"":0.699999988079071},{""stimulus"":""run_exp/static/images/task_images/land.jpg"",""time"":909.9000000059605},{""stimulus"":""run_exp/static/images/task_images/dig.jpg"",""time"":1797}]",[],2,,,,,,,,,,,,,,
harvest,108,538107,0.0-39.0-1.0,"""event"",""trial"",""time""
""fullscreenenter"",""1"",""47218""
","
","
","""event"",""trial"",""time""
""fullscreenenter"",""1"",""47218""
","
",,null,run_exp/static/images/task_images/gems/0.jpg,null,,,,,,,0,,,2,,,,,0,0.169027922,NaN,,,,,,,
decision,109,538292,0.0-39.0-2.0,"""event"",""trial"",""time""
""fullscreenenter"",""1"",""47218""
","
","
","""event"",""trial"",""time""
""fullscreenenter"",""1"",""47218""
","
",,177.9,run_exp/static/images/task_images/land.jpg,65,,,,,,,0,,,2,,,,,,,,59618,1,4,FALSE,,,
dig,110,541127,0.0-40.0-0.0,"""event"",""trial"",""time""
""fullscreenenter"",""1"",""47218""
","
","
","""event"",""trial"",""time""
""fullscreenenter"",""1"",""47218""
","
",,,,,,,,,,,,"[{""stimulus"":""run_exp/static/images/task_images/dig.jpg"",""time"":0.7000000178813934},{""stimulus"":""run_exp/static/images/task_images/land.jpg"",""time"":956.9000000059605},{""stimulus"":""run_exp/static/images/task_images/dig.jpg"",""time"":1891.2000000178814}]",[],2,,,,,,,,,,,,,,
harvest,111,542145,0.0-40.0-1.0,"""event"",""trial"",""time""
""fullscreenenter"",""1"",""47218""
","
","
","""event"",""trial"",""time""
""fullscreenenter"",""1"",""47218""
","
",,null,run_exp/static/images/task_images/gems/0.jpg,null,,,,,,,0,,,2,,,,,0,0.165247062,NaN,,,,,,,
decision,112,542750,0.0-40.0-2.0,"""event"",""trial"",""time""
""fullscreenenter"",""1"",""47218""
","
","
","""event"",""trial"",""time""
""fullscreenenter"",""1"",""47218""
","
",,602,run_exp/static/images/task_images/land.jpg,76,,,,,,,0,,,2,,,,,,,,64077,1,5,TRUE,,,
travel,113,552169,0.0-41.0-0.0,"""event"",""trial"",""time""
""fullscreenenter"",""1"",""47218""
","
","
","""event"",""trial"",""time""
""fullscreenenter"",""1"",""47218""
","
",,,,,,,,,,,,"[{""stimulus"":""run_exp/static/images/task_images/rocket-01.jpg"",""time"":0.5},{""stimulus"":""run_exp/static/images/task_images/rocket-02.jpg"",""time"":1051.2000000178814},{""stimulus"":""run_exp/static/images/task_images/rocket-03.jpg"",""time"":2094.2000000178814},{""stimulus"":""run_exp/static/images/task_images/rocket-04.jpg"",""time"":3139.9000000059605},{""stimulus"":""run_exp/static/images/task_images/rocket-05.jpg"",""time"":4183},{""stimulus"":""run_exp/static/images/task_images/rocket-06.jpg"",""time"":5227.5},{""stimulus"":""run_exp/static/images/task_images/rocket-07.jpg"",""time"":6272.300000011921},{""stimulus"":""run_exp/static/images/task_images/rocket-08.jpg"",""time"":7317.200000017881},{""stimulus"":""run_exp/static/images/task_images/rocket-09.jpg"",""time"":8360.40000000596}]",[],2,,,,,,,,,,,,,,
alien_welcome,114,557178,0.0-41.0-1.0,"""event"",""trial"",""time""
""fullscreenenter"",""1"",""47218""
","
","
","""event"",""trial"",""time""
""fullscreenenter"",""1"",""47218""
","
",,null,run_exp/static/images/task_images/aliens/old_aliens/planet/alien_planet-13.jpg,null,,,,,,,,,,,,,13,"6,3,13,41,64,26,57,72,10,18,60,12,2,47,66,69,34,29,33,59,46",,,,,,,,,,
land,115,557682,0.0-41.0-2.0,"""event"",""trial"",""time""
""fullscreenenter"",""1"",""47218""
","
","
","""event"",""trial"",""time""
""fullscreenenter"",""1"",""47218""
","
",,null,run_exp/static/images/task_images/land.jpg,null,,,,,,,101,,,3,,,,,,,,,,,,,,
dig,116,559701,0.0-41.0-3.0,"""event"",""trial"",""time""
""fullscreenenter"",""1"",""47218""
","
","
","""event"",""trial"",""time""
""fullscreenenter"",""1"",""47218""
","
",,,,,,,,,,,,"[{""stimulus"":""run_exp/static/images/task_images/dig.jpg"",""time"":0.7999999821186066},{""stimulus"":""run_exp/static/images/task_images/land.jpg"",""time"":680.1999999880791},{""stimulus"":""run_exp/static/images/task_images/dig.jpg"",""time"":1349.3999999761581}]",[],3,,,,,,,,,,,,,,
harvest,117,560714,0.0-41.0-4.0,"""event"",""trial"",""time""
""fullscreenenter"",""1"",""47218""
","
","
","""event"",""trial"",""time""
""fullscreenenter"",""1"",""47218""
","
",,null,run_exp/static/images/task_images/gems/101.jpg,null,,,,,,,55,,,3,,,,,101,0.541302759,0.544554455,,,,,,,
decision,118,561116,0.0-41.0-5.0,"""event"",""trial"",""time""
""fullscreenenter"",""1"",""47218""
","
","
","""event"",""trial"",""time""
""fullscreenenter"",""1"",""47218""
","
",,397.8,run_exp/static/images/task_images/land.jpg,65,,,,,,,55,,,3,,,,,,,,82443,1,0,FALSE,,,
dig,119,563741,0.0-42.0-0.0,"""event"",""trial"",""time""
""fullscreenenter"",""1"",""47218""
","
","
","""event"",""trial"",""time""
""fullscreenenter"",""1"",""47218""
","
",,,,,,,,,,,,"[{""stimulus"":""run_exp/static/images/task_images/dig.jpg"",""time"":0.5999999940395355},{""stimulus"":""run_exp/static/images/task_images/land.jpg"",""time"":880.5999999940395},{""stimulus"":""run_exp/static/images/task_images/dig.jpg"",""time"":1740.7999999821186}]",[],3,,,,,,,,,,,,,,
harvest,120,564757,0.0-42.0-1.0,"""event"",""trial"",""time""
""fullscreenenter"",""1"",""47218""
","
","
","""event"",""trial"",""time""
""fullscreenenter"",""1"",""47218""
","
",,null,run_exp/static/images/task_images/gems/55.jpg,null,,,,,,,28,,,3,,,,,55,0.516967548,0.509090909,,,,,,,
decision,121,565152,0.0-42.0-2.0,"""event"",""trial"",""time""
""fullscreenenter"",""1"",""47218""
","
","
","""event"",""trial"",""time""
""fullscreenenter"",""1"",""47218""
","
",,391.5,run_exp/static/images/task_images/land.jpg,65,,,,,,,28,,,3,,,,,,,,86479,1,1,FALSE,,,
dig,122,567779,0.0-43.0-0.0,"""event"",""trial"",""time""
""fullscreenenter"",""1"",""47218""
","
","
","""event"",""trial"",""time""
""fullscreenenter"",""1"",""47218""
","
",,,,,,,,,,,,"[{""stimulus"":""run_exp/static/images/task_images/dig.jpg"",""time"":1},{""stimulus"":""run_exp/static/images/task_images/land.jpg"",""time"":876.6999999880791},{""stimulus"":""run_exp/static/images/task_images/dig.jpg"",""time"":1748.2999999821186}]",[],3,,,,,,,,,,,,,,
harvest,123,568793,0.0-43.0-1.0,"""event"",""trial"",""time""
""fullscreenenter"",""1"",""47218""
","
","
","""event"",""trial"",""time""
""fullscreenenter"",""1"",""47218""
","
",,null,run_exp/static/images/task_images/gems/28.jpg,null,,,,,,,15,,,3,,,,,28,0.536098236,0.535714286,,,,,,,
decision,124,569139,0.0-43.0-2.0,"""event"",""trial"",""time""
""fullscreenenter"",""1"",""47218""
","
","
","""event"",""trial"",""time""
""fullscreenenter"",""1"",""47218""
","
",,342.7,run_exp/static/images/task_images/land.jpg,65,,,,,,,15,,,3,,,,,,,,90466,1,2,FALSE,,,
dig,125,571811,0.0-44.0-0.0,"""event"",""trial"",""time""
""fullscreenenter"",""1"",""47218""
","
","
","""event"",""trial"",""time""
""fullscreenenter"",""1"",""47218""
","
",,,,,,,,,,,,"[{""stimulus"":""run_exp/static/images/task_images/dig.jpg"",""time"":1},{""stimulus"":""run_exp/static/images/task_images/land.jpg"",""time"":890.6999999880791},{""stimulus"":""run_exp/static/images/task_images/dig.jpg"",""time"":1777.5}]",[],3,,,,,,,,,,,,,,
harvest,126,572815,0.0-44.0-1.0,"""event"",""trial"",""time""
""fullscreenenter"",""1"",""47218""
","
","
","""event"",""trial"",""time""
""fullscreenenter"",""1"",""47218""
","
",,null,run_exp/static/images/task_images/gems/15.jpg,null,,,,,,,6,,,3,,,,,15,0.382918956,0.4,,,,,,,
decision,127,573923,0.0-44.0-2.0,"""event"",""trial"",""time""
""fullscreenenter"",""1"",""47218""
","
","
","""event"",""trial"",""time""
""fullscreenenter"",""1"",""47218""
","
",,1103.7,run_exp/static/images/task_images/land.jpg,65,,,,,,,6,,,3,,,,,,,,95250,1,3,FALSE,,,
dig,128,575844,0.0-45.0-0.0,"""event"",""trial"",""time""
""fullscreenenter"",""1"",""47218""
","
","
","""event"",""trial"",""time""
""fullscreenenter"",""1"",""47218""
","
",,,,,,,,,,,,"[{""stimulus"":""run_exp/static/images/task_images/dig.jpg"",""time"":0.7000000178813934},{""stimulus"":""run_exp/static/images/task_images/land.jpg"",""time"":648.2000000178814},{""stimulus"":""run_exp/static/images/task_images/dig.jpg"",""time"":1271.9000000059605}]",[],3,,,,,,,,,,,,,,
harvest,129,576860,0.0-45.0-1.0,"""event"",""trial"",""time""
""fullscreenenter"",""1"",""47218""
","
","
","""event"",""trial"",""time""
""fullscreenenter"",""1"",""47218""
","
",,null,run_exp/static/images/task_images/gems/6.jpg,null,,,,,,,2,,,3,,,,,6,0.379767003,0.333333333,,,,,,,
decision,130,577239,0.0-45.0-2.0,"""event"",""trial"",""time""
""fullscreenenter"",""1"",""47218""
","
","
","""event"",""trial"",""time""
""fullscreenenter"",""1"",""47218""
","
",,375.1,run_exp/static/images/task_images/land.jpg,65,,,,,,,2,,,3,,,,,,,,98565,1,4,FALSE,,,
dig,131,579887,0.0-46.0-0.0,"""event"",""trial"",""time""
""fullscreenenter"",""1"",""47218""
","
","
","""event"",""trial"",""time""
""fullscreenenter"",""1"",""47218""
","
",,,,,,,,,,,,"[{""stimulus"":""run_exp/static/images/task_images/dig.jpg"",""time"":0.699999988079071},{""stimulus"":""run_exp/static/images/task_images/land.jpg"",""time"":877.5},{""stimulus"":""run_exp/static/images/task_images/dig.jpg"",""time"":1766.199999988079}]",[],3,,,,,,,,,,,,,,
harvest,132,580903,0.0-46.0-1.0,"""event"",""trial"",""time""
""fullscreenenter"",""1"",""47218""
","
","
","""event"",""trial"",""time""
""fullscreenenter"",""1"",""47218""
","
",,null,run_exp/static/images/task_images/gems/2.jpg,null,,,,,,,1,,,3,,,,,2,0.508604632,0.5,,,,,,,
decision,133,581054,0.0-46.0-2.0,"""event"",""trial"",""time""
""fullscreenenter"",""1"",""47218""
","
","
","""event"",""trial"",""time""
""fullscreenenter"",""1"",""47218""
","
",,148.3,run_exp/static/images/task_images/land.jpg,65,,,,,,,1,,,3,,,,,,,,102380,1,5,FALSE,,,
dig,134,583932,0.0-47.0-0.0,"""event"",""trial"",""time""
""fullscreenenter"",""1"",""47218""
","
","
","""event"",""trial"",""time""
""fullscreenenter"",""1"",""47218""
","
",,,,,,,,,,,,"[{""stimulus"":""run_exp/static/images/task_images/dig.jpg"",""time"":0.699999988079071},{""stimulus"":""run_exp/static/images/task_images/land.jpg"",""time"":962.0999999940395},{""stimulus"":""run_exp/static/images/task_images/dig.jpg"",""time"":1915.0999999940395}]",[],3,,,,,,,,,,,,,,
harvest,135,584946,0.0-47.0-1.0,"""event"",""trial"",""time""
""fullscreenenter"",""1"",""47218""
","
","
","""event"",""trial"",""time""
""fullscreenenter"",""1"",""47218""
","
",,null,run_exp/static/images/task_images/gems/1.jpg,null,,,,,,,1,,,3,,,,,1,0.548606002,1,,,,,,,
decision,136,586314,0.0-47.0-2.0,"""event"",""trial"",""time""
""fullscreenenter"",""1"",""47218""
","
","
","""event"",""trial"",""time""
""fullscreenenter"",""1"",""47218""
","
",,1363.1,run_exp/static/images/task_images/land.jpg,65,,,,,,,1,,,3,,,,,,,,107640,1,6,FALSE,,,
dig,137,587970,0.0-48.0-0.0,"""event"",""trial"",""time""
""fullscreenenter"",""1"",""47218""
","
","
","""event"",""trial"",""time""
""fullscreenenter"",""1"",""47218""
","
",,,,,,,,,,,,"[{""stimulus"":""run_exp/static/images/task_images/dig.jpg"",""time"":0.7000000178813934},{""stimulus"":""run_exp/static/images/task_images/land.jpg"",""time"":555},{""stimulus"":""run_exp/static/images/task_images/dig.jpg"",""time"":1100}]",[],3,,,,,,,,,,,,,,
harvest,138,588984,0.0-48.0-1.0,"""event"",""trial"",""time""
""fullscreenenter"",""1"",""47218""
","
","
","""event"",""trial"",""time""
""fullscreenenter"",""1"",""47218""
","
",,null,run_exp/static/images/task_images/gems/1.jpg,null,,,,,,,0,,,3,,,,,1,0.397954015,0,,,,,,,
decision,139,589007,0.0-48.0-2.0,"""event"",""trial"",""time""
""fullscreenenter"",""1"",""47218""
","
","
","""event"",""trial"",""time""
""fullscreenenter"",""1"",""47218""
","
",,19.29999998,run_exp/static/images/task_images/land.jpg,65,,,,,,,0,,,3,,,,,,,,110333,1,7,FALSE,,,
dig,140,592008,0.0-49.0-0.0,"""event"",""trial"",""time""
""fullscreenenter"",""1"",""47218""
","
","
","""event"",""trial"",""time""
""fullscreenenter"",""1"",""47218""
","
",,,,,,,,,,,,"[{""stimulus"":""run_exp/static/images/task_images/dig.jpg"",""time"":0.7000000178813934},{""stimulus"":""run_exp/static/images/task_images/land.jpg"",""time"":1009.5},{""stimulus"":""run_exp/static/images/task_images/dig.jpg"",""time"":1992.4000000059605}]",[],3,,,,,,,,,,,,,,
harvest,141,593019,0.0-49.0-1.0,"""event"",""trial"",""time""
""fullscreenenter"",""1"",""47218""
","
","
","""event"",""trial"",""time""
""fullscreenenter"",""1"",""47218""
","
",,null,run_exp/static/images/task_images/gems/0.jpg,null,,,,,,,0,,,3,,,,,0,0.488583392,NaN,,,,,,,
decision,142,593595,0.0-49.0-2.0,"""event"",""trial"",""time""
""fullscreenenter"",""1"",""47218""
","
","
","""event"",""trial"",""time""
""fullscreenenter"",""1"",""47218""
","
",,573.3,run_exp/static/images/task_images/land.jpg,76,,,,,,,0,,,3,,,,,,,,114922,1,8,TRUE,,,
travel,143,603034,0.0-50.0-0.0,"""event"",""trial"",""time""
""fullscreenenter"",""1"",""47218""
","
","
","""event"",""trial"",""time""
""fullscreenenter"",""1"",""47218""
","
",,,,,,,,,,,,"[{""stimulus"":""run_exp/static/images/task_images/rocket-01.jpg"",""time"":0.6000000238418579},{""stimulus"":""run_exp/static/images/task_images/rocket-02.jpg"",""time"":1050.7000000178814},{""stimulus"":""run_exp/static/images/task_images/rocket-03.jpg"",""time"":2109.300000011921},{""stimulus"":""run_exp/static/images/task_images/rocket-04.jpg"",""time"":3152.600000023842},{""stimulus"":""run_exp/static/images/task_images/rocket-05.jpg"",""time"":4193.800000011921},{""stimulus"":""run_exp/static/images/task_images/rocket-06.jpg"",""time"":5253},{""stimulus"":""run_exp/static/images/task_images/rocket-07.jpg"",""time"":6298.4000000059605},{""stimulus"":""run_exp/static/images/task_images/rocket-08.jpg"",""time"":7341.4000000059605},{""stimulus"":""run_exp/static/images/task_images/rocket-09.jpg"",""time"":8385.90000000596}]",[],3,,,,,,,,,,,,,,
alien_welcome,144,608041,0.0-50.0-1.0,"""event"",""trial"",""time""
""fullscreenenter"",""1"",""47218""
","
","
","""event"",""trial"",""time""
""fullscreenenter"",""1"",""47218""
","
",,null,run_exp/static/images/task_images/aliens/old_aliens/planet/alien_planet-41.jpg,null,,,,,,,,,,,,,41,"6,3,13,41,64,26,57,72,10,18,60,12,2,47,66,69,34,29,33,59,46",,,,,,,,,,
land,145,608545,0.0-50.0-2.0,"""event"",""trial"",""time""
""fullscreenenter"",""1"",""47218""
","
","
","""event"",""trial"",""time""
""fullscreenenter"",""1"",""47218""
","
",,null,run_exp/static/images/task_images/land.jpg,null,,,,,,,101,,,4,,,,,,,,,,,,,,
dig,146,610566,0.0-50.0-3.0,"""event"",""trial"",""time""
""fullscreenenter"",""1"",""47218""
","
","
","""event"",""trial"",""time""
""fullscreenenter"",""1"",""47218""
","
",,,,,,,,,,,,"[{""stimulus"":""run_exp/static/images/task_images/dig.jpg"",""time"":0.7999999821186066},{""stimulus"":""run_exp/static/images/task_images/land.jpg"",""time"":677.0999999940395},{""stimulus"":""run_exp/static/images/task_images/dig.jpg"",""time"":1346.5}]",[],4,,,,,,,,,,,,,,
harvest,147,611581,0.0-50.0-4.0,"""event"",""trial"",""time""
""fullscreenenter"",""1"",""47218""
","
","
","""event"",""trial"",""time""
""fullscreenenter"",""1"",""47218""
","
",,null,run_exp/static/images/task_images/gems/101.jpg,null,,,,,,,39,,,4,,,,,101,0.384959062,0.386138614,,,,,,,
decision,148,612149,0.0-50.0-5.0,"""event"",""trial"",""time""
""fullscreenenter"",""1"",""47218""
","
","
","""event"",""trial"",""time""
""fullscreenenter"",""1"",""47218""
","
",,564.5,run_exp/static/images/task_images/land.jpg,65,,,,,,,39,,,4,,,,,,,,133475,1,0,FALSE,,,
dig,149,614596,0.0-51.0-0.0,"""event"",""trial"",""time""
""fullscreenenter"",""1"",""47218""
","
","
","""event"",""trial"",""time""
""fullscreenenter"",""1"",""47218""
","
",,,,,,,,,,,,"[{""stimulus"":""run_exp/static/images/task_images/dig.jpg"",""time"":0.699999988079071},{""stimulus"":""run_exp/static/images/task_images/land.jpg"",""time"":828.8000000119209},{""stimulus"":""run_exp/static/images/task_images/dig.jpg"",""time"":1640.199999988079}]",[],4,,,,,,,,,,,,,,
harvest,150,615600,0.0-51.0-1.0,"""event"",""trial"",""time""
""fullscreenenter"",""1"",""47218""
","
","
","""event"",""trial"",""time""
""fullscreenenter"",""1"",""47218""
","
",,null,run_exp/static/images/task_images/gems/39.jpg,null,,,,,,,22,,,4,,,,,39,0.567134105,0.564102564,,,,,,,
decision,151,616905,0.0-51.0-2.0,"""event"",""trial"",""time""
""fullscreenenter"",""1"",""47218""
","
","
","""event"",""trial"",""time""
""fullscreenenter"",""1"",""47218""
","
",,1301.5,run_exp/static/images/task_images/land.jpg,65,,,,,,,22,,,4,,,,,,,,138232,1,1,FALSE,,,
dig,152,618626,0.0-52.0-0.0,"""event"",""trial"",""time""
""fullscreenenter"",""1"",""47218""
","
","
","""event"",""trial"",""time""
""fullscreenenter"",""1"",""47218""
","
",,,,,,,,,,,,"[{""stimulus"":""run_exp/static/images/task_images/dig.jpg"",""time"":0.699999988079071},{""stimulus"":""run_exp/static/images/task_images/land.jpg"",""time"":574},{""stimulus"":""run_exp/static/images/task_images/dig.jpg"",""time"":1149.9000000059605}]",[],4,,,,,,,,,,,,,,
harvest,153,619642,0.0-52.0-1.0,"""event"",""trial"",""time""
""fullscreenenter"",""1"",""47218""
","
","
","""event"",""trial"",""time""
""fullscreenenter"",""1"",""47218""
","
",,null,run_exp/static/images/task_images/gems/22.jpg,null,,,,,,,12,,,4,,,,,22,0.537965208,0.545454545,,,,,,,
decision,154,619960,0.0-52.0-2.0,"""event"",""trial"",""time""
""fullscreenenter"",""1"",""47218""
","
","
","""event"",""trial"",""time""
""fullscreenenter"",""1"",""47218""
","
",,315.1,run_exp/static/images/task_images/land.jpg,65,,,,,,,12,,,4,,,,,,,,141287,1,2,FALSE,,,
dig,155,622665,0.0-53.0-0.0,"""event"",""trial"",""time""
""fullscreenenter"",""1"",""47218""
","
","
","""event"",""trial"",""time""
""fullscreenenter"",""1"",""47218""
","
",,,,,,,,,,,,"[{""stimulus"":""run_exp/static/images/task_images/dig.jpg"",""time"":0.6000000238418579},{""stimulus"":""run_exp/static/images/task_images/land.jpg"",""time"":902.4000000059605},{""stimulus"":""run_exp/static/images/task_images/dig.jpg"",""time"":1791.6000000238419}]",[],4,,,,,,,,,,,,,,
harvest,156,623668,0.0-53.0-1.0,"""event"",""trial"",""time""
""fullscreenenter"",""1"",""47218""
","
","
","""event"",""trial"",""time""
""fullscreenenter"",""1"",""47218""
","
",,null,run_exp/static/images/task_images/gems/12.jpg,null,,,,,,,7,,,4,,,,,12,0.578481709,0.583333333,,,,,,,
decision,157,623928,0.0-53.0-2.0,"""event"",""trial"",""time""
""fullscreenenter"",""1"",""47218""
","
","
","""event"",""trial"",""time""
""fullscreenenter"",""1"",""47218""
","
",,257.7,run_exp/static/images/task_images/land.jpg,65,,,,,,,7,,,4,,,,,,,,145254,1,3,FALSE,,,
dig,158,626696,0.0-54.0-0.0,"""event"",""trial"",""time""
""fullscreenenter"",""1"",""47218""
","
","
","""event"",""trial"",""time""
""fullscreenenter"",""1"",""47218""
","
",,,,,,,,,,,,"[{""stimulus"":""run_exp/static/images/task_images/dig.jpg"",""time"":0.699999988079071},{""stimulus"":""run_exp/static/images/task_images/land.jpg"",""time"":919.2999999821186},{""stimulus"":""run_exp/static/images/task_images/dig.jpg"",""time"":1835.9000000059605}]",[],4,,,,,,,,,,,,,,
harvest,159,627711,0.0-54.0-1.0,"""event"",""trial"",""time""
""fullscreenenter"",""1"",""47218""
","
","
","""event"",""trial"",""time""
""fullscreenenter"",""1"",""47218""
","
",,null,run_exp/static/images/task_images/gems/7.jpg,null,,,,,,,3,,,4,,,,,7,0.475247572,0.428571429,,,,,,,
decision,160,627920,0.0-54.0-2.0,"""event"",""trial"",""time""
""fullscreenenter"",""1"",""47218""
","
","
","""event"",""trial"",""time""
""fullscreenenter"",""1"",""47218""
","
",,204.4,run_exp/static/images/task_images/land.jpg,65,,,,,,,3,,,4,,,,,,,,149246,1,4,FALSE,,,
dig,161,630737,0.0-55.0-0.0,"""event"",""trial"",""time""
""fullscreenenter"",""1"",""47218""
","
","
","""event"",""trial"",""time""
""fullscreenenter"",""1"",""47218""
","
",,,,,,,,,,,,"[{""stimulus"":""run_exp/static/images/task_images/dig.jpg"",""time"":0.7999999821186066},{""stimulus"":""run_exp/static/images/task_images/land.jpg"",""time"":935.2999999821186},{""stimulus"":""run_exp/static/images/task_images/dig.jpg"",""time"":1870.4000000059605}]",[],4,,,,,,,,,,,,,,
harvest,162,631742,0.0-55.0-1.0,"""event"",""trial"",""time""
""fullscreenenter"",""1"",""47218""
","
","
","""event"",""trial"",""time""
""fullscreenenter"",""1"",""47218""
","
",,null,run_exp/static/images/task_images/gems/3.jpg,null,,,,,,,1,,,4,,,,,3,0.403763999,0.333333333,,,,,,,
decision,163,632319,0.0-55.0-2.0,"""event"",""trial"",""time""
""fullscreenenter"",""1"",""47218""
","
","
","""event"",""trial"",""time""
""fullscreenenter"",""1"",""47218""
","
",,575.5,run_exp/static/images/task_images/land.jpg,65,,,,,,,1,,,4,,,,,,,,153646,1,5,FALSE,,,
dig,164,634768,0.0-56.0-0.0,"""event"",""trial"",""time""
""fullscreenenter"",""1"",""47218""
","
","
","""event"",""trial"",""time""
""fullscreenenter"",""1"",""47218""
","
",,,,,,,,,,,,"[{""stimulus"":""run_exp/static/images/task_images/dig.jpg"",""time"":0.7999999821186066},{""stimulus"":""run_exp/static/images/task_images/land.jpg"",""time"":817},{""stimulus"":""run_exp/static/images/task_images/dig.jpg"",""time"":1628.4000000059605}]",[],4,,,,,,,,,,,,,,
harvest,165,635780,0.0-56.0-1.0,"""event"",""trial"",""time""
""fullscreenenter"",""1"",""47218""
","
","
","""event"",""trial"",""time""
""fullscreenenter"",""1"",""47218""
","
",,null,run_exp/static/images/task_images/gems/1.jpg,null,,,,,,,1,,,4,,,,,1,0.537126463,1,,,,,,,
decision,166,635835,0.0-56.0-2.0,"""event"",""trial"",""time""
""fullscreenenter"",""1"",""47218""
","
","
","""event"",""trial"",""time""
""fullscreenenter"",""1"",""47218""
","
",,51.10000002,run_exp/static/images/task_images/land.jpg,65,,,,,,,1,,,4,,,,,,,,157161,1,6,FALSE,,,
dig,167,638802,0.0-57.0-0.0,"""event"",""trial"",""time""
""fullscreenenter"",""1"",""47218""
","
","
","""event"",""trial"",""time""
""fullscreenenter"",""1"",""47218""
","
",,,,,,,,,,,,"[{""stimulus"":""run_exp/static/images/task_images/dig.jpg"",""time"":0.5},{""stimulus"":""run_exp/static/images/task_images/land.jpg"",""time"":993.5},{""stimulus"":""run_exp/static/images/task_images/dig.jpg"",""time"":1975.699999988079}]",[],4,,,,,,,,,,,,,,
harvest,168,639816,0.0-57.0-1.0,"""event"",""trial"",""time""
""fullscreenenter"",""1"",""47218""
","
","
","""event"",""trial"",""time""
""fullscreenenter"",""1"",""47218""
","
",,null,run_exp/static/images/task_images/gems/1.jpg,null,,,,,,,1,,,4,,,,,1,0.516004448,1,,,,,,,
decision,169,640311,0.0-57.0-2.0,"""event"",""trial"",""time""
""fullscreenenter"",""1"",""47218""
","
","
","""event"",""trial"",""time""
""fullscreenenter"",""1"",""47218""
","
",,491.8,run_exp/static/images/task_images/land.jpg,65,,,,,,,0,,,4,,,,,,,,161638,1,7,FALSE,,,
dig,170,642835,0.0-58.0-0.0,"""event"",""trial"",""time""
""fullscreenenter"",""1"",""47218""
","
","
","""event"",""trial"",""time""
""fullscreenenter"",""1"",""47218""
","
",,,,,,,,,,,,"[{""stimulus"":""run_exp/static/images/task_images/dig.jpg"",""time"":0.5999999940395355},{""stimulus"":""run_exp/static/images/task_images/land.jpg"",""time"":848.4000000059605},{""stimulus"":""run_exp/static/images/task_images/dig.jpg"",""time"":1688.0999999940395}]",[],4,,,,,,,,,,,,,,
harvest,171,643841,0.0-58.0-1.0,"""event"",""trial"",""time""
""fullscreenenter"",""1"",""47218""
","
","
","""event"",""trial"",""time""
""fullscreenenter"",""1"",""47218""
","
",,null,run_exp/static/images/task_images/gems/0.jpg,null,,,,,,,0,,,4,,,,,0,0.546793377,NaN,,,,,,,
decision,172,644029,0.0-58.0-2.0,"""event"",""trial"",""time""
""fullscreenenter"",""1"",""47218""
","
","
","""event"",""trial"",""time""
""fullscreenenter"",""1"",""47218""
","
",,184.1,run_exp/static/images/task_images/land.jpg,76,,,,,,,0,,,4,,,,,,,,165356,1,8,TRUE,,,
travel,173,653858,0.0-59.0-0.0,"""event"",""trial"",""time""
""fullscreenenter"",""1"",""47218""
","
","
","""event"",""trial"",""time""
""fullscreenenter"",""1"",""47218""
","
",,,,,,,,,,,,"[{""stimulus"":""run_exp/static/images/task_images/rocket-01.jpg"",""time"":0.800000011920929},{""stimulus"":""run_exp/static/images/task_images/rocket-02.jpg"",""time"":1104.5999999940395},{""stimulus"":""run_exp/static/images/task_images/rocket-03.jpg"",""time"":2195.2000000178814},{""stimulus"":""run_exp/static/images/task_images/rocket-04.jpg"",""time"":3289},{""stimulus"":""run_exp/static/images/task_images/rocket-05.jpg"",""time"":4364.5},{""stimulus"":""run_exp/static/images/task_images/rocket-06.jpg"",""time"":5458.200000017881},{""stimulus"":""run_exp/static/images/task_images/rocket-07.jpg"",""time"":6552.4000000059605},{""stimulus"":""run_exp/static/images/task_images/rocket-08.jpg"",""time"":7645.5},{""stimulus"":""run_exp/static/images/task_images/rocket-09.jpg"",""time"":8724.200000017881}]",[],4,,,,,,,,,,,,,,
alien_welcome,174,658879,0.0-59.0-1.0,"""event"",""trial"",""time""
""fullscreenenter"",""1"",""47218""
","
","
","""event"",""trial"",""time""
""fullscreenenter"",""1"",""47218""
","
",,null,run_exp/static/images/task_images/aliens/old_aliens/planet/alien_planet-64.jpg,null,,,,,,,,,,,,,64,"6,3,13,41,64,26,57,72,10,18,60,12,2,47,66,69,34,29,33,59,46",,,,,,,,,,
land,175,659395,0.0-59.0-2.0,"""event"",""trial"",""time""
""fullscreenenter"",""1"",""47218""
","
","
","""event"",""trial"",""time""
""fullscreenenter"",""1"",""47218""
","
",,null,run_exp/static/images/task_images/land.jpg,null,,,,,,,101,,,5,,,,,,,,,,,,,,
dig,176,661412,0.0-59.0-3.0,"""event"",""trial"",""time""
""fullscreenenter"",""1"",""47218""
","
","
","""event"",""trial"",""time""
""fullscreenenter"",""1"",""47218""
","
",,,,,,,,,,,,"[{""stimulus"":""run_exp/static/images/task_images/dig.jpg"",""time"":0.800000011920929},{""stimulus"":""run_exp/static/images/task_images/land.jpg"",""time"":685.0999999940395},{""stimulus"":""run_exp/static/images/task_images/dig.jpg"",""time"":1343.2000000178814}]",[],5,,,,,,,,,,,,,,
harvest,177,662423,0.0-59.0-4.0,"""event"",""trial"",""time""
""fullscreenenter"",""1"",""47218""
","
","
","""event"",""trial"",""time""
""fullscreenenter"",""1"",""47218""
","
",,null,run_exp/static/images/task_images/gems/101.jpg,null,,,,,,,53,,,5,,,,,101,0.52573923,0.524752475,,,,,,,
decision,178,662884,0.0-59.0-5.0,"""event"",""trial"",""time""
""fullscreenenter"",""1"",""47218""
","
","
","""event"",""trial"",""time""
""fullscreenenter"",""1"",""47218""
","
",,457.6,run_exp/static/images/task_images/land.jpg,65,,,,,,,53,,,5,,,,,,,,184210,1,0,FALSE,,,
dig,179,665451,0.0-60.0-0.0,"""event"",""trial"",""time""
""fullscreenenter"",""1"",""47218""
","
","
","""event"",""trial"",""time""
""fullscreenenter"",""1"",""47218""
","
",,,,,,,,,,,,"[{""stimulus"":""run_exp/static/images/task_images/dig.jpg"",""time"":0.7000000178813934},{""stimulus"":""run_exp/static/images/task_images/land.jpg"",""time"":854},{""stimulus"":""run_exp/static/images/task_images/dig.jpg"",""time"":1697.9000000059605}]",[],5,,,,,,,,,,,,,,
harvest,180,666460,0.0-60.0-1.0,"""event"",""trial"",""time""
""fullscreenenter"",""1"",""47218""
","
","
","""event"",""trial"",""time""
""fullscreenenter"",""1"",""47218""
","
",,null,run_exp/static/images/task_images/gems/53.jpg,null,,,,,,,25,,,5,,,,,53,0.466368425,0.471698113,,,,,,,
decision,181,667150,0.0-60.0-2.0,"""event"",""trial"",""time""
""fullscreenenter"",""1"",""47218""
","
","
","""event"",""trial"",""time""
""fullscreenenter"",""1"",""47218""
","
",,687.4,run_exp/static/images/task_images/land.jpg,65,,,,,,,25,,,5,,,,,,,,188476,1,1,FALSE,,,
dig,182,669482,0.0-61.0-0.0,"""event"",""trial"",""time""
""fullscreenenter"",""1"",""47218""
","
","
","""event"",""trial"",""time""
""fullscreenenter"",""1"",""47218""
","
",,,,,,,,,,,,"[{""stimulus"":""run_exp/static/images/task_images/dig.jpg"",""time"":0.699999988079071},{""stimulus"":""run_exp/static/images/task_images/land.jpg"",""time"":778.1999999880791},{""stimulus"":""run_exp/static/images/task_images/dig.jpg"",""time"":1556.4000000059605}]",[],5,,,,,,,,,,,,,,
harvest,183,670486,0.0-61.0-1.0,"""event"",""trial"",""time""
""fullscreenenter"",""1"",""47218""
","
","
","""event"",""trial"",""time""
""fullscreenenter"",""1"",""47218""
","
",,null,run_exp/static/images/task_images/gems/25.jpg,null,,,,,,,15,,,5,,,,,25,0.581766024,0.6,,,,,,,
decision,184,671650,0.0-61.0-2.0,"""event"",""trial"",""time""
""fullscreenenter"",""1"",""47218""
","
","
","""event"",""trial"",""time""
""fullscreenenter"",""1"",""47218""
","
",,1159.9,run_exp/static/images/task_images/land.jpg,65,,,,,,,15,,,5,,,,,,,,192976,1,2,FALSE,,,
dig,185,673511,0.0-62.0-0.0,"""event"",""trial"",""time""
""fullscreenenter"",""1"",""47218""
","
","
","""event"",""trial"",""time""
""fullscreenenter"",""1"",""47218""
","
",,,,,,,,,,,,"[{""stimulus"":""run_exp/static/images/task_images/dig.jpg"",""time"":0.5},{""stimulus"":""run_exp/static/images/task_images/land.jpg"",""time"":622.4000000059605},{""stimulus"":""run_exp/static/images/task_images/dig.jpg"",""time"":1243.6000000238419}]",[],5,,,,,,,,,,,,,,
harvest,186,674523,0.0-62.0-1.0,"""event"",""trial"",""time""
""fullscreenenter"",""1"",""47218""
","
","
","""event"",""trial"",""time""
""fullscreenenter"",""1"",""47218""
","
",,null,run_exp/static/images/task_images/gems/15.jpg,null,,,,,,,8,,,5,,,,,15,0.517236709,0.533333333,,,,,,,
decision,187,675687,0.0-62.0-2.0,"""event"",""trial"",""time""
""fullscreenenter"",""1"",""47218""
","
","
","""event"",""trial"",""time""
""fullscreenenter"",""1"",""47218""
","
",,1161.4,run_exp/static/images/task_images/land.jpg,65,,,,,,,8,,,5,,,,,,,,197013,1,3,FALSE,,,
dig,188,677550,0.0-63.0-0.0,"""event"",""trial"",""time""
""fullscreenenter"",""1"",""47218""
","
","
","""event"",""trial"",""time""
""fullscreenenter"",""1"",""47218""
","
",,,,,,,,,,,,"[{""stimulus"":""run_exp/static/images/task_images/dig.jpg"",""time"":0.699999988079071},{""stimulus"":""run_exp/static/images/task_images/land.jpg"",""time"":618.5999999940395},{""stimulus"":""run_exp/static/images/task_images/dig.jpg"",""time"":1241.5999999940395}]",[],5,,,,,,,,,,,,,,
harvest,189,678568,0.0-63.0-1.0,"""event"",""trial"",""time""
""fullscreenenter"",""1"",""47218""
","
","
","""event"",""trial"",""time""
""fullscreenenter"",""1"",""47218""
","
",,null,run_exp/static/images/task_images/gems/8.jpg,null,,,,,,,4,,,5,,,,,8,0.531914335,0.5,,,,,,,
decision,190,678842,0.0-63.0-2.0,"""event"",""trial"",""time""
""fullscreenenter"",""1"",""47218""
","
","
","""event"",""trial"",""time""
""fullscreenenter"",""1"",""47218""
","
",,270.9,run_exp/static/images/task_images/land.jpg,65,,,,,,,4,,,5,,,,,,,,200168,1,4,FALSE,,,
dig,191,681583,0.0-64.0-0.0,"""event"",""trial"",""time""
""fullscreenenter"",""1"",""47218""
","
","
","""event"",""trial"",""time""
""fullscreenenter"",""1"",""47218""
","
",,,,,,,,,,,,"[{""stimulus"":""run_exp/static/images/task_images/dig.jpg"",""time"":0.5999999940395355},{""stimulus"":""run_exp/static/images/task_images/land.jpg"",""time"":921.8000000119209},{""stimulus"":""run_exp/static/images/task_images/dig.jpg"",""time"":1827}]",[],5,,,,,,,,,,,,,,
harvest,192,682596,0.0-64.0-1.0,"""event"",""trial"",""time""
""fullscreenenter"",""1"",""47218""
","
","
","""event"",""trial"",""time""
""fullscreenenter"",""1"",""47218""
","
",,null,run_exp/static/images/task_images/gems/4.jpg,null,,,,,,,2,,,5,,,,,4,0.545606353,0.5,,,,,,,
decision,193,682997,0.0-64.0-2.0,"""event"",""trial"",""time""
""fullscreenenter"",""1"",""47218""
","
","
","""event"",""trial"",""time""
""fullscreenenter"",""1"",""47218""
","
",,398.1,run_exp/static/images/task_images/land.jpg,65,,,,,,,2,,,5,,,,,,,,204324,1,5,FALSE,,,
dig,194,685625,0.0-65.0-0.0,"""event"",""trial"",""time""
""fullscreenenter"",""1"",""47218""
","
","
","""event"",""trial"",""time""
""fullscreenenter"",""1"",""47218""
","
",,,,,,,,,,,,"[{""stimulus"":""run_exp/static/images/task_images/dig.jpg"",""time"":0.5999999940395355},{""stimulus"":""run_exp/static/images/task_images/land.jpg"",""time"":883.5},{""stimulus"":""run_exp/static/images/task_images/dig.jpg"",""time"":1742.2000000178814}]",[],5,,,,,,,,,,,,,,
harvest,195,686643,0.0-65.0-1.0,"""event"",""trial"",""time""
""fullscreenenter"",""1"",""47218""
","
","
","""event"",""trial"",""time""
""fullscreenenter"",""1"",""47218""
","
",,null,run_exp/static/images/task_images/gems/2.jpg,null,,,,,,,1,,,5,,,,,2,0.595984428,0.5,,,,,,,
decision,196,688394,0.0-65.0-2.0,"""event"",""trial"",""time""
""fullscreenenter"",""1"",""47218""
","
","
","""event"",""trial"",""time""
""fullscreenenter"",""1"",""47218""
","
",,1746.4,run_exp/static/images/task_images/land.jpg,65,,,,,,,1,,,5,,,,,,,,209721,1,6,FALSE,,,
dig,197,689672,0.0-66.0-0.0,"""event"",""trial"",""time""
""fullscreenenter"",""1"",""47218""
","
","
","""event"",""trial"",""time""
""fullscreenenter"",""1"",""47218""
","
",,,,,,,,,,,,"[{""stimulus"":""run_exp/static/images/task_images/dig.jpg"",""time"":0.800000011920929},{""stimulus"":""run_exp/static/images/task_images/land.jpg"",""time"":424.30000001192093},{""stimulus"":""run_exp/static/images/task_images/dig.jpg"",""time"":847.4000000059605}]",[],5,,,,,,,,,,,,,,
harvest,198,690680,0.0-66.0-1.0,"""event"",""trial"",""time""
""fullscreenenter"",""1"",""47218""
","
","
","""event"",""trial"",""time""
""fullscreenenter"",""1"",""47218""
","
",,null,run_exp/static/images/task_images/gems/1.jpg,null,,,,,,,1,,,5,,,,,1,0.509079279,1,,,,,,,
decision,199,691206,0.0-66.0-2.0,"""event"",""trial"",""time""
""fullscreenenter"",""1"",""47218""
","
","
","""event"",""trial"",""time""
""fullscreenenter"",""1"",""47218""
","
",,521.4,run_exp/static/images/task_images/land.jpg,65,,,,,,,1,,,5,,,,,,,,212532,1,7,FALSE,,,
dig,200,693712,0.0-67.0-0.0,"""event"",""trial"",""time""
""fullscreenenter"",""1"",""47218""
","
","
","""event"",""trial"",""time""
""fullscreenenter"",""1"",""47218""
","
",,,,,,,,,,,,"[{""stimulus"":""run_exp/static/images/task_images/dig.jpg"",""time"":0.699999988079071},{""stimulus"":""run_exp/static/images/task_images/land.jpg"",""time"":842.3000000119209},{""stimulus"":""run_exp/static/images/task_images/dig.jpg"",""time"":1668.4000000059605}]",[],5,,,,,,,,,,,,,,
harvest,201,694727,0.0-67.0-1.0,"""event"",""trial"",""time""
""fullscreenenter"",""1"",""47218""
","
","
","""event"",""trial"",""time""
""fullscreenenter"",""1"",""47218""
","
",,null,run_exp/static/images/task_images/gems/1.jpg,null,,,,,,,1,,,5,,,,,1,0.508334433,1,,,,,,,
decision,202,695207,0.0-67.0-2.0,"""event"",""trial"",""time""
""fullscreenenter"",""1"",""47218""
","
","
","""event"",""trial"",""time""
""fullscreenenter"",""1"",""47218""
","
",,475.8,run_exp/static/images/task_images/land.jpg,65,,,,,,,0,,,5,,,,,,,,216533,1,8,FALSE,,,
dig,203,697756,0.0-68.0-0.0,"""event"",""trial"",""time""
""fullscreenenter"",""1"",""47218""
","
","
","""event"",""trial"",""time""
""fullscreenenter"",""1"",""47218""
","
",,,,,,,,,,,,"[{""stimulus"":""run_exp/static/images/task_images/dig.jpg"",""time"":0.5},{""stimulus"":""run_exp/static/images/task_images/land.jpg"",""time"":853},{""stimulus"":""run_exp/static/images/task_images/dig.jpg"",""time"":1693.800000011921}]",[],5,,,,,,,,,,,,,,
harvest,204,698770,0.0-68.0-1.0,"""event"",""trial"",""time""
""fullscreenenter"",""1"",""47218""
","
","
","""event"",""trial"",""time""
""fullscreenenter"",""1"",""47218""
","
",,null,run_exp/static/images/task_images/gems/0.jpg,null,,,,,,,0,,,5,,,,,0,0.480164245,NaN,,,,,,,
decision,205,699231,0.0-68.0-2.0,"""event"",""trial"",""time""
""fullscreenenter"",""1"",""47218""
","
","
","""event"",""trial"",""time""
""fullscreenenter"",""1"",""47218""
","
",,457.4,run_exp/static/images/task_images/land.jpg,76,,,,,,,0,,,5,,,,,,,,220557,1,9,TRUE,,,
travel,206,708795,0.0-69.0-0.0,"""event"",""trial"",""time""
""fullscreenenter"",""1"",""47218""
","
","
","""event"",""trial"",""time""
""fullscreenenter"",""1"",""47218""
","
",,,,,,,,,,,,"[{""stimulus"":""run_exp/static/images/task_images/rocket-01.jpg"",""time"":0.7000000178813934},{""stimulus"":""run_exp/static/images/task_images/rocket-02.jpg"",""time"":1072.7000000178814},{""stimulus"":""run_exp/static/images/task_images/rocket-03.jpg"",""time"":2133.5},{""stimulus"":""run_exp/static/images/task_images/rocket-04.jpg"",""time"":3194.7000000178814},{""stimulus"":""run_exp/static/images/task_images/rocket-05.jpg"",""time"":4253.700000017881},{""stimulus"":""run_exp/static/images/task_images/rocket-06.jpg"",""time"":5315.9000000059605},{""stimulus"":""run_exp/static/images/task_images/rocket-07.jpg"",""time"":6373.700000017881},{""stimulus"":""run_exp/static/images/task_images/rocket-08.jpg"",""time"":7433.800000011921},{""stimulus"":""run_exp/static/images/task_images/rocket-09.jpg"",""time"":8495.300000011921}]",[],5,,,,,,,,,,,,,,
alien_welcome,207,713810,0.0-69.0-1.0,"""event"",""trial"",""time""
""fullscreenenter"",""1"",""47218""
","
","
","""event"",""trial"",""time""
""fullscreenenter"",""1"",""47218""
","
",,null,run_exp/static/images/task_images/aliens/old_aliens/planet/alien_planet-26.jpg,null,,,,,,,,,,,,,26,"6,3,13,41,64,26,57,72,10,18,60,12,2,47,66,69,34,29,33,59,46",,,,,,,,,,
land,208,714322,0.0-69.0-2.0,"""event"",""trial"",""time""
""fullscreenenter"",""1"",""47218""
","
","
","""event"",""trial"",""time""
""fullscreenenter"",""1"",""47218""
","
",,null,run_exp/static/images/task_images/land.jpg,null,,,,,,,102,,,6,,,,,,,,,,,,,,
dig,209,716331,0.0-69.0-3.0,"""event"",""trial"",""time""
""fullscreenenter"",""1"",""47218""
","
","
","""event"",""trial"",""time""
""fullscreenenter"",""1"",""47218""
","
",,,,,,,,,,,,"[{""stimulus"":""run_exp/static/images/task_images/dig.jpg"",""time"":0.8999999761581421},{""stimulus"":""run_exp/static/images/task_images/land.jpg"",""time"":682.6999999880791},{""stimulus"":""run_exp/static/images/task_images/dig.jpg"",""time"":1353.0999999940395}]",[],6,,,,,,,,,,,,,,
harvest,210,717334,0.0-69.0-4.0,"""event"",""trial"",""time""
""fullscreenenter"",""1"",""47218""
","
","
","""event"",""trial"",""time""
""fullscreenenter"",""1"",""47218""
","
",,null,run_exp/static/images/task_images/gems/102.jpg,null,,,,,,,84,,,6,,,,,102,0.819933477,0.823529412,,,,,,,
decision,211,718132,0.0-69.0-5.0,"""event"",""trial"",""time""
""fullscreenenter"",""1"",""47218""
","
","
","""event"",""trial"",""time""
""fullscreenenter"",""1"",""47218""
","
",,795.8,run_exp/static/images/task_images/land.jpg,65,,,,,,,84,,,6,,,,,,,,239458,1,0,FALSE,,,
dig,212,720354,0.0-70.0-0.0,"""event"",""trial"",""time""
""fullscreenenter"",""1"",""47218""
","
","
","""event"",""trial"",""time""
""fullscreenenter"",""1"",""47218""
","
",,,,,,,,,,,,"[{""stimulus"":""run_exp/static/images/task_images/dig.jpg"",""time"":0.800000011920929},{""stimulus"":""run_exp/static/images/task_images/land.jpg"",""time"":748},{""stimulus"":""run_exp/static/images/task_images/dig.jpg"",""time"":1475.9000000059605}]",[],6,,,,,,,,,,,,,,
harvest,213,721370,0.0-70.0-1.0,"""event"",""trial"",""time""
""fullscreenenter"",""1"",""47218""
","
","
","""event"",""trial"",""time""
""fullscreenenter"",""1"",""47218""
","
",,null,run_exp/static/images/task_images/gems/84.jpg,null,,,,,,,63,,,6,,,,,84,0.754858525,0.75,,,,,,,
decision,214,721579,0.0-70.0-2.0,"""event"",""trial"",""time""
""fullscreenenter"",""1"",""47218""
","
","
","""event"",""trial"",""time""
""fullscreenenter"",""1"",""47218""
","
",,205,run_exp/static/images/task_images/land.jpg,65,,,,,,,63,,,6,,,,,,,,242905,1,1,FALSE,,,
dig,215,724390,0.0-71.0-0.0,"""event"",""trial"",""time""
""fullscreenenter"",""1"",""47218""
","
","
","""event"",""trial"",""time""
""fullscreenenter"",""1"",""47218""
","
",,,,,,,,,,,,"[{""stimulus"":""run_exp/static/images/task_images/dig.jpg"",""time"":0.800000011920929},{""stimulus"":""run_exp/static/images/task_images/land.jpg"",""time"":939.4000000059605},{""stimulus"":""run_exp/static/images/task_images/dig.jpg"",""time"":1876.699999988079}]",[],6,,,,,,,,,,,,,,
harvest,216,725408,0.0-71.0-1.0,"""event"",""trial"",""time""
""fullscreenenter"",""1"",""47218""
","
","
","""event"",""trial"",""time""
""fullscreenenter"",""1"",""47218""
","
",,null,run_exp/static/images/task_images/gems/63.jpg,null,,,,,,,48,,,6,,,,,63,0.75955394,0.761904762,,,,,,,
decision,217,725805,0.0-71.0-2.0,"""event"",""trial"",""time""
""fullscreenenter"",""1"",""47218""
","
","
","""event"",""trial"",""time""
""fullscreenenter"",""1"",""47218""
","
",,394.8,run_exp/static/images/task_images/land.jpg,65,,,,,,,48,,,6,,,,,,,,247131,1,2,FALSE,,,
dig,218,728434,0.0-72.0-0.0,"""event"",""trial"",""time""
""fullscreenenter"",""1"",""47218""
","
","
","""event"",""trial"",""time""
""fullscreenenter"",""1"",""47218""
","
",,,,,,,,,,,,"[{""stimulus"":""run_exp/static/images/task_images/dig.jpg"",""time"":0.5},{""stimulus"":""run_exp/static/images/task_images/land.jpg"",""time"":886.1000000238419},{""stimulus"":""run_exp/static/images/task_images/dig.jpg"",""time"":1741.9000000059605}]",[],6,,,,,,,,,,,,,,
harvest,219,729447,0.0-72.0-1.0,"""event"",""trial"",""time""
""fullscreenenter"",""1"",""47218""
","
","
","""event"",""trial"",""time""
""fullscreenenter"",""1"",""47218""
","
",,null,run_exp/static/images/task_images/gems/48.jpg,null,,,,,,,41,,,6,,,,,48,0.852461239,0.854166667,,,,,,,
decision,220,729777,0.0-72.0-2.0,"""event"",""trial"",""time""
""fullscreenenter"",""1"",""47218""
","
","
","""event"",""trial"",""time""
""fullscreenenter"",""1"",""47218""
","
",,326.1,run_exp/static/images/task_images/land.jpg,65,,,,,,,41,,,6,,,,,,,,251104,1,3,FALSE,,,
dig,221,732473,0.0-73.0-0.0,"""event"",""trial"",""time""
""fullscreenenter"",""1"",""47218""
","
","
","""event"",""trial"",""time""
""fullscreenenter"",""1"",""47218""
","
",,,,,,,,,,,,"[{""stimulus"":""run_exp/static/images/task_images/dig.jpg"",""time"":0.699999988079071},{""stimulus"":""run_exp/static/images/task_images/land.jpg"",""time"":896.2999999821186},{""stimulus"":""run_exp/static/images/task_images/dig.jpg"",""time"":1797.5999999940395}]",[],6,,,,,,,,,,,,,,
harvest,222,733491,0.0-73.0-1.0,"""event"",""trial"",""time""
""fullscreenenter"",""1"",""47218""
","
","
","""event"",""trial"",""time""
""fullscreenenter"",""1"",""47218""
","
",,null,run_exp/static/images/task_images/gems/41.jpg,null,,,,,,,36,,,6,,,,,41,0.874436383,0.87804878,,,,,,,
decision,223,733714,0.0-73.0-2.0,"""event"",""trial"",""time""
""fullscreenenter"",""1"",""47218""
","
","
","""event"",""trial"",""time""
""fullscreenenter"",""1"",""47218""
","
",,218.9,run_exp/static/images/task_images/land.jpg,65,,,,,,,36,,,6,,,,,,,,255041,1,4,FALSE,,,
dig,224,736516,0.0-74.0-0.0,"""event"",""trial"",""time""
""fullscreenenter"",""1"",""47218""
","
","
","""event"",""trial"",""time""
""fullscreenenter"",""1"",""47218""
","
",,,,,,,,,,,,"[{""stimulus"":""run_exp/static/images/task_images/dig.jpg"",""time"":0.699999988079071},{""stimulus"":""run_exp/static/images/task_images/land.jpg"",""time"":933.8000000119209},{""stimulus"":""run_exp/static/images/task_images/dig.jpg"",""time"":1867.699999988079}]",[],6,,,,,,,,,,,,,,
harvest,225,737530,0.0-74.0-1.0,"""event"",""trial"",""time""
""fullscreenenter"",""1"",""47218""
","
","
","""event"",""trial"",""time""
""fullscreenenter"",""1"",""47218""
","
",,null,run_exp/static/images/task_images/gems/36.jpg,null,,,,,,,28,,,6,,,,,36,0.787444846,0.777777778,,,,,,,
decision,226,737630,0.0-74.0-2.0,"""event"",""trial"",""time""
""fullscreenenter"",""1"",""47218""
","
","
","""event"",""trial"",""time""
""fullscreenenter"",""1"",""47218""
","
",,95.59999999,run_exp/static/images/task_images/land.jpg,65,,,,,,,28,,,6,,,,,,,,258957,1,5,FALSE,,,
dig,227,740553,0.0-75.0-0.0,"""event"",""trial"",""time""
""fullscreenenter"",""1"",""47218""
","
","
","""event"",""trial"",""time""
""fullscreenenter"",""1"",""47218""
","
",,,,,,,,,,,,"[{""stimulus"":""run_exp/static/images/task_images/dig.jpg"",""time"":0.699999988079071},{""stimulus"":""run_exp/static/images/task_images/land.jpg"",""time"":977.1999999880791},{""stimulus"":""run_exp/static/images/task_images/dig.jpg"",""time"":1946.4000000059605}]",[],6,,,,,,,,,,,,,,
harvest,228,741559,0.0-75.0-1.0,"""event"",""trial"",""time""
""fullscreenenter"",""1"",""47218""
","
","
","""event"",""trial"",""time""
""fullscreenenter"",""1"",""47218""
","
",,null,run_exp/static/images/task_images/gems/28.jpg,null,,,,,,,22,,,6,,,,,28,0.794607634,0.785714286,,,,,,,
decision,229,741570,0.0-75.0-2.0,"""event"",""trial"",""time""
""fullscreenenter"",""1"",""47218""
","
","
","""event"",""trial"",""time""
""fullscreenenter"",""1"",""47218""
","
",,7.199999988,run_exp/static/images/task_images/land.jpg,65,,,,,,,22,,,6,,,,,,,,262896,1,6,FALSE,,,
dig,230,744584,0.0-76.0-0.0,"""event"",""trial"",""time""
""fullscreenenter"",""1"",""47218""
","
","
","""event"",""trial"",""time""
""fullscreenenter"",""1"",""47218""
","
",,,,,,,,,,,,"[{""stimulus"":""run_exp/static/images/task_images/dig.jpg"",""time"":0.5999999940395355},{""stimulus"":""run_exp/static/images/task_images/land.jpg"",""time"":1004.3000000119209},{""stimulus"":""run_exp/static/images/task_images/dig.jpg"",""time"":2003}]",[],6,,,,,,,,,,,,,,
harvest,231,745593,0.0-76.0-1.0,"""event"",""trial"",""time""
""fullscreenenter"",""1"",""47218""
","
","
","""event"",""trial"",""time""
""fullscreenenter"",""1"",""47218""
","
",,null,run_exp/static/images/task_images/gems/22.jpg,null,,,,,,,20,,,6,,,,,22,0.887262612,0.909090909,,,,,,,
decision,232,745653,0.0-76.0-2.0,"""event"",""trial"",""time""
""fullscreenenter"",""1"",""47218""
","
","
","""event"",""trial"",""time""
""fullscreenenter"",""1"",""47218""
","
",,56.5,run_exp/static/images/task_images/land.jpg,65,,,,,,,20,,,6,,,,,,,,266979,1,7,FALSE,,,
dig,233,748617,0.0-77.0-0.0,"""event"",""trial"",""time""
""fullscreenenter"",""1"",""47218""
","
","
","""event"",""trial"",""time""
""fullscreenenter"",""1"",""47218""
","
",,,,,,,,,,,,"[{""stimulus"":""run_exp/static/images/task_images/dig.jpg"",""time"":0.7000000178813934},{""stimulus"":""run_exp/static/images/task_images/land.jpg"",""time"":986.8000000119209},{""stimulus"":""run_exp/static/images/task_images/dig.jpg"",""time"":1969.2000000178814}]",[],6,,,,,,,,,,,,,,
harvest,234,749633,0.0-77.0-1.0,"""event"",""trial"",""time""
""fullscreenenter"",""1"",""47218""
","
","
","""event"",""trial"",""time""
""fullscreenenter"",""1"",""47218""
","
",,null,run_exp/static/images/task_images/gems/20.jpg,null,,,,,,,18,,,6,,,,,20,0.892732043,0.9,,,,,,,
decision,235,749857,0.0-77.0-2.0,"""event"",""trial"",""time""
""fullscreenenter"",""1"",""47218""
","
","
","""event"",""trial"",""time""
""fullscreenenter"",""1"",""47218""
","
",,221.9,run_exp/static/images/task_images/land.jpg,65,,,,,,,18,,,6,,,,,,,,271183,1,8,FALSE,,,
dig,236,752659,0.0-78.0-0.0,"""event"",""trial"",""time""
""fullscreenenter"",""1"",""47218""
","
","
","""event"",""trial"",""time""
""fullscreenenter"",""1"",""47218""
","
",,,,,,,,,,,,"[{""stimulus"":""run_exp/static/images/task_images/dig.jpg"",""time"":0.699999988079071},{""stimulus"":""run_exp/static/images/task_images/land.jpg"",""time"":935.1999999880791},{""stimulus"":""run_exp/static/images/task_images/dig.jpg"",""time"":1869.699999988079}]",[],6,,,,,,,,,,,,,,
harvest,237,753664,0.0-78.0-1.0,"""event"",""trial"",""time""
""fullscreenenter"",""1"",""47218""
","
","
","""event"",""trial"",""time""
""fullscreenenter"",""1"",""47218""
","
",,null,run_exp/static/images/task_images/gems/18.jpg,null,,,,,,,13,,,6,,,,,18,0.747885084,0.722222222,,,,,,,
decision,238,755039,0.0-78.0-2.0,"""event"",""trial"",""time""
""fullscreenenter"",""1"",""47218""
","
","
","""event"",""trial"",""time""
""fullscreenenter"",""1"",""47218""
","
",,1371.8,run_exp/static/images/task_images/land.jpg,65,,,,,,,13,,,6,,,,,,,,276366,1,9,FALSE,,,
dig,239,756693,0.0-79.0-0.0,"""event"",""trial"",""time""
""fullscreenenter"",""1"",""47218""
","
","
","""event"",""trial"",""time""
""fullscreenenter"",""1"",""47218""
","
",,,,,,,,,,,,"[{""stimulus"":""run_exp/static/images/task_images/dig.jpg"",""time"":0.5999999940395355},{""stimulus"":""run_exp/static/images/task_images/land.jpg"",""time"":549.7999999821186},{""stimulus"":""run_exp/static/images/task_images/dig.jpg"",""time"":1097.5999999940395}]",[],6,,,,,,,,,,,,,,
harvest,240,757710,0.0-79.0-1.0,"""event"",""trial"",""time""
""fullscreenenter"",""1"",""47218""
","
","
","""event"",""trial"",""time""
""fullscreenenter"",""1"",""47218""
","
",,null,run_exp/static/images/task_images/gems/13.jpg,null,,,,,,,10,,,6,,,,,13,0.786532821,0.769230769,,,,,,,
decision,241,758021,0.0-79.0-2.0,"""event"",""trial"",""time""
""fullscreenenter"",""1"",""47218""
","
","
","""event"",""trial"",""time""
""fullscreenenter"",""1"",""47218""
","
",,306.3,run_exp/static/images/task_images/land.jpg,65,,,,,,,10,,,6,,,,,,,,279347,1,10,FALSE,,,
dig,242,760736,0.0-80.0-0.0,"""event"",""trial"",""time""
""fullscreenenter"",""1"",""47218""
","
","
","""event"",""trial"",""time""
""fullscreenenter"",""1"",""47218""
","
",,,,,,,,,,,,"[{""stimulus"":""run_exp/static/images/task_images/dig.jpg"",""time"":0.5},{""stimulus"":""run_exp/static/images/task_images/land.jpg"",""time"":911},{""stimulus"":""run_exp/static/images/task_images/dig.jpg"",""time"":1799.6000000238419}]",[],6,,,,,,,,,,,,,,
harvest,243,761743,0.0-80.0-1.0,"""event"",""trial"",""time""
""fullscreenenter"",""1"",""47218""
","
","
","""event"",""trial"",""time""
""fullscreenenter"",""1"",""47218""
","
",,null,run_exp/static/images/task_images/gems/10.jpg,null,,,,,,,9,,,6,,,,,10,0.899710961,0.9,,,,,,,
decision,244,761823,0.0-80.0-2.0,"""event"",""trial"",""time""
""fullscreenenter"",""1"",""47218""
","
","
","""event"",""trial"",""time""
""fullscreenenter"",""1"",""47218""
","
",,75.90000001,run_exp/static/images/task_images/land.jpg,65,,,,,,,9,,,6,,,,,,,,283150,1,11,FALSE,,,
dig,245,764769,0.0-81.0-0.0,"""event"",""trial"",""time""
""fullscreenenter"",""1"",""47218""
","
","
","""event"",""trial"",""time""
""fullscreenenter"",""1"",""47218""
","
",,,,,,,,,,,,"[{""stimulus"":""run_exp/static/images/task_images/dig.jpg"",""time"":0.7000000178813934},{""stimulus"":""run_exp/static/images/task_images/land.jpg"",""time"":988.5},{""stimulus"":""run_exp/static/images/task_images/dig.jpg"",""time"":1952.4000000059605}]",[],6,,,,,,,,,,,,,,
harvest,246,765771,0.0-81.0-1.0,"""event"",""trial"",""time""
""fullscreenenter"",""1"",""47218""
","
","
","""event"",""trial"",""time""
""fullscreenenter"",""1"",""47218""
","
",,null,run_exp/static/images/task_images/gems/9.jpg,null,,,,,,,8,,,6,,,,,9,0.864070148,0.888888889,,,,,,,
decision,247,766340,0.0-81.0-2.0,"""event"",""trial"",""time""
""fullscreenenter"",""1"",""47218""
","
","
","""event"",""trial"",""time""
""fullscreenenter"",""1"",""47218""
","
",,566.1,run_exp/static/images/task_images/land.jpg,65,,,,,,,8,,,6,,,,,,,,287666,1,12,FALSE,,,
dig,248,768800,0.0-82.0-0.0,"""event"",""trial"",""time""
""fullscreenenter"",""1"",""47218""
","
","
","""event"",""trial"",""time""
""fullscreenenter"",""1"",""47218""
","
",,,,,,,,,,,,"[{""stimulus"":""run_exp/static/images/task_images/dig.jpg"",""time"":0.5},{""stimulus"":""run_exp/static/images/task_images/land.jpg"",""time"":825.7999999821186},{""stimulus"":""run_exp/static/images/task_images/dig.jpg"",""time"":1636.2999999821186}]",[],6,,,,,,,,,,,,,,
harvest,249,769818,0.0-82.0-1.0,"""event"",""trial"",""time""
""fullscreenenter"",""1"",""47218""
","
","
","""event"",""trial"",""time""
""fullscreenenter"",""1"",""47218""
","
",,null,run_exp/static/images/task_images/gems/8.jpg,null,,,,,,,6,,,6,,,,,8,0.700024715,0.75,,,,,,,
decision,250,770742,0.0-82.0-2.0,"""event"",""trial"",""time""
""fullscreenenter"",""1"",""47218""
","
","
","""event"",""trial"",""time""
""fullscreenenter"",""1"",""47218""
","
",,920.5,run_exp/static/images/task_images/land.jpg,65,,,,,,,6,,,6,,,,,,,,292069,1,13,FALSE,,,
dig,251,772845,0.0-83.0-0.0,"""event"",""trial"",""time""
""fullscreenenter"",""1"",""47218""
","
","
","""event"",""trial"",""time""
""fullscreenenter"",""1"",""47218""
","
",,,,,,,,,,,,"[{""stimulus"":""run_exp/static/images/task_images/dig.jpg"",""time"":0.5999999940395355},{""stimulus"":""run_exp/static/images/task_images/land.jpg"",""time"":706.2999999821186},{""stimulus"":""run_exp/static/images/task_images/dig.jpg"",""time"":1390.5999999940395}]",[],6,,,,,,,,,,,,,,
harvest,252,773849,0.0-83.0-1.0,"""event"",""trial"",""time""
""fullscreenenter"",""1"",""47218""
","
","
","""event"",""trial"",""time""
""fullscreenenter"",""1"",""47218""
","
",,null,run_exp/static/images/task_images/gems/6.jpg,null,,,,,,,5,,,6,,,,,6,0.766791782,0.833333333,,,,,,,
decision,253,774407,0.0-83.0-2.0,"""event"",""trial"",""time""
""fullscreenenter"",""1"",""47218""
","
","
","""event"",""trial"",""time""
""fullscreenenter"",""1"",""47218""
","
",,554.7,run_exp/static/images/task_images/land.jpg,65,,,,,,,5,,,6,,,,,,,,295734,1,14,FALSE,,,
dig,254,776872,0.0-84.0-0.0,"""event"",""trial"",""time""
""fullscreenenter"",""1"",""47218""
","
","
","""event"",""trial"",""time""
""fullscreenenter"",""1"",""47218""
","
",,,,,,,,,,,,"[{""stimulus"":""run_exp/static/images/task_images/dig.jpg"",""time"":0.5999999940395355},{""stimulus"":""run_exp/static/images/task_images/land.jpg"",""time"":819.4000000059605},{""stimulus"":""run_exp/static/images/task_images/dig.jpg"",""time"":1644.0999999940395}]",[],6,,,,,,,,,,,,,,
harvest,255,777888,0.0-84.0-1.0,"""event"",""trial"",""time""
""fullscreenenter"",""1"",""47218""
","
","
","""event"",""trial"",""time""
""fullscreenenter"",""1"",""47218""
","
",,null,run_exp/static/images/task_images/gems/5.jpg,null,,,,,,,4,,,6,,,,,5,0.81634921,0.8,,,,,,,
decision,256,778002,0.0-84.0-2.0,"""event"",""trial"",""time""
""fullscreenenter"",""1"",""47218""
","
","
","""event"",""trial"",""time""
""fullscreenenter"",""1"",""47218""
","
",,110.6,run_exp/static/images/task_images/land.jpg,65,,,,,,,4,,,6,,,,,,,,299329,1,15,FALSE,,,
dig,257,780915,0.0-85.0-0.0,"""event"",""trial"",""time""
""fullscreenenter"",""1"",""47218""
","
","
","""event"",""trial"",""time""
""fullscreenenter"",""1"",""47218""
","
