trial_type,trial_index,time_elapsed,internal_node_id,interactions,blur_events,focus_events,fullscreenenter_events,fullscreenexit_events,success,rt,stimulus,key_press,prompt,subject_id,participant_id,age,gender,button_pressed,next_reward,animation_sequence,responses,planet,curr_prac_trial,n_prac_rounds,alien,aliens,reward_received,decay_rate_actual,decay_rate_exp,time_in_block,block_num,prt,last_trial_on_planet,button_html,bonus,num_failures
pavlovia,0,2,0.0-0.0,"""event"",""trial"",""time""
""blur"",""1"",""3713""
""focus"",""1"",""4865""
""blur"",""1"",""5675""
""focus"",""1"",""7702""
""fullscreenenter"",""1"",""117272""
","""event"",""trial"",""time""
""blur"",""1"",""3713""
""blur"",""1"",""5675""
","""event"",""trial"",""time""
""focus"",""1"",""4865""
""focus"",""1"",""7702""
","""event"",""trial"",""time""
""fullscreenenter"",""1"",""117272""
","
",,,,,,,,,,,,,,,,,,,,,,,,,,,,
fullscreen,1,118271,0.0-1.0,"""event"",""trial"",""time""
""blur"",""1"",""3713""
""focus"",""1"",""4865""
""blur"",""1"",""5675""
""focus"",""1"",""7702""
""fullscreenenter"",""1"",""117272""
","""event"",""trial"",""time""
""blur"",""1"",""3713""
""blur"",""1"",""5675""
","""event"",""trial"",""time""
""focus"",""1"",""4865""
""focus"",""1"",""7702""
","""event"",""trial"",""time""
""fullscreenenter"",""1"",""117272""
","
",TRUE,,,,,,,,,,,,,,,,,,,,,,,,,,,
instruc_welcome,2,128381,0.0-2.0,"""event"",""trial"",""time""
""blur"",""1"",""3713""
""focus"",""1"",""4865""
""blur"",""1"",""5675""
""focus"",""1"",""7702""
""fullscreenenter"",""1"",""117272""
","""event"",""trial"",""time""
""blur"",""1"",""3713""
""blur"",""1"",""5675""
","""event"",""trial"",""time""
""focus"",""1"",""4865""
""focus"",""1"",""7702""
","""event"",""trial"",""time""
""fullscreenenter"",""1"",""117272""
","
",,null,run_exp/static/audio/clip_1_welcome.m4a,null,"<p>Howdy! In this experiment, you’ll be an explorer traveling through space to collect space treasure.</p><p>Your mission is to collect as much treasure as possible.</p><br><br><p><img src='run_exp/static/images/task_images/opening_img-01.jpg' height='300' width='auto'></p>",9266,3955,19.58,Male,,,,,,,,,,,,,,,,,,,
audio-keyboard-response,3,144957,0.0-3.0,"""event"",""trial"",""time""
""blur"",""1"",""3713""
""focus"",""1"",""4865""
""blur"",""1"",""5675""
""focus"",""1"",""7702""
""fullscreenenter"",""1"",""117272""
","""event"",""trial"",""time""
""blur"",""1"",""3713""
""blur"",""1"",""5675""
","""event"",""trial"",""time""
""focus"",""1"",""4865""
""focus"",""1"",""7702""
","""event"",""trial"",""time""
""fullscreenenter"",""1"",""117272""
","
",,null,run_exp/static/audio/clip_2_move.m4a,null,,,,,,,,,,,,,,,,,,,,,,,,
welcome_dec,4,147874,0.0-4.0,"""event"",""trial"",""time""
""blur"",""1"",""3713""
""focus"",""1"",""4865""
""blur"",""1"",""5675""
""focus"",""1"",""7702""
""fullscreenenter"",""1"",""117272""
","""event"",""trial"",""time""
""blur"",""1"",""3713""
""blur"",""1"",""5675""
","""event"",""trial"",""time""
""focus"",""1"",""4865""
""focus"",""1"",""7702""
","""event"",""trial"",""time""
""fullscreenenter"",""1"",""117272""
","
",,2915,"<p>Howdy! In this experiment, you’ll be an explorer traveling through space to collect space treasure.</p><p>Your mission is to collect as much treasure as possible.</p><br><br><p><img src='run_exp/static/images/task_images/opening_img-01.jpg' height='300' width='auto'></p>",,,,,,,1,,,,,,,,,,,,,,,,,,
html-keyboard-response,5,147995,0.0-5.0,"""event"",""trial"",""time""
""blur"",""1"",""3713""
""focus"",""1"",""4865""
""blur"",""1"",""5675""
""focus"",""1"",""7702""
""fullscreenenter"",""1"",""117272""
","""event"",""trial"",""time""
""blur"",""1"",""3713""
""blur"",""1"",""5675""
","""event"",""trial"",""time""
""focus"",""1"",""4865""
""focus"",""1"",""7702""
","""event"",""trial"",""time""
""fullscreenenter"",""1"",""117272""
","
",,119,"<p>Howdy! In this experiment, you’ll be an explorer traveling through space to collect space treasure.</p><p>Your mission is to collect as much treasure as possible.</p><br><br><p><img src='run_exp/static/images/task_images/opening_img-01.jpg' height='300' width='auto'></p><button class=""jspsych-html-btn-unchosen""><img src=""run_exp/static/images/task_images/planet-01.jpg"" height=""50""></button><button class=""jspsych-html-btn-chosen""><img src=""run_exp/static/images/task_images/planet-02.jpg"" height=""50""></button><p><b>[press the space bar to lock in your answer]<b><br></p>",32,,,,,,,,,,,,,,,,,,,,,,,,
instruc_goal,6,158056,0.0-6.0-0.0,"""event"",""trial"",""time""
""blur"",""1"",""3713""
""focus"",""1"",""4865""
""blur"",""1"",""5675""
""focus"",""1"",""7702""
""fullscreenenter"",""1"",""117272""
","""event"",""trial"",""time""
""blur"",""1"",""3713""
""blur"",""1"",""5675""
","""event"",""trial"",""time""
""focus"",""1"",""4865""
""focus"",""1"",""7702""
","""event"",""trial"",""time""
""fullscreenenter"",""1"",""117272""
","
",,null,run_exp/static/audio/clip_3_goal.m4a,null,"<p> As a space explorer, you’ll visit different planets to dig for space treasure, these pink gems.</p> <p> The more treasure you dig up, the more bonus money you’ll win! </p><br><br><p><img src='run_exp/static/images/task_images/pink_gem.jpg' height='300' width='auto'></p>",,,,,,,,,,,,,,,,,,,,,,,
instruc_goal,7,173810,0.0-6.0-1.0,"""event"",""trial"",""time""
""blur"",""1"",""3713""
""focus"",""1"",""4865""
""blur"",""1"",""5675""
""focus"",""1"",""7702""
""fullscreenenter"",""1"",""117272""
","""event"",""trial"",""time""
""blur"",""1"",""3713""
""blur"",""1"",""5675""
","""event"",""trial"",""time""
""focus"",""1"",""4865""
""focus"",""1"",""7702""
","""event"",""trial"",""time""
""fullscreenenter"",""1"",""117272""
","
",,15754,"<p> As a space explorer, you’ll visit different planets to dig for space treasure, these pink gems.</p> <p> The more treasure you dig up, the more bonus money you’ll win! </p><br><br><p><img src='run_exp/static/images/task_images/pink_gem.jpg' height='300' width='auto'></p>",,,,,,,1,,,,,,,,,,,,,,,,,,
html-keyboard-response,8,174385,0.0-6.0-2.0,"""event"",""trial"",""time""
""blur"",""1"",""3713""
""focus"",""1"",""4865""
""blur"",""1"",""5675""
""focus"",""1"",""7702""
""fullscreenenter"",""1"",""117272""
","""event"",""trial"",""time""
""blur"",""1"",""3713""
""blur"",""1"",""5675""
","""event"",""trial"",""time""
""focus"",""1"",""4865""
""focus"",""1"",""7702""
","""event"",""trial"",""time""
""fullscreenenter"",""1"",""117272""
","
",,573,"<p> As a space explorer, you’ll visit different planets to dig for space treasure, these pink gems.</p> <p> The more treasure you dig up, the more bonus money you’ll win! </p><br><br><p><img src='run_exp/static/images/task_images/pink_gem.jpg' height='300' width='auto'></p><button class=""jspsych-html-btn-unchosen""><img src=""run_exp/static/images/task_images/planet-01.jpg"" height=""50""></button><button class=""jspsych-html-btn-chosen""><img src=""run_exp/static/images/task_images/planet-02.jpg"" height=""50""></button><p><b>[press the space bar to lock in your answer]<b><br></p>",32,,,,,,,,,,,,,,,,,,,,,,,,
instruc_dig,9,190441,0.0-7.0-0.0,"""event"",""trial"",""time""
""blur"",""1"",""3713""
""focus"",""1"",""4865""
""blur"",""1"",""5675""
""focus"",""1"",""7702""
""fullscreenenter"",""1"",""117272""
","""event"",""trial"",""time""
""blur"",""1"",""3713""
""blur"",""1"",""5675""
","""event"",""trial"",""time""
""focus"",""1"",""4865""
""focus"",""1"",""7702""
","""event"",""trial"",""time""
""fullscreenenter"",""1"",""117272""
","
",,null,run_exp/static/audio/clip_4_dig.m4a,null,,,,,,,100,,,,,,,,,,,,,,,,,
instruc_dig_try,10,192753,0.0-7.0-1.0,"""event"",""trial"",""time""
""blur"",""1"",""3713""
""focus"",""1"",""4865""
""blur"",""1"",""5675""
""focus"",""1"",""7702""
""fullscreenenter"",""1"",""117272""
","""event"",""trial"",""time""
""blur"",""1"",""3713""
""blur"",""1"",""5675""
","""event"",""trial"",""time""
""focus"",""1"",""4865""
""focus"",""1"",""7702""
","""event"",""trial"",""time""
""fullscreenenter"",""1"",""117272""
","
",,2311,"<p> When you’ve arrived at a new planet, you will dig once. </p> <p>Then, you get to decide if you want to stay on the planet and dig again or travel to a new planet and dig there.</p> <p> To stay and dig, press the letter <strong>‘A’</strong> on your keyboard. Try pressing it now! </p><p><img src='run_exp/static/images/task_images/land.jpg'  height='700' width='auto'></p>",65,"<p> When you’ve arrived at a new planet, you will dig once. </p> <p>Then, you get to decide if you want to stay on the planet and dig again or travel to a new planet and dig there.</p> <p> To stay and dig, press the letter <strong>‘A’</strong> on your keyboard. Try pressing it now! </p><p><img src='run_exp/static/images/task_images/land.jpg'  height='700' width='auto'></p>",,,,,,100,,,,,,,,,,,,,,,,,
dig_prac,11,194767,0.0-7.0-2.0,"""event"",""trial"",""time""
""blur"",""1"",""3713""
""focus"",""1"",""4865""
""blur"",""1"",""5675""
""focus"",""1"",""7702""
""fullscreenenter"",""1"",""117272""
","""event"",""trial"",""time""
""blur"",""1"",""3713""
""blur"",""1"",""5675""
","""event"",""trial"",""time""
""focus"",""1"",""4865""
""focus"",""1"",""7702""
","""event"",""trial"",""time""
""fullscreenenter"",""1"",""117272""
","
",,,,,,,,,,,,"[{""stimulus"":""run_exp/static/images/task_images/dig.jpg"",""time"":0},{""stimulus"":""run_exp/static/images/task_images/land.jpg"",""time"":683},{""stimulus"":""run_exp/static/images/task_images/dig.jpg"",""time"":1339}]",[],,,,,,,,,,,,,,,
instruc_travel,12,230997,0.0-7.0-3.0,"""event"",""trial"",""time""
""blur"",""1"",""3713""
""focus"",""1"",""4865""
""blur"",""1"",""5675""
""focus"",""1"",""7702""
""fullscreenenter"",""1"",""117272""
","""event"",""trial"",""time""
""blur"",""1"",""3713""
""blur"",""1"",""5675""
","""event"",""trial"",""time""
""focus"",""1"",""4865""
""focus"",""1"",""7702""
","""event"",""trial"",""time""
""fullscreenenter"",""1"",""117272""
","
",,null,run_exp/static/audio/clip_5_travel.m4a,null,"<p>Every time you dig up gems, there are less gems on the planet, so the more you dig on a planet the fewer gems you’ll get with each dig.</p><p>When gems are running low, you may want to travel to a new planet. </p> <p>  Planets are very far apart in this galaxy, so it will take some time to travel between them. </p> <br><p>There are lots and lots of planets for you to visit, so you won’t be able to return to any planets you’ve seen before. </p><br><p>To leave this planet and travel to a new one, press the letter <strong>‘L’</strong> on your keyboard. Try pressing it now! </p><p><img src='run_exp/static/images/task_images/rocket-01.jpg'  height='600' width='auto'></p>",,,,,,,,,,,,,,,,,,,,,,,
instruc_travel_try,13,244570,0.0-7.0-4.0,"""event"",""trial"",""time""
""blur"",""1"",""3713""
""focus"",""1"",""4865""
""blur"",""1"",""5675""
""focus"",""1"",""7702""
""fullscreenenter"",""1"",""117272""
","""event"",""trial"",""time""
""blur"",""1"",""3713""
""blur"",""1"",""5675""
","""event"",""trial"",""time""
""focus"",""1"",""4865""
""focus"",""1"",""7702""
","""event"",""trial"",""time""
""fullscreenenter"",""1"",""117272""
","
",,13571,"<p>Every time you dig up gems, there are less gems on the planet, so the more you dig on a planet the fewer gems you’ll get with each dig.</p><p>When gems are running low, you may want to travel to a new planet. </p> <p>  Planets are very far apart in this galaxy, so it will take some time to travel between them. </p> <br><p>There are lots and lots of planets for you to visit, so you won’t be able to return to any planets you’ve seen before. </p><br><p>To leave this planet and travel to a new one, press the letter <strong>‘L’</strong> on your keyboard. Try pressing it now! </p><p><img src='run_exp/static/images/task_images/rocket-01.jpg'  height='600' width='auto'></p>",76,"<p>Every time you dig up gems, there are less gems on the planet, so the more you dig on a planet the fewer gems you’ll get with each dig.</p><p>When gems are running low, you may want to travel to a new planet. </p> <p>  Planets are very far apart in this galaxy, so it will take some time to travel between them. </p> <br><p>There are lots and lots of planets for you to visit, so you won’t be able to return to any planets you’ve seen before. </p><br><p>To leave this planet and travel to a new one, press the letter <strong>‘L’</strong> on your keyboard. Try pressing it now! </p><p><img src='run_exp/static/images/task_images/rocket-01.jpg'  height='600' width='auto'></p>",,,,,,,,,,,,,,,,,,,,,,,
travel_prac,14,254576,0.0-7.0-5.0,"""event"",""trial"",""time""
""blur"",""1"",""3713""
""focus"",""1"",""4865""
""blur"",""1"",""5675""
""focus"",""1"",""7702""
""fullscreenenter"",""1"",""117272""
","""event"",""trial"",""time""
""blur"",""1"",""3713""
""blur"",""1"",""5675""
","""event"",""trial"",""time""
""focus"",""1"",""4865""
""focus"",""1"",""7702""
","""event"",""trial"",""time""
""fullscreenenter"",""1"",""117272""
","
",,,,,,,,,,,,"[{""stimulus"":""run_exp/static/images/task_images/rocket-01.jpg"",""time"":0},{""stimulus"":""run_exp/static/images/task_images/rocket-02.jpg"",""time"":1112},{""stimulus"":""run_exp/static/images/task_images/rocket-03.jpg"",""time"":2224},{""stimulus"":""run_exp/static/images/task_images/rocket-04.jpg"",""time"":3348},{""stimulus"":""run_exp/static/images/task_images/rocket-05.jpg"",""time"":4455},{""stimulus"":""run_exp/static/images/task_images/rocket-06.jpg"",""time"":5563},{""stimulus"":""run_exp/static/images/task_images/rocket-07.jpg"",""time"":6668},{""stimulus"":""run_exp/static/images/task_images/rocket-08.jpg"",""time"":7790},{""stimulus"":""run_exp/static/images/task_images/rocket-09.jpg"",""time"":8890}]",[],0,,,,,,,,,,,,,,
instruc_alien_greet,15,281790,0.0-7.0-6.0,"""event"",""trial"",""time""
""blur"",""1"",""3713""
""focus"",""1"",""4865""
""blur"",""1"",""5675""
""focus"",""1"",""7702""
""fullscreenenter"",""1"",""117272""
","""event"",""trial"",""time""
""blur"",""1"",""3713""
""blur"",""1"",""5675""
","""event"",""trial"",""time""
""focus"",""1"",""4865""
""focus"",""1"",""7702""
","""event"",""trial"",""time""
""fullscreenenter"",""1"",""117272""
","
",,null,run_exp/static/audio/clip_6_alien.m4a,null,"<p>When you arrive at a new planet, the alien who owns the treasure mine on that planet will greet you!</p><p>The better an alien takes care of their mine the easier it is to dig for gems. Some aliens take better care of their mine than others. So, you won’t get exactly the same amount of gems on each planet.</p><p>What the alien looks like does not tell you anything about how many gems there are on the planet.</p><br><p><img src=""run_exp/static/images/task_images/aliens/instructions_aliens/planet/alien_planet-1.jpg""  height=""600"" width=""auto""></p>",,,,,,,,,,,,,,,,,,,,,,,
instruc_alien_greet,16,296661,0.0-7.0-7.0,"""event"",""trial"",""time""
""blur"",""1"",""3713""
""focus"",""1"",""4865""
""blur"",""1"",""5675""
""focus"",""1"",""7702""
""fullscreenenter"",""1"",""117272""
","""event"",""trial"",""time""
""blur"",""1"",""3713""
""blur"",""1"",""5675""
","""event"",""trial"",""time""
""focus"",""1"",""4865""
""focus"",""1"",""7702""
","""event"",""trial"",""time""
""fullscreenenter"",""1"",""117272""
","
",,14870,"<p>When you arrive at a new planet, the alien who owns the treasure mine on that planet will greet you!</p><p>The better an alien takes care of their mine the easier it is to dig for gems. Some aliens take better care of their mine than others. So, you won’t get exactly the same amount of gems on each planet.</p><p>What the alien looks like does not tell you anything about how many gems there are on the planet.</p><br><p><img src=""run_exp/static/images/task_images/aliens/instructions_aliens/planet/alien_planet-1.jpg""  height=""600"" width=""auto""></p>",,,,,,,1,,,,,,,,,,,,,,,,,,
html-keyboard-response,17,298686,0.0-7.0-8.0,"""event"",""trial"",""time""
""blur"",""1"",""3713""
""focus"",""1"",""4865""
""blur"",""1"",""5675""
""focus"",""1"",""7702""
""fullscreenenter"",""1"",""117272""
","""event"",""trial"",""time""
""blur"",""1"",""3713""
""blur"",""1"",""5675""
","""event"",""trial"",""time""
""focus"",""1"",""4865""
""focus"",""1"",""7702""
","""event"",""trial"",""time""
""fullscreenenter"",""1"",""117272""
","
",,2024,"<p>When you arrive at a new planet, the alien who owns the treasure mine on that planet will greet you!</p><p>The better an alien takes care of their mine the easier it is to dig for gems. Some aliens take better care of their mine than others. So, you won’t get exactly the same amount of gems on each planet.</p><p>What the alien looks like does not tell you anything about how many gems there are on the planet.</p><br><p><img src=""run_exp/static/images/task_images/aliens/instructions_aliens/planet/alien_planet-1.jpg""  height=""600"" width=""auto""></p><button class=""jspsych-html-btn-unchosen""><img src=""run_exp/static/images/task_images/planet-01.jpg"" height=""50""></button><button class=""jspsych-html-btn-chosen""><img src=""run_exp/static/images/task_images/planet-02.jpg"" height=""50""></button><p><b>[press the space bar to lock in your answer]<b><br></p>",32,,,,,,,,,,,,,,,,,,,,,,,,
time_out,18,309815,0.0-8.0-0.0,"""event"",""trial"",""time""
""blur"",""1"",""3713""
""focus"",""1"",""4865""
""blur"",""1"",""5675""
""focus"",""1"",""7702""
""fullscreenenter"",""1"",""117272""
","""event"",""trial"",""time""
""blur"",""1"",""3713""
""blur"",""1"",""5675""
","""event"",""trial"",""time""
""focus"",""1"",""4865""
""focus"",""1"",""7702""
","""event"",""trial"",""time""
""fullscreenenter"",""1"",""117272""
","
",,null,run_exp/static/audio/clip_7_timeout.m4a,null,"<p>If you don't make your choice fast enough, you’ll have to wait a few seconds before you can make another one.</p><p>You can’t dig for more gems or travel to new planets. You just have to sit and wait.</p><br><p><img src='run_exp/static/images/task_images/time_out.jpg'  height='600' width='auto'></p>",,,,,,,,,,,,,,,,,,,,,,,
time_out,19,311017,0.0-8.0-1.0,"""event"",""trial"",""time""
""blur"",""1"",""3713""
""focus"",""1"",""4865""
""blur"",""1"",""5675""
""focus"",""1"",""7702""
""fullscreenenter"",""1"",""117272""
","""event"",""trial"",""time""
""blur"",""1"",""3713""
""blur"",""1"",""5675""
","""event"",""trial"",""time""
""focus"",""1"",""4865""
""focus"",""1"",""7702""
","""event"",""trial"",""time""
""fullscreenenter"",""1"",""117272""
","
",,1200,"<p>If you don't make your choice fast enough, you’ll have to wait a few seconds before you can make another one.</p><p>You can’t dig for more gems or travel to new planets. You just have to sit and wait.</p><br><p><img src='run_exp/static/images/task_images/time_out.jpg'  height='600' width='auto'></p>",,,,,,,1,,,,,,,,,,,,,,,,,,
html-keyboard-response,20,312253,0.0-8.0-2.0,"""event"",""trial"",""time""
""blur"",""1"",""3713""
""focus"",""1"",""4865""
""blur"",""1"",""5675""
""focus"",""1"",""7702""
""fullscreenenter"",""1"",""117272""
","""event"",""trial"",""time""
""blur"",""1"",""3713""
""blur"",""1"",""5675""
","""event"",""trial"",""time""
""focus"",""1"",""4865""
""focus"",""1"",""7702""
","""event"",""trial"",""time""
""fullscreenenter"",""1"",""117272""
","
",,1235,"<p>If you don't make your choice fast enough, you’ll have to wait a few seconds before you can make another one.</p><p>You can’t dig for more gems or travel to new planets. You just have to sit and wait.</p><br><p><img src='run_exp/static/images/task_images/time_out.jpg'  height='600' width='auto'></p><button class=""jspsych-html-btn-unchosen""><img src=""run_exp/static/images/task_images/planet-01.jpg"" height=""50""></button><button class=""jspsych-html-btn-chosen""><img src=""run_exp/static/images/task_images/planet-02.jpg"" height=""50""></button><p><b>[press the space bar to lock in your answer]<b><br></p>",32,,,,,,,,,,,,,,,,,,,,,,,,
instruc_break,21,327906,0.0-9.0-0.0,"""event"",""trial"",""time""
""blur"",""1"",""3713""
""focus"",""1"",""4865""
""blur"",""1"",""5675""
""focus"",""1"",""7702""
""fullscreenenter"",""1"",""117272""
","""event"",""trial"",""time""
""blur"",""1"",""3713""
""blur"",""1"",""5675""
","""event"",""trial"",""time""
""focus"",""1"",""4865""
""focus"",""1"",""7702""
","""event"",""trial"",""time""
""fullscreenenter"",""1"",""117272""
","
",,null,run_exp/static/audio/clip_8_break.m4a,null,"<p> After digging and traveling for a while, you’ll be able to take a break at home base. </p><p>The game will last 20 minutes no matter what.</p><p>You will visit home base every 5 minutes, so, you will visit home base three times during the game.</p><br><p><img src='run_exp/static/images/task_images/home_base.jpg' height='600' width='auto'></p>",,,,,,,,,,,,,,,,,,,,,,,
instruc_break,22,331462,0.0-9.0-1.0,"""event"",""trial"",""time""
""blur"",""1"",""3713""
""focus"",""1"",""4865""
""blur"",""1"",""5675""
""focus"",""1"",""7702""
""fullscreenenter"",""1"",""117272""
","""event"",""trial"",""time""
""blur"",""1"",""3713""
""blur"",""1"",""5675""
","""event"",""trial"",""time""
""focus"",""1"",""4865""
""focus"",""1"",""7702""
","""event"",""trial"",""time""
""fullscreenenter"",""1"",""117272""
","
",,3556,"<p> After digging and traveling for a while, you’ll be able to take a break at home base. </p><p>The game will last 20 minutes no matter what.</p><p>You will visit home base every 5 minutes, so, you will visit home base three times during the game.</p><br><p><img src='run_exp/static/images/task_images/home_base.jpg' height='600' width='auto'></p>",,,,,,,1,,,,,,,,,,,,,,,,,,
html-keyboard-response,23,332238,0.0-9.0-2.0,"""event"",""trial"",""time""
""blur"",""1"",""3713""
""focus"",""1"",""4865""
""blur"",""1"",""5675""
""focus"",""1"",""7702""
""fullscreenenter"",""1"",""117272""
","""event"",""trial"",""time""
""blur"",""1"",""3713""
""blur"",""1"",""5675""
","""event"",""trial"",""time""
""focus"",""1"",""4865""
""focus"",""1"",""7702""
","""event"",""trial"",""time""
""fullscreenenter"",""1"",""117272""
","
",,774,"<p> After digging and traveling for a while, you’ll be able to take a break at home base. </p><p>The game will last 20 minutes no matter what.</p><p>You will visit home base every 5 minutes, so, you will visit home base three times during the game.</p><br><p><img src='run_exp/static/images/task_images/home_base.jpg' height='600' width='auto'></p><button class=""jspsych-html-btn-unchosen""><img src=""run_exp/static/images/task_images/planet-01.jpg"" height=""50""></button><button class=""jspsych-html-btn-chosen""><img src=""run_exp/static/images/task_images/planet-02.jpg"" height=""50""></button><p><b>[press the space bar to lock in your answer]<b><br></p>",32,,,,,,,,,,,,,,,,,,,,,,,,
instruc_prac_game,24,342349,0.0-10.0-0.0,"""event"",""trial"",""time""
""blur"",""1"",""3713""
""focus"",""1"",""4865""
""blur"",""1"",""5675""
""focus"",""1"",""7702""
""fullscreenenter"",""1"",""117272""
","""event"",""trial"",""time""
""blur"",""1"",""3713""
""blur"",""1"",""5675""
","""event"",""trial"",""time""
""focus"",""1"",""4865""
""focus"",""1"",""7702""
","""event"",""trial"",""time""
""fullscreenenter"",""1"",""117272""
","
",,null,run_exp/static/audio/clip_9_practice.m4a,null,"<p> Are you ready to play a practice game? </p> <p>In this practice game, you'll be digging up barrels of gems. But, in the real game, you'll be digging up the gems themselves. </p>",,,,,,,,,,,,,,,,,,,,,,,
html-button-response,25,344886,0.0-10.0-1.0,"""event"",""trial"",""time""
""blur"",""1"",""3713""
""focus"",""1"",""4865""
""blur"",""1"",""5675""
""focus"",""1"",""7702""
""fullscreenenter"",""1"",""117272""
","""event"",""trial"",""time""
""blur"",""1"",""3713""
""blur"",""1"",""5675""
","""event"",""trial"",""time""
""focus"",""1"",""4865""
""focus"",""1"",""7702""
","""event"",""trial"",""time""
""fullscreenenter"",""1"",""117272""
","
",,2536,"<p> Are you ready to play a practice game? </p> <p>In this practice game, you'll be digging up barrels of gems. But, in the real game, you'll be digging up the gems themselves. </p>",,,,,,,0,,,,,,,,,,,,,,,,,,
alien_welcome_prac,26,349897,0.0-11.0-0.0,"""event"",""trial"",""time""
""blur"",""1"",""3713""
""focus"",""1"",""4865""
""blur"",""1"",""5675""
""focus"",""1"",""7702""
""fullscreenenter"",""1"",""117272""
","""event"",""trial"",""time""
""blur"",""1"",""3713""
""blur"",""1"",""5675""
","""event"",""trial"",""time""
""focus"",""1"",""4865""
""focus"",""1"",""7702""
","""event"",""trial"",""time""
""fullscreenenter"",""1"",""117272""
","
",,null,run_exp/static/images/task_images/aliens/practice_aliens/planet/alien_planet-5.jpg,null,,,,,,,,,,,,,,,,,,,,,,,,
land_prac,27,350411,0.0-11.0-1.0,"""event"",""trial"",""time""
""blur"",""1"",""3713""
""focus"",""1"",""4865""
""blur"",""1"",""5675""
""focus"",""1"",""7702""
""fullscreenenter"",""1"",""117272""
","""event"",""trial"",""time""
""blur"",""1"",""3713""
""blur"",""1"",""5675""
","""event"",""trial"",""time""
""focus"",""1"",""4865""
""focus"",""1"",""7702""
","""event"",""trial"",""time""
""fullscreenenter"",""1"",""117272""
","
",,null,run_exp/static/images/task_images/land.jpg,null,,,,,,,96,,,0,,,,,,,,,,,,,,
dig_prac,28,352423,0.0-11.0-2.0,"""event"",""trial"",""time""
""blur"",""1"",""3713""
""focus"",""1"",""4865""
""blur"",""1"",""5675""
""focus"",""1"",""7702""
""fullscreenenter"",""1"",""117272""
","""event"",""trial"",""time""
""blur"",""1"",""3713""
""blur"",""1"",""5675""
","""event"",""trial"",""time""
""focus"",""1"",""4865""
""focus"",""1"",""7702""
","""event"",""trial"",""time""
""fullscreenenter"",""1"",""117272""
","
",,,,,,,,,,,,"[{""stimulus"":""run_exp/static/images/task_images/dig.jpg"",""time"":0},{""stimulus"":""run_exp/static/images/task_images/land.jpg"",""time"":667},{""stimulus"":""run_exp/static/images/task_images/dig.jpg"",""time"":1336}]",[],,,,,,,,,,,,,,,
harvest_prac,29,353440,0.0-11.0-3.0,"""event"",""trial"",""time""
""blur"",""1"",""3713""
""focus"",""1"",""4865""
""blur"",""1"",""5675""
""focus"",""1"",""7702""
""fullscreenenter"",""1"",""117272""
","""event"",""trial"",""time""
""blur"",""1"",""3713""
""blur"",""1"",""5675""
","""event"",""trial"",""time""
""focus"",""1"",""4865""
""focus"",""1"",""7702""
","""event"",""trial"",""time""
""fullscreenenter"",""1"",""117272""
","
",,null,run_exp/static/images/task_images/barrel_text.jpg,null,,,,,,,,,,,,,,,,,,,,,,,,
decision_prac,30,353629,0.0-11.0-4.0,"""event"",""trial"",""time""
""blur"",""1"",""3713""
""focus"",""1"",""4865""
""blur"",""1"",""5675""
""focus"",""1"",""7702""
""fullscreenenter"",""1"",""117272""
","""event"",""trial"",""time""
""blur"",""1"",""3713""
""blur"",""1"",""5675""
","""event"",""trial"",""time""
""focus"",""1"",""4865""
""focus"",""1"",""7702""
","""event"",""trial"",""time""
""fullscreenenter"",""1"",""117272""
","
",,189,run_exp/static/images/task_images/land.jpg,65,,,,,,,,,,,1,,,,,,,,,,,,,
dig_prac,31,355641,0.0-12.0-0.0,"""event"",""trial"",""time""
""blur"",""1"",""3713""
""focus"",""1"",""4865""
""blur"",""1"",""5675""
""focus"",""1"",""7702""
""fullscreenenter"",""1"",""117272""
","""event"",""trial"",""time""
""blur"",""1"",""3713""
""blur"",""1"",""5675""
","""event"",""trial"",""time""
""focus"",""1"",""4865""
""focus"",""1"",""7702""
","""event"",""trial"",""time""
""fullscreenenter"",""1"",""117272""
","
",,,,,,,,,,,,"[{""stimulus"":""run_exp/static/images/task_images/dig.jpg"",""time"":0},{""stimulus"":""run_exp/static/images/task_images/land.jpg"",""time"":668},{""stimulus"":""run_exp/static/images/task_images/dig.jpg"",""time"":1339}]",[],,,,,,,,,,,,,,,
harvest_prac,32,356644,0.0-12.0-1.0,"""event"",""trial"",""time""
""blur"",""1"",""3713""
""focus"",""1"",""4865""
""blur"",""1"",""5675""
""focus"",""1"",""7702""
""fullscreenenter"",""1"",""117272""
","""event"",""trial"",""time""
""blur"",""1"",""3713""
""blur"",""1"",""5675""
","""event"",""trial"",""time""
""focus"",""1"",""4865""
""focus"",""1"",""7702""
","""event"",""trial"",""time""
""fullscreenenter"",""1"",""117272""
","
",,null,run_exp/static/images/task_images/barrel_text.jpg,null,,,,,,,,,,,,,,,,,,,,,,,,
decision_prac,33,356848,0.0-12.0-2.0,"""event"",""trial"",""time""
""blur"",""1"",""3713""
""focus"",""1"",""4865""
""blur"",""1"",""5675""
""focus"",""1"",""7702""
""fullscreenenter"",""1"",""117272""
","""event"",""trial"",""time""
""blur"",""1"",""3713""
""blur"",""1"",""5675""
","""event"",""trial"",""time""
""focus"",""1"",""4865""
""focus"",""1"",""7702""
","""event"",""trial"",""time""
""fullscreenenter"",""1"",""117272""
","
",,203,run_exp/static/images/task_images/land.jpg,65,,,,,,,,,,,2,,,,,,,,,,,,,
dig_prac,34,358863,0.0-13.0-0.0,"""event"",""trial"",""time""
""blur"",""1"",""3713""
""focus"",""1"",""4865""
""blur"",""1"",""5675""
""focus"",""1"",""7702""
""fullscreenenter"",""1"",""117272""
","""event"",""trial"",""time""
""blur"",""1"",""3713""
""blur"",""1"",""5675""
","""event"",""trial"",""time""
""focus"",""1"",""4865""
""focus"",""1"",""7702""
","""event"",""trial"",""time""
""fullscreenenter"",""1"",""117272""
","
",,,,,,,,,,,,"[{""stimulus"":""run_exp/static/images/task_images/dig.jpg"",""time"":0},{""stimulus"":""run_exp/static/images/task_images/land.jpg"",""time"":669},{""stimulus"":""run_exp/static/images/task_images/dig.jpg"",""time"":1340}]",[],,,,,,,,,,,,,,,
harvest_prac,35,359869,0.0-13.0-1.0,"""event"",""trial"",""time""
""blur"",""1"",""3713""
""focus"",""1"",""4865""
""blur"",""1"",""5675""
""focus"",""1"",""7702""
""fullscreenenter"",""1"",""117272""
","""event"",""trial"",""time""
""blur"",""1"",""3713""
""blur"",""1"",""5675""
","""event"",""trial"",""time""
""focus"",""1"",""4865""
""focus"",""1"",""7702""
","""event"",""trial"",""time""
""fullscreenenter"",""1"",""117272""
","
",,null,run_exp/static/images/task_images/barrel_text.jpg,null,,,,,,,,,,,,,,,,,,,,,,,,
decision_prac,36,360617,0.0-13.0-2.0,"""event"",""trial"",""time""
""blur"",""1"",""3713""
""focus"",""1"",""4865""
""blur"",""1"",""5675""
""focus"",""1"",""7702""
""fullscreenenter"",""1"",""117272""
","""event"",""trial"",""time""
""blur"",""1"",""3713""
""blur"",""1"",""5675""
","""event"",""trial"",""time""
""focus"",""1"",""4865""
""focus"",""1"",""7702""
","""event"",""trial"",""time""
""fullscreenenter"",""1"",""117272""
","
",,747,run_exp/static/images/task_images/land.jpg,65,,,,,,,,,,,3,,,,,,,,,,,,,
dig_prac,37,362629,0.0-14.0-0.0,"""event"",""trial"",""time""
""blur"",""1"",""3713""
""focus"",""1"",""4865""
""blur"",""1"",""5675""
""focus"",""1"",""7702""
""fullscreenenter"",""1"",""117272""
","""event"",""trial"",""time""
""blur"",""1"",""3713""
""blur"",""1"",""5675""
","""event"",""trial"",""time""
""focus"",""1"",""4865""
""focus"",""1"",""7702""
","""event"",""trial"",""time""
""fullscreenenter"",""1"",""117272""
","
",,,,,,,,,,,,"[{""stimulus"":""run_exp/static/images/task_images/dig.jpg"",""time"":0},{""stimulus"":""run_exp/static/images/task_images/land.jpg"",""time"":671},{""stimulus"":""run_exp/static/images/task_images/dig.jpg"",""time"":1340}]",[],,,,,,,,,,,,,,,
harvest_prac,38,363630,0.0-14.0-1.0,"""event"",""trial"",""time""
""blur"",""1"",""3713""
""focus"",""1"",""4865""
""blur"",""1"",""5675""
""focus"",""1"",""7702""
""fullscreenenter"",""1"",""117272""
","""event"",""trial"",""time""
""blur"",""1"",""3713""
""blur"",""1"",""5675""
","""event"",""trial"",""time""
""focus"",""1"",""4865""
""focus"",""1"",""7702""
","""event"",""trial"",""time""
""fullscreenenter"",""1"",""117272""
","
",,null,run_exp/static/images/task_images/barrel_text.jpg,null,,,,,,,,,,,,,,,,,,,,,,,,
decision_prac,39,363781,0.0-14.0-2.0,"""event"",""trial"",""time""
""blur"",""1"",""3713""
""focus"",""1"",""4865""
""blur"",""1"",""5675""
""focus"",""1"",""7702""
""fullscreenenter"",""1"",""117272""
","""event"",""trial"",""time""
""blur"",""1"",""3713""
""blur"",""1"",""5675""
","""event"",""trial"",""time""
""focus"",""1"",""4865""
""focus"",""1"",""7702""
","""event"",""trial"",""time""
""fullscreenenter"",""1"",""117272""
","
",,150,run_exp/static/images/task_images/land.jpg,65,,,,,,,,,,,4,,,,,,,,,,,,,
dig_prac,40,365799,0.0-15.0-0.0,"""event"",""trial"",""time""
""blur"",""1"",""3713""
""focus"",""1"",""4865""
""blur"",""1"",""5675""
""focus"",""1"",""7702""
""fullscreenenter"",""1"",""117272""
","""event"",""trial"",""time""
""blur"",""1"",""3713""
""blur"",""1"",""5675""
","""event"",""trial"",""time""
""focus"",""1"",""4865""
""focus"",""1"",""7702""
","""event"",""trial"",""time""
""fullscreenenter"",""1"",""117272""
","
",,,,,,,,,,,,"[{""stimulus"":""run_exp/static/images/task_images/dig.jpg"",""time"":0},{""stimulus"":""run_exp/static/images/task_images/land.jpg"",""time"":675},{""stimulus"":""run_exp/static/images/task_images/dig.jpg"",""time"":1346}]",[],,,,,,,,,,,,,,,
harvest_prac,41,366814,0.0-15.0-1.0,"""event"",""trial"",""time""
""blur"",""1"",""3713""
""focus"",""1"",""4865""
""blur"",""1"",""5675""
""focus"",""1"",""7702""
""fullscreenenter"",""1"",""117272""
","""event"",""trial"",""time""
""blur"",""1"",""3713""
""blur"",""1"",""5675""
","""event"",""trial"",""time""
""focus"",""1"",""4865""
""focus"",""1"",""7702""
","""event"",""trial"",""time""
""fullscreenenter"",""1"",""117272""
","
",,null,run_exp/static/images/task_images/barrel_text.jpg,null,,,,,,,,,,,,,,,,,,,,,,,,
decision_prac,42,366889,0.0-15.0-2.0,"""event"",""trial"",""time""
""blur"",""1"",""3713""
""focus"",""1"",""4865""
""blur"",""1"",""5675""
""focus"",""1"",""7702""
""fullscreenenter"",""1"",""117272""
","""event"",""trial"",""time""
""blur"",""1"",""3713""
""blur"",""1"",""5675""
","""event"",""trial"",""time""
""focus"",""1"",""4865""
""focus"",""1"",""7702""
","""event"",""trial"",""time""
""fullscreenenter"",""1"",""117272""
","
",,73,run_exp/static/images/task_images/land.jpg,65,,,,,,,,,,,,1,,,,,,,,,,,,
quiz_instruc,43,369882,0.0-16.0-0.0,"""event"",""trial"",""time""
""blur"",""1"",""3713""
""focus"",""1"",""4865""
""blur"",""1"",""5675""
""focus"",""1"",""7702""
""fullscreenenter"",""1"",""117272""
","""event"",""trial"",""time""
""blur"",""1"",""3713""
""blur"",""1"",""5675""
","""event"",""trial"",""time""
""focus"",""1"",""4865""
""focus"",""1"",""7702""
","""event"",""trial"",""time""
""fullscreenenter"",""1"",""117272""
","
",,2991,run_exp/static/audio/clip_10_quiz.m4a,,,,,,,0,,,,,,,,,,,,,,,,,,
instruc_repeat,44,412633,0.0-16.0-1.0,"""event"",""trial"",""time""
""blur"",""1"",""3713""
""focus"",""1"",""4865""
""blur"",""1"",""5675""
""focus"",""1"",""7702""
""fullscreenenter"",""1"",""117272""
","""event"",""trial"",""time""
""blur"",""1"",""3713""
""blur"",""1"",""5675""
","""event"",""trial"",""time""
""focus"",""1"",""4865""
""focus"",""1"",""7702""
","""event"",""trial"",""time""
""fullscreenenter"",""1"",""117272""
","
",,null,"<p> Are you ready to play a practice game? </p> <p>In this practice game, you'll be digging up barrels of gems. But, in the real game, you'll be digging up the gems themselves. </p>",null,"<p>In this game, your goal is to collect as many gems as you can. That’s how you will win bonus money. </p> <p>The entire game will last 20 minutes no matter how many gems you collect or how many planets you visit. </p><p>To stay on a planet and dig again, press the letter A on your keyboard. To leave for a new planet, press the letter L.</p><p>The more you dig on a planet, the fewer gems you’ll get with each dig which is why you might consider leaving for a new planet. </p><p>When you arrive at a new planet, you’ll be greeted by an alien. What the alien looks like does not tell you anything about how much treasure is on the planet. </p>",,,,,,,,,,,,,,,,,,,,,,,
instruc_repeat_continue,45,416687,0.0-16.0-2.0,"""event"",""trial"",""time""
""blur"",""1"",""3713""
""focus"",""1"",""4865""
""blur"",""1"",""5675""
""focus"",""1"",""7702""
""fullscreenenter"",""1"",""117272""
","""event"",""trial"",""time""
""blur"",""1"",""3713""
""blur"",""1"",""5675""
","""event"",""trial"",""time""
""focus"",""1"",""4865""
""focus"",""1"",""7702""
","""event"",""trial"",""time""
""fullscreenenter"",""1"",""117272""
","
",,4054,"<p> Are you ready to play a practice game? </p> <p>In this practice game, you'll be digging up barrels of gems. But, in the real game, you'll be digging up the gems themselves. </p>",,,,,,,0,,,,,,,,,,,,,,,,,,
quiz_q_1_ask,46,419607,0.0-16.0-3.0,"""event"",""trial"",""time""
""blur"",""1"",""3713""
""focus"",""1"",""4865""
""blur"",""1"",""5675""
""focus"",""1"",""7702""
""fullscreenenter"",""1"",""117272""
","""event"",""trial"",""time""
""blur"",""1"",""3713""
""blur"",""1"",""5675""
","""event"",""trial"",""time""
""focus"",""1"",""4865""
""focus"",""1"",""7702""
","""event"",""trial"",""time""
""fullscreenenter"",""1"",""117272""
","
",,2919,run_exp/static/audio/clip_11_q1_ask.m4a,,,,,,,2,,,,,,,,,,,,,,,,,,
quiz_q_1_fb_correct,47,423449,0.0-17.0-0.0,"""event"",""trial"",""time""
""blur"",""1"",""3713""
""focus"",""1"",""4865""
""blur"",""1"",""5675""
""focus"",""1"",""7702""
""fullscreenenter"",""1"",""117272""
","""event"",""trial"",""time""
""blur"",""1"",""3713""
""blur"",""1"",""5675""
","""event"",""trial"",""time""
""focus"",""1"",""4865""
""focus"",""1"",""7702""
","""event"",""trial"",""time""
""fullscreenenter"",""1"",""117272""
","
",,null,run_exp/static/audio/clip_12_q1_correct.m4a,null,<p>That’s correct. You win extra money by collecting more gems.</p>,,,,,,,,,,,,,,,,,,,,,,,
quiz_q_2_ask,48,426220,0.0-17.0-1.0,"""event"",""trial"",""time""
""blur"",""1"",""3713""
""focus"",""1"",""4865""
""blur"",""1"",""5675""
""focus"",""1"",""7702""
""fullscreenenter"",""1"",""117272""
","""event"",""trial"",""time""
""blur"",""1"",""3713""
""blur"",""1"",""5675""
","""event"",""trial"",""time""
""focus"",""1"",""4865""
""focus"",""1"",""7702""
","""event"",""trial"",""time""
""fullscreenenter"",""1"",""117272""
","
",,2769,run_exp/static/audio/clip_14_q2_ask.m4a,,,,,,,1,,,,,,,,,,,,,,,,,,
quiz_q_2_fb_correct,49,430212,0.0-18.0-0.0,"""event"",""trial"",""time""
""blur"",""1"",""3713""
""focus"",""1"",""4865""
""blur"",""1"",""5675""
""focus"",""1"",""7702""
""fullscreenenter"",""1"",""117272""
","""event"",""trial"",""time""
""blur"",""1"",""3713""
""blur"",""1"",""5675""
","""event"",""trial"",""time""
""focus"",""1"",""4865""
""focus"",""1"",""7702""
","""event"",""trial"",""time""
""fullscreenenter"",""1"",""117272""
","
",,null,run_exp/static/audio/clip_15_q2_correct.m4a,null,<p>That’s correct. The experiment is 20 minutes no matter what.</p>,,,,,,,,,,,,,,,,,,,,,,,
quiz_q_3_ask,50,432239,0.0-18.0-1.0,"""event"",""trial"",""time""
""blur"",""1"",""3713""
""focus"",""1"",""4865""
""blur"",""1"",""5675""
""focus"",""1"",""7702""
""fullscreenenter"",""1"",""117272""
","""event"",""trial"",""time""
""blur"",""1"",""3713""
""blur"",""1"",""5675""
","""event"",""trial"",""time""
""focus"",""1"",""4865""
""focus"",""1"",""7702""
","""event"",""trial"",""time""
""fullscreenenter"",""1"",""117272""
","
",,2026,run_exp/static/audio/clip_17_q3_ask.m4a,,,,,,,1,,,,,,,,,,,,,,,,,,
quiz_q_3_fb_correct,51,436207,0.0-19.0-0.0,"""event"",""trial"",""time""
""blur"",""1"",""3713""
""focus"",""1"",""4865""
""blur"",""1"",""5675""
""focus"",""1"",""7702""
""fullscreenenter"",""1"",""117272""
","""event"",""trial"",""time""
""blur"",""1"",""3713""
""blur"",""1"",""5675""
","""event"",""trial"",""time""
""focus"",""1"",""4865""
""focus"",""1"",""7702""
","""event"",""trial"",""time""
""fullscreenenter"",""1"",""117272""
","
",,null,run_exp/static/audio/clip_18_q3_correct.m4a,null,<p> That’s correct. You press the letter L to travel to a new planet.</p>,,,,,,,,,,,,,,,,,,,,,,,
quiz_q_4_ask,52,439046,0.0-19.0-1.0,"""event"",""trial"",""time""
""blur"",""1"",""3713""
""focus"",""1"",""4865""
""blur"",""1"",""5675""
""focus"",""1"",""7702""
""fullscreenenter"",""1"",""117272""
","""event"",""trial"",""time""
""blur"",""1"",""3713""
""blur"",""1"",""5675""
","""event"",""trial"",""time""
""focus"",""1"",""4865""
""focus"",""1"",""7702""
","""event"",""trial"",""time""
""fullscreenenter"",""1"",""117272""
","
",,2838,run_exp/static/audio/clip_20_q4_ask.m4a,,,,,,,0,,,,,,,,,,,,,,,,,,
quiz_q_4_fb_correct,53,444356,0.0-20.0-0.0,"""event"",""trial"",""time""
""blur"",""1"",""3713""
""focus"",""1"",""4865""
""blur"",""1"",""5675""
""focus"",""1"",""7702""
""fullscreenenter"",""1"",""117272""
","""event"",""trial"",""time""
""blur"",""1"",""3713""
""blur"",""1"",""5675""
","""event"",""trial"",""time""
""focus"",""1"",""4865""
""focus"",""1"",""7702""
","""event"",""trial"",""time""
""fullscreenenter"",""1"",""117272""
","
",,null,run_exp/static/audio/clip_21_q4_correct.m4a,null,<p> That’s correct. The more you dig on a planet the fewer gems you’ll get with each dig. </p>,,,,,,,,,,,,,,,,,,,,,,,
quiz_q_5_ask,54,445833,0.0-20.0-1.0,"""event"",""trial"",""time""
""blur"",""1"",""3713""
""focus"",""1"",""4865""
""blur"",""1"",""5675""
""focus"",""1"",""7702""
""fullscreenenter"",""1"",""117272""
","""event"",""trial"",""time""
""blur"",""1"",""3713""
""blur"",""1"",""5675""
","""event"",""trial"",""time""
""focus"",""1"",""4865""
""focus"",""1"",""7702""
","""event"",""trial"",""time""
""fullscreenenter"",""1"",""117272""
","
",,1476,run_exp/static/audio/clip_23_q5_ask.m4a,,,,,,,1,,,,,,,,,,,,,,,,,,
quiz_q_5_fb_correct,55,450821,0.0-21.0-0.0,"""event"",""trial"",""time""
""blur"",""1"",""3713""
""focus"",""1"",""4865""
""blur"",""1"",""5675""
""focus"",""1"",""7702""
""fullscreenenter"",""1"",""117272""
","""event"",""trial"",""time""
""blur"",""1"",""3713""
""blur"",""1"",""5675""
","""event"",""trial"",""time""
""focus"",""1"",""4865""
""focus"",""1"",""7702""
","""event"",""trial"",""time""
""fullscreenenter"",""1"",""117272""
","
",,null,run_exp/static/audio/clip_24_q5_correct.m4a,null,<p> That’s correct. The alien tells you nothing about how much treasure is on the planet.</p>,,,,,,,,,,,,,,,,,,,,,,,
quiz_correct,56,454277,0.0-22.0-0.0,"""event"",""trial"",""time""
""blur"",""1"",""3713""
""focus"",""1"",""4865""
""blur"",""1"",""5675""
""focus"",""1"",""7702""
""fullscreenenter"",""1"",""117272""
","""event"",""trial"",""time""
""blur"",""1"",""3713""
""blur"",""1"",""5675""
","""event"",""trial"",""time""
""focus"",""1"",""4865""
""focus"",""1"",""7702""
","""event"",""trial"",""time""
""fullscreenenter"",""1"",""117272""
","
",,null,run_exp/static/audio/clip_26_correct_quiz.m4a,null,,,,,,,,,,,,,,,,,,,,,,,,
quiz_correct_continue,57,457688,0.0-22.0-1.0,"""event"",""trial"",""time""
""blur"",""1"",""3713""
""focus"",""1"",""4865""
""blur"",""1"",""5675""
""focus"",""1"",""7702""
""fullscreenenter"",""1"",""117272""
","""event"",""trial"",""time""
""blur"",""1"",""3713""
""blur"",""1"",""5675""
","""event"",""trial"",""time""
""focus"",""1"",""4865""
""focus"",""1"",""7702""
","""event"",""trial"",""time""
""fullscreenenter"",""1"",""117272""
","
",,3409,<p>Good job! You're now ready to move on to the real game!</p>,,,,,,,0,,,,,,,,,,,,,,,,,,
audio-keyboard-response,58,467802,0.0-22.0-2.0,"""event"",""trial"",""time""
""blur"",""1"",""3713""
""focus"",""1"",""4865""
""blur"",""1"",""5675""
""focus"",""1"",""7702""
""fullscreenenter"",""1"",""117272""
","""event"",""trial"",""time""
""blur"",""1"",""3713""
""blur"",""1"",""5675""
","""event"",""trial"",""time""
""focus"",""1"",""4865""
""focus"",""1"",""7702""
","""event"",""trial"",""time""
""fullscreenenter"",""1"",""117272""
","
",,null,run_exp/static/audio/clip_28_real_game.m4a,null,,,,,,,,,,,,,,,,,,,,,,,,
instruc_begin_exp_contine,59,468921,0.0-22.0-3.0,"""event"",""trial"",""time""
""blur"",""1"",""3713""
""focus"",""1"",""4865""
""blur"",""1"",""5675""
""focus"",""1"",""7702""
""fullscreenenter"",""1"",""117272""
","""event"",""trial"",""time""
""blur"",""1"",""3713""
""blur"",""1"",""5675""
","""event"",""trial"",""time""
""focus"",""1"",""4865""
""focus"",""1"",""7702""
","""event"",""trial"",""time""
""fullscreenenter"",""1"",""117272""
","
",,1118,"<p>Now that you know how  to dig for space treasure and travel to new planets,you can start exploring! </p><p>Do you want to go over the instructions again or get started with the real game?</p>",,,,,,,1,,,,,,1,,,,,,,,,,,,
alien_welcome,60,473935,0.0-23.0-0.0,"""event"",""trial"",""time""
""blur"",""1"",""3713""
""focus"",""1"",""4865""
""blur"",""1"",""5675""
""focus"",""1"",""7702""
""fullscreenenter"",""1"",""117272""
","""event"",""trial"",""time""
""blur"",""1"",""3713""
""blur"",""1"",""5675""
","""event"",""trial"",""time""
""focus"",""1"",""4865""
""focus"",""1"",""7702""
","""event"",""trial"",""time""
""fullscreenenter"",""1"",""117272""
","
",,null,run_exp/static/images/task_images/aliens/old_aliens/planet/alien_planet-14.jpg,null,,,,,,,,,,,,,14,"14,17,63,28,27,64,1,37,68,67,62,61,43,42,8,54,46,41,16,36,49,59,33,69,11,19,2,24,71,70,51,47,26,29,34,38,66,80,44,9",,,,,,,,,,
land,61,474451,0.0-23.0-1.0,"""event"",""trial"",""time""
""blur"",""1"",""3713""
""focus"",""1"",""4865""
""blur"",""1"",""5675""
""focus"",""1"",""7702""
""fullscreenenter"",""1"",""117272""
","""event"",""trial"",""time""
""blur"",""1"",""3713""
""blur"",""1"",""5675""
","""event"",""trial"",""time""
""focus"",""1"",""4865""
""focus"",""1"",""7702""
","""event"",""trial"",""time""
""fullscreenenter"",""1"",""117272""
","
",,null,run_exp/static/images/task_images/land.jpg,null,,,,,,,107,,,1,,,,,,,,,,,,,,
dig,62,476465,0.0-23.0-2.0,"""event"",""trial"",""time""
""blur"",""1"",""3713""
""focus"",""1"",""4865""
""blur"",""1"",""5675""
""focus"",""1"",""7702""
""fullscreenenter"",""1"",""117272""
","""event"",""trial"",""time""
""blur"",""1"",""3713""
""blur"",""1"",""5675""
","""event"",""trial"",""time""
""focus"",""1"",""4865""
""focus"",""1"",""7702""
","""event"",""trial"",""time""
""fullscreenenter"",""1"",""117272""
","
",,,,,,,,,,,,"[{""stimulus"":""run_exp/static/images/task_images/dig.jpg"",""time"":0},{""stimulus"":""run_exp/static/images/task_images/land.jpg"",""time"":669},{""stimulus"":""run_exp/static/images/task_images/dig.jpg"",""time"":1340}]",[],1,,,,,,,,,,,,,,
harvest,63,477481,0.0-23.0-3.0,"""event"",""trial"",""time""
""blur"",""1"",""3713""
""focus"",""1"",""4865""
""blur"",""1"",""5675""
""focus"",""1"",""7702""
""fullscreenenter"",""1"",""117272""
","""event"",""trial"",""time""
""blur"",""1"",""3713""
""blur"",""1"",""5675""
","""event"",""trial"",""time""
""focus"",""1"",""4865""
""focus"",""1"",""7702""
","""event"",""trial"",""time""
""fullscreenenter"",""1"",""117272""
","
",,null,run_exp/static/images/task_images/gems/107.jpg,null,,,,,,,18,,,1,,,,,107,0.168817797,0.168224299,,,,,,,
decision,64,477501,0.0-23.0-4.0,"""event"",""trial"",""time""
""blur"",""1"",""3713""
""focus"",""1"",""4865""
""blur"",""1"",""5675""
""focus"",""1"",""7702""
""fullscreenenter"",""1"",""117272""
","""event"",""trial"",""time""
""blur"",""1"",""3713""
""blur"",""1"",""5675""
","""event"",""trial"",""time""
""focus"",""1"",""4865""
""focus"",""1"",""7702""
","""event"",""trial"",""time""
""fullscreenenter"",""1"",""117272""
","
",,20,run_exp/static/images/task_images/land.jpg,65,,,,,,,18,,,1,,,,,,,,8580,1,0,FALSE,,,
dig,65,480483,0.0-24.0-0.0,"""event"",""trial"",""time""
""blur"",""1"",""3713""
""focus"",""1"",""4865""
""blur"",""1"",""5675""
""focus"",""1"",""7702""
""fullscreenenter"",""1"",""117272""
","""event"",""trial"",""time""
""blur"",""1"",""3713""
""blur"",""1"",""5675""
","""event"",""trial"",""time""
""focus"",""1"",""4865""
""focus"",""1"",""7702""
","""event"",""trial"",""time""
""fullscreenenter"",""1"",""117272""
","
",,,,,,,,,,,,"[{""stimulus"":""run_exp/static/images/task_images/dig.jpg"",""time"":0},{""stimulus"":""run_exp/static/images/task_images/land.jpg"",""time"":1008},{""stimulus"":""run_exp/static/images/task_images/dig.jpg"",""time"":1990}]",[],1,,,,,,,,,,,,,,
harvest,66,481487,0.0-24.0-1.0,"""event"",""trial"",""time""
""blur"",""1"",""3713""
""focus"",""1"",""4865""
""blur"",""1"",""5675""
""focus"",""1"",""7702""
""fullscreenenter"",""1"",""117272""
","""event"",""trial"",""time""
""blur"",""1"",""3713""
""blur"",""1"",""5675""
","""event"",""trial"",""time""
""focus"",""1"",""4865""
""focus"",""1"",""7702""
","""event"",""trial"",""time""
""fullscreenenter"",""1"",""117272""
","
",,null,run_exp/static/images/task_images/gems/18.jpg,null,,,,,,,2,,,1,,,,,18,0.132503829,0.111111111,,,,,,,
decision,67,481640,0.0-24.0-2.0,"""event"",""trial"",""time""
""blur"",""1"",""3713""
""focus"",""1"",""4865""
""blur"",""1"",""5675""
""focus"",""1"",""7702""
""fullscreenenter"",""1"",""117272""
","""event"",""trial"",""time""
""blur"",""1"",""3713""
""blur"",""1"",""5675""
","""event"",""trial"",""time""
""focus"",""1"",""4865""
""focus"",""1"",""7702""
","""event"",""trial"",""time""
""fullscreenenter"",""1"",""117272""
","
",,151,run_exp/static/images/task_images/land.jpg,65,,,,,,,2,,,1,,,,,,,,12719,1,1,FALSE,,,
dig,68,484493,0.0-25.0-0.0,"""event"",""trial"",""time""
""blur"",""1"",""3713""
""focus"",""1"",""4865""
""blur"",""1"",""5675""
""focus"",""1"",""7702""
""fullscreenenter"",""1"",""117272""
","""event"",""trial"",""time""
""blur"",""1"",""3713""
""blur"",""1"",""5675""
","""event"",""trial"",""time""
""focus"",""1"",""4865""
""focus"",""1"",""7702""
","""event"",""trial"",""time""
""fullscreenenter"",""1"",""117272""
","
",,,,,,,,,,,,"[{""stimulus"":""run_exp/static/images/task_images/dig.jpg"",""time"":0},{""stimulus"":""run_exp/static/images/task_images/land.jpg"",""time"":962},{""stimulus"":""run_exp/static/images/task_images/dig.jpg"",""time"":1900}]",[],1,,,,,,,,,,,,,,
harvest,69,485508,0.0-25.0-1.0,"""event"",""trial"",""time""
""blur"",""1"",""3713""
""focus"",""1"",""4865""
""blur"",""1"",""5675""
""focus"",""1"",""7702""
""fullscreenenter"",""1"",""117272""
","""event"",""trial"",""time""
""blur"",""1"",""3713""
""blur"",""1"",""5675""
","""event"",""trial"",""time""
""focus"",""1"",""4865""
""focus"",""1"",""7702""
","""event"",""trial"",""time""
""fullscreenenter"",""1"",""117272""
","
",,null,run_exp/static/images/task_images/gems/2.jpg,null,,,,,,,0,,,1,,,,,2,0.148991874,0,,,,,,,
decision,70,485621,0.0-25.0-2.0,"""event"",""trial"",""time""
""blur"",""1"",""3713""
""focus"",""1"",""4865""
""blur"",""1"",""5675""
""focus"",""1"",""7702""
""fullscreenenter"",""1"",""117272""
","""event"",""trial"",""time""
""blur"",""1"",""3713""
""blur"",""1"",""5675""
","""event"",""trial"",""time""
""focus"",""1"",""4865""
""focus"",""1"",""7702""
","""event"",""trial"",""time""
""fullscreenenter"",""1"",""117272""
","
",,112,run_exp/static/images/task_images/land.jpg,76,,,,,,,0,,,1,,,,,,,,16700,1,2,TRUE,,,
travel,71,495509,0.0-26.0-0.0,"""event"",""trial"",""time""
""blur"",""1"",""3713""
""focus"",""1"",""4865""
""blur"",""1"",""5675""
""focus"",""1"",""7702""
""fullscreenenter"",""1"",""117272""
","""event"",""trial"",""time""
""blur"",""1"",""3713""
""blur"",""1"",""5675""
","""event"",""trial"",""time""
""focus"",""1"",""4865""
""focus"",""1"",""7702""
","""event"",""trial"",""time""
""fullscreenenter"",""1"",""117272""
","
",,,,,,,,,,,,"[{""stimulus"":""run_exp/static/images/task_images/rocket-01.jpg"",""time"":0},{""stimulus"":""run_exp/static/images/task_images/rocket-02.jpg"",""time"":1100},{""stimulus"":""run_exp/static/images/task_images/rocket-03.jpg"",""time"":2207},{""stimulus"":""run_exp/static/images/task_images/rocket-04.jpg"",""time"":3296},{""stimulus"":""run_exp/static/images/task_images/rocket-05.jpg"",""time"":4407},{""stimulus"":""run_exp/static/images/task_images/rocket-06.jpg"",""time"":5498},{""stimulus"":""run_exp/static/images/task_images/rocket-07.jpg"",""time"":6596},{""stimulus"":""run_exp/static/images/task_images/rocket-08.jpg"",""time"":7689},{""stimulus"":""run_exp/static/images/task_images/rocket-09.jpg"",""time"":8792}]",[],1,,,,,,,,,,,,,,
alien_welcome,72,500516,0.0-26.0-1.0,"""event"",""trial"",""time""
""blur"",""1"",""3713""
""focus"",""1"",""4865""
""blur"",""1"",""5675""
""focus"",""1"",""7702""
""fullscreenenter"",""1"",""117272""
","""event"",""trial"",""time""
""blur"",""1"",""3713""
""blur"",""1"",""5675""
","""event"",""trial"",""time""
""focus"",""1"",""4865""
""focus"",""1"",""7702""
","""event"",""trial"",""time""
""fullscreenenter"",""1"",""117272""
","
",,null,run_exp/static/images/task_images/aliens/old_aliens/planet/alien_planet-17.jpg,null,,,,,,,,,,,,,17,"14,17,63,28,27,64,1,37,68,67,62,61,43,42,8,54,46,41,16,36,49,59,33,69,11,19,2,24,71,70,51,47,26,29,34,38,66,80,44,9",,,,,,,,,,
land,73,501031,0.0-26.0-2.0,"""event"",""trial"",""time""
""blur"",""1"",""3713""
""focus"",""1"",""4865""
""blur"",""1"",""5675""
""focus"",""1"",""7702""
""fullscreenenter"",""1"",""117272""
","""event"",""trial"",""time""
""blur"",""1"",""3713""
""blur"",""1"",""5675""
","""event"",""trial"",""time""
""focus"",""1"",""4865""
""focus"",""1"",""7702""
","""event"",""trial"",""time""
""fullscreenenter"",""1"",""117272""
","
",,null,run_exp/static/images/task_images/land.jpg,null,,,,,,,98,,,2,,,,,,,,,,,,,,
dig,74,503044,0.0-26.0-3.0,"""event"",""trial"",""time""
""blur"",""1"",""3713""
""focus"",""1"",""4865""
""blur"",""1"",""5675""
""focus"",""1"",""7702""
""fullscreenenter"",""1"",""117272""
","""event"",""trial"",""time""
""blur"",""1"",""3713""
""blur"",""1"",""5675""
","""event"",""trial"",""time""
""focus"",""1"",""4865""
""focus"",""1"",""7702""
","""event"",""trial"",""time""
""fullscreenenter"",""1"",""117272""
","
",,,,,,,,,,,,"[{""stimulus"":""run_exp/static/images/task_images/dig.jpg"",""time"":0},{""stimulus"":""run_exp/static/images/task_images/land.jpg"",""time"":670},{""stimulus"":""run_exp/static/images/task_images/dig.jpg"",""time"":1343}]",[],2,,,,,,,,,,,,,,
harvest,75,504059,0.0-26.0-4.0,"""event"",""trial"",""time""
""blur"",""1"",""3713""
""focus"",""1"",""4865""
""blur"",""1"",""5675""
""focus"",""1"",""7702""
""fullscreenenter"",""1"",""117272""
","""event"",""trial"",""time""
""blur"",""1"",""3713""
""blur"",""1"",""5675""
","""event"",""trial"",""time""
""focus"",""1"",""4865""
""focus"",""1"",""7702""
","""event"",""trial"",""time""
""fullscreenenter"",""1"",""117272""
","
",,null,run_exp/static/images/task_images/gems/98.jpg,null,,,,,,,16,,,2,,,,,98,0.168355083,0.163265306,,,,,,,
decision,76,504060,0.0-26.0-5.0,"""event"",""trial"",""time""
""blur"",""1"",""3713""
""focus"",""1"",""4865""
""blur"",""1"",""5675""
""focus"",""1"",""7702""
""fullscreenenter"",""1"",""117272""
","""event"",""trial"",""time""
""blur"",""1"",""3713""
""blur"",""1"",""5675""
","""event"",""trial"",""time""
""focus"",""1"",""4865""
""focus"",""1"",""7702""
","""event"",""trial"",""time""
""fullscreenenter"",""1"",""117272""
","
",,0,run_exp/static/images/task_images/land.jpg,65,,,,,,,16,,,2,,,,,,,,35139,1,0,FALSE,,,
dig,77,507072,0.0-27.0-0.0,"""event"",""trial"",""time""
""blur"",""1"",""3713""
""focus"",""1"",""4865""
""blur"",""1"",""5675""
""focus"",""1"",""7702""
""fullscreenenter"",""1"",""117272""
","""event"",""trial"",""time""
""blur"",""1"",""3713""
""blur"",""1"",""5675""
","""event"",""trial"",""time""
""focus"",""1"",""4865""
""focus"",""1"",""7702""
","""event"",""trial"",""time""
""fullscreenenter"",""1"",""117272""
","
",,,,,,,,,,,,"[{""stimulus"":""run_exp/static/images/task_images/dig.jpg"",""time"":0},{""stimulus"":""run_exp/static/images/task_images/land.jpg"",""time"":1001},{""stimulus"":""run_exp/static/images/task_images/dig.jpg"",""time"":2004}]",[],2,,,,,,,,,,,,,,
harvest,78,508074,0.0-27.0-1.0,"""event"",""trial"",""time""
""blur"",""1"",""3713""
""focus"",""1"",""4865""
""blur"",""1"",""5675""
""focus"",""1"",""7702""
""fullscreenenter"",""1"",""117272""
","""event"",""trial"",""time""
""blur"",""1"",""3713""
""blur"",""1"",""5675""
","""event"",""trial"",""time""
""focus"",""1"",""4865""
""focus"",""1"",""7702""
","""event"",""trial"",""time""
""fullscreenenter"",""1"",""117272""
","
",,null,run_exp/static/images/task_images/gems/16.jpg,null,,,,,,,3,,,2,,,,,16,0.196231896,0.1875,,,,,,,
decision,79,508228,0.0-27.0-2.0,"""event"",""trial"",""time""
""blur"",""1"",""3713""
""focus"",""1"",""4865""
""blur"",""1"",""5675""
""focus"",""1"",""7702""
""fullscreenenter"",""1"",""117272""
","""event"",""trial"",""time""
""blur"",""1"",""3713""
""blur"",""1"",""5675""
","""event"",""trial"",""time""
""focus"",""1"",""4865""
""focus"",""1"",""7702""
","""event"",""trial"",""time""
""fullscreenenter"",""1"",""117272""
","
",,153,run_exp/static/images/task_images/land.jpg,76,,,,,,,3,,,2,,,,,,,,39307,1,1,TRUE,,,
travel,80,518083,0.0-28.0-0.0,"""event"",""trial"",""time""
""blur"",""1"",""3713""
""focus"",""1"",""4865""
""blur"",""1"",""5675""
""focus"",""1"",""7702""
""fullscreenenter"",""1"",""117272""
","""event"",""trial"",""time""
""blur"",""1"",""3713""
""blur"",""1"",""5675""
","""event"",""trial"",""time""
""focus"",""1"",""4865""
""focus"",""1"",""7702""
","""event"",""trial"",""time""
""fullscreenenter"",""1"",""117272""
","
",,,,,,,,,,,,"[{""stimulus"":""run_exp/static/images/task_images/rocket-01.jpg"",""time"":0},{""stimulus"":""run_exp/static/images/task_images/rocket-02.jpg"",""time"":1095},{""stimulus"":""run_exp/static/images/task_images/rocket-03.jpg"",""time"":2198},{""stimulus"":""run_exp/static/images/task_images/rocket-04.jpg"",""time"":3293},{""stimulus"":""run_exp/static/images/task_images/rocket-05.jpg"",""time"":4383},{""stimulus"":""run_exp/static/images/task_images/rocket-06.jpg"",""time"":5474},{""stimulus"":""run_exp/static/images/task_images/rocket-07.jpg"",""time"":6566},{""stimulus"":""run_exp/static/images/task_images/rocket-08.jpg"",""time"":7662},{""stimulus"":""run_exp/static/images/task_images/rocket-09.jpg"",""time"":8761}]",[],2,,,,,,,,,,,,,,
alien_welcome,81,523100,0.0-28.0-1.0,"""event"",""trial"",""time""
""blur"",""1"",""3713""
""focus"",""1"",""4865""
""blur"",""1"",""5675""
""focus"",""1"",""7702""
""fullscreenenter"",""1"",""117272""
","""event"",""trial"",""time""
""blur"",""1"",""3713""
""blur"",""1"",""5675""
","""event"",""trial"",""time""
""focus"",""1"",""4865""
""focus"",""1"",""7702""
","""event"",""trial"",""time""
""fullscreenenter"",""1"",""117272""
","
",,null,run_exp/static/images/task_images/aliens/old_aliens/planet/alien_planet-63.jpg,null,,,,,,,,,,,,,63,"14,17,63,28,27,64,1,37,68,67,62,61,43,42,8,54,46,41,16,36,49,59,33,69,11,19,2,24,71,70,51,47,26,29,34,38,66,80,44,9",,,,,,,,,,
land,82,523615,0.0-28.0-2.0,"""event"",""trial"",""time""
""blur"",""1"",""3713""
""focus"",""1"",""4865""
""blur"",""1"",""5675""
""focus"",""1"",""7702""
""fullscreenenter"",""1"",""117272""
","""event"",""trial"",""time""
""blur"",""1"",""3713""
""blur"",""1"",""5675""
","""event"",""trial"",""time""
""focus"",""1"",""4865""
""focus"",""1"",""7702""
","""event"",""trial"",""time""
""fullscreenenter"",""1"",""117272""
","
",,null,run_exp/static/images/task_images/land.jpg,null,,,,,,,92,,,3,,,,,,,,,,,,,,
dig,83,525628,0.0-28.0-3.0,"""event"",""trial"",""time""
""blur"",""1"",""3713""
""focus"",""1"",""4865""
""blur"",""1"",""5675""
""focus"",""1"",""7702""
""fullscreenenter"",""1"",""117272""
","""event"",""trial"",""time""
""blur"",""1"",""3713""
""blur"",""1"",""5675""
","""event"",""trial"",""time""
""focus"",""1"",""4865""
""focus"",""1"",""7702""
","""event"",""trial"",""time""
""fullscreenenter"",""1"",""117272""
","
",,,,,,,,,,,,"[{""stimulus"":""run_exp/static/images/task_images/dig.jpg"",""time"":0},{""stimulus"":""run_exp/static/images/task_images/land.jpg"",""time"":668},{""stimulus"":""run_exp/static/images/task_images/dig.jpg"",""time"":1337}]",[],3,,,,,,,,,,,,,,
harvest,84,526640,0.0-28.0-4.0,"""event"",""trial"",""time""
""blur"",""1"",""3713""
""focus"",""1"",""4865""
""blur"",""1"",""5675""
""focus"",""1"",""7702""
""fullscreenenter"",""1"",""117272""
","""event"",""trial"",""time""
""blur"",""1"",""3713""
""blur"",""1"",""5675""
","""event"",""trial"",""time""
""focus"",""1"",""4865""
""focus"",""1"",""7702""
","""event"",""trial"",""time""
""fullscreenenter"",""1"",""117272""
","
",,null,run_exp/static/images/task_images/gems/92.jpg,null,,,,,,,48,,,3,,,,,92,0.52596394,0.52173913,,,,,,,
decision,85,526653,0.0-28.0-5.0,"""event"",""trial"",""time""
""blur"",""1"",""3713""
""focus"",""1"",""4865""
""blur"",""1"",""5675""
""focus"",""1"",""7702""
""fullscreenenter"",""1"",""117272""
","""event"",""trial"",""time""
""blur"",""1"",""3713""
""blur"",""1"",""5675""
","""event"",""trial"",""time""
""focus"",""1"",""4865""
""focus"",""1"",""7702""
","""event"",""trial"",""time""
""fullscreenenter"",""1"",""117272""
","
",,12,run_exp/static/images/task_images/land.jpg,65,,,,,,,48,,,3,,,,,,,,57732,1,0,FALSE,,,
dig,86,529657,0.0-29.0-0.0,"""event"",""trial"",""time""
""blur"",""1"",""3713""
""focus"",""1"",""4865""
""blur"",""1"",""5675""
""focus"",""1"",""7702""
""fullscreenenter"",""1"",""117272""
","""event"",""trial"",""time""
""blur"",""1"",""3713""
""blur"",""1"",""5675""
","""event"",""trial"",""time""
""focus"",""1"",""4865""
""focus"",""1"",""7702""
","""event"",""trial"",""time""
""fullscreenenter"",""1"",""117272""
","
",,,,,,,,,,,,"[{""stimulus"":""run_exp/static/images/task_images/dig.jpg"",""time"":0},{""stimulus"":""run_exp/static/images/task_images/land.jpg"",""time"":1003},{""stimulus"":""run_exp/static/images/task_images/dig.jpg"",""time"":2005}]",[],3,,,,,,,,,,,,,,
harvest,87,530669,0.0-29.0-1.0,"""event"",""trial"",""time""
""blur"",""1"",""3713""
""focus"",""1"",""4865""
""blur"",""1"",""5675""
""focus"",""1"",""7702""
""fullscreenenter"",""1"",""117272""
","""event"",""trial"",""time""
""blur"",""1"",""3713""
""blur"",""1"",""5675""
","""event"",""trial"",""time""
""focus"",""1"",""4865""
""focus"",""1"",""7702""
","""event"",""trial"",""time""
""fullscreenenter"",""1"",""117272""
","
",,null,run_exp/static/images/task_images/gems/48.jpg,null,,,,,,,26,,,3,,,,,48,0.545477696,0.541666667,,,,,,,
decision,88,530698,0.0-29.0-2.0,"""event"",""trial"",""time""
""blur"",""1"",""3713""
""focus"",""1"",""4865""
""blur"",""1"",""5675""
""focus"",""1"",""7702""
""fullscreenenter"",""1"",""117272""
","""event"",""trial"",""time""
""blur"",""1"",""3713""
""blur"",""1"",""5675""
","""event"",""trial"",""time""
""focus"",""1"",""4865""
""focus"",""1"",""7702""
","""event"",""trial"",""time""
""fullscreenenter"",""1"",""117272""
","
",,28,run_exp/static/images/task_images/land.jpg,65,,,,,,,26,,,3,,,,,,,,61777,1,1,FALSE,,,
dig,89,533680,0.0-30.0-0.0,"""event"",""trial"",""time""
""blur"",""1"",""3713""
""focus"",""1"",""4865""
""blur"",""1"",""5675""
""focus"",""1"",""7702""
""fullscreenenter"",""1"",""117272""
","""event"",""trial"",""time""
""blur"",""1"",""3713""
""blur"",""1"",""5675""
","""event"",""trial"",""time""
""focus"",""1"",""4865""
""focus"",""1"",""7702""
","""event"",""trial"",""time""
""fullscreenenter"",""1"",""117272""
","
",,,,,,,,,,,,"[{""stimulus"":""run_exp/static/images/task_images/dig.jpg"",""time"":0},{""stimulus"":""run_exp/static/images/task_images/land.jpg"",""time"":1004},{""stimulus"":""run_exp/static/images/task_images/dig.jpg"",""time"":1980}]",[],3,,,,,,,,,,,,,,
harvest,90,534688,0.0-30.0-1.0,"""event"",""trial"",""time""
""blur"",""1"",""3713""
""focus"",""1"",""4865""
""blur"",""1"",""5675""
""focus"",""1"",""7702""
""fullscreenenter"",""1"",""117272""
","""event"",""trial"",""time""
""blur"",""1"",""3713""
""blur"",""1"",""5675""
","""event"",""trial"",""time""
""focus"",""1"",""4865""
""focus"",""1"",""7702""
","""event"",""trial"",""time""
""fullscreenenter"",""1"",""117272""
","
",,null,run_exp/static/images/task_images/gems/26.jpg,null,,,,,,,13,,,3,,,,,26,0.494667147,0.5,,,,,,,
decision,91,534698,0.0-30.0-2.0,"""event"",""trial"",""time""
""blur"",""1"",""3713""
""focus"",""1"",""4865""
""blur"",""1"",""5675""
""focus"",""1"",""7702""
""fullscreenenter"",""1"",""117272""
","""event"",""trial"",""time""
""blur"",""1"",""3713""
""blur"",""1"",""5675""
","""event"",""trial"",""time""
""focus"",""1"",""4865""
""focus"",""1"",""7702""
","""event"",""trial"",""time""
""fullscreenenter"",""1"",""117272""
","
",,10,run_exp/static/images/task_images/land.jpg,76,,,,,,,13,,,3,,,,,,,,65778,1,2,TRUE,,,
travel,92,544701,0.0-31.0-0.0,"""event"",""trial"",""time""
""blur"",""1"",""3713""
""focus"",""1"",""4865""
""blur"",""1"",""5675""
""focus"",""1"",""7702""
""fullscreenenter"",""1"",""117272""
","""event"",""trial"",""time""
""blur"",""1"",""3713""
""blur"",""1"",""5675""
","""event"",""trial"",""time""
""focus"",""1"",""4865""
""focus"",""1"",""7702""
","""event"",""trial"",""time""
""fullscreenenter"",""1"",""117272""
","
",,,,,,,,,,,,"[{""stimulus"":""run_exp/static/images/task_images/rocket-01.jpg"",""time"":0},{""stimulus"":""run_exp/static/images/task_images/rocket-02.jpg"",""time"":1111},{""stimulus"":""run_exp/static/images/task_images/rocket-03.jpg"",""time"":2235},{""stimulus"":""run_exp/static/images/task_images/rocket-04.jpg"",""time"":3332},{""stimulus"":""run_exp/static/images/task_images/rocket-05.jpg"",""time"":4442},{""stimulus"":""run_exp/static/images/task_images/rocket-06.jpg"",""time"":5564},{""stimulus"":""run_exp/static/images/task_images/rocket-07.jpg"",""time"":6675},{""stimulus"":""run_exp/static/images/task_images/rocket-08.jpg"",""time"":7772},{""stimulus"":""run_exp/static/images/task_images/rocket-09.jpg"",""time"":8891}]",[],3,,,,,,,,,,,,,,
alien_welcome,93,549704,0.0-31.0-1.0,"""event"",""trial"",""time""
""blur"",""1"",""3713""
""focus"",""1"",""4865""
""blur"",""1"",""5675""
""focus"",""1"",""7702""
""fullscreenenter"",""1"",""117272""
","""event"",""trial"",""time""
""blur"",""1"",""3713""
""blur"",""1"",""5675""
","""event"",""trial"",""time""
""focus"",""1"",""4865""
""focus"",""1"",""7702""
","""event"",""trial"",""time""
""fullscreenenter"",""1"",""117272""
","
",,null,run_exp/static/images/task_images/aliens/old_aliens/planet/alien_planet-28.jpg,null,,,,,,,,,,,,,28,"14,17,63,28,27,64,1,37,68,67,62,61,43,42,8,54,46,41,16,36,49,59,33,69,11,19,2,24,71,70,51,47,26,29,34,38,66,80,44,9",,,,,,,,,,
land,94,550205,0.0-31.0-2.0,"""event"",""trial"",""time""
""blur"",""1"",""3713""
""focus"",""1"",""4865""
""blur"",""1"",""5675""
""focus"",""1"",""7702""
""fullscreenenter"",""1"",""117272""
","""event"",""trial"",""time""
""blur"",""1"",""3713""
""blur"",""1"",""5675""
","""event"",""trial"",""time""
""focus"",""1"",""4865""
""focus"",""1"",""7702""
","""event"",""trial"",""time""
""fullscreenenter"",""1"",""117272""
","
",,null,run_exp/static/images/task_images/land.jpg,null,,,,,,,97,,,4,,,,,,,,,,,,,,
dig,95,552221,0.0-31.0-3.0,"""event"",""trial"",""time""
""blur"",""1"",""3713""
""focus"",""1"",""4865""
""blur"",""1"",""5675""
""focus"",""1"",""7702""
""fullscreenenter"",""1"",""117272""
","""event"",""trial"",""time""
""blur"",""1"",""3713""
""blur"",""1"",""5675""
","""event"",""trial"",""time""
""focus"",""1"",""4865""
""focus"",""1"",""7702""
","""event"",""trial"",""time""
""fullscreenenter"",""1"",""117272""
","
",,,,,,,,,,,,"[{""stimulus"":""run_exp/static/images/task_images/dig.jpg"",""time"":0},{""stimulus"":""run_exp/static/images/task_images/land.jpg"",""time"":670},{""stimulus"":""run_exp/static/images/task_images/dig.jpg"",""time"":1345}]",[],4,,,,,,,,,,,,,,
harvest,96,553234,0.0-31.0-4.0,"""event"",""trial"",""time""
""blur"",""1"",""3713""
""focus"",""1"",""4865""
""blur"",""1"",""5675""
""focus"",""1"",""7702""
""fullscreenenter"",""1"",""117272""
","""event"",""trial"",""time""
""blur"",""1"",""3713""
""blur"",""1"",""5675""
","""event"",""trial"",""time""
""focus"",""1"",""4865""
""focus"",""1"",""7702""
","""event"",""trial"",""time""
""fullscreenenter"",""1"",""117272""
","
",,null,run_exp/static/images/task_images/gems/97.jpg,null,,,,,,,46,,,4,,,,,97,0.4712413,0.474226804,,,,,,,
decision,97,553290,0.0-31.0-5.0,"""event"",""trial"",""time""
""blur"",""1"",""3713""
""focus"",""1"",""4865""
""blur"",""1"",""5675""
""focus"",""1"",""7702""
""fullscreenenter"",""1"",""117272""
","""event"",""trial"",""time""
""blur"",""1"",""3713""
""blur"",""1"",""5675""
","""event"",""trial"",""time""
""focus"",""1"",""4865""
""focus"",""1"",""7702""
","""event"",""trial"",""time""
""fullscreenenter"",""1"",""117272""
","
",,55,run_exp/static/images/task_images/land.jpg,65,,,,,,,46,,,4,,,,,,,,84369,1,0,FALSE,,,
dig,98,556236,0.0-32.0-0.0,"""event"",""trial"",""time""
""blur"",""1"",""3713""
""focus"",""1"",""4865""
""blur"",""1"",""5675""
""focus"",""1"",""7702""
""fullscreenenter"",""1"",""117272""
","""event"",""trial"",""time""
""blur"",""1"",""3713""
""blur"",""1"",""5675""
","""event"",""trial"",""time""
""focus"",""1"",""4865""
""focus"",""1"",""7702""
","""event"",""trial"",""time""
""fullscreenenter"",""1"",""117272""
","
",,,,,,,,,,,,"[{""stimulus"":""run_exp/static/images/task_images/dig.jpg"",""time"":0},{""stimulus"":""run_exp/static/images/task_images/land.jpg"",""time"":989},{""stimulus"":""run_exp/static/images/task_images/dig.jpg"",""time"":1977}]",[],4,,,,,,,,,,,,,,
harvest,99,557249,0.0-32.0-1.0,"""event"",""trial"",""time""
""blur"",""1"",""3713""
""focus"",""1"",""4865""
""blur"",""1"",""5675""
""focus"",""1"",""7702""
""fullscreenenter"",""1"",""117272""
","""event"",""trial"",""time""
""blur"",""1"",""3713""
""blur"",""1"",""5675""
","""event"",""trial"",""time""
""focus"",""1"",""4865""
""focus"",""1"",""7702""
","""event"",""trial"",""time""
""fullscreenenter"",""1"",""117272""
","
",,null,run_exp/static/images/task_images/gems/46.jpg,null,,,,,,,19,,,4,,,,,46,0.423423907,0.413043478,,,,,,,
decision,100,557369,0.0-32.0-2.0,"""event"",""trial"",""time""
""blur"",""1"",""3713""
""focus"",""1"",""4865""
""blur"",""1"",""5675""
""focus"",""1"",""7702""
""fullscreenenter"",""1"",""117272""
","""event"",""trial"",""time""
""blur"",""1"",""3713""
""blur"",""1"",""5675""
","""event"",""trial"",""time""
""focus"",""1"",""4865""
""focus"",""1"",""7702""
","""event"",""trial"",""time""
""fullscreenenter"",""1"",""117272""
","
",,120,run_exp/static/images/task_images/land.jpg,65,,,,,,,19,,,4,,,,,,,,88448,1,1,FALSE,,,
dig,101,560260,0.0-33.0-0.0,"""event"",""trial"",""time""
""blur"",""1"",""3713""
""focus"",""1"",""4865""
""blur"",""1"",""5675""
""focus"",""1"",""7702""
""fullscreenenter"",""1"",""117272""
","""event"",""trial"",""time""
""blur"",""1"",""3713""
""blur"",""1"",""5675""
","""event"",""trial"",""time""
""focus"",""1"",""4865""
""focus"",""1"",""7702""
","""event"",""trial"",""time""
""fullscreenenter"",""1"",""117272""
","
",,,,,,,,,,,,"[{""stimulus"":""run_exp/static/images/task_images/dig.jpg"",""time"":0},{""stimulus"":""run_exp/static/images/task_images/land.jpg"",""time"":970},{""stimulus"":""run_exp/static/images/task_images/dig.jpg"",""time"":1921}]",[],4,,,,,,,,,,,,,,
harvest,102,561277,0.0-33.0-1.0,"""event"",""trial"",""time""
""blur"",""1"",""3713""
""focus"",""1"",""4865""
""blur"",""1"",""5675""
""focus"",""1"",""7702""
""fullscreenenter"",""1"",""117272""
","""event"",""trial"",""time""
""blur"",""1"",""3713""
""blur"",""1"",""5675""
","""event"",""trial"",""time""
""focus"",""1"",""4865""
""focus"",""1"",""7702""
","""event"",""trial"",""time""
""fullscreenenter"",""1"",""117272""
","
",,null,run_exp/static/images/task_images/gems/19.jpg,null,,,,,,,8,,,4,,,,,19,0.434375708,0.421052632,,,,,,,
decision,103,563639,0.0-33.0-2.0,"""event"",""trial"",""time""
""blur"",""1"",""3713""
""focus"",""1"",""4865""
""blur"",""1"",""5675""
""focus"",""1"",""7702""
""fullscreenenter"",""1"",""117272""
","""event"",""trial"",""time""
""blur"",""1"",""3713""
""blur"",""1"",""5675""
","""event"",""trial"",""time""
""focus"",""1"",""4865""
""focus"",""1"",""7702""
","""event"",""trial"",""time""
""fullscreenenter"",""1"",""117272""
","
",,2361,run_exp/static/images/task_images/land.jpg,76,,,,,,,8,,,4,,,,,,,,94718,1,2,TRUE,,,
travel,104,571276,0.0-34.0-0.0,"""event"",""trial"",""time""
""blur"",""1"",""3713""
""focus"",""1"",""4865""
""blur"",""1"",""5675""
""focus"",""1"",""7702""
""fullscreenenter"",""1"",""117272""
","""event"",""trial"",""time""
""blur"",""1"",""3713""
""blur"",""1"",""5675""
","""event"",""trial"",""time""
""focus"",""1"",""4865""
""focus"",""1"",""7702""
","""event"",""trial"",""time""
""fullscreenenter"",""1"",""117272""
","
",,,,,,,,,,,,"[{""stimulus"":""run_exp/static/images/task_images/rocket-01.jpg"",""time"":0},{""stimulus"":""run_exp/static/images/task_images/rocket-02.jpg"",""time"":856},{""stimulus"":""run_exp/static/images/task_images/rocket-03.jpg"",""time"":1701},{""stimulus"":""run_exp/static/images/task_images/rocket-04.jpg"",""time"":2554},{""stimulus"":""run_exp/static/images/task_images/rocket-05.jpg"",""time"":3401},{""stimulus"":""run_exp/static/images/task_images/rocket-06.jpg"",""time"":4242},{""stimulus"":""run_exp/static/images/task_images/rocket-07.jpg"",""time"":5089},{""stimulus"":""run_exp/static/images/task_images/rocket-08.jpg"",""time"":5937},{""stimulus"":""run_exp/static/images/task_images/rocket-09.jpg"",""time"":6789}]",[],4,,,,,,,,,,,,,,
alien_welcome,105,576281,0.0-34.0-1.0,"""event"",""trial"",""time""
""blur"",""1"",""3713""
""focus"",""1"",""4865""
""blur"",""1"",""5675""
""focus"",""1"",""7702""
""fullscreenenter"",""1"",""117272""
","""event"",""trial"",""time""
""blur"",""1"",""3713""
""blur"",""1"",""5675""
","""event"",""trial"",""time""
""focus"",""1"",""4865""
""focus"",""1"",""7702""
","""event"",""trial"",""time""
""fullscreenenter"",""1"",""117272""
","
",,null,run_exp/static/images/task_images/aliens/old_aliens/planet/alien_planet-27.jpg,null,,,,,,,,,,,,,27,"14,17,63,28,27,64,1,37,68,67,62,61,43,42,8,54,46,41,16,36,49,59,33,69,11,19,2,24,71,70,51,47,26,29,34,38,66,80,44,9",,,,,,,,,,
land,106,576784,0.0-34.0-2.0,"""event"",""trial"",""time""
""blur"",""1"",""3713""
""focus"",""1"",""4865""
""blur"",""1"",""5675""
""focus"",""1"",""7702""
""fullscreenenter"",""1"",""117272""
","""event"",""trial"",""time""
""blur"",""1"",""3713""
""blur"",""1"",""5675""
","""event"",""trial"",""time""
""focus"",""1"",""4865""
""focus"",""1"",""7702""
","""event"",""trial"",""time""
""fullscreenenter"",""1"",""117272""
","
",,null,run_exp/static/images/task_images/land.jpg,null,,,,,,,106,,,5,,,,,,,,,,,,,,
dig,107,578797,0.0-34.0-3.0,"""event"",""trial"",""time""
""blur"",""1"",""3713""
""focus"",""1"",""4865""
""blur"",""1"",""5675""
""focus"",""1"",""7702""
""fullscreenenter"",""1"",""117272""
","""event"",""trial"",""time""
""blur"",""1"",""3713""
""blur"",""1"",""5675""
","""event"",""trial"",""time""
""focus"",""1"",""4865""
""focus"",""1"",""7702""
","""event"",""trial"",""time""
""fullscreenenter"",""1"",""117272""
","
",,,,,,,,,,,,"[{""stimulus"":""run_exp/static/images/task_images/dig.jpg"",""time"":1},{""stimulus"":""run_exp/static/images/task_images/land.jpg"",""time"":668},{""stimulus"":""run_exp/static/images/task_images/dig.jpg"",""time"":1339}]",[],5,,,,,,,,,,,,,,
harvest,108,579812,0.0-34.0-4.0,"""event"",""trial"",""time""
""blur"",""1"",""3713""
""focus"",""1"",""4865""
""blur"",""1"",""5675""
""focus"",""1"",""7702""
""fullscreenenter"",""1"",""117272""
","""event"",""trial"",""time""
""blur"",""1"",""3713""
""blur"",""1"",""5675""
","""event"",""trial"",""time""
""focus"",""1"",""4865""
""focus"",""1"",""7702""
","""event"",""trial"",""time""
""fullscreenenter"",""1"",""117272""
","
",,null,run_exp/static/images/task_images/gems/106.jpg,null,,,,,,,49,,,5,,,,,106,0.458971706,0.462264151,,,,,,,
decision,109,579875,0.0-34.0-5.0,"""event"",""trial"",""time""
""blur"",""1"",""3713""
""focus"",""1"",""4865""
""blur"",""1"",""5675""
""focus"",""1"",""7702""
""fullscreenenter"",""1"",""117272""
","""event"",""trial"",""time""
""blur"",""1"",""3713""
""blur"",""1"",""5675""
","""event"",""trial"",""time""
""focus"",""1"",""4865""
""focus"",""1"",""7702""
","""event"",""trial"",""time""
""fullscreenenter"",""1"",""117272""
","
",,62,run_exp/static/images/task_images/land.jpg,65,,,,,,,49,,,5,,,,,,,,110954,1,0,FALSE,,,
dig,110,582821,0.0-35.0-0.0,"""event"",""trial"",""time""
""blur"",""1"",""3713""
""focus"",""1"",""4865""
""blur"",""1"",""5675""
""focus"",""1"",""7702""
""fullscreenenter"",""1"",""117272""
","""event"",""trial"",""time""
""blur"",""1"",""3713""
""blur"",""1"",""5675""
","""event"",""trial"",""time""
""focus"",""1"",""4865""
""focus"",""1"",""7702""
","""event"",""trial"",""time""
""fullscreenenter"",""1"",""117272""
","
",,,,,,,,,,,,"[{""stimulus"":""run_exp/static/images/task_images/dig.jpg"",""time"":1},{""stimulus"":""run_exp/static/images/task_images/land.jpg"",""time"":992},{""stimulus"":""run_exp/static/images/task_images/dig.jpg"",""time"":1961}]",[],5,,,,,,,,,,,,,,
harvest,111,583837,0.0-35.0-1.0,"""event"",""trial"",""time""
""blur"",""1"",""3713""
""focus"",""1"",""4865""
""blur"",""1"",""5675""
""focus"",""1"",""7702""
""fullscreenenter"",""1"",""117272""
","""event"",""trial"",""time""
""blur"",""1"",""3713""
""blur"",""1"",""5675""
","""event"",""trial"",""time""
""focus"",""1"",""4865""
""focus"",""1"",""7702""
","""event"",""trial"",""time""
""fullscreenenter"",""1"",""117272""
","
",,null,run_exp/static/images/task_images/gems/49.jpg,null,,,,,,,24,,,5,,,,,49,0.4818693,0.489795918,,,,,,,
decision,112,583901,0.0-35.0-2.0,"""event"",""trial"",""time""
""blur"",""1"",""3713""
""focus"",""1"",""4865""
""blur"",""1"",""5675""
""focus"",""1"",""7702""
""fullscreenenter"",""1"",""117272""
","""event"",""trial"",""time""
""blur"",""1"",""3713""
""blur"",""1"",""5675""
","""event"",""trial"",""time""
""focus"",""1"",""4865""
""focus"",""1"",""7702""
","""event"",""trial"",""time""
""fullscreenenter"",""1"",""117272""
","
",,63,run_exp/static/images/task_images/land.jpg,65,,,,,,,24,,,5,,,,,,,,114980,1,1,FALSE,,,
dig,113,586850,0.0-36.0-0.0,"""event"",""trial"",""time""
""blur"",""1"",""3713""
""focus"",""1"",""4865""
""blur"",""1"",""5675""
""focus"",""1"",""7702""
""fullscreenenter"",""1"",""117272""
","""event"",""trial"",""time""
""blur"",""1"",""3713""
""blur"",""1"",""5675""
","""event"",""trial"",""time""
""focus"",""1"",""4865""
""focus"",""1"",""7702""
","""event"",""trial"",""time""
""fullscreenenter"",""1"",""117272""
","
",,,,,,,,,,,,"[{""stimulus"":""run_exp/static/images/task_images/dig.jpg"",""time"":0},{""stimulus"":""run_exp/static/images/task_images/land.jpg"",""time"":982},{""stimulus"":""run_exp/static/images/task_images/dig.jpg"",""time"":1969}]",[],5,,,,,,,,,,,,,,
harvest,114,587864,0.0-36.0-1.0,"""event"",""trial"",""time""
""blur"",""1"",""3713""
""focus"",""1"",""4865""
""blur"",""1"",""5675""
""focus"",""1"",""7702""
""fullscreenenter"",""1"",""117272""
","""event"",""trial"",""time""
""blur"",""1"",""3713""
""blur"",""1"",""5675""
","""event"",""trial"",""time""
""focus"",""1"",""4865""
""focus"",""1"",""7702""
","""event"",""trial"",""time""
""fullscreenenter"",""1"",""117272""
","
",,null,run_exp/static/images/task_images/gems/24.jpg,null,,,,,,,14,,,5,,,,,24,0.570045082,0.583333333,,,,,,,
decision,115,587977,0.0-36.0-2.0,"""event"",""trial"",""time""
""blur"",""1"",""3713""
""focus"",""1"",""4865""
""blur"",""1"",""5675""
""focus"",""1"",""7702""
""fullscreenenter"",""1"",""117272""
","""event"",""trial"",""time""
""blur"",""1"",""3713""
""blur"",""1"",""5675""
","""event"",""trial"",""time""
""focus"",""1"",""4865""
""focus"",""1"",""7702""
","""event"",""trial"",""time""
""fullscreenenter"",""1"",""117272""
","
",,112,run_exp/static/images/task_images/land.jpg,76,,,,,,,14,,,5,,,,,,,,119056,1,2,TRUE,,,
travel,116,597875,0.0-37.0-0.0,"""event"",""trial"",""time""
""blur"",""1"",""3713""
""focus"",""1"",""4865""
""blur"",""1"",""5675""
""focus"",""1"",""7702""
""fullscreenenter"",""1"",""117272""
","""event"",""trial"",""time""
""blur"",""1"",""3713""
""blur"",""1"",""5675""
","""event"",""trial"",""time""
""focus"",""1"",""4865""
""focus"",""1"",""7702""
","""event"",""trial"",""time""
""fullscreenenter"",""1"",""117272""
","
",,,,,,,,,,,,"[{""stimulus"":""run_exp/static/images/task_images/rocket-01.jpg"",""time"":0},{""stimulus"":""run_exp/static/images/task_images/rocket-02.jpg"",""time"":1099},{""stimulus"":""run_exp/static/images/task_images/rocket-03.jpg"",""time"":2197},{""stimulus"":""run_exp/static/images/task_images/rocket-04.jpg"",""time"":3295},{""stimulus"":""run_exp/static/images/task_images/rocket-05.jpg"",""time"":4402},{""stimulus"":""run_exp/static/images/task_images/rocket-06.jpg"",""time"":5501},{""stimulus"":""run_exp/static/images/task_images/rocket-07.jpg"",""time"":6600},{""stimulus"":""run_exp/static/images/task_images/rocket-08.jpg"",""time"":7690},{""stimulus"":""run_exp/static/images/task_images/rocket-09.jpg"",""time"":8785}]",[],5,,,,,,,,,,,,,,
alien_welcome,117,602881,0.0-37.0-1.0,"""event"",""trial"",""time""
""blur"",""1"",""3713""
""focus"",""1"",""4865""
""blur"",""1"",""5675""
""focus"",""1"",""7702""
""fullscreenenter"",""1"",""117272""
","""event"",""trial"",""time""
""blur"",""1"",""3713""
""blur"",""1"",""5675""
","""event"",""trial"",""time""
""focus"",""1"",""4865""
""focus"",""1"",""7702""
","""event"",""trial"",""time""
""fullscreenenter"",""1"",""117272""
","
",,null,run_exp/static/images/task_images/aliens/old_aliens/planet/alien_planet-64.jpg,null,,,,,,,,,,,,,64,"14,17,63,28,27,64,1,37,68,67,62,61,43,42,8,54,46,41,16,36,49,59,33,69,11,19,2,24,71,70,51,47,26,29,34,38,66,80,44,9",,,,,,,,,,
land,118,603384,0.0-37.0-2.0,"""event"",""trial"",""time""
""blur"",""1"",""3713""
""focus"",""1"",""4865""
""blur"",""1"",""5675""
""focus"",""1"",""7702""
""fullscreenenter"",""1"",""117272""
","""event"",""trial"",""time""
""blur"",""1"",""3713""
""blur"",""1"",""5675""
","""event"",""trial"",""time""
""focus"",""1"",""4865""
""focus"",""1"",""7702""
","""event"",""trial"",""time""
""fullscreenenter"",""1"",""117272""
","
",,null,run_exp/static/images/task_images/land.jpg,null,,,,,,,104,,,6,,,,,,,,,,,,,,
dig,119,605395,0.0-37.0-3.0,"""event"",""trial"",""time""
""blur"",""1"",""3713""
""focus"",""1"",""4865""
""blur"",""1"",""5675""
""focus"",""1"",""7702""
""fullscreenenter"",""1"",""117272""
","""event"",""trial"",""time""
""blur"",""1"",""3713""
""blur"",""1"",""5675""
","""event"",""trial"",""time""
""focus"",""1"",""4865""
""focus"",""1"",""7702""
","""event"",""trial"",""time""
""fullscreenenter"",""1"",""117272""
","
",,,,,,,,,,,,"[{""stimulus"":""run_exp/static/images/task_images/dig.jpg"",""time"":0},{""stimulus"":""run_exp/static/images/task_images/land.jpg"",""time"":672},{""stimulus"":""run_exp/static/images/task_images/dig.jpg"",""time"":1338}]",[],6,,,,,,,,,,,,,,
harvest,120,606409,0.0-37.0-4.0,"""event"",""trial"",""time""
""blur"",""1"",""3713""
""focus"",""1"",""4865""
""blur"",""1"",""5675""
""focus"",""1"",""7702""
""fullscreenenter"",""1"",""117272""
","""event"",""trial"",""time""
""blur"",""1"",""3713""
""blur"",""1"",""5675""
","""event"",""trial"",""time""
""focus"",""1"",""4865""
""focus"",""1"",""7702""
","""event"",""trial"",""time""
""fullscreenenter"",""1"",""117272""
","
",,null,run_exp/static/images/task_images/gems/104.jpg,null,,,,,,,88,,,6,,,,,104,0.845066012,0.846153846,,,,,,,
decision,121,606438,0.0-37.0-5.0,"""event"",""trial"",""time""
""blur"",""1"",""3713""
""focus"",""1"",""4865""
""blur"",""1"",""5675""
""focus"",""1"",""7702""
""fullscreenenter"",""1"",""117272""
","""event"",""trial"",""time""
""blur"",""1"",""3713""
""blur"",""1"",""5675""
","""event"",""trial"",""time""
""focus"",""1"",""4865""
""focus"",""1"",""7702""
","""event"",""trial"",""time""
""fullscreenenter"",""1"",""117272""
","
",,28,run_exp/static/images/task_images/land.jpg,65,,,,,,,88,,,6,,,,,,,,137518,1,0,FALSE,,,
dig,122,609419,0.0-38.0-0.0,"""event"",""trial"",""time""
""blur"",""1"",""3713""
""focus"",""1"",""4865""
""blur"",""1"",""5675""
""focus"",""1"",""7702""
""fullscreenenter"",""1"",""117272""
","""event"",""trial"",""time""
""blur"",""1"",""3713""
""blur"",""1"",""5675""
","""event"",""trial"",""time""
""focus"",""1"",""4865""
""focus"",""1"",""7702""
","""event"",""trial"",""time""
""fullscreenenter"",""1"",""117272""
","
",,,,,,,,,,,,"[{""stimulus"":""run_exp/static/images/task_images/dig.jpg"",""time"":0},{""stimulus"":""run_exp/static/images/task_images/land.jpg"",""time"":996},{""stimulus"":""run_exp/static/images/task_images/dig.jpg"",""time"":1988}]",[],6,,,,,,,,,,,,,,
harvest,123,610435,0.0-38.0-1.0,"""event"",""trial"",""time""
""blur"",""1"",""3713""
""focus"",""1"",""4865""
""blur"",""1"",""5675""
""focus"",""1"",""7702""
""fullscreenenter"",""1"",""117272""
","""event"",""trial"",""time""
""blur"",""1"",""3713""
""blur"",""1"",""5675""
","""event"",""trial"",""time""
""focus"",""1"",""4865""
""focus"",""1"",""7702""
","""event"",""trial"",""time""
""fullscreenenter"",""1"",""117272""
","
",,null,run_exp/static/images/task_images/gems/88.jpg,null,,,,,,,70,,,6,,,,,88,0.797530383,0.795454545,,,,,,,
decision,124,610529,0.0-38.0-2.0,"""event"",""trial"",""time""
""blur"",""1"",""3713""
""focus"",""1"",""4865""
""blur"",""1"",""5675""
""focus"",""1"",""7702""
""fullscreenenter"",""1"",""117272""
","""event"",""trial"",""time""
""blur"",""1"",""3713""
""blur"",""1"",""5675""
","""event"",""trial"",""time""
""focus"",""1"",""4865""
""focus"",""1"",""7702""
","""event"",""trial"",""time""
""fullscreenenter"",""1"",""117272""
","
",,93,run_exp/static/images/task_images/land.jpg,65,,,,,,,70,,,6,,,,,,,,141608,1,1,FALSE,,,
dig,125,613444,0.0-39.0-0.0,"""event"",""trial"",""time""
""blur"",""1"",""3713""
""focus"",""1"",""4865""
""blur"",""1"",""5675""
""focus"",""1"",""7702""
""fullscreenenter"",""1"",""117272""
","""event"",""trial"",""time""
""blur"",""1"",""3713""
""blur"",""1"",""5675""
","""event"",""trial"",""time""
""focus"",""1"",""4865""
""focus"",""1"",""7702""
","""event"",""trial"",""time""
""fullscreenenter"",""1"",""117272""
","
",,,,,,,,,,,,"[{""stimulus"":""run_exp/static/images/task_images/dig.jpg"",""time"":0},{""stimulus"":""run_exp/static/images/task_images/land.jpg"",""time"":980},{""stimulus"":""run_exp/static/images/task_images/dig.jpg"",""time"":1945}]",[],6,,,,,,,,,,,,,,
harvest,126,614459,0.0-39.0-1.0,"""event"",""trial"",""time""
""blur"",""1"",""3713""
""focus"",""1"",""4865""
""blur"",""1"",""5675""
""focus"",""1"",""7702""
""fullscreenenter"",""1"",""117272""
","""event"",""trial"",""time""
""blur"",""1"",""3713""
""blur"",""1"",""5675""
","""event"",""trial"",""time""
""focus"",""1"",""4865""
""focus"",""1"",""7702""
","""event"",""trial"",""time""
""fullscreenenter"",""1"",""117272""
","
",,null,run_exp/static/images/task_images/gems/70.jpg,null,,,,,,,55,,,6,,,,,70,0.790094265,0.785714286,,,,,,,
decision,127,614472,0.0-39.0-2.0,"""event"",""trial"",""time""
""blur"",""1"",""3713""
""focus"",""1"",""4865""
""blur"",""1"",""5675""
""focus"",""1"",""7702""
""fullscreenenter"",""1"",""117272""
","""event"",""trial"",""time""
""blur"",""1"",""3713""
""blur"",""1"",""5675""
","""event"",""trial"",""time""
""focus"",""1"",""4865""
""focus"",""1"",""7702""
","""event"",""trial"",""time""
""fullscreenenter"",""1"",""117272""
","
",,11,run_exp/static/images/task_images/land.jpg,65,,,,,,,55,,,6,,,,,,,,145551,1,2,FALSE,,,
dig,128,617476,0.0-40.0-0.0,"""event"",""trial"",""time""
""blur"",""1"",""3713""
""focus"",""1"",""4865""
""blur"",""1"",""5675""
""focus"",""1"",""7702""
""fullscreenenter"",""1"",""117272""
","""event"",""trial"",""time""
""blur"",""1"",""3713""
""blur"",""1"",""5675""
","""event"",""trial"",""time""
""focus"",""1"",""4865""
""focus"",""1"",""7702""
","""event"",""trial"",""time""
""fullscreenenter"",""1"",""117272""
","
",,,,,,,,,,,,"[{""stimulus"":""run_exp/static/images/task_images/dig.jpg"",""time"":0},{""stimulus"":""run_exp/static/images/task_images/land.jpg"",""time"":1003},{""stimulus"":""run_exp/static/images/task_images/dig.jpg"",""time"":2003}]",[],6,,,,,,,,,,,,,,
harvest,129,618478,0.0-40.0-1.0,"""event"",""trial"",""time""
""blur"",""1"",""3713""
""focus"",""1"",""4865""
""blur"",""1"",""5675""
""focus"",""1"",""7702""
""fullscreenenter"",""1"",""117272""
","""event"",""trial"",""time""
""blur"",""1"",""3713""
""blur"",""1"",""5675""
","""event"",""trial"",""time""
""focus"",""1"",""4865""
""focus"",""1"",""7702""
","""event"",""trial"",""time""
""fullscreenenter"",""1"",""117272""
","
",,null,run_exp/static/images/task_images/gems/55.jpg,null,,,,,,,49,,,6,,,,,55,0.882420113,0.890909091,,,,,,,
decision,130,618642,0.0-40.0-2.0,"""event"",""trial"",""time""
""blur"",""1"",""3713""
""focus"",""1"",""4865""
""blur"",""1"",""5675""
""focus"",""1"",""7702""
""fullscreenenter"",""1"",""117272""
","""event"",""trial"",""time""
""blur"",""1"",""3713""
""blur"",""1"",""5675""
","""event"",""trial"",""time""
""focus"",""1"",""4865""
""focus"",""1"",""7702""
","""event"",""trial"",""time""
""fullscreenenter"",""1"",""117272""
","
",,162,run_exp/static/images/task_images/land.jpg,65,,,,,,,49,,,6,,,,,,,,149721,1,3,FALSE,,,
dig,131,621490,0.0-41.0-0.0,"""event"",""trial"",""time""
""blur"",""1"",""3713""
""focus"",""1"",""4865""
""blur"",""1"",""5675""
""focus"",""1"",""7702""
""fullscreenenter"",""1"",""117272""
","""event"",""trial"",""time""
""blur"",""1"",""3713""
""blur"",""1"",""5675""
","""event"",""trial"",""time""
""focus"",""1"",""4865""
""focus"",""1"",""7702""
","""event"",""trial"",""time""
""fullscreenenter"",""1"",""117272""
","
",,,,,,,,,,,,"[{""stimulus"":""run_exp/static/images/task_images/dig.jpg"",""time"":0},{""stimulus"":""run_exp/static/images/task_images/land.jpg"",""time"":958},{""stimulus"":""run_exp/static/images/task_images/dig.jpg"",""time"":1907}]",[],6,,,,,,,,,,,,,,
harvest,132,622504,0.0-41.0-1.0,"""event"",""trial"",""time""
""blur"",""1"",""3713""
""focus"",""1"",""4865""
""blur"",""1"",""5675""
""focus"",""1"",""7702""
""fullscreenenter"",""1"",""117272""
","""event"",""trial"",""time""
""blur"",""1"",""3713""
""blur"",""1"",""5675""
","""event"",""trial"",""time""
""focus"",""1"",""4865""
""focus"",""1"",""7702""
","""event"",""trial"",""time""
""fullscreenenter"",""1"",""117272""
","
",,null,run_exp/static/images/task_images/gems/49.jpg,null,,,,,,,40,,,6,,,,,49,0.825720136,0.816326531,,,,,,,
decision,133,622614,0.0-41.0-2.0,"""event"",""trial"",""time""
""blur"",""1"",""3713""
""focus"",""1"",""4865""
""blur"",""1"",""5675""
""focus"",""1"",""7702""
""fullscreenenter"",""1"",""117272""
","""event"",""trial"",""time""
""blur"",""1"",""3713""
""blur"",""1"",""5675""
","""event"",""trial"",""time""
""focus"",""1"",""4865""
""focus"",""1"",""7702""
","""event"",""trial"",""time""
""fullscreenenter"",""1"",""117272""
","
",,110,run_exp/static/images/task_images/land.jpg,65,,,,,,,40,,,6,,,,,,,,153693,1,4,FALSE,,,
dig,134,625512,0.0-42.0-0.0,"""event"",""trial"",""time""
""blur"",""1"",""3713""
""focus"",""1"",""4865""
""blur"",""1"",""5675""
""focus"",""1"",""7702""
""fullscreenenter"",""1"",""117272""
","""event"",""trial"",""time""
""blur"",""1"",""3713""
""blur"",""1"",""5675""
","""event"",""trial"",""time""
""focus"",""1"",""4865""
""focus"",""1"",""7702""
","""event"",""trial"",""time""
""fullscreenenter"",""1"",""117272""
","
",,,,,,,,,,,,"[{""stimulus"":""run_exp/static/images/task_images/dig.jpg"",""time"":0},{""stimulus"":""run_exp/static/images/task_images/land.jpg"",""time"":967},{""stimulus"":""run_exp/static/images/task_images/dig.jpg"",""time"":1937}]",[],6,,,,,,,,,,,,,,
harvest,135,626517,0.0-42.0-1.0,"""event"",""trial"",""time""
""blur"",""1"",""3713""
""focus"",""1"",""4865""
""blur"",""1"",""5675""
""focus"",""1"",""7702""
""fullscreenenter"",""1"",""117272""
","""event"",""trial"",""time""
""blur"",""1"",""3713""
""blur"",""1"",""5675""
","""event"",""trial"",""time""
""focus"",""1"",""4865""
""focus"",""1"",""7702""
","""event"",""trial"",""time""
""fullscreenenter"",""1"",""117272""
","
",,null,run_exp/static/images/task_images/gems/40.jpg,null,,,,,,,33,,,6,,,,,40,0.813956065,0.825,,,,,,,
decision,136,626586,0.0-42.0-2.0,"""event"",""trial"",""time""
""blur"",""1"",""3713""
""focus"",""1"",""4865""
""blur"",""1"",""5675""
""focus"",""1"",""7702""
""fullscreenenter"",""1"",""117272""
","""event"",""trial"",""time""
""blur"",""1"",""3713""
""blur"",""1"",""5675""
","""event"",""trial"",""time""
""focus"",""1"",""4865""
""focus"",""1"",""7702""
","""event"",""trial"",""time""
""fullscreenenter"",""1"",""117272""
","
",,66,run_exp/static/images/task_images/land.jpg,65,,,,,,,33,,,6,,,,,,,,157665,1,5,FALSE,,,
dig,137,629530,0.0-43.0-0.0,"""event"",""trial"",""time""
""blur"",""1"",""3713""
""focus"",""1"",""4865""
""blur"",""1"",""5675""
""focus"",""1"",""7702""
""fullscreenenter"",""1"",""117272""
","""event"",""trial"",""time""
""blur"",""1"",""3713""
""blur"",""1"",""5675""
","""event"",""trial"",""time""
""focus"",""1"",""4865""
""focus"",""1"",""7702""
","""event"",""trial"",""time""
""fullscreenenter"",""1"",""117272""
","
",,,,,,,,,,,,"[{""stimulus"":""run_exp/static/images/task_images/dig.jpg"",""time"":0},{""stimulus"":""run_exp/static/images/task_images/land.jpg"",""time"":993},{""stimulus"":""run_exp/static/images/task_images/dig.jpg"",""time"":1962}]",[],6,,,,,,,,,,,,,,
harvest,138,630547,0.0-43.0-1.0,"""event"",""trial"",""time""
""blur"",""1"",""3713""
""focus"",""1"",""4865""
""blur"",""1"",""5675""
""focus"",""1"",""7702""
""fullscreenenter"",""1"",""117272""
","""event"",""trial"",""time""
""blur"",""1"",""3713""
""blur"",""1"",""5675""
","""event"",""trial"",""time""
""focus"",""1"",""4865""
""focus"",""1"",""7702""
","""event"",""trial"",""time""
""fullscreenenter"",""1"",""117272""
","
",,null,run_exp/static/images/task_images/gems/33.jpg,null,,,,,,,27,,,6,,,,,33,0.830476985,0.818181818,,,,,,,
decision,139,630713,0.0-43.0-2.0,"""event"",""trial"",""time""
""blur"",""1"",""3713""
""focus"",""1"",""4865""
""blur"",""1"",""5675""
""focus"",""1"",""7702""
""fullscreenenter"",""1"",""117272""
","""event"",""trial"",""time""
""blur"",""1"",""3713""
""blur"",""1"",""5675""
","""event"",""trial"",""time""
""focus"",""1"",""4865""
""focus"",""1"",""7702""
","""event"",""trial"",""time""
""fullscreenenter"",""1"",""117272""
","
",,165,run_exp/static/images/task_images/land.jpg,76,,,,,,,27,,,6,,,,,,,,161792,1,6,TRUE,,,
travel,140,640544,0.0-44.0-0.0,"""event"",""trial"",""time""
""blur"",""1"",""3713""
""focus"",""1"",""4865""
""blur"",""1"",""5675""
""focus"",""1"",""7702""
""fullscreenenter"",""1"",""117272""
","""event"",""trial"",""time""
""blur"",""1"",""3713""
""blur"",""1"",""5675""
","""event"",""trial"",""time""
""focus"",""1"",""4865""
""focus"",""1"",""7702""
","""event"",""trial"",""time""
""fullscreenenter"",""1"",""117272""
","
",,,,,,,,,,,,"[{""stimulus"":""run_exp/static/images/task_images/rocket-01.jpg"",""time"":0},{""stimulus"":""run_exp/static/images/task_images/rocket-02.jpg"",""time"":1093},{""stimulus"":""run_exp/static/images/task_images/rocket-03.jpg"",""time"":2198},{""stimulus"":""run_exp/static/images/task_images/rocket-04.jpg"",""time"":3291},{""stimulus"":""run_exp/static/images/task_images/rocket-05.jpg"",""time"":4368},{""stimulus"":""run_exp/static/images/task_images/rocket-06.jpg"",""time"":5462},{""stimulus"":""run_exp/static/images/task_images/rocket-07.jpg"",""time"":6556},{""stimulus"":""run_exp/static/images/task_images/rocket-08.jpg"",""time"":7652},{""stimulus"":""run_exp/static/images/task_images/rocket-09.jpg"",""time"":8740}]",[],6,,,,,,,,,,,,,,
alien_welcome,141,645562,0.0-44.0-1.0,"""event"",""trial"",""time""
""blur"",""1"",""3713""
""focus"",""1"",""4865""
""blur"",""1"",""5675""
""focus"",""1"",""7702""
""fullscreenenter"",""1"",""117272""
","""event"",""trial"",""time""
""blur"",""1"",""3713""
""blur"",""1"",""5675""
","""event"",""trial"",""time""
""focus"",""1"",""4865""
""focus"",""1"",""7702""
","""event"",""trial"",""time""
""fullscreenenter"",""1"",""117272""
","
",,null,run_exp/static/images/task_images/aliens/old_aliens/planet/alien_planet-1.jpg,null,,,,,,,,,,,,,1,"14,17,63,28,27,64,1,37,68,67,62,61,43,42,8,54,46,41,16,36,49,59,33,69,11,19,2,24,71,70,51,47,26,29,34,38,66,80,44,9",,,,,,,,,,
land,142,646076,0.0-44.0-2.0,"""event"",""trial"",""time""
""blur"",""1"",""3713""
""focus"",""1"",""4865""
""blur"",""1"",""5675""
""focus"",""1"",""7702""
""fullscreenenter"",""1"",""117272""
","""event"",""trial"",""time""
""blur"",""1"",""3713""
""blur"",""1"",""5675""
","""event"",""trial"",""time""
""focus"",""1"",""4865""
""focus"",""1"",""7702""
","""event"",""trial"",""time""
""fullscreenenter"",""1"",""117272""
","
",,null,run_exp/static/images/task_images/land.jpg,null,,,,,,,104,,,7,,,,,,,,,,,,,,
dig,143,648083,0.0-44.0-3.0,"""event"",""trial"",""time""
""blur"",""1"",""3713""
""focus"",""1"",""4865""
""blur"",""1"",""5675""
""focus"",""1"",""7702""
""fullscreenenter"",""1"",""117272""
","""event"",""trial"",""time""
""blur"",""1"",""3713""
""blur"",""1"",""5675""
","""event"",""trial"",""time""
""focus"",""1"",""4865""
""focus"",""1"",""7702""
","""event"",""trial"",""time""
""fullscreenenter"",""1"",""117272""
","
",,,,,,,,,,,,"[{""stimulus"":""run_exp/static/images/task_images/dig.jpg"",""time"":0},{""stimulus"":""run_exp/static/images/task_images/land.jpg"",""time"":682},{""stimulus"":""run_exp/static/images/task_images/dig.jpg"",""time"":1338}]",[],7,,,,,,,,,,,,,,
harvest,144,649097,0.0-44.0-4.0,"""event"",""trial"",""time""
""blur"",""1"",""3713""
""focus"",""1"",""4865""
""blur"",""1"",""5675""
""focus"",""1"",""7702""
""fullscreenenter"",""1"",""117272""
","""event"",""trial"",""time""
""blur"",""1"",""3713""
""blur"",""1"",""5675""
","""event"",""trial"",""time""
""focus"",""1"",""4865""
""focus"",""1"",""7702""
","""event"",""trial"",""time""
""fullscreenenter"",""1"",""117272""
","
",,null,run_exp/static/images/task_images/gems/104.jpg,null,,,,,,,96,,,7,,,,,104,0.926635711,0.923076923,,,,,,,
decision,145,649192,0.0-44.0-5.0,"""event"",""trial"",""time""
""blur"",""1"",""3713""
""focus"",""1"",""4865""
""blur"",""1"",""5675""
""focus"",""1"",""7702""
""fullscreenenter"",""1"",""117272""
","""event"",""trial"",""time""
""blur"",""1"",""3713""
""blur"",""1"",""5675""
","""event"",""trial"",""time""
""focus"",""1"",""4865""
""focus"",""1"",""7702""
","""event"",""trial"",""time""
""fullscreenenter"",""1"",""117272""
","
",,94,run_exp/static/images/task_images/land.jpg,65,,,,,,,96,,,7,,,,,,,,180271,1,0,FALSE,,,
dig,146,652101,0.0-45.0-0.0,"""event"",""trial"",""time""
""blur"",""1"",""3713""
""focus"",""1"",""4865""
""blur"",""1"",""5675""
""focus"",""1"",""7702""
""fullscreenenter"",""1"",""117272""
","""event"",""trial"",""time""
""blur"",""1"",""3713""
""blur"",""1"",""5675""
","""event"",""trial"",""time""
""focus"",""1"",""4865""
""focus"",""1"",""7702""
","""event"",""trial"",""time""
""fullscreenenter"",""1"",""117272""
","
",,,,,,,,,,,,"[{""stimulus"":""run_exp/static/images/task_images/dig.jpg"",""time"":0},{""stimulus"":""run_exp/static/images/task_images/land.jpg"",""time"":982},{""stimulus"":""run_exp/static/images/task_images/dig.jpg"",""time"":1951}]",[],7,,,,,,,,,,,,,,
harvest,147,653117,0.0-45.0-1.0,"""event"",""trial"",""time""
""blur"",""1"",""3713""
""focus"",""1"",""4865""
""blur"",""1"",""5675""
""focus"",""1"",""7702""
""fullscreenenter"",""1"",""117272""
","""event"",""trial"",""time""
""blur"",""1"",""3713""
""blur"",""1"",""5675""
","""event"",""trial"",""time""
""focus"",""1"",""4865""
""focus"",""1"",""7702""
","""event"",""trial"",""time""
""fullscreenenter"",""1"",""117272""
","
",,null,run_exp/static/images/task_images/gems/96.jpg,null,,,,,,,80,,,7,,,,,96,0.831375248,0.833333333,,,,,,,
decision,148,653506,0.0-45.0-2.0,"""event"",""trial"",""time""
""blur"",""1"",""3713""
""focus"",""1"",""4865""
""blur"",""1"",""5675""
""focus"",""1"",""7702""
""fullscreenenter"",""1"",""117272""
","""event"",""trial"",""time""
""blur"",""1"",""3713""
""blur"",""1"",""5675""
","""event"",""trial"",""time""
""focus"",""1"",""4865""
""focus"",""1"",""7702""
","""event"",""trial"",""time""
""fullscreenenter"",""1"",""117272""
","
",,388,run_exp/static/images/task_images/land.jpg,65,,,,,,,80,,,7,,,,,,,,184585,1,1,FALSE,,,
dig,149,656132,0.0-46.0-0.0,"""event"",""trial"",""time""
""blur"",""1"",""3713""
""focus"",""1"",""4865""
""blur"",""1"",""5675""
""focus"",""1"",""7702""
""fullscreenenter"",""1"",""117272""
