trial_type,trial_index,time_elapsed,internal_node_id,success,rt,stimulus,key_press,prompt,subject_id,age,gender,button_pressed,next_reward,animation_sequence,responses,planet,curr_prac_trial,n_prac_rounds,alien,aliens,reward_received,decay_rate_actual,decay_rate_exp,time_in_block,block_num,prt,last_trial_on_planet,button_html,bonus,num_failures
pavlovia,0,7,0.0-0.0,,,,,,,,,,,,,,,,,,,,,,,,,,,
fullscreen,1,15275,0.0-1.0,TRUE,,,,,,,,,,,,,,,,,,,,,,,,,,
instruc_welcome,2,25272,0.0-2.0,,null,run_exp/static/audio/clip_1_welcome.m4a,null,"<p>Howdy! In this experiment, you’ll be an explorer traveling through space to collect space treasure.</p><p>Your mission is to collect as much treasure as possible.</p><br><br><p><img src='run_exp/static/images/task_images/opening_img-01.jpg' height='300' width='auto'></p>",TWHKk5jGgmBhUct_a5Ke5UddwllDBGZ_MLRP_9LfN43n2WRrtwbQ,8.22,male,,,,,,,,,,,,,,,,,,,
audio-keyboard-response,3,41967,0.0-3.0,,null,run_exp/static/audio/clip_2_move.m4a,null,,,,,,,,,,,,,,,,,,,,,,,
welcome_dec,4,56227,0.0-4.0,,14256.17,"<p>Howdy! In this experiment, you’ll be an explorer traveling through space to collect space treasure.</p><p>Your mission is to collect as much treasure as possible.</p><br><br><p><img src='run_exp/static/images/task_images/opening_img-01.jpg' height='300' width='auto'></p>",,,,,,1,,,,,,,,,,,,,,,,,,
html-keyboard-response,5,58088,0.0-5.0,,1857.465,"<p>Howdy! In this experiment, you’ll be an explorer traveling through space to collect space treasure.</p><p>Your mission is to collect as much treasure as possible.</p><br><br><p><img src='run_exp/static/images/task_images/opening_img-01.jpg' height='300' width='auto'></p><button class=""jspsych-html-btn-unchosen""><img src=""run_exp/static/images/task_images/planet-01.jpg"" height=""50""></button><button class=""jspsych-html-btn-chosen""><img src=""run_exp/static/images/task_images/planet-02.jpg"" height=""50""></button><p><b>[press the space bar to lock in your answer]<b><br></p>",32,,,,,,,,,,,,,,,,,,,,,,,
instruc_goal,6,68159,0.0-6.0-0.0,,null,run_exp/static/audio/clip_3_goal.m4a,null,"<p> As a space explorer, you’ll visit different planets to dig for space treasure, these pink gems.</p> <p> The more treasure you dig up, the more bonus money you’ll win! </p><br><br><p><img src='run_exp/static/images/task_images/pink_gem.jpg' height='300' width='auto'></p>",,,,,,,,,,,,,,,,,,,,,,
instruc_goal,7,71869,0.0-6.0-1.0,,3707.475,"<p> As a space explorer, you’ll visit different planets to dig for space treasure, these pink gems.</p> <p> The more treasure you dig up, the more bonus money you’ll win! </p><br><br><p><img src='run_exp/static/images/task_images/pink_gem.jpg' height='300' width='auto'></p>",,,,,,1,,,,,,,,,,,,,,,,,,
html-keyboard-response,8,73208,0.0-6.0-2.0,,1336.57,"<p> As a space explorer, you’ll visit different planets to dig for space treasure, these pink gems.</p> <p> The more treasure you dig up, the more bonus money you’ll win! </p><br><br><p><img src='run_exp/static/images/task_images/pink_gem.jpg' height='300' width='auto'></p><button class=""jspsych-html-btn-unchosen""><img src=""run_exp/static/images/task_images/planet-01.jpg"" height=""50""></button><button class=""jspsych-html-btn-chosen""><img src=""run_exp/static/images/task_images/planet-02.jpg"" height=""50""></button><p><b>[press the space bar to lock in your answer]<b><br></p>",32,,,,,,,,,,,,,,,,,,,,,,,
instruc_dig,9,89243,0.0-7.0-0.0,,null,run_exp/static/audio/clip_4_dig.m4a,null,,,,,,100,,,,,,,,,,,,,,,,,
instruc_dig_try,10,89726,0.0-7.0-1.0,,481.585,"<p> When you’ve arrived at a new planet, you will dig once. </p> <p>Then, you get to decide if you want to stay on the planet and dig again or travel to a new planet and dig there.</p> <p> To stay and dig, press the letter <strong>‘A’</strong> on your keyboard. Try pressing it now! </p><p><img src='run_exp/static/images/task_images/land.jpg'  height='700' width='auto'></p>",65,"<p> When you’ve arrived at a new planet, you will dig once. </p> <p>Then, you get to decide if you want to stay on the planet and dig again or travel to a new planet and dig there.</p> <p> To stay and dig, press the letter <strong>‘A’</strong> on your keyboard. Try pressing it now! </p><p><img src='run_exp/static/images/task_images/land.jpg'  height='700' width='auto'></p>",,,,,100,,,,,,,,,,,,,,,,,
dig_prac,11,91743,0.0-7.0-2.0,,,,,,,,,,,"[{""stimulus"":""run_exp/static/images/task_images/dig.jpg"",""time"":0.3000000142492354},{""stimulus"":""run_exp/static/images/task_images/land.jpg"",""time"":668.9750000077765},{""stimulus"":""run_exp/static/images/task_images/dig.jpg"",""time"":1338.610000006156}]",[],,,,,,,,,,,,,,,
instruc_travel,12,127998,0.0-7.0-3.0,,null,run_exp/static/audio/clip_5_travel.m4a,null,"<p>Every time you dig up gems, there are less gems on the planet, so the more you dig on a planet the fewer gems you’ll get with each dig.</p><p>When gems are running low, you may want to travel to a new planet. </p> <p>  Planets are very far apart in this galaxy, so it will take some time to travel between them. </p> <br><p>There are lots and lots of planets for you to visit, so you won’t be able to return to any planets you’ve seen before. </p><br><p>To leave this planet and travel to a new one, press the letter <strong>‘L’</strong> on your keyboard. Try pressing it now! </p><p><img src='run_exp/static/images/task_images/rocket-01.jpg'  height='600' width='auto'></p>",,,,,,,,,,,,,,,,,,,,,,
instruc_travel_try,13,128522,0.0-7.0-4.0,,523.135,"<p>Every time you dig up gems, there are less gems on the planet, so the more you dig on a planet the fewer gems you’ll get with each dig.</p><p>When gems are running low, you may want to travel to a new planet. </p> <p>  Planets are very far apart in this galaxy, so it will take some time to travel between them. </p> <br><p>There are lots and lots of planets for you to visit, so you won’t be able to return to any planets you’ve seen before. </p><br><p>To leave this planet and travel to a new one, press the letter <strong>‘L’</strong> on your keyboard. Try pressing it now! </p><p><img src='run_exp/static/images/task_images/rocket-01.jpg'  height='600' width='auto'></p>",76,"<p>Every time you dig up gems, there are less gems on the planet, so the more you dig on a planet the fewer gems you’ll get with each dig.</p><p>When gems are running low, you may want to travel to a new planet. </p> <p>  Planets are very far apart in this galaxy, so it will take some time to travel between them. </p> <br><p>There are lots and lots of planets for you to visit, so you won’t be able to return to any planets you’ve seen before. </p><br><p>To leave this planet and travel to a new one, press the letter <strong>‘L’</strong> on your keyboard. Try pressing it now! </p><p><img src='run_exp/static/images/task_images/rocket-01.jpg'  height='600' width='auto'></p>",,,,,,,,,,,,,,,,,,,,,,
travel_prac,14,138529,0.0-7.0-5.0,,,,,,,,,,,"[{""stimulus"":""run_exp/static/images/task_images/rocket-01.jpg"",""time"":0.32500000088475645},{""stimulus"":""run_exp/static/images/task_images/rocket-02.jpg"",""time"":1113.9149999944493},{""stimulus"":""run_exp/static/images/task_images/rocket-03.jpg"",""time"":2228.2450000056997},{""stimulus"":""run_exp/static/images/task_images/rocket-04.jpg"",""time"":3338.1999999983236},{""stimulus"":""run_exp/static/images/task_images/rocket-05.jpg"",""time"":4445.340000005672},{""stimulus"":""run_exp/static/images/task_images/rocket-06.jpg"",""time"":5557.9950000101235},{""stimulus"":""run_exp/static/images/task_images/rocket-07.jpg"",""time"":6668.490000010934},{""stimulus"":""run_exp/static/images/task_images/rocket-08.jpg"",""time"":7778.200000000652},{""stimulus"":""run_exp/static/images/task_images/rocket-09.jpg"",""time"":8892.380000004778}]",[],0,,,,,,,,,,,,,,
instruc_alien_greet,15,165731,0.0-7.0-6.0,,null,run_exp/static/audio/clip_6_alien.m4a,null,"<p>When you arrive at a new planet, the alien who owns the treasure mine on that planet will greet you!</p><p>The better an alien takes care of their mine the easier it is to dig for gems. Some aliens take better care of their mine than others. So, you won’t get exactly the same amount of gems on each planet.</p><p>What the alien looks like does not tell you anything about how many gems there are on the planet.</p><br><p><img src=""run_exp/static/images/task_images/aliens/instructions_aliens/planet/alien_planet-1.jpg""  height=""600"" width=""auto""></p>",,,,,,,,,,,,,,,,,,,,,,
instruc_alien_greet,16,196275,0.0-7.0-7.0,,30541.26,"<p>When you arrive at a new planet, the alien who owns the treasure mine on that planet will greet you!</p><p>The better an alien takes care of their mine the easier it is to dig for gems. Some aliens take better care of their mine than others. So, you won’t get exactly the same amount of gems on each planet.</p><p>What the alien looks like does not tell you anything about how many gems there are on the planet.</p><br><p><img src=""run_exp/static/images/task_images/aliens/instructions_aliens/planet/alien_planet-1.jpg""  height=""600"" width=""auto""></p>",,,,,,1,,,,,,,,,,,,,,,,,,
html-keyboard-response,17,197833,0.0-7.0-8.0,,1555.775,"<p>When you arrive at a new planet, the alien who owns the treasure mine on that planet will greet you!</p><p>The better an alien takes care of their mine the easier it is to dig for gems. Some aliens take better care of their mine than others. So, you won’t get exactly the same amount of gems on each planet.</p><p>What the alien looks like does not tell you anything about how many gems there are on the planet.</p><br><p><img src=""run_exp/static/images/task_images/aliens/instructions_aliens/planet/alien_planet-1.jpg""  height=""600"" width=""auto""></p><button class=""jspsych-html-btn-unchosen""><img src=""run_exp/static/images/task_images/planet-01.jpg"" height=""50""></button><button class=""jspsych-html-btn-chosen""><img src=""run_exp/static/images/task_images/planet-02.jpg"" height=""50""></button><p><b>[press the space bar to lock in your answer]<b><br></p>",32,,,,,,,,,,,,,,,,,,,,,,,
time_out,18,209048,0.0-8.0-0.0,,null,run_exp/static/audio/clip_7_timeout.m4a,null,"<p>If you don't make your choice fast enough, you’ll have to wait a few seconds before you can make another one.</p><p>You can’t dig for more gems or travel to new planets. You just have to sit and wait.</p><br><p><img src='run_exp/static/images/task_images/time_out.jpg'  height='600' width='auto'></p>",,,,,,,,,,,,,,,,,,,,,,
time_out,19,210870,0.0-8.0-1.0,,1819.58,"<p>If you don't make your choice fast enough, you’ll have to wait a few seconds before you can make another one.</p><p>You can’t dig for more gems or travel to new planets. You just have to sit and wait.</p><br><p><img src='run_exp/static/images/task_images/time_out.jpg'  height='600' width='auto'></p>",,,,,,1,,,,,,,,,,,,,,,,,,
html-keyboard-response,20,213003,0.0-8.0-2.0,,2131.875,"<p>If you don't make your choice fast enough, you’ll have to wait a few seconds before you can make another one.</p><p>You can’t dig for more gems or travel to new planets. You just have to sit and wait.</p><br><p><img src='run_exp/static/images/task_images/time_out.jpg'  height='600' width='auto'></p><button class=""jspsych-html-btn-unchosen""><img src=""run_exp/static/images/task_images/planet-01.jpg"" height=""50""></button><button class=""jspsych-html-btn-chosen""><img src=""run_exp/static/images/task_images/planet-02.jpg"" height=""50""></button><p><b>[press the space bar to lock in your answer]<b><br></p>",32,,,,,,,,,,,,,,,,,,,,,,,
instruc_break,21,228669,0.0-9.0-0.0,,null,run_exp/static/audio/clip_8_break.m4a,null,"<p> After digging and traveling for a while, you’ll be able to take a break at home base. </p><p>The game will last 20 minutes no matter what.</p><p>You will visit home base every 5 minutes, so, you will visit home base three times during the game.</p><br><p><img src='run_exp/static/images/task_images/home_base.jpg' height='600' width='auto'></p>",,,,,,,,,,,,,,,,,,,,,,
instruc_break,22,230600,0.0-9.0-1.0,,1928.385,"<p> After digging and traveling for a while, you’ll be able to take a break at home base. </p><p>The game will last 20 minutes no matter what.</p><p>You will visit home base every 5 minutes, so, you will visit home base three times during the game.</p><br><p><img src='run_exp/static/images/task_images/home_base.jpg' height='600' width='auto'></p>",,,,,,1,,,,,,,,,,,,,,,,,,
html-keyboard-response,23,231594,0.0-9.0-2.0,,992.285,"<p> After digging and traveling for a while, you’ll be able to take a break at home base. </p><p>The game will last 20 minutes no matter what.</p><p>You will visit home base every 5 minutes, so, you will visit home base three times during the game.</p><br><p><img src='run_exp/static/images/task_images/home_base.jpg' height='600' width='auto'></p><button class=""jspsych-html-btn-unchosen""><img src=""run_exp/static/images/task_images/planet-01.jpg"" height=""50""></button><button class=""jspsych-html-btn-chosen""><img src=""run_exp/static/images/task_images/planet-02.jpg"" height=""50""></button><p><b>[press the space bar to lock in your answer]<b><br></p>",32,,,,,,,,,,,,,,,,,,,,,,,
instruc_prac_game,24,241742,0.0-10.0-0.0,,null,run_exp/static/audio/clip_9_practice.m4a,null,"<p> Are you ready to play a practice game? </p> <p>In this practice game, you'll be digging up barrels of gems. But, in the real game, you'll be digging up the gems themselves. </p>",,,,,,,,,,,,,,,,,,,,,,
html-button-response,25,243481,0.0-10.0-1.0,,1737.115,"<p> Are you ready to play a practice game? </p> <p>In this practice game, you'll be digging up barrels of gems. But, in the real game, you'll be digging up the gems themselves. </p>",,,,,,0,,,,,,,,,,,,,,,,,,
alien_welcome_prac,26,248487,0.0-11.0-0.0,,null,run_exp/static/images/task_images/aliens/practice_aliens/planet/alien_planet-5.jpg,null,,,,,,,,,,,,,,,,,,,,,,,
land_prac,27,248992,0.0-11.0-1.0,,null,run_exp/static/images/task_images/land.jpg,null,,,,,,93,,,0,,,,,,,,,,,,,,
dig_prac,28,250998,0.0-11.0-2.0,,,,,,,,,,,"[{""stimulus"":""run_exp/static/images/task_images/dig.jpg"",""time"":0.33999999868683517},{""stimulus"":""run_exp/static/images/task_images/land.jpg"",""time"":673.0549999920186},{""stimulus"":""run_exp/static/images/task_images/dig.jpg"",""time"":1338.6400000017602}]",[],,,,,,,,,,,,,,,
harvest_prac,29,252001,0.0-11.0-3.0,,null,run_exp/static/images/task_images/barrel_text.jpg,null,,,,,,,,,,,,,,,,,,,,,,,
decision_prac,30,255007,0.0-11.0-4.0,,null,run_exp/static/images/task_images/land.jpg,null,,,,,,,,,,1,,,,,,,,,,,,,
time_out,31,257015,0.0-12.0-0.0,,null,run_exp/static/images/task_images/time_out.jpg,null,,,,,,,,,,,,,,,,,,,,,,,
decision_prac,32,260022,0.0-12.0-1.0,,null,run_exp/static/images/task_images/land.jpg,null,,,,,,,,,,2,,,,,,,,,,,,,
time_out,33,262032,0.0-13.0-0.0,,null,run_exp/static/images/task_images/time_out.jpg,null,,,,,,,,,,,,,,,,,,,,,,,
decision_prac,34,262545,0.0-13.0-1.0,,511.65,run_exp/static/images/task_images/land.jpg,65,,,,,,,,,,3,,,,,,,,,,,,,
dig_prac,35,264555,0.0-14.0-0.0,,,,,,,,,,,"[{""stimulus"":""run_exp/static/images/task_images/dig.jpg"",""time"":0.2350000140722841},{""stimulus"":""run_exp/static/images/task_images/land.jpg"",""time"":668.6650000046939},{""stimulus"":""run_exp/static/images/task_images/dig.jpg"",""time"":1336.3200000021607}]",[],,,,,,,,,,,,,,,
harvest_prac,36,265562,0.0-14.0-1.0,,null,run_exp/static/images/task_images/barrel_text.jpg,null,,,,,,,,,,,,,,,,,,,,,,,
decision_prac,37,267394,0.0-14.0-2.0,,1830.605,run_exp/static/images/task_images/land.jpg,65,,,,,,,,,,4,,,,,,,,,,,,,
dig_prac,38,269405,0.0-15.0-0.0,,,,,,,,,,,"[{""stimulus"":""run_exp/static/images/task_images/dig.jpg"",""time"":0.23499998496845365},{""stimulus"":""run_exp/static/images/task_images/land.jpg"",""time"":670.7400000013877},{""stimulus"":""run_exp/static/images/task_images/dig.jpg"",""time"":1337.4499999918044}]",[],,,,,,,,,,,,,,,
harvest_prac,39,270410,0.0-15.0-1.0,,null,run_exp/static/images/task_images/barrel_text.jpg,null,,,,,,,,,,,,,,,,,,,,,,,
decision_prac,40,272089,0.0-15.0-2.0,,1677.735,run_exp/static/images/task_images/land.jpg,65,,,,,,,,,,,1,,,,,,,,,,,,
quiz_instruc,41,283744,0.0-16.0-0.0,,11649.94,run_exp/static/audio/clip_10_quiz.m4a,,,,,,0,,,,,,,,,,,,,,,,,,
instruc_repeat,42,326539,0.0-16.0-1.0,,null,"<p> Are you ready to play a practice game? </p> <p>In this practice game, you'll be digging up barrels of gems. But, in the real game, you'll be digging up the gems themselves. </p>",null,"<p>In this game, your goal is to collect as many gems as you can. That’s how you will win bonus money. </p> <p>The entire game will last 20 minutes no matter how many gems you collect or how many planets you visit. </p><p>To stay on a planet and dig again, press the letter A on your keyboard. To leave for a new planet, press the letter L.</p><p>The more you dig on a planet, the fewer gems you’ll get with each dig which is why you might consider leaving for a new planet. </p><p>When you arrive at a new planet, you’ll be greeted by an alien. What the alien looks like does not tell you anything about how much treasure is on the planet. </p>",,,,,,,,,,,,,,,,,,,,,,
instruc_repeat_continue,43,328442,0.0-16.0-2.0,,1901.36,"<p> Are you ready to play a practice game? </p> <p>In this practice game, you'll be digging up barrels of gems. But, in the real game, you'll be digging up the gems themselves. </p>",,,,,,0,,,,,,,,,,,,,,,,,,
quiz_q_1_ask,44,331583,0.0-16.0-3.0,,3139.025,run_exp/static/audio/clip_11_q1_ask.m4a,,,,,,2,,,,,,,,,,,,,,,,,,
quiz_q_1_fb_correct,45,335455,0.0-17.0-0.0,,null,run_exp/static/audio/clip_12_q1_corrrect.m4a,null,<p>That’s correct. You win extra money by collecting more gems.</p>,,,,,,,,,,,,,,,,,,,,,,
quiz_q_2_ask,46,340520,0.0-17.0-1.0,,5062.12,run_exp/static/audio/clip_14_q2_ask.m4a,,,,,,1,,,,,,,,,,,,,,,,,,
quiz_q_2_fb_correct,47,344511,0.0-18.0-0.0,,null,run_exp/static/audio/clip_15_q2_correct.m4a,null,<p>That’s correct. The experiment is 20 minutes no matter what.</p>,,,,,,,,,,,,,,,,,,,,,,
quiz_q_3_ask,48,349171,0.0-18.0-1.0,,4657.905,run_exp/static/audio/clip_17_q3_ask.m4a,,,,,,1,,,,,,,,,,,,,,,,,,
quiz_q_3_fb_correct,49,353149,0.0-19.0-0.0,,null,run_exp/static/audio/clip_18_q3_correct.m4a,null,<p> That’s correct. You press the letter L to travel to a new planet.</p>,,,,,,,,,,,,,,,,,,,,,,
quiz_q_4_ask,50,357063,0.0-19.0-1.0,,3911.94,run_exp/static/audio/clip_20_q4_ask.m4a,,,,,,0,,,,,,,,,,,,,,,,,,
quiz_q_4_fb_correct,51,362391,0.0-20.0-0.0,,null,run_exp/static/audio/clip_21_q4_correct.m4a,null,<p> That’s correct. The more you dig on a planet the fewer gems you’ll get with each dig. </p>,,,,,,,,,,,,,,,,,,,,,,
quiz_q_5_ask,52,365885,0.0-20.0-1.0,,3492.385,run_exp/static/audio/clip_23_q5_ask.m4a,,,,,,1,,,,,,,,,,,,,,,,,,
quiz_q_5_fb_correct,53,370913,0.0-21.0-0.0,,null,run_exp/static/audio/clip_24_q5_correct.m4a,null,<p> That’s correct. The alien tells you nothing about how much treasure is on the planet.</p>,,,,,,,,,,,,,,,,,,,,,,
quiz_correct,54,374372,0.0-22.0-0.0,,null,run_exp/static/audio/clip_26_correct_quiz.m4a,null,,,,,,,,,,,,,,,,,,,,,,,
quiz_correct_continue,55,375808,0.0-22.0-1.0,,1434.515,<p>Good job! You're now ready to move on to the real game!</p>,,,,,,0,,,,,,,,,,,,,,,,,,
audio-keyboard-response,56,385938,0.0-22.0-2.0,,null,run_exp/static/audio/clip_28_real_game.m4a,null,,,,,,,,,,,,,,,,,,,,,,,
instruc_begin_exp_contine,57,386987,0.0-22.0-3.0,,1047.455,"<p>Now that you know how  to dig for space treasure and travel to new planets,you can start exploring! </p><p>Do you want to go over the instructions again or get started with the real game?</p>",,,,,,1,,,,,,1,,,,,,,,,,,,
alien_welcome,58,391996,0.0-23.0-0.0,,null,run_exp/static/images/task_images/aliens/old_aliens/planet/alien_planet-14.jpg,null,,,,,,,,,,,,14,"14,12,71,7,26,62,52,32,75,5,59,28,53,21,8,20,42,48,47,60,2,46,77,10,50,80,3,35,17,78,79,29,16,39,19,4,40,23",,,,,,,,,,
land,59,392499,0.0-23.0-1.0,,null,run_exp/static/images/task_images/land.jpg,null,,,,,,101,,,1,,,,,,,,,,,,,,
dig,60,394504,0.0-23.0-2.0,,,,,,,,,,,"[{""stimulus"":""run_exp/static/images/task_images/dig.jpg"",""time"":0.31999999191612005},{""stimulus"":""run_exp/static/images/task_images/land.jpg"",""time"":673.3599999861326},{""stimulus"":""run_exp/static/images/task_images/dig.jpg"",""time"":1340.3800000087358}]",[],1,,,,,,,,,,,,,,
harvest,61,395510,0.0-23.0-3.0,,null,run_exp/static/images/task_images/gems/101.jpg,null,,,,,,24,,,1,,,,,101,0.239083996,0.237623762,,,,,,,
decision,62,396283,0.0-23.0-4.0,,770.355,run_exp/static/images/task_images/land.jpg,65,,,,,,24,,,1,,,,,,,,9294,1,0,FALSE,,,
dig,63,398519,0.0-24.0-0.0,,,,,,,,,,,"[{""stimulus"":""run_exp/static/images/task_images/dig.jpg"",""time"":0.2749999985098839},{""stimulus"":""run_exp/static/images/task_images/land.jpg"",""time"":745.0149999931455},{""stimulus"":""run_exp/static/images/task_images/dig.jpg"",""time"":1489.5400000095833}]",[],1,,,,,,,,,,,,,,
harvest,64,399524,0.0-24.0-1.0,,null,run_exp/static/images/task_images/gems/24.jpg,null,,,,,,6,,,1,,,,,24,0.263000702,0.25,,,,,,,
decision,65,400301,0.0-24.0-2.0,,775.78,run_exp/static/images/task_images/land.jpg,65,,,,,,6,,,1,,,,,,,,13312,1,1,FALSE,,,
dig,66,402530,0.0-25.0-0.0,,,,,,,,,,,"[{""stimulus"":""run_exp/static/images/task_images/dig.jpg"",""time"":0.22000001627020538},{""stimulus"":""run_exp/static/images/task_images/land.jpg"",""time"":744.1399999952409},{""stimulus"":""run_exp/static/images/task_images/dig.jpg"",""time"":1488.165000017034}]",[],1,,,,,,,,,,,,,,
harvest,67,403531,0.0-25.0-1.0,,null,run_exp/static/images/task_images/gems/6.jpg,null,,,,,,1,,,1,,,,,6,0.178160093,0.166666667,,,,,,,
decision,68,404540,0.0-25.0-2.0,,1006.195,run_exp/static/images/task_images/land.jpg,76,,,,,,1,,,1,,,,,,,,17552,1,2,TRUE,,,
travel,69,413544,0.0-26.0-0.0,,,,,,,,,,,"[{""stimulus"":""run_exp/static/images/task_images/rocket-01.jpg"",""time"":0.2550000208429992},{""stimulus"":""run_exp/static/images/task_images/rocket-02.jpg"",""time"":1000.7400000176858},{""stimulus"":""run_exp/static/images/task_images/rocket-03.jpg"",""time"":2001.5050000220072},{""stimulus"":""run_exp/static/images/task_images/rocket-04.jpg"",""time"":3003.1650000019},{""stimulus"":""run_exp/static/images/task_images/rocket-05.jpg"",""time"":4002.1150000102352},{""stimulus"":""run_exp/static/images/task_images/rocket-06.jpg"",""time"":5000.4250000056345},{""stimulus"":""run_exp/static/images/task_images/rocket-07.jpg"",""time"":5995.220000011614},{""stimulus"":""run_exp/static/images/task_images/rocket-08.jpg"",""time"":6997.4700000020675},{""stimulus"":""run_exp/static/images/task_images/rocket-09.jpg"",""time"":7997.540000011213}]",[],1,,,,,,,,,,,,,,
alien_welcome,70,418552,0.0-26.0-1.0,,null,run_exp/static/images/task_images/aliens/old_aliens/planet/alien_planet-12.jpg,null,,,,,,,,,,,,12,"14,12,71,7,26,62,52,32,75,5,59,28,53,21,8,20,42,48,47,60,2,46,77,10,50,80,3,35,17,78,79,29,16,39,19,4,40,23",,,,,,,,,,
land,71,419054,0.0-26.0-2.0,,null,run_exp/static/images/task_images/land.jpg,null,,,,,,100,,,2,,,,,,,,,,,,,,
dig,72,421063,0.0-26.0-3.0,,,,,,,,,,,"[{""stimulus"":""run_exp/static/images/task_images/dig.jpg"",""time"":0.33000000985339284},{""stimulus"":""run_exp/static/images/task_images/land.jpg"",""time"":673.3750000130385},{""stimulus"":""run_exp/static/images/task_images/dig.jpg"",""time"":1339.0550000185613}]",[],2,,,,,,,,,,,,,,
harvest,73,422067,0.0-26.0-4.0,,null,run_exp/static/images/task_images/gems/100.jpg,null,,,,,,27,,,2,,,,,100,0.272259426,0.27,,,,,,,
decision,74,422645,0.0-26.0-5.0,,576.6,run_exp/static/images/task_images/land.jpg,65,,,,,,27,,,2,,,,,,,,35655,1,0,FALSE,,,
dig,75,425071,0.0-27.0-0.0,,,,,,,,,,,"[{""stimulus"":""run_exp/static/images/task_images/dig.jpg"",""time"":0.18000000272877514},{""stimulus"":""run_exp/static/images/task_images/land.jpg"",""time"":808.2749999884982},{""stimulus"":""run_exp/static/images/task_images/dig.jpg"",""time"":1620.16500000027}]",[],2,,,,,,,,,,,,,,
harvest,76,426074,0.0-27.0-1.0,,null,run_exp/static/images/task_images/gems/27.jpg,null,,,,,,5,,,2,,,,,27,0.197121771,0.185185185,,,,,,,
decision,77,427091,0.0-27.0-2.0,,1015.585,run_exp/static/images/task_images/land.jpg,65,,,,,,5,,,2,,,,,,,,40101,1,1,FALSE,,,
dig,78,429079,0.0-28.0-0.0,,,,,,,,,,,"[{""stimulus"":""run_exp/static/images/task_images/dig.jpg"",""time"":0.2300000051036477},{""stimulus"":""run_exp/static/images/task_images/land.jpg"",""time"":663.2549999922048},{""stimulus"":""run_exp/static/images/task_images/dig.jpg"",""time"":1328.2349999935832}]",[],2,,,,,,,,,,,,,,
harvest,79,430081,0.0-28.0-1.0,,null,run_exp/static/images/task_images/gems/5.jpg,null,,,,,,1,,,2,,,,,5,0.16101922,0.2,,,,,,,
decision,80,430958,0.0-28.0-2.0,,874.455,run_exp/static/images/task_images/land.jpg,76,,,,,,1,,,2,,,,,,,,43968,1,2,TRUE,,,
travel,81,440081,0.0-29.0-0.0,,,,,,,,,,,"[{""stimulus"":""run_exp/static/images/task_images/rocket-01.jpg"",""time"":0.21500000730156898},{""stimulus"":""run_exp/static/images/task_images/rocket-02.jpg"",""time"":1015.4150000016671},{""stimulus"":""run_exp/static/images/task_images/rocket-03.jpg"",""time"":2027.0850000088103},{""stimulus"":""run_exp/static/images/task_images/rocket-04.jpg"",""time"":3041.7000000015832},{""stimulus"":""run_exp/static/images/task_images/rocket-05.jpg"",""time"":4053.5600000002887},{""stimulus"":""run_exp/static/images/task_images/rocket-06.jpg"",""time"":5067.184999992605},{""stimulus"":""run_exp/static/images/task_images/rocket-07.jpg"",""time"":6080.684999993537},{""stimulus"":""run_exp/static/images/task_images/rocket-08.jpg"",""time"":7093.815000000177},{""stimulus"":""run_exp/static/images/task_images/rocket-09.jpg"",""time"":8107.069999998203}]",[],2,,,,,,,,,,,,,,
alien_welcome,82,445088,0.0-29.0-1.0,,null,run_exp/static/images/task_images/aliens/old_aliens/planet/alien_planet-71.jpg,null,,,,,,,,,,,,71,"14,12,71,7,26,62,52,32,75,5,59,28,53,21,8,20,42,48,47,60,2,46,77,10,50,80,3,35,17,78,79,29,16,39,19,4,40,23",,,,,,,,,,
land,83,445593,0.0-29.0-2.0,,null,run_exp/static/images/task_images/land.jpg,null,,,,,,100,,,3,,,,,,,,,,,,,,
dig,84,447599,0.0-29.0-3.0,,,,,,,,,,,"[{""stimulus"":""run_exp/static/images/task_images/dig.jpg"",""time"":0.4149999876972288},{""stimulus"":""run_exp/static/images/task_images/land.jpg"",""time"":673.6300000047777},{""stimulus"":""run_exp/static/images/task_images/dig.jpg"",""time"":1337.9899999999907}]",[],3,,,,,,,,,,,,,,
harvest,85,448604,0.0-29.0-4.0,,null,run_exp/static/images/task_images/gems/100.jpg,null,,,,,,51,,,3,,,,,100,0.505565497,0.51,,,,,,,
decision,86,448798,0.0-29.0-5.0,,192.69,run_exp/static/images/task_images/land.jpg,65,,,,,,51,,,3,,,,,,,,61808,1,0,FALSE,,,
dig,87,451611,0.0-30.0-0.0,,,,,,,,,,,"[{""stimulus"":""run_exp/static/images/task_images/dig.jpg"",""time"":0.18500001169741154},{""stimulus"":""run_exp/static/images/task_images/land.jpg"",""time"":941.0350000252947},{""stimulus"":""run_exp/static/images/task_images/dig.jpg"",""time"":1871.4000000036322}]",[],3,,,,,,,,,,,,,,
harvest,88,452615,0.0-30.0-1.0,,null,run_exp/static/images/task_images/gems/51.jpg,null,,,,,,24,,,3,,,,,51,0.470859589,0.470588235,,,,,,,
decision,89,453193,0.0-30.0-2.0,,575.695,run_exp/static/images/task_images/land.jpg,65,,,,,,24,,,3,,,,,,,,66203,1,1,FALSE,,,
dig,90,455622,0.0-31.0-0.0,,,,,,,,,,,"[{""stimulus"":""run_exp/static/images/task_images/dig.jpg"",""time"":0.18500001169741154},{""stimulus"":""run_exp/static/images/task_images/land.jpg"",""time"":812.9799999878742},{""stimulus"":""run_exp/static/images/task_images/dig.jpg"",""time"":1621.3099999877159}]",[],3,,,,,,,,,,,,,,
harvest,91,456628,0.0-31.0-1.0,,null,run_exp/static/images/task_images/gems/24.jpg,null,,,,,,13,,,3,,,,,24,0.549788072,0.541666667,,,,,,,
decision,92,456985,0.0-31.0-2.0,,355.26,run_exp/static/images/task_images/land.jpg,65,,,,,,13,,,3,,,,,,,,69995,1,2,FALSE,,,
dig,93,459635,0.0-32.0-0.0,,,,,,,,,,,"[{""stimulus"":""run_exp/static/images/task_images/dig.jpg"",""time"":0.26500000967644155},{""stimulus"":""run_exp/static/images/task_images/land.jpg"",""time"":883.1300000019837},{""stimulus"":""run_exp/static/images/task_images/dig.jpg"",""time"":1768.1100000045262}]",[],3,,,,,,,,,,,,,,
harvest,94,460636,0.0-32.0-1.0,,null,run_exp/static/images/task_images/gems/13.jpg,null,,,,,,6,,,3,,,,,13,0.45624145,0.461538462,,,,,,,
decision,95,460972,0.0-32.0-2.0,,333.955,run_exp/static/images/task_images/land.jpg,65,,,,,,6,,,3,,,,,,,,73982,1,3,FALSE,,,
dig,96,463643,0.0-33.0-0.0,,,,,,,,,,,"[{""stimulus"":""run_exp/static/images/task_images/dig.jpg"",""time"":0.19500000053085387},{""stimulus"":""run_exp/static/images/task_images/land.jpg"",""time"":890.3949999948964},{""stimulus"":""run_exp/static/images/task_images/dig.jpg"",""time"":1779.2349999945145}]",[],3,,,,,,,,,,,,,,
harvest,97,464647,0.0-33.0-1.0,,null,run_exp/static/images/task_images/gems/6.jpg,null,,,,,,3,,,3,,,,,6,0.492862873,0.5,,,,,,,
decision,98,464750,0.0-33.0-2.0,,101.145,run_exp/static/images/task_images/land.jpg,76,,,,,,3,,,3,,,,,,,,77761,1,4,TRUE,,,
travel,99,474652,0.0-34.0-0.0,,,,,,,,,,,"[{""stimulus"":""run_exp/static/images/task_images/rocket-01.jpg"",""time"":0.18000000272877514},{""stimulus"":""run_exp/static/images/task_images/rocket-02.jpg"",""time"":1105.3249999822583},{""stimulus"":""run_exp/static/images/task_images/rocket-03.jpg"",""time"":2204.330000007758},{""stimulus"":""run_exp/static/images/task_images/rocket-04.jpg"",""time"":3302.850000007311},{""stimulus"":""run_exp/static/images/task_images/rocket-05.jpg"",""time"":4399.355000001378},{""stimulus"":""run_exp/static/images/task_images/rocket-06.jpg"",""time"":5500.204999989364},{""stimulus"":""run_exp/static/images/task_images/rocket-07.jpg"",""time"":6600.264999986393},{""stimulus"":""run_exp/static/images/task_images/rocket-08.jpg"",""time"":7698.434999998426},{""stimulus"":""run_exp/static/images/task_images/rocket-09.jpg"",""time"":8797.560000006342}]",[],3,,,,,,,,,,,,,,
alien_welcome,100,479658,0.0-34.0-1.0,,null,run_exp/static/images/task_images/aliens/old_aliens/planet/alien_planet-7.jpg,null,,,,,,,,,,,,7,"14,12,71,7,26,62,52,32,75,5,59,28,53,21,8,20,42,48,47,60,2,46,77,10,50,80,3,35,17,78,79,29,16,39,19,4,40,23",,,,,,,,,,
land,101,480164,0.0-34.0-2.0,,null,run_exp/static/images/task_images/land.jpg,null,,,,,,110,,,4,,,,,,,,,,,,,,
dig,102,482169,0.0-34.0-3.0,,,,,,,,,,,"[{""stimulus"":""run_exp/static/images/task_images/dig.jpg"",""time"":0.3100000030826777},{""stimulus"":""run_exp/static/images/task_images/land.jpg"",""time"":672.0649999915622},{""stimulus"":""run_exp/static/images/task_images/dig.jpg"",""time"":1338.4850000147708}]",[],4,,,,,,,,,,,,,,
harvest,103,483175,0.0-34.0-4.0,,null,run_exp/static/images/task_images/gems/110.jpg,null,,,,,,49,,,4,,,,,110,0.443403804,0.445454545,,,,,,,
decision,104,483580,0.0-34.0-5.0,,403.64,run_exp/static/images/task_images/land.jpg,65,,,,,,49,,,4,,,,,,,,96590,1,0,FALSE,,,
dig,105,486180,0.0-35.0-0.0,,,,,,,,,,,"[{""stimulus"":""run_exp/static/images/task_images/dig.jpg"",""time"":0.20000000949949026},{""stimulus"":""run_exp/static/images/task_images/land.jpg"",""time"":871.1550000007264},{""stimulus"":""run_exp/static/images/task_images/dig.jpg"",""time"":1733.3550000039395}]",[],4,,,,,,,,,,,,,,
harvest,106,487183,0.0-35.0-1.0,,null,run_exp/static/images/task_images/gems/49.jpg,null,,,,,,21,,,4,,,,,49,0.435713575,0.428571429,,,,,,,
decision,107,487549,0.0-35.0-2.0,,364.67,run_exp/static/images/task_images/land.jpg,65,,,,,,21,,,4,,,,,,,,100559,1,1,FALSE,,,
dig,108,490190,0.0-36.0-0.0,,,,,,,,,,,"[{""stimulus"":""run_exp/static/images/task_images/dig.jpg"",""time"":0.21999998716637492},{""stimulus"":""run_exp/static/images/task_images/land.jpg"",""time"":884.1899999824818},{""stimulus"":""run_exp/static/images/task_images/dig.jpg"",""time"":1758.979999984149}]",[],4,,,,,,,,,,,,,,
harvest,109,491193,0.0-36.0-1.0,,null,run_exp/static/images/task_images/gems/21.jpg,null,,,,,,11,,,4,,,,,21,0.535062506,0.523809524,,,,,,,
decision,110,491719,0.0-36.0-2.0,,524.29,run_exp/static/images/task_images/land.jpg,76,,,,,,11,,,4,,,,,,,,104729,1,2,TRUE,,,
travel,111,501192,0.0-37.0-0.0,,,,,,,,,,,"[{""stimulus"":""run_exp/static/images/task_images/rocket-01.jpg"",""time"":0.19500000053085387},{""stimulus"":""run_exp/static/images/task_images/rocket-02.jpg"",""time"":1054.3499999912456},{""stimulus"":""run_exp/static/images/task_images/rocket-03.jpg"",""time"":2110.164999990957},{""stimulus"":""run_exp/static/images/task_images/rocket-04.jpg"",""time"":3162.2299999871757},{""stimulus"":""run_exp/static/images/task_images/rocket-05.jpg"",""time"":4209.830000007059},{""stimulus"":""run_exp/static/images/task_images/rocket-06.jpg"",""time"":5264.270000014221},{""stimulus"":""run_exp/static/images/task_images/rocket-07.jpg"",""time"":6313.365000009071},{""stimulus"":""run_exp/static/images/task_images/rocket-08.jpg"",""time"":7365.0999999954365},{""stimulus"":""run_exp/static/images/task_images/rocket-09.jpg"",""time"":8418.9100000076}]",[],4,,,,,,,,,,,,,,
alien_welcome,112,506195,0.0-37.0-1.0,,null,run_exp/static/images/task_images/aliens/old_aliens/planet/alien_planet-26.jpg,null,,,,,,,,,,,,26,"14,12,71,7,26,62,52,32,75,5,59,28,53,21,8,20,42,48,47,60,2,46,77,10,50,80,3,35,17,78,79,29,16,39,19,4,40,23",,,,,,,,,,
land,113,506702,0.0-37.0-2.0,,null,run_exp/static/images/task_images/land.jpg,null,,,,,,107,,,5,,,,,,,,,,,,,,
dig,114,508711,0.0-37.0-3.0,,,,,,,,,,,"[{""stimulus"":""run_exp/static/images/task_images/dig.jpg"",""time"":1.100000023143366},{""stimulus"":""run_exp/static/images/task_images/land.jpg"",""time"":672.3400000191759},{""stimulus"":""run_exp/static/images/task_images/dig.jpg"",""time"":1336.7350000189617}]",[],5,,,,,,,,,,,,,,
harvest,115,509718,0.0-37.0-4.0,,null,run_exp/static/images/task_images/gems/107.jpg,null,,,,,,51,,,5,,,,,107,0.476480167,0.476635514,,,,,,,
decision,116,510243,0.0-37.0-5.0,,523.15,run_exp/static/images/task_images/land.jpg,65,,,,,,51,,,5,,,,,,,,123253,1,0,FALSE,,,
dig,117,512725,0.0-38.0-0.0,,,,,,,,,,,"[{""stimulus"":""run_exp/static/images/task_images/dig.jpg"",""time"":0.18999999156221747},{""stimulus"":""run_exp/static/images/task_images/land.jpg"",""time"":831.1499999836087},{""stimulus"":""run_exp/static/images/task_images/dig.jpg"",""time"":1656.1499999952503}]",[],5,,,,,,,,,,,,,,
harvest,118,513730,0.0-38.0-1.0,,null,run_exp/static/images/task_images/gems/51.jpg,null,,,,,,24,,,5,,,,,51,0.465802964,0.470588235,,,,,,,
decision,119,514099,0.0-38.0-2.0,,367.35,run_exp/static/images/task_images/land.jpg,65,,,,,,24,,,5,,,,,,,,127109,1,1,FALSE,,,
dig,120,516735,0.0-39.0-0.0,,,,,,,,,,,"[{""stimulus"":""run_exp/static/images/task_images/dig.jpg"",""time"":0.18500001169741154},{""stimulus"":""run_exp/static/images/task_images/land.jpg"",""time"":877.9949999880046},{""stimulus"":""run_exp/static/images/task_images/dig.jpg"",""time"":1758.605000009993}]",[],5,,,,,,,,,,,,,,
harvest,121,517737,0.0-39.0-1.0,,null,run_exp/static/images/task_images/gems/24.jpg,null,,,,,,13,,,5,,,,,24,0.531241838,0.541666667,,,,,,,
decision,122,518126,0.0-39.0-2.0,,387.76,run_exp/static/images/task_images/land.jpg,76,,,,,,13,,,5,,,,,,,,131136,1,2,TRUE,,,
travel,123,527749,0.0-40.0-0.0,,,,,,,,,,,"[{""stimulus"":""run_exp/static/images/task_images/rocket-01.jpg"",""time"":0.18000000272877514},{""stimulus"":""run_exp/static/images/task_images/rocket-02.jpg"",""time"":1071.5449999843258},{""stimulus"":""run_exp/static/images/task_images/rocket-03.jpg"",""time"":2139.6749999839813},{""stimulus"":""run_exp/static/images/task_images/rocket-04.jpg"",""time"":3205.96999998088},{""stimulus"":""run_exp/static/images/task_images/rocket-05.jpg"",""time"":4277.990000002319},{""stimulus"":""run_exp/static/images/task_images/rocket-06.jpg"",""time"":5346.124999981839},{""stimulus"":""run_exp/static/images/task_images/rocket-07.jpg"",""time"":6414.179999992484},{""stimulus"":""run_exp/static/images/task_images/rocket-08.jpg"",""time"":7482.174999982817},{""stimulus"":""run_exp/static/images/task_images/rocket-09.jpg"",""time"":8548.710000002757}]",[],5,,,,,,,,,,,,,,
alien_welcome,124,532756,0.0-40.0-1.0,,null,run_exp/static/images/task_images/aliens/old_aliens/planet/alien_planet-62.jpg,null,,,,,,,,,,,,62,"14,12,71,7,26,62,52,32,75,5,59,28,53,21,8,20,42,48,47,60,2,46,77,10,50,80,3,35,17,78,79,29,16,39,19,4,40,23",,,,,,,,,,
land,125,533261,0.0-40.0-2.0,,null,run_exp/static/images/task_images/land.jpg,null,,,,,,100,,,6,,,,,,,,,,,,,,
dig,126,535271,0.0-40.0-3.0,,,,,,,,,,,"[{""stimulus"":""run_exp/static/images/task_images/dig.jpg"",""time"":0.34500000765547156},{""stimulus"":""run_exp/static/images/task_images/land.jpg"",""time"":669.6150000207126},{""stimulus"":""run_exp/static/images/task_images/dig.jpg"",""time"":1335.6650000205263}]",[],6,,,,,,,,,,,,,,
harvest,127,536278,0.0-40.0-4.0,,null,run_exp/static/images/task_images/gems/100.jpg,null,,,,,,77,,,6,,,,,100,0.770423838,0.77,,,,,,,
decision,128,536603,0.0-40.0-5.0,,323.82,run_exp/static/images/task_images/land.jpg,65,,,,,,77,,,6,,,,,,,,149613,1,0,FALSE,,,
dig,129,539284,0.0-41.0-0.0,,,,,,,,,,,"[{""stimulus"":""run_exp/static/images/task_images/dig.jpg"",""time"":0.18000000272877514},{""stimulus"":""run_exp/static/images/task_images/land.jpg"",""time"":895.2049999788869},{""stimulus"":""run_exp/static/images/task_images/dig.jpg"",""time"":1785.5849999759812}]",[],6,,,,,,,,,,,,,,
harvest,130,540291,0.0-41.0-1.0,,null,run_exp/static/images/task_images/gems/77.jpg,null,,,,,,63,,,6,,,,,77,0.8224514,0.818181818,,,,,,,
decision,131,540611,0.0-41.0-2.0,,318.8,run_exp/static/images/task_images/land.jpg,65,,,,,,63,,,6,,,,,,,,153621,1,1,FALSE,,,
dig,132,543298,0.0-42.0-0.0,,,,,,,,,,,"[{""stimulus"":""run_exp/static/images/task_images/dig.jpg"",""time"":0.18000000272877514},{""stimulus"":""run_exp/static/images/task_images/land.jpg"",""time"":896.85499999905},{""stimulus"":""run_exp/static/images/task_images/dig.jpg"",""time"":1791.529999987688}]",[],6,,,,,,,,,,,,,,
harvest,133,544303,0.0-42.0-1.0,,null,run_exp/static/images/task_images/gems/63.jpg,null,,,,,,46,,,6,,,,,63,0.725176951,0.73015873,,,,,,,
decision,134,544665,0.0-42.0-2.0,,360.315,run_exp/static/images/task_images/land.jpg,65,,,,,,46,,,6,,,,,,,,157675,1,2,FALSE,,,
dig,135,547308,0.0-43.0-0.0,,,,,,,,,,,"[{""stimulus"":""run_exp/static/images/task_images/dig.jpg"",""time"":0.2749999985098839},{""stimulus"":""run_exp/static/images/task_images/land.jpg"",""time"":880.7450000022072},{""stimulus"":""run_exp/static/images/task_images/dig.jpg"",""time"":1760.6099999975413}]",[],6,,,,,,,,,,,,,,
harvest,136,548314,0.0-43.0-1.0,,null,run_exp/static/images/task_images/gems/46.jpg,null,,,,,,40,,,6,,,,,46,0.865962094,0.869565217,,,,,,,
decision,137,548480,0.0-43.0-2.0,,164.7,run_exp/static/images/task_images/land.jpg,65,,,,,,40,,,6,,,,,,,,161490,1,3,FALSE,,,
dig,138,551321,0.0-44.0-0.0,,,,,,,,,,,"[{""stimulus"":""run_exp/static/images/task_images/dig.jpg"",""time"":0.23999999393709004},{""stimulus"":""run_exp/static/images/task_images/land.jpg"",""time"":947.455000015907},{""stimulus"":""run_exp/static/images/task_images/dig.jpg"",""time"":1891.5750000160187}]",[],6,,,,,,,,,,,,,,
harvest,139,552325,0.0-44.0-1.0,,null,run_exp/static/images/task_images/gems/40.jpg,null,,,,,,33,,,6,,,,,40,0.832111521,0.825,,,,,,,
decision,140,552703,0.0-44.0-2.0,,376.305,run_exp/static/images/task_images/land.jpg,65,,,,,,33,,,6,,,,,,,,165713,1,4,FALSE,,,
dig,141,555331,0.0-45.0-0.0,,,,,,,,,,,"[{""stimulus"":""run_exp/static/images/task_images/dig.jpg"",""time"":0.619999977061525},{""stimulus"":""run_exp/static/images/task_images/land.jpg"",""time"":877.1349999879021},{""stimulus"":""run_exp/static/images/task_images/dig.jpg"",""time"":1750.3149999829475}]",[],6,,,,,,,,,,,,,,
harvest,142,556335,0.0-45.0-1.0,,null,run_exp/static/images/task_images/gems/33.jpg,null,,,,,,24,,,6,,,,,33,0.735958947,0.727272727,,,,,,,
decision,143,556629,0.0-45.0-2.0,,291.65,run_exp/static/images/task_images/land.jpg,65,,,,,,24,,,6,,,,,,,,169639,1,5,FALSE,,,
dig,144,559342,0.0-46.0-0.0,,,,,,,,,,,"[{""stimulus"":""run_exp/static/images/task_images/dig.jpg"",""time"":0.2049999893642962},{""stimulus"":""run_exp/static/images/task_images/land.jpg"",""time"":903.0900000070687},{""stimulus"":""run_exp/static/images/task_images/dig.jpg"",""time"":1806.2949999875855}]",[],6,,,,,,,,,,,,,,
harvest,145,560346,0.0-46.0-1.0,,null,run_exp/static/images/task_images/gems/24.jpg,null,,,,,,20,,,6,,,,,24,0.851918594,0.833333333,,,,,,,
decision,146,560727,0.0-46.0-2.0,,379.225,run_exp/static/images/task_images/land.jpg,65,,,,,,20,,,6,,,,,,,,173737,1,6,FALSE,,,
dig,147,563355,0.0-47.0-0.0,,,,,,,,,,,"[{""stimulus"":""run_exp/static/images/task_images/dig.jpg"",""time"":0.27000001864507794},{""stimulus"":""run_exp/static/images/task_images/land.jpg"",""time"":879.2350000003353},{""stimulus"":""run_exp/static/images/task_images/dig.jpg"",""time"":1748.7650000257418}]",[],6,,,,,,,,,,,,,,
harvest,148,564361,0.0-47.0-1.0,,null,run_exp/static/images/task_images/gems/20.jpg,null,,,,,,17,,,6,,,,,20,0.841206794,0.85,,,,,,,
decision,149,564399,0.0-47.0-2.0,,36.31999998,run_exp/static/images/task_images/land.jpg,76,,,,,,17,,,6,,,,,,,,177409,1,7,TRUE,,,
travel,150,574368,0.0-48.0-0.0,,,,,,,,,,,"[{""stimulus"":""run_exp/static/images/task_images/rocket-01.jpg"",""time"":0.19500000053085387},{""stimulus"":""run_exp/static/images/task_images/rocket-02.jpg"",""time"":1112.5849999953061},{""stimulus"":""run_exp/static/images/task_images/rocket-03.jpg"",""time"":2219.314999994822},{""stimulus"":""run_exp/static/images/task_images/rocket-04.jpg"",""time"":3324.625000008382},{""stimulus"":""run_exp/static/images/task_images/rocket-05.jpg"",""time"":4433.530000009341},{""stimulus"":""run_exp/static/images/task_images/rocket-06.jpg"",""time"":5536.315000004834},{""stimulus"":""run_exp/static/images/task_images/rocket-07.jpg"",""time"":6643.505000014557},{""stimulus"":""run_exp/static/images/task_images/rocket-08.jpg"",""time"":7755.1300000050105},{""stimulus"":""run_exp/static/images/task_images/rocket-09.jpg"",""time"":8862.185000005411}]",[],6,,,,,,,,,,,,,,
alien_welcome,151,579374,0.0-48.0-1.0,,null,run_exp/static/images/task_images/aliens/old_aliens/planet/alien_planet-52.jpg,null,,,,,,,,,,,,52,"14,12,71,7,26,62,52,32,75,5,59,28,53,21,8,20,42,48,47,60,2,46,77,10,50,80,3,35,17,78,79,29,16,39,19,4,40,23",,,,,,,,,,
land,152,579880,0.0-48.0-2.0,,null,run_exp/static/images/task_images/land.jpg,null,,,,,,98,,,7,,,,,,,,,,,,,,
dig,153,581889,0.0-48.0-3.0,,,,,,,,,,,"[{""stimulus"":""run_exp/static/images/task_images/dig.jpg"",""time"":0.31999999191612005},{""stimulus"":""run_exp/static/images/task_images/land.jpg"",""time"":673.4749999886844},{""stimulus"":""run_exp/static/images/task_images/dig.jpg"",""time"":1338.0849999957718}]",[],7,,,,,,,,,,,,,,
harvest,154,582895,0.0-48.0-4.0,,null,run_exp/static/images/task_images/gems/98.jpg,null,,,,,,86,,,7,,,,,98,0.878313532,0.87755102,,,,,,,
decision,155,583249,0.0-48.0-5.0,,352.24,run_exp/static/images/task_images/land.jpg,65,,,,,,86,,,7,,,,,,,,196259,1,0,FALSE,,,
dig,156,585902,0.0-49.0-0.0,,,,,,,,,,,"[{""stimulus"":""run_exp/static/images/task_images/dig.jpg"",""time"":0.2300000051036477},{""stimulus"":""run_exp/static/images/task_images/land.jpg"",""time"":884.699999995064},{""stimulus"":""run_exp/static/images/task_images/dig.jpg"",""time"":1765.2850000013132}]",[],7,,,,,,,,,,,,,,
harvest,157,586907,0.0-49.0-1.0,,null,run_exp/static/images/task_images/gems/86.jpg,null,,,,,,67,,,7,,,,,86,0.780517941,0.779069767,,,,,,,
decision,158,587258,0.0-49.0-2.0,,348.95,run_exp/static/images/task_images/land.jpg,65,,,,,,67,,,7,,,,,,,,200268,1,1,FALSE,,,
dig,159,589912,0.0-50.0-0.0,,,,,,,,,,,"[{""stimulus"":""run_exp/static/images/task_images/dig.jpg"",""time"":0.21999998716637492},{""stimulus"":""run_exp/static/images/task_images/land.jpg"",""time"":889.1850000072736},{""stimulus"":""run_exp/static/images/task_images/dig.jpg"",""time"":1772.2049999865703}]",[],7,,,,,,,,,,,,,,
harvest,160,590915,0.0-50.0-1.0,,null,run_exp/static/images/task_images/gems/67.jpg,null,,,,,,56,,,7,,,,,67,0.840018101,0.835820896,,,,,,,
decision,161,591072,0.0-50.0-2.0,,155.72,run_exp/static/images/task_images/land.jpg,65,,,,,,56,,,7,,,,,,,,204082,1,2,FALSE,,,
dig,162,593922,0.0-51.0-0.0,,,,,,,,,,,"[{""stimulus"":""run_exp/static/images/task_images/dig.jpg"",""time"":0.1750000228639692},{""stimulus"":""run_exp/static/images/task_images/land.jpg"",""time"":951.0250000166707},{""stimulus"":""run_exp/static/images/task_images/dig.jpg"",""time"":1897.7799999993294}]",[],7,,,,,,,,,,,,,,
harvest,163,594928,0.0-51.0-1.0,,null,run_exp/static/images/task_images/gems/56.jpg,null,,,,,,46,,,7,,,,,56,0.817608611,0.821428571,,,,,,,
decision,164,595079,0.0-51.0-2.0,,149.385,run_exp/static/images/task_images/land.jpg,65,,,,,,46,,,7,,,,,,,,208089,1,3,FALSE,,,
dig,165,597943,0.0-52.0-0.0,,,,,,,,,,,"[{""stimulus"":""run_exp/static/images/task_images/dig.jpg"",""time"":0.4600000102072954},{""stimulus"":""run_exp/static/images/task_images/land.jpg"",""time"":955.229999992298},{""stimulus"":""run_exp/static/images/task_images/dig.jpg"",""time"":1902.685000008205}]",[],7,,,,,,,,,,,,,,
harvest,166,598950,0.0-52.0-1.0,,null,run_exp/static/images/task_images/gems/46.jpg,null,,,,,,39,,,7,,,,,46,0.854667005,0.847826087,,,,,,,
decision,167,599052,0.0-52.0-2.0,,100.505,run_exp/static/images/task_images/land.jpg,65,,,,,,39,,,7,,,,,,,,212062,1,4,FALSE,,,
dig,168,601957,0.0-53.0-0.0,,,,,,,,,,,"[{""stimulus"":""run_exp/static/images/task_images/dig.jpg"",""time"":0.19000002066604793},{""stimulus"":""run_exp/static/images/task_images/land.jpg"",""time"":967.239999998128},{""stimulus"":""run_exp/static/images/task_images/dig.jpg"",""time"":1938.1600000197068}]",[],7,,,,,,,,,,,,,,
harvest,169,602960,0.0-53.0-1.0,,null,run_exp/static/images/task_images/gems/39.jpg,null,,,,,,33,,,7,,,,,39,0.84154685,0.846153846,,,,,,,
decision,170,603063,0.0-53.0-2.0,,100.735,run_exp/static/images/task_images/land.jpg,65,,,,,,33,,,7,,,,,,,,216073,1,5,FALSE,,,
dig,171,605967,0.0-54.0-0.0,,,,,,,,,,,"[{""stimulus"":""run_exp/static/images/task_images/dig.jpg"",""time"":0.18999999156221747},{""stimulus"":""run_exp/static/images/task_images/land.jpg"",""time"":968.235000007553},{""stimulus"":""run_exp/static/images/task_images/dig.jpg"",""time"":1933.244999992894}]",[],7,,,,,,,,,,,,,,
harvest,172,606968,0.0-54.0-1.0,,null,run_exp/static/images/task_images/gems/33.jpg,null,,,,,,28,,,7,,,,,33,0.844683822,0.848484848,,,,,,,
decision,173,607174,0.0-54.0-2.0,,204.6,run_exp/static/images/task_images/land.jpg,65,,,,,,28,,,7,,,,,,,,220185,1,6,FALSE,,,
dig,174,609972,0.0-55.0-0.0,,,,,,,,,,,"[{""stimulus"":""run_exp/static/images/task_images/dig.jpg"",""time"":0.17499999376013875},{""stimulus"":""run_exp/static/images/task_images/land.jpg"",""time"":937.1899999969173},{""stimulus"":""run_exp/static/images/task_images/dig.jpg"",""time"":1863.325000012992}]",[],7,,,,,,,,,,,,,,
harvest,175,610973,0.0-55.0-1.0,,null,run_exp/static/images/task_images/gems/28.jpg,null,,,,,,23,,,7,,,,,28,0.830329873,0.821428571,,,,,,,
decision,176,611011,0.0-55.0-2.0,,35.58,run_exp/static/images/task_images/land.jpg,65,,,,,,23,,,7,,,,,,,,224021,1,7,FALSE,,,
dig,177,613980,0.0-56.0-0.0,,,,,,,,,,,"[{""stimulus"":""run_exp/static/images/task_images/dig.jpg"",""time"":0.22000001627020538},{""stimulus"":""run_exp/static/images/task_images/land.jpg"",""time"":991.9499999959953},{""stimulus"":""run_exp/static/images/task_images/dig.jpg"",""time"":1977.9250000137836}]",[],7,,,,,,,,,,,,,,
harvest,178,614984,0.0-56.0-1.0,,null,run_exp/static/images/task_images/gems/23.jpg,null,,,,,,18,,,7,,,,,23,0.775466873,0.782608696,,,,,,,
decision,179,615042,0.0-56.0-2.0,,56.365,run_exp/static/images/task_images/land.jpg,76,,,,,,18,,,7,,,,,,,,228052,1,8,TRUE,,,
travel,180,624986,0.0-57.0-0.0,,,,,,,,,,,"[{""stimulus"":""run_exp/static/images/task_images/rocket-01.jpg"",""time"":0.1399999891873449},{""stimulus"":""run_exp/static/images/task_images/rocket-02.jpg"",""time"":1105.7399999990594},{""stimulus"":""run_exp/static/images/task_images/rocket-03.jpg"",""time"":2211.119999992661},{""stimulus"":""run_exp/static/images/task_images/rocket-04.jpg"",""time"":3318.0649999994785},{""stimulus"":""run_exp/static/images/task_images/rocket-05.jpg"",""time"":4417.045000009239},{""stimulus"":""run_exp/static/images/task_images/rocket-06.jpg"",""time"":5526.24000000651},{""stimulus"":""run_exp/static/images/task_images/rocket-07.jpg"",""time"":6630.204999994021},{""stimulus"":""run_exp/static/images/task_images/rocket-08.jpg"",""time"":7729.135000001406},{""stimulus"":""run_exp/static/images/task_images/rocket-09.jpg"",""time"":8838.080000015907}]",[],7,,,,,,,,,,,,,,
alien_welcome,181,629992,0.0-57.0-1.0,,null,run_exp/static/images/task_images/aliens/old_aliens/planet/alien_planet-32.jpg,null,,,,,,,,,,,,32,"14,12,71,7,26,62,52,32,75,5,59,28,53,21,8,20,42,48,47,60,2,46,77,10,50,80,3,35,17,78,79,29,16,39,19,4,40,23",,,,,,,,,,
land,182,630499,0.0-57.0-2.0,,null,run_exp/static/images/task_images/land.jpg,null,,,,,,102,,,8,,,,,,,,,,,,,,
dig,183,632504,0.0-57.0-3.0,,,,,,,,,,,"[{""stimulus"":""run_exp/static/images/task_images/dig.jpg"",""time"":0.31999999191612005},{""stimulus"":""run_exp/static/images/task_images/land.jpg"",""time"":669.7350000031292},{""stimulus"":""run_exp/static/images/task_images/dig.jpg"",""time"":1337.4949999852106}]",[],8,,,,,,,,,,,,,,
harvest,184,633510,0.0-57.0-4.0,,null,run_exp/static/images/task_images/gems/102.jpg,null,,,,,,79,,,8,,,,,102,0.779099101,0.774509804,,,,,,,
decision,185,633747,0.0-57.0-5.0,,235.565,run_exp/static/images/task_images/land.jpg,65,,,,,,79,,,8,,,,,,,,246757,1,0,FALSE,,,
dig,186,636517,0.0-58.0-0.0,,,,,,,,,,,"[{""stimulus"":""run_exp/static/images/task_images/dig.jpg"",""time"":0.20500001846812665},{""stimulus"":""run_exp/static/images/task_images/land.jpg"",""time"":924.7700000123587},{""stimulus"":""run_exp/static/images/task_images/dig.jpg"",""time"":1847.3800000210758}]",[],8,,,,,,,,,,,,,,
harvest,187,637521,0.0-58.0-1.0,,null,run_exp/static/images/task_images/gems/79.jpg,null,,,,,,67,,,8,,,,,79,0.852275832,0.848101266,,,,,,,
decision,188,637835,0.0-58.0-2.0,,312.465,run_exp/static/images/task_images/land.jpg,65,,,,,,67,,,8,,,,,,,,250845,1,1,FALSE,,,
dig,189,640525,0.0-59.0-0.0,,,,,,,,,,,"[{""stimulus"":""run_exp/static/images/task_images/dig.jpg"",""time"":0.19000002066604793},{""stimulus"":""run_exp/static/images/task_images/land.jpg"",""time"":900.0250000099186},{""stimulus"":""run_exp/static/images/task_images/dig.jpg"",""time"":1794.3900000245776}]",[],8,,,,,,,,,,,,,,
harvest,190,641531,0.0-59.0-1.0,,null,run_exp/static/images/task_images/gems/67.jpg,null,,,,,,47,,,8,,,,,67,0.707851746,0.701492537,,,,,,,
decision,191,641719,0.0-59.0-2.0,,186.48,run_exp/static/images/task_images/land.jpg,65,,,,,,47,,,8,,,,,,,,254729,1,2,FALSE,,,
dig,192,644538,0.0-60.0-0.0,,,,,,,,,,,"[{""stimulus"":""run_exp/static/images/task_images/dig.jpg"",""time"":0.18999999156221747},{""stimulus"":""run_exp/static/images/task_images/land.jpg"",""time"":942.6649999804795},{""stimulus"":""run_exp/static/images/task_images/dig.jpg"",""time"":1878.6899999831803}]",[],8,,,,,,,,,,,,,,
harvest,193,645540,0.0-60.0-1.0,,null,run_exp/static/images/task_images/gems/47.jpg,null,,,,,,37,,,8,,,,,47,0.778272915,0.787234043,,,,,,,
decision,194,645707,0.0-60.0-2.0,,165.68,run_exp/static/images/task_images/land.jpg,65,,,,,,37,,,8,,,,,,,,258718,1,3,FALSE,,,
dig,195,648547,0.0-61.0-0.0,,,,,,,,,,,"[{""stimulus"":""run_exp/static/images/task_images/dig.jpg"",""time"":0.2300000051036477},{""stimulus"":""run_exp/static/images/task_images/land.jpg"",""time"":950.1900000032037},{""stimulus"":""run_exp/static/images/task_images/dig.jpg"",""time"":1890.8299999893643}]",[],8,,,,,,,,,,,,,,
harvest,196,649553,0.0-61.0-1.0,,null,run_exp/static/images/task_images/gems/37.jpg,null,,,,,,25,,,8,,,,,37,0.673965695,0.675675676,,,,,,,
decision,197,650618,0.0-61.0-2.0,,1063.19,run_exp/static/images/task_images/land.jpg,65,,,,,,25,,,8,,,,,,,,263628,1,4,FALSE,,,
dig,198,652559,0.0-62.0-0.0,,,,,,,,,,,"[{""stimulus"":""run_exp/static/images/task_images/dig.jpg"",""time"":0.19000002066604793},{""stimulus"":""run_exp/static/images/task_images/land.jpg"",""time"":650.6349999981467},{""stimulus"":""run_exp/static/images/task_images/dig.jpg"",""time"":1291.4549999986775}]",[],8,,,,,,,,,,,,,,
harvest,199,653564,0.0-62.0-1.0,,null,run_exp/static/images/task_images/gems/25.jpg,null,,,,,,20,,,8,,,,,25,0.802788562,0.8,,,,,,,
decision,200,654363,0.0-62.0-2.0,,795.695,run_exp/static/images/task_images/land.jpg,76,,,,,,20,,,8,,,,,,,,267373,1,5,TRUE,,,
travel,201,663570,0.0-63.0-0.0,,,,,,,,,,,"[{""stimulus"":""run_exp/static/images/task_images/rocket-01.jpg"",""time"":0.26500000967644155},{""stimulus"":""run_exp/static/images/task_images/rocket-02.jpg"",""time"":1024.4850000017323},{""stimulus"":""run_exp/static/images/task_images/rocket-03.jpg"",""time"":2046.3300000119489},{""stimulus"":""run_exp/static/images/task_images/rocket-04.jpg"",""time"":3068.520000000717},{""stimulus"":""run_exp/static/images/task_images/rocket-05.jpg"",""time"":4093.974999996135},{""stimulus"":""run_exp/static/images/task_images/rocket-06.jpg"",""time"":5114.079999999376},{""stimulus"":""run_exp/static/images/task_images/rocket-07.jpg"",""time"":6133.209999999963},{""stimulus"":""run_exp/static/images/task_images/rocket-08.jpg"",""time"":7160.145000001648},{""stimulus"":""run_exp/static/images/task_images/rocket-09.jpg"",""time"":8180.114999995567}]",[],8,,,,,,,,,,,,,,
alien_welcome,202,668577,0.0-63.0-1.0,,null,run_exp/static/images/task_images/aliens/old_aliens/planet/alien_planet-75.jpg,null,,,,,,,,,,,,75,"14,12,71,7,26,62,52,32,75,5,59,28,53,21,8,20,42,48,47,60,2,46,77,10,50,80,3,35,17,78,79,29,16,39,19,4,40,23",,,,,,,,,,
land,203,669081,0.0-63.0-2.0,,null,run_exp/static/images/task_images/land.jpg,null,,,,,,104,,,9,,,,,,,,,,,,,,
dig,204,671090,0.0-63.0-3.0,,,,,,,,,,,"[{""stimulus"":""run_exp/static/images/task_images/dig.jpg"",""time"":0.32500000088475645},{""stimulus"":""run_exp/static/images/task_images/land.jpg"",""time"":673.3400000084657},{""stimulus"":""run_exp/static/images/task_images/dig.jpg"",""time"":1340.345000004163}]",[],9,,,,,,,,,,,,,,
harvest,205,672096,0.0-63.0-4.0,,null,run_exp/static/images/task_images/gems/104.jpg,null,,,,,,16,,,9,,,,,104,0.158386688,0.153846154,,,,,,,
decision,206,672515,0.0-63.0-5.0,,417.38,run_exp/static/images/task_images/land.jpg,65,,,,,,16,,,9,,,,,,,,285525,1,0,FALSE,,,
dig,207,675101,0.0-64.0-0.0,,,,,,,,,,,"[{""stimulus"":""run_exp/static/images/task_images/dig.jpg"",""time"":0.18000000272877514},{""stimulus"":""run_exp/static/images/task_images/land.jpg"",""time"":863.9800000237301},{""stimulus"":""run_exp/static/images/task_images/dig.jpg"",""time"":1723.4950000129174}]",[],9,,,,,,,,,,,,,,
harvest,208,676105,0.0-64.0-1.0,,null,run_exp/static/images/task_images/gems/16.jpg,null,,,,,,2,,,9,,,,,16,0.151336913,0.125,,,,,,,
decision,209,677077,0.0-64.0-2.0,,970.175,run_exp/static/images/task_images/land.jpg,65,,,,,,2,,,9,,,,,,,,290087,1,1,FALSE,,,
dig,210,679110,0.0-65.0-0.0,,,,,,,,,,,"[{""stimulus"":""run_exp/static/images/task_images/dig.jpg"",""time"":0.19500000053085387},{""stimulus"":""run_exp/static/images/task_images/land.jpg"",""time"":682.1749999944586},{""stimulus"":""run_exp/static/images/task_images/dig.jpg"",""time"":1353.6299999977928}]",[],9,,,,,,,,,,,,,,
harvest,211,680113,0.0-65.0-1.0,,null,run_exp/static/images/task_images/gems/2.jpg,null,,,,,,0,,,9,,,,,2,0.169254515,0,,,,,,,
decision,212,680179,0.0-65.0-2.0,,64.185,run_exp/static/images/task_images/land.jpg,76,,,,,,0,,,9,,,,,,,,293190,1,2,TRUE,,,
travel,213,690117,0.0-66.0-0.0,,,,,,,,,,,"[{""stimulus"":""run_exp/static/images/task_images/rocket-01.jpg"",""time"":0.20000000949949026},{""stimulus"":""run_exp/static/images/task_images/rocket-02.jpg"",""time"":1108.8649999874178},{""stimulus"":""run_exp/static/images/task_images/rocket-03.jpg"",""time"":2212.1399999887217},{""stimulus"":""run_exp/static/images/task_images/rocket-04.jpg"",""time"":3315.1599999982864},{""stimulus"":""run_exp/static/images/task_images/rocket-05.jpg"",""time"":4413.730000000214},{""stimulus"":""run_exp/static/images/task_images/rocket-06.jpg"",""time"":5519.364999985555},{""stimulus"":""run_exp/static/images/task_images/rocket-07.jpg"",""time"":6624.164999986533},{""stimulus"":""run_exp/static/images/task_images/rocket-08.jpg"",""time"":7727.194999984931},{""stimulus"":""run_exp/static/images/task_images/rocket-09.jpg"",""time"":8830.279999994673}]",[],9,,,,,,,,,,,,,,
alien_welcome,214,695123,0.0-66.0-1.0,,null,run_exp/static/images/task_images/aliens/old_aliens/planet/alien_planet-5.jpg,null,,,,,,,,,,,,5,"14,12,71,7,26,62,52,32,75,5,59,28,53,21,8,20,42,48,47,60,2,46,77,10,50,80,3,35,17,78,79,29,16,39,19,4,40,23",,,,,,,,,,
land,215,695627,0.0-66.0-2.0,,null,run_exp/static/images/task_images/land.jpg,null,,,,,,97,,,10,,,,,,,,,,,,,,
dig,216,697637,0.0-66.0-3.0,,,,,,,,,,,"[{""stimulus"":""run_exp/static/images/task_images/dig.jpg"",""time"":0.3150000120513141},{""stimulus"":""run_exp/static/images/task_images/land.jpg"",""time"":671.0000000020955},{""stimulus"":""run_exp/static/images/task_images/dig.jpg"",""time"":1339.9050000007264}]",[],10,,,,,,,,,,,,,,
harvest,217,698643,0.0-66.0-4.0,,null,run_exp/static/images/task_images/gems/97.jpg,null,,,,,,13,,,10,,,,,97,0.13082193,0.134020619,,,,,,,
decision,218,699064,0.0-66.0-5.0,,419.175,run_exp/static/images/task_images/land.jpg,65,,,,,,13,,,10,,,,,,,,312074,1,0,TRUE,,,
end_of_block_continue,219,704996,0.0-67.0-0.0,,5925.935,run_exp/static/audio/clip_32_block_end.m4a,,,,,,0,,,,,,,,,,,,,,,,,,
alien_welcome,220,710012,0.0-68.0-0.0,,null,run_exp/static/images/task_images/aliens/old_aliens/planet/alien_planet-59.jpg,null,,,,,,,,,,,,59,"14,12,71,7,26,62,52,32,75,5,59,28,53,21,8,20,42,48,47,60,2,46,77,10,50,80,3,35,17,78,79,29,16,39,19,4,40,23",,,,,,,,,,
land,221,710515,0.0-68.0-1.0,,null,run_exp/static/images/task_images/land.jpg,null,,,,,,105,,,11,,,,,,,,,,,,,,
dig,222,712524,0.0-68.0-2.0,,,,,,,,,,,"[{""stimulus"":""run_exp/static/images/task_images/dig.jpg"",""time"":0.3299999807495624},{""stimulus"":""run_exp/static/images/task_images/land.jpg"",""time"":673.399999999674},{""stimulus"":""run_exp/static/images/task_images/dig.jpg"",""time"":1337.1099999931175}]",[],11,,,,,,,,,,,,,,
harvest,223,713528,0.0-68.0-3.0,,null,run_exp/static/images/task_images/gems/105.jpg,null,,,,,,18,,,11,,,,,105,0.167624867,0.171428571,,,,,,,
decision,224,713855,0.0-68.0-4.0,,325.505,run_exp/static/images/task_images/land.jpg,65,,,,,,18,,,11,,,,,,,,8848,2,0,FALSE,,,
dig,225,716534,0.0-69.0-0.0,,,,,,,,,,,"[{""stimulus"":""run_exp/static/images/task_images/dig.jpg"",""time"":0.19000002066604793},{""stimulus"":""run_exp/static/images/task_images/land.jpg"",""time"":896.9300000171643},{""stimulus"":""run_exp/static/images/task_images/dig.jpg"",""time"":1787.2150000184774}]",[],11,,,,,,,,,,,,,,
harvest,226,717537,0.0-69.0-1.0,,null,run_exp/static/images/task_images/gems/18.jpg,null,,,,,,4,,,11,,,,,18,0.199663895,0.222222222,,,,,,,
decision,227,717621,0.0-69.0-2.0,,81.985,run_exp/static/images/task_images/land.jpg,76,,,,,,4,,,11,,,,,,,,12614,2,1,TRUE,,,
travel,228,727547,0.0-70.0-0.0,,,,,,,,,,,"[{""stimulus"":""run_exp/static/images/task_images/rocket-01.jpg"",""time"":0.18000000272877514},{""stimulus"":""run_exp/static/images/task_images/rocket-02.jpg"",""time"":1108.1300000078045},{""stimulus"":""run_exp/static/images/task_images/rocket-03.jpg"",""time"":2210.015000018757},{""stimulus"":""run_exp/static/images/task_images/rocket-04.jpg"",""time"":3309.914999990724},{""stimulus"":""run_exp/static/images/task_images/rocket-05.jpg"",""time"":4409.110000007786},{""stimulus"":""run_exp/static/images/task_images/rocket-06.jpg"",""time"":5512.2449999907985},{""stimulus"":""run_exp/static/images/task_images/rocket-07.jpg"",""time"":6618.270000006305},{""stimulus"":""run_exp/static/images/task_images/rocket-08.jpg"",""time"":7718.114999996033},{""stimulus"":""run_exp/static/images/task_images/rocket-09.jpg"",""time"":8822.140000003856}]",[],11,,,,,,,,,,,,,,
alien_welcome,229,732552,0.0-70.0-1.0,,null,run_exp/static/images/task_images/aliens/old_aliens/planet/alien_planet-28.jpg,null,,,,,,,,,,,,28,"14,12,71,7,26,62,52,32,75,5,59,28,53,21,8,20,42,48,47,60,2,46,77,10,50,80,3,35,17,78,79,29,16,39,19,4,40,23",,,,,,,,,,
land,230,733056,0.0-70.0-2.0,,null,run_exp/static/images/task_images/land.jpg,null,,,,,,107,,,12,,,,,,,,,,,,,,
dig,231,735062,0.0-70.0-3.0,,,,,,,,,,,"[{""stimulus"":""run_exp/static/images/task_images/dig.jpg"",""time"":0.31999999191612005},{""stimulus"":""run_exp/static/images/task_images/land.jpg"",""time"":671.3100000051782},{""stimulus"":""run_exp/static/images/task_images/dig.jpg"",""time"":1340.425000002142}]",[],12,,,,,,,,,,,,,,
harvest,232,736069,0.0-70.0-4.0,,null,run_exp/static/images/task_images/gems/107.jpg,null,,,,,,29,,,12,,,,,107,0.268268574,0.271028037,,,,,,,
decision,233,736297,0.0-70.0-5.0,,226.06,run_exp/static/images/task_images/land.jpg,65,,,,,,29,,,12,,,,,,,,31290,2,0,FALSE,,,
dig,234,739076,0.0-71.0-0.0,,,,,,,,,,,"[{""stimulus"":""run_exp/static/images/task_images/dig.jpg"",""time"":0.19500000053085387},{""stimulus"":""run_exp/static/images/task_images/land.jpg"",""time"":926.1999999871477},{""stimulus"":""run_exp/static/images/task_images/dig.jpg"",""time"":1854.170000005979}]",[],12,,,,,,,,,,,,,,
harvest,235,740079,0.0-71.0-1.0,,null,run_exp/static/images/task_images/gems/29.jpg,null,,,,,,5,,,12,,,,,29,0.179260207,0.172413793,,,,,,,
decision,236,740431,0.0-71.0-2.0,,350.355,run_exp/static/images/task_images/land.jpg,76,,,,,,5,,,12,,,,,,,,35424,2,1,TRUE,,,
travel,237,750085,0.0-72.0-0.0,,,,,,,,,,,"[{""stimulus"":""run_exp/static/images/task_images/rocket-01.jpg"",""time"":0.19000002066604793},{""stimulus"":""run_exp/static/images/task_images/rocket-02.jpg"",""time"":1073.1500000110827},{""stimulus"":""run_exp/static/images/task_images/rocket-03.jpg"",""time"":2147.4900000030175},{""stimulus"":""run_exp/static/images/task_images/rocket-04.jpg"",""time"":3222.1750000026077},{""stimulus"":""run_exp/static/images/task_images/rocket-05.jpg"",""time"":4292.480000003707},{""stimulus"":""run_exp/static/images/task_images/rocket-06.jpg"",""time"":5366.204999998445},{""stimulus"":""run_exp/static/images/task_images/rocket-07.jpg"",""time"":6436.329999996815},{""stimulus"":""run_exp/static/images/task_images/rocket-08.jpg"",""time"":7505.025000020396},{""stimulus"":""run_exp/static/images/task_images/rocket-09.jpg"",""time"":8582.140000013169}]",[],12,,,,,,,,,,,,,,
alien_welcome,238,755090,0.0-72.0-1.0,,null,run_exp/static/images/task_images/aliens/old_aliens/planet/alien_planet-53.jpg,null,,,,,,,,,,,,53,"14,12,71,7,26,62,52,32,75,5,59,28,53,21,8,20,42,48,47,60,2,46,77,10,50,80,3,35,17,78,79,29,16,39,19,4,40,23",,,,,,,,,,
land,239,755597,0.0-72.0-2.0,,null,run_exp/static/images/task_images/land.jpg,null,,,,,,106,,,13,,,,,,,,,,,,,,
dig,240,757606,0.0-72.0-3.0,,,,,,,,,,,"[{""stimulus"":""run_exp/static/images/task_images/dig.jpg"",""time"":0.3150000120513141},{""stimulus"":""run_exp/static/images/task_images/land.jpg"",""time"":673.3400000084657},{""stimulus"":""run_exp/static/images/task_images/dig.jpg"",""time"":1340.3499999840278}]",[],13,,,,,,,,,,,,,,
harvest,241,758612,0.0-72.0-4.0,,null,run_exp/static/images/task_images/gems/106.jpg,null,,,,,,18,,,13,,,,,106,0.173945746,0.169811321,,,,,,,
decision,242,759099,0.0-72.0-5.0,,484.895,run_exp/static/images/task_images/land.jpg,65,,,,,,18,,,13,,,,,,,,54092,2,0,FALSE,,,
dig,243,761619,0.0-73.0-0.0,,,,,,,,,,,"[{""stimulus"":""run_exp/static/images/task_images/dig.jpg"",""time"":0.18999999156221747},{""stimulus"":""run_exp/static/images/task_images/land.jpg"",""time"":839.9100000096951},{""stimulus"":""run_exp/static/images/task_images/dig.jpg"",""time"":1677.4900000018533}]",[],13,,,,,,,,,,,,,,
harvest,244,762623,0.0-73.0-1.0,,null,run_exp/static/images/task_images/gems/18.jpg,null,,,,,,3,,,13,,,,,18,0.183705271,0.166666667,,,,,,,
decision,245,762797,0.0-73.0-2.0,,172.73,run_exp/static/images/task_images/land.jpg,76,,,,,,3,,,13,,,,,,,,57791,2,1,TRUE,,,
travel,246,772623,0.0-74.0-0.0,,,,,,,,,,,"[{""stimulus"":""run_exp/static/images/task_images/rocket-01.jpg"",""time"":0.20000000949949026},{""stimulus"":""run_exp/static/images/task_images/rocket-02.jpg"",""time"":1095.499999995809},{""stimulus"":""run_exp/static/images/task_images/rocket-03.jpg"",""time"":2186.664999986533},{""stimulus"":""run_exp/static/images/task_images/rocket-04.jpg"",""time"":3279.149999987567},{""stimulus"":""run_exp/static/images/task_images/rocket-05.jpg"",""time"":4368.324999988545},{""stimulus"":""run_exp/static/images/task_images/rocket-06.jpg"",""time"":5461.284999997588},{""stimulus"":""run_exp/static/images/task_images/rocket-07.jpg"",""time"":6547.289999987697},{""stimulus"":""run_exp/static/images/task_images/rocket-08.jpg"",""time"":7638.0950000020675},{""stimulus"":""run_exp/static/images/task_images/rocket-09.jpg"",""time"":8733.195000007981}]",[],13,,,,,,,,,,,,,,
alien_welcome,247,777629,0.0-74.0-1.0,,null,run_exp/static/images/task_images/aliens/old_aliens/planet/alien_planet-21.jpg,null,,,,,,,,,,,,21,"14,12,71,7,26,62,52,32,75,5,59,28,53,21,8,20,42,48,47,60,2,46,77,10,50,80,3,35,17,78,79,29,16,39,19,4,40,23",,,,,,,,,,
land,248,778135,0.0-74.0-2.0,,null,run_exp/static/images/task_images/land.jpg,null,,,,,,96,,,14,,,,,,,,,,,,,,
dig,249,780143,0.0-74.0-3.0,,,,,,,,,,,"[{""stimulus"":""run_exp/static/images/task_images/dig.jpg"",""time"":0.3150000120513141},{""stimulus"":""run_exp/static/images/task_images/land.jpg"",""time"":668.7249999959022},{""stimulus"":""run_exp/static/images/task_images/dig.jpg"",""time"":1336.8049999990035}]",[],14,,,,,,,,,,,,,,
harvest,250,781145,0.0-74.0-4.0,,null,run_exp/static/images/task_images/gems/96.jpg,null,,,,,,76,,,14,,,,,96,0.787021734,0.791666667,,,,,,,
decision,251,781657,0.0-74.0-5.0,,510.545,run_exp/static/images/task_images/land.jpg,65,,,,,,76,,,14,,,,,,,,76650,2,0,FALSE,,,
dig,252,784150,0.0-75.0-0.0,,,,,,,,,,,"[{""stimulus"":""run_exp/static/images/task_images/dig.jpg"",""time"":0.17499999376013875},{""stimulus"":""run_exp/static/images/task_images/land.jpg"",""time"":830.5199999886099},{""stimulus"":""run_exp/static/images/task_images/dig.jpg"",""time"":1662.7649999863934}]",[],14,,,,,,,,,,,,,,
harvest,253,785155,0.0-75.0-1.0,,null,run_exp/static/images/task_images/gems/76.jpg,null,,,,,,63,,,14,,,,,76,0.83493489,0.828947368,,,,,,,
decision,254,785647,0.0-75.0-2.0,,490.51,run_exp/static/images/task_images/land.jpg,65,,,,,,63,,,14,,,,,,,,80640,2,1,FALSE,,,
dig,255,788163,0.0-76.0-0.0,,,,,,,,,,,"[{""stimulus"":""run_exp/static/images/task_images/dig.jpg"",""time"":0.20500001846812665},{""stimulus"":""run_exp/static/images/task_images/land.jpg"",""time"":842.190000024857},{""stimulus"":""run_exp/static/images/task_images/dig.jpg"",""time"":1674.6750000165775}]",[],14,,,,,,,,,,,,,,
harvest,256,789170,0.0-76.0-1.0,,null,run_exp/static/images/task_images/gems/63.jpg,null,,,,,,48,,,14,,,,,63,0.75747091,0.761904762,,,,,,,
decision,257,789552,0.0-76.0-2.0,,380.525,run_exp/static/images/task_images/land.jpg,65,,,,,,48,,,14,,,,,,,,84545,2,2,FALSE,,,
dig,258,792177,0.0-77.0-0.0,,,,,,,,,,,"[{""stimulus"":""run_exp/static/images/task_images/dig.jpg"",""time"":0.2049999893642962},{""stimulus"":""run_exp/static/images/task_images/land.jpg"",""time"":874.9550000065938},{""stimulus"":""run_exp/static/images/task_images/dig.jpg"",""time"":1752.16500001261}]",[],14,,,,,,,,,,,,,,
harvest,259,793183,0.0-77.0-1.0,,null,run_exp/static/images/task_images/gems/48.jpg,null,,,,,,38,,,14,,,,,48,0.78475065,0.791666667,,,,,,,
decision,260,793524,0.0-77.0-2.0,,338.975,run_exp/static/images/task_images/land.jpg,65,,,,,,38,,,14,,,,,,,,88517,2,3,FALSE,,,
dig,261,796191,0.0-78.0-0.0,,,,,,,,,,,"[{""stimulus"":""run_exp/static/images/task_images/dig.jpg"",""time"":0.18000000272877514},{""stimulus"":""run_exp/static/images/task_images/land.jpg"",""time"":889.2899999918882},{""stimulus"":""run_exp/static/images/task_images/dig.jpg"",""time"":1780.2500000107102}]",[],14,,,,,,,,,,,,,,
harvest,262,797198,0.0-78.0-1.0,,null,run_exp/static/images/task_images/gems/38.jpg,null,,,,,,30,,,14,,,,,38,0.779363174,0.789473684,,,,,,,
decision,263,797584,0.0-78.0-2.0,,384.5,run_exp/static/images/task_images/land.jpg,65,,,,,,30,,,14,,,,,,,,92577,2,4,FALSE,,,
dig,264,800205,0.0-79.0-0.0,,,,,,,,,,,"[{""stimulus"":""run_exp/static/images/task_images/dig.jpg"",""time"":0.1999999803956598},{""stimulus"":""run_exp/static/images/task_images/land.jpg"",""time"":876.0749999783002},{""stimulus"":""run_exp/static/images/task_images/dig.jpg"",""time"":1748.1949999928474}]",[],14,,,,,,,,,,,,,,
harvest,265,801210,0.0-79.0-1.0,,null,run_exp/static/images/task_images/gems/30.jpg,null,,,,,,24,,,14,,,,,30,0.788071805,0.8,,,,,,,
decision,266,801615,0.0-79.0-2.0,,403.645,run_exp/static/images/task_images/land.jpg,65,,,,,,24,,,14,,,,,,,,96608,2,5,FALSE,,,
dig,267,804217,0.0-80.0-0.0,,,,,,,,,,,"[{""stimulus"":""run_exp/static/images/task_images/dig.jpg"",""time"":0.3349999897181988},{""stimulus"":""run_exp/static/images/task_images/land.jpg"",""time"":867.4549999996088},{""stimulus"":""run_exp/static/images/task_images/dig.jpg"",""time"":1735.9249999863096}]",[],14,,,,,,,,,,,,,,
harvest,268,805223,0.0-80.0-1.0,,null,run_exp/static/images/task_images/gems/24.jpg,null,,,,,,22,,,14,,,,,24,0.921429375,0.916666667,,,,,,,
decision,269,805380,0.0-80.0-2.0,,155.545,run_exp/static/images/task_images/land.jpg,76,,,,,,22,,,14,,,,,,,,100373,2,6,TRUE,,,
travel,270,815228,0.0-81.0-0.0,,,,,,,,,,,"[{""stimulus"":""run_exp/static/images/task_images/rocket-01.jpg"",""time"":0.18499998259358108},{""stimulus"":""run_exp/static/images/task_images/rocket-02.jpg"",""time"":1098.7549999845214},{""stimulus"":""run_exp/static/images/task_images/rocket-03.jpg"",""time"":2189.0049999929033},{""stimulus"":""run_exp/static/images/task_images/rocket-04.jpg"",""time"":3284.0849999920465},{""stimulus"":""run_exp/static/images/task_images/rocket-05.jpg"",""time"":4378.194999997504},{""stimulus"":""run_exp/static/images/task_images/rocket-06.jpg"",""time"":5471.129999990808},{""stimulus"":""run_exp/static/images/task_images/rocket-07.jpg"",""time"":6564.129999984289},{""stimulus"":""run_exp/static/images/task_images/rocket-08.jpg"",""time"":7657.129999977769},{""stimulus"":""run_exp/static/images/task_images/rocket-09.jpg"",""time"":8750.159999995958}]",[],14,,,,,,,,,,,,,,
alien_welcome,271,820231,0.0-81.0-1.0,,null,run_exp/static/images/task_images/aliens/old_aliens/planet/alien_planet-8.jpg,null,,,,,,,,,,,,8,"14,12,71,7,26,62,52,32,75,5,59,28,53,21,8,20,42,48,47,60,2,46,77,10,50,80,3,35,17,78,79,29,16,39,19,4,40,23",,,,,,,,,,
land,272,820737,0.0-81.0-2.0,,null,run_exp/static/images/task_images/land.jpg,null,,,,,,97,,,15,,,,,,,,,,,,,,
dig,273,822746,0.0-81.0-3.0,,,,,,,,,,,"[{""stimulus"":""run_exp/static/images/task_images/dig.jpg"",""time"":0.3299999807495624},{""stimulus"":""run_exp/static/images/task_images/land.jpg"",""time"":673.240000003716},{""stimulus"":""run_exp/static/images/task_images/dig.jpg"",""time"":1340.3749999997672}]",[],15,,,,,,,,,,,,,,
harvest,274,823748,0.0-81.0-4.0,,null,run_exp/static/images/task_images/gems/97.jpg,null,,,,,,68,,,15,,,,,97,0.70526876,0.701030928,,,,,,,
decision,275,824559,0.0-81.0-5.0,,809.22,run_exp/static/images/task_images/land.jpg,65,,,,,,68,,,15,,,,,,,,119552,2,0,FALSE,,,
dig,276,826761,0.0-82.0-0.0,,,,,,,,,,,"[{""stimulus"":""run_exp/static/images/task_images/dig.jpg"",""time"":0.18500001169741154},{""stimulus"":""run_exp/static/images/task_images/land.jpg"",""time"":736.1300000047777},{""stimulus"":""run_exp/static/images/task_images/dig.jpg"",""time"":1461.1600000062026}]",[],15,,,,,,,,,,,,,,
harvest,277,827768,0.0-82.0-1.0,,null,run_exp/static/images/task_images/gems/68.jpg,null,,,,,,56,,,15,,,,,68,0.817155395,0.823529412,,,,,,,
decision,278,827984,0.0-82.0-2.0,,214.295,run_exp/static/images/task_images/land.jpg,65,,,,,,56,,,15,,,,,,,,122977,2,1,FALSE,,,
dig,279,830777,0.0-83.0-0.0,,,,,,,,,,,"[{""stimulus"":""run_exp/static/images/task_images/dig.jpg"",""time"":0.22499999613501132},{""stimulus"":""run_exp/static/images/task_images/land.jpg"",""time"":930.064999993192},{""stimulus"":""run_exp/static/images/task_images/dig.jpg"",""time"":1862.2099999920465}]",[],15,,,,,,,,,,,,,,
harvest,280,831783,0.0-83.0-1.0,,null,run_exp/static/images/task_images/gems/56.jpg,null,,,,,,48,,,15,,,,,56,0.848662928,0.857142857,,,,,,,
decision,281,832285,0.0-83.0-2.0,,499.365,run_exp/static/images/task_images/land.jpg,65,,,,,,48,,,15,,,,,,,,127278,2,2,FALSE,,,
dig,282,834790,0.0-84.0-0.0,,,,,,,,,,,"[{""stimulus"":""run_exp/static/images/task_images/dig.jpg"",""time"":0.17499999376013875},{""stimulus"":""run_exp/static/images/task_images/land.jpg"",""time"":836.0849999880884},{""stimulus"":""run_exp/static/images/task_images/dig.jpg"",""time"":1672.1249999827705}]",[],15,,,,,,,,,,,,,,
harvest,283,835796,0.0-84.0-1.0,,null,run_exp/static/images/task_images/gems/48.jpg,null,,,,,,40,,,15,,,,,48,0.82555793,0.833333333,,,,,,,
decision,284,837634,0.0-84.0-2.0,,1836.07,run_exp/static/images/task_images/land.jpg,65,,,,,,40,,,15,,,,,,,,132627,2,3,FALSE,,,
dig,285,838801,0.0-85.0-0.0,,,,,,,,,,,"[{""stimulus"":""run_exp/static/images/task_images/dig.jpg"",""time"":0.2099999983329326},{""stimulus"":""run_exp/static/images/task_images/land.jpg"",""time"":390.95000000088476},{""stimulus"":""run_exp/static/images/task_images/dig.jpg"",""time"":777.9450000089128}]",[],15,,,,,,,,,,,,,,
harvest,286,839806,0.0-85.0-1.0,,null,run_exp/static/images/task_images/gems/40.jpg,null,,,,,,34,,,15,,,,,40,0.858926231,0.85,,,,,,,
decision,287,840775,0.0-85.0-2.0,,966.565,run_exp/static/images/task_images/land.jpg,65,,,,,,34,,,15,,,,,,,,135768,2,4,FALSE,,,
dig,288,842812,0.0-86.0-0.0,,,,,,,,,,,"[{""stimulus"":""run_exp/static/images/task_images/dig.jpg"",""time"":0.18000000272877514},{""stimulus"":""run_exp/static/images/task_images/land.jpg"",""time"":681.1349999916274},{""stimulus"":""run_exp/static/images/task_images/dig.jpg"",""time"":1360.14500001329}]",[],15,,,,,,,,,,,,,,
harvest,289,843816,0.0-86.0-1.0,,null,run_exp/static/images/task_images/gems/34.jpg,null,,,,,,29,,,15,,,,,34,0.838849811,0.852941176,,,,,,,
decision,290,843895,0.0-86.0-2.0,,77.03000001,run_exp/static/images/task_images/land.jpg,65,,,,,,29,,,15,,,,,,,,138888,2,5,FALSE,,,
dig,291,846823,0.0-87.0-0.0,,,,,,,,,,,"[{""stimulus"":""run_exp/static/images/task_images/dig.jpg"",""time"":0.23999999393709004},{""stimulus"":""run_exp/static/images/task_images/land.jpg"",""time"":976.9099999975879},{""stimulus"":""run_exp/static/images/task_images/dig.jpg"",""time"":1951.2699999904726}]",[],15,,,,,,,,,,,,,,
harvest,292,847825,0.0-87.0-1.0,,null,run_exp/static/images/task_images/gems/29.jpg,null,,,,,,22,,,15,,,,,29,0.764747213,0.75862069,,,,,,,
decision,293,847975,0.0-87.0-2.0,,147.745,run_exp/static/images/task_images/land.jpg,76,,,,,,22,,,15,,,,,,,,142968,2,6,TRUE,,,
travel,294,857831,0.0-88.0-0.0,,,,,,,,,,,"[{""stimulus"":""run_exp/static/images/task_images/rocket-01.jpg"",""time"":0.18000000272877514},{""stimulus"":""run_exp/static/images/task_images/rocket-02.jpg"",""time"":1098.1749999918975},{""stimulus"":""run_exp/static/images/task_images/rocket-03.jpg"",""time"":2193.429999984801},{""stimulus"":""run_exp/static/images/task_images/rocket-04.jpg"",""time"":3284.205000003567},{""stimulus"":""run_exp/static/images/task_images/rocket-05.jpg"",""time"":4379.959999991115},{""stimulus"":""run_exp/static/images/task_images/rocket-06.jpg"",""time"":5472.214999987045},{""stimulus"":""run_exp/static/images/task_images/rocket-07.jpg"",""time"":6565.494999988005},{""stimulus"":""run_exp/static/images/task_images/rocket-08.jpg"",""time"":7659.429999999702},{""stimulus"":""run_exp/static/images/task_images/rocket-09.jpg"",""time"":8755.35999998101}]",[],15,,,,,,,,,,,,,,
alien_welcome,295,862834,0.0-88.0-1.0,,null,run_exp/static/images/task_images/aliens/old_aliens/planet/alien_planet-20.jpg,null,,,,,,,,,,,,20,"14,12,71,7,26,62,52,32,75,5,59,28,53,21,8,20,42,48,47,60,2,46,77,10,50,80,3,35,17,78,79,29,16,39,19,4,40,23",,,,,,,,,,
land,296,863341,0.0-88.0-2.0,,null,run_exp/static/images/task_images/land.jpg,null,,,,,,93,,,16,,,,,,,,,,,,,,
dig,297,865349,0.0-88.0-3.0,,,,,,,,,,,"[{""stimulus"":""run_exp/static/images/task_images/dig.jpg"",""time"":0.32500000088475645},{""stimulus"":""run_exp/static/images/task_images/land.jpg"",""time"":673.3649999951012},{""stimulus"":""run_exp/static/images/task_images/dig.jpg"",""time"":1337.664999999106}]",[],16,,,,,,,,,,,,,,
harvest,298,866354,0.0-88.0-4.0,,null,run_exp/static/images/task_images/gems/93.jpg,null,,,,,,71,,,16,,,,,93,0.763636088,0.76344086,,,,,,,
decision,299,866933,0.0-88.0-5.0,,577.385,run_exp/static/images/task_images/land.jpg,65,,,,,,71,,,16,,,,,,,,161926,2,0,FALSE,,,
dig,300,869360,0.0-89.0-0.0,,,,,,,,,,,"[{""stimulus"":""run_exp/static/images/task_images/dig.jpg"",""time"":0.2049999893642962},{""stimulus"":""run_exp/static/images/task_images/land.jpg"",""time"":809.8450000106823},{""stimulus"":""run_exp/static/images/task_images/dig.jpg"",""time"":1620.2599999960512}]",[],16,,,,,,,,,,,,,,
harvest,301,870361,0.0-89.0-1.0,,null,run_exp/static/images/task_images/gems/71.jpg,null,,,,,,58,,,16,,,,,71,0.821055967,0.816901408,,,,,,,
decision,302,871578,0.0-89.0-2.0,,1215.845,run_exp/static/images/task_images/land.jpg,65,,,,,,58,,,16,,,,,,,,166572,2,1,FALSE,,,
dig,303,873367,0.0-90.0-0.0,,,,,,,,,,,"[{""stimulus"":""run_exp/static/images/task_images/dig.jpg"",""time"":0.2400000230409205},{""stimulus"":""run_exp/static/images/task_images/land.jpg"",""time"":600.2050000242889},{""stimulus"":""run_exp/static/images/task_images/dig.jpg"",""time"":1189.16999999783}]",[],16,,,,,,,,,,,,,,
harvest,304,874372,0.0-90.0-1.0,,null,run_exp/static/images/task_images/gems/58.jpg,null,,,,,,50,,,16,,,,,58,0.865010512,0.862068966,,,,,,,
decision,305,874698,0.0-90.0-2.0,,324.335,run_exp/static/images/task_images/land.jpg,65,,,,,,50,,,16,,,,,,,,169692,2,2,FALSE,,,
dig,306,877380,0.0-91.0-0.0,,,,,,,,,,,"[{""stimulus"":""run_exp/static/images/task_images/dig.jpg"",""time"":0.18000000272877514},{""stimulus"":""run_exp/static/images/task_images/land.jpg"",""time"":892.6999999966938},{""stimulus"":""run_exp/static/images/task_images/dig.jpg"",""time"":1785.005000012461}]",[],16,,,,,,,,,,,,,,
harvest,307,878386,0.0-91.0-1.0,,null,run_exp/static/images/task_images/gems/50.jpg,null,,,,,,41,,,16,,,,,50,0.81195286,0.82,,,,,,,
decision,308,878405,0.0-91.0-2.0,,16.26499998,run_exp/static/images/task_images/land.jpg,65,,,,,,41,,,16,,,,,,,,173398,2,3,FALSE,,,
dig,309,881393,0.0-92.0-0.0,,,,,,,,,,,"[{""stimulus"":""run_exp/static/images/task_images/dig.jpg"",""time"":0.18000000272877514},{""stimulus"":""run_exp/static/images/task_images/land.jpg"",""time"":995.5950000148732},{""stimulus"":""run_exp/static/images/task_images/dig.jpg"",""time"":1994.1450000042096}]",[],16,,,,,,,,,,,,,,
harvest,310,882394,0.0-92.0-1.0,,null,run_exp/static/images/task_images/gems/41.jpg,null,,,,,,32,,,16,,,,,41,0.779051132,0.780487805,,,,,,,
decision,311,882578,0.0-92.0-2.0,,181.915,run_exp/static/images/task_images/land.jpg,65,,,,,,32,,,16,,,,,,,,177571,2,4,FALSE,,,
dig,312,885401,0.0-93.0-0.0,,,,,,,,,,,"[{""stimulus"":""run_exp/static/images/task_images/dig.jpg"",""time"":0.18499998259358108},{""stimulus"":""run_exp/static/images/task_images/land.jpg"",""time"":940.8499999844935},{""stimulus"":""run_exp/static/images/task_images/dig.jpg"",""time"":1882.7149999851827}]",[],16,,,,,,,,,,,,,,
harvest,313,886406,0.0-93.0-1.0,,null,run_exp/static/images/task_images/gems/32.jpg,null,,,,,,25,,,16,,,,,32,0.790553728,0.78125,,,,,,,
decision,314,886601,0.0-93.0-2.0,,191.98,run_exp/static/images/task_images/land.jpg,65,,,,,,25,,,16,,,,,,,,181594,2,5,FALSE,,,
dig,315,889414,0.0-94.0-0.0,,,,,,,,,,,"[{""stimulus"":""run_exp/static/images/task_images/dig.jpg"",""time"":0.21499997819773853},{""stimulus"":""run_exp/static/images/task_images/land.jpg"",""time"":939.024999999674},{""stimulus"":""run_exp/static/images/task_images/dig.jpg"",""time"":1878.1749999907333}]",[],16,,,,,,,,,,,,,,
harvest,316,890419,0.0-94.0-1.0,,null,run_exp/static/images/task_images/gems/25.jpg,null,,,,,,21,,,16,,,,,25,0.845794317,0.84,,,,,,,
decision,317,890551,0.0-94.0-2.0,,130.19,run_exp/static/images/task_images/land.jpg,76,,,,,,21,,,16,,,,,,,,185544,2,6,TRUE,,,
travel,318,900426,0.0-95.0-0.0,,,,,,,,,,,"[{""stimulus"":""run_exp/static/images/task_images/rocket-01.jpg"",""time"":0.17499999376013875},{""stimulus"":""run_exp/static/images/task_images/rocket-02.jpg"",""time"":1101.1650000000373},{""stimulus"":""run_exp/static/images/task_images/rocket-03.jpg"",""time"":2197.4300000001676},{""stimulus"":""run_exp/static/images/task_images/rocket-04.jpg"",""time"":3289.8349999741185},{""stimulus"":""run_exp/static/images/task_images/rocket-05.jpg"",""time"":4390.159999980824},{""stimulus"":""run_exp/static/images/task_images/rocket-06.jpg"",""time"":5484.954999992624},{""stimulus"":""run_exp/static/images/task_images/rocket-07.jpg"",""time"":6582.144999993034},{""stimulus"":""run_exp/static/images/task_images/rocket-08.jpg"",""time"":7672.809999989113},{""stimulus"":""run_exp/static/images/task_images/rocket-09.jpg"",""time"":8769.204999989597}]",[],16,,,,,,,,,,,,,,
alien_welcome,319,905429,0.0-95.0-1.0,,null,run_exp/static/images/task_images/aliens/old_aliens/planet/alien_planet-42.jpg,null,,,,,,,,,,,,42,"14,12,71,7,26,62,52,32,75,5,59,28,53,21,8,20,42,48,47,60,2,46,77,10,50,80,3,35,17,78,79,29,16,39,19,4,40,23",,,,,,,,,,
land,320,905931,0.0-95.0-2.0,,null,run_exp/static/images/task_images/land.jpg,null,,,,,,106,,,17,,,,,,,,,,,,,,
dig,321,907938,0.0-95.0-3.0,,,,,,,,,,,"[{""stimulus"":""run_exp/static/images/task_images/dig.jpg"",""time"":0.3150000120513141},{""stimulus"":""run_exp/static/images/task_images/land.jpg"",""time"":670.8100000105333},{""stimulus"":""run_exp/static/images/task_images/dig.jpg"",""time"":1337.9150000109803}]",[],17,,,,,,,,,,,,,,
harvest,322,908940,0.0-95.0-4.0,,null,run_exp/static/images/task_images/gems/106.jpg,null,,,,,,86,,,17,,,,,106,0.807404715,0.811320755,,,,,,,
decision,323,909914,0.0-95.0-5.0,,972.2,run_exp/static/images/task_images/land.jpg,65,,,,,,86,,,17,,,,,,,,204907,2,0,FALSE,,,
dig,324,911945,0.0-96.0-0.0,,,,,,,,,,,"[{""stimulus"":""run_exp/static/images/task_images/dig.jpg"",""time"":0.20000000949949026},{""stimulus"":""run_exp/static/images/task_images/land.jpg"",""time"":679.2399999976624},{""stimulus"":""run_exp/static/images/task_images/dig.jpg"",""time"":1352.6249999995343}]",[],17,,,,,,,,,,,,,,
harvest,325,912950,0.0-96.0-1.0,,null,run_exp/static/images/task_images/gems/86.jpg,null,,,,,,78,,,17,,,,,86,0.905283763,0.906976744,,,,,,,
decision,326,913518,0.0-96.0-2.0,,566.02,run_exp/static/images/task_images/land.jpg,65,,,,,,78,,,17,,,,,,,,208511,2,1,FALSE,,,
dig,327,915957,0.0-97.0-0.0,,,,,,,,,,,"[{""stimulus"":""run_exp/static/images/task_images/dig.jpg"",""time"":0.17499999376013875},{""stimulus"":""run_exp/static/images/task_images/land.jpg"",""time"":814.0499999863096},{""stimulus"":""run_exp/static/images/task_images/dig.jpg"",""time"":1625.1399999891873}]",[],17,,,,,,,,,,,,,,
harvest,328,916960,0.0-97.0-1.0,,null,run_exp/static/images/task_images/gems/78.jpg,null,,,,,,60,,,17,,,,,78,0.772649686,0.769230769,,,,,,,
decision,329,917201,0.0-97.0-2.0,,238.725,run_exp/static/images/task_images/land.jpg,65,,,,,,60,,,17,,,,,,,,212194,2,2,FALSE,,,
dig,330,919967,0.0-98.0-0.0,,,,,,,,,,,"[{""stimulus"":""run_exp/static/images/task_images/dig.jpg"",""time"":0.18999999156221747},{""stimulus"":""run_exp/static/images/task_images/land.jpg"",""time"":926.1450000049081},{""stimulus"":""run_exp/static/images/task_images/dig.jpg"",""time"":1844.504999986384}]",[],17,,,,,,,,,,,,,,
harvest,331,920974,0.0-98.0-1.0,,null,run_exp/static/images/task_images/gems/60.jpg,null,,,,,,48,,,17,,,,,60,0.805126745,0.8,,,,,,,
decision,332,921046,0.0-98.0-2.0,,69.92000001,run_exp/static/images/task_images/land.jpg,65,,,,,,48,,,17,,,,,,,,216039,2,3,FALSE,,,
dig,333,923980,0.0-99.0-0.0,,,,,,,,,,,"[{""stimulus"":""run_exp/static/images/task_images/dig.jpg"",""time"":0.18500001169741154},{""stimulus"":""run_exp/static/images/task_images/land.jpg"",""time"":982.1400000073481},{""stimulus"":""run_exp/static/images/task_images/dig.jpg"",""time"":1958.1750000070315}]",[],17,,,,,,,,,,,,,,
harvest,334,924988,0.0-99.0-1.0,,null,run_exp/static/images/task_images/gems/48.jpg,null,,,,,,39,,,17,,,,,48,0.805958658,0.8125,,,,,,,
decision,335,925041,0.0-99.0-2.0,,50.85500001,run_exp/static/images/task_images/land.jpg,65,,,,,,39,,,17,,,,,,,,220034,2,4,FALSE,,,
dig,336,927995,0.0-100.0-0.0,,,,,,,,,,,"[{""stimulus"":""run_exp/static/images/task_images/dig.jpg"",""time"":0.18499998259358108},{""stimulus"":""run_exp/static/images/task_images/land.jpg"",""time"":986.5299999946728},{""stimulus"":""run_exp/static/images/task_images/dig.jpg"",""time"":1970.9799999836832}]",[],17,,,,,,,,,,,,,,
harvest,337,928999,0.0-100.0-1.0,,null,run_exp/static/images/task_images/gems/39.jpg,null,,,,,,30,,,17,,,,,39,0.770341141,0.769230769,,,,,,,
decision,338,929118,0.0-100.0-2.0,,117.75,run_exp/static/images/task_images/land.jpg,65,,,,,,30,,,17,,,,,,,,224112,2,5,FALSE,,,
dig,339,932005,0.0-101.0-0.0,,,,,,,,,,,"[{""stimulus"":""run_exp/static/images/task_images/dig.jpg"",""time"":0.17499999376013875},{""stimulus"":""run_exp/static/images/task_images/land.jpg"",""time"":965.2099999948405},{""stimulus"":""run_exp/static/images/task_images/dig.jpg"",""time"":1922.4450000037905}]",[],17,,,,,,,,,,,,,,
harvest,340,933013,0.0-101.0-1.0,,null,run_exp/static/images/task_images/gems/30.jpg,null,,,,,,26,,,17,,,,,30,0.879252556,0.866666667,,,,,,,
decision,341,933422,0.0-101.0-2.0,,407.835,run_exp/static/images/task_images/land.jpg,65,,,,,,26,,,17,,,,,,,,228415,2,6,FALSE,,,
dig,342,936020,0.0-102.0-0.0,,,,,,,,,,,"[{""stimulus"":""run_exp/static/images/task_images/dig.jpg"",""time"":0.18000000272877514},{""stimulus"":""run_exp/static/images/task_images/land.jpg"",""time"":870.2749999938533},{""stimulus"":""run_exp/static/images/task_images/dig.jpg"",""time"":1734.249999979511}]",[],17,,,,,,,,,,,,,,
harvest,343,937022,0.0-102.0-1.0,,null,run_exp/static/images/task_images/gems/26.jpg,null,,,,,,22,,,17,,,,,26,0.847766366,0.846153846,,,,,,,
decision,344,937124,0.0-102.0-2.0,,99.67,run_exp/static/images/task_images/land.jpg,76,,,,,,22,,,17,,,,,,,,232117,2,7,TRUE,,,
travel,345,947030,0.0-103.0-0.0,,,,,,,,,,,"[{""stimulus"":""run_exp/static/images/task_images/rocket-01.jpg"",""time"":0.18499998259358108},{""stimulus"":""run_exp/static/images/task_images/rocket-02.jpg"",""time"":1101.1949999956414},{""stimulus"":""run_exp/static/images/task_images/rocket-03.jpg"",""time"":2206.1399999947753},{""stimulus"":""run_exp/static/images/task_images/rocket-04.jpg"",""time"":3303.504999988945},{""stimulus"":""run_exp/static/images/task_images/rocket-05.jpg"",""time"":4401.439999986906},{""stimulus"":""run_exp/static/images/task_images/rocket-06.jpg"",""time"":5506.144999992102},{""stimulus"":""run_exp/static/images/task_images/rocket-07.jpg"",""time"":6604.625000007218},{""stimulus"":""run_exp/static/images/task_images/rocket-08.jpg"",""time"":7705.235000001267},{""stimulus"":""run_exp/static/images/task_images/rocket-09.jpg"",""time"":8804.709999996703}]",[],17,,,,,,,,,,,,,,
alien_welcome,346,952033,0.0-103.0-1.0,,null,run_exp/static/images/task_images/aliens/old_aliens/planet/alien_planet-48.jpg,null,,,,,,,,,,,,48,"14,12,71,7,26,62,52,32,75,5,59,28,53,21,8,20,42,48,47,60,2,46,77,10,50,80,3,35,17,78,79,29,16,39,19,4,40,23",,,,,,,,,,
land,347,952535,0.0-103.0-2.0,,null,run_exp/static/images/task_images/land.jpg,null,,,,,,105,,,18,,,,,,,,,,,,,,
dig,348,954543,0.0-103.0-3.0,,,,,,,,,,,"[{""stimulus"":""run_exp/static/images/task_images/dig.jpg"",""time"":0.3100000030826777},{""stimulus"":""run_exp/static/images/task_images/land.jpg"",""time"":670.734999992419},{""stimulus"":""run_exp/static/images/task_images/dig.jpg"",""time"":1337.0899999863468}]",[],18,,,,,,,,,,,,,,
harvest,349,955547,0.0-103.0-4.0,,null,run_exp/static/images/task_images/gems/105.jpg,null,,,,,,88,,,18,,,,,105,0.841868403,0.838095238,,,,,,,
decision,350,956083,0.0-103.0-5.0,,533.26,run_exp/static/images/task_images/land.jpg,65,,,,,,88,,,18,,,,,,,,251076,2,0,FALSE,,,
dig,351,958555,0.0-104.0-0.0,,,,,,,,,,,"[{""stimulus"":""run_exp/static/images/task_images/dig.jpg"",""time"":0.21500000730156898},{""stimulus"":""run_exp/static/images/task_images/land.jpg"",""time"":825.6399999954738},{""stimulus"":""run_exp/static/images/task_images/dig.jpg"",""time"":1647.0350000017788}]",[],18,,,,,,,,,,,,,,
harvest,352,959562,0.0-104.0-1.0,,null,run_exp/static/images/task_images/gems/88.jpg,null,,,,,,70,,,18,,,,,88,0.793417429,0.795454545,,,,,,,
decision,353,959740,0.0-104.0-2.0,,175.995,run_exp/static/images/task_images/land.jpg,65,,,,,,70,,,18,,,,,,,,254733,2,1,FALSE,,,
dig,354,962571,0.0-105.0-0.0,,,,,,,,,,,"[{""stimulus"":""run_exp/static/images/task_images/dig.jpg"",""time"":0.18000000272877514},{""stimulus"":""run_exp/static/images/task_images/land.jpg"",""time"":942.7349999896251},{""stimulus"":""run_exp/static/images/task_images/dig.jpg"",""time"":1884.3349999806378}]",[],18,,,,,,,,,,,,,,
harvest,355,963578,0.0-105.0-1.0,,null,run_exp/static/images/task_images/gems/70.jpg,null,,,,,,55,,,18,,,,,70,0.792790477,0.785714286,,,,,,,
decision,356,963740,0.0-105.0-2.0,,160.815,run_exp/static/images/task_images/land.jpg,65,,,,,,55,,,18,,,,,,,,258733,2,2,FALSE,,,
dig,357,966587,0.0-106.0-0.0,,,,,,,,,,,"[{""stimulus"":""run_exp/static/images/task_images/dig.jpg"",""time"":0.4899999767076224},{""stimulus"":""run_exp/static/images/task_images/land.jpg"",""time"":947.9699999792501},{""stimulus"":""run_exp/static/images/task_images/dig.jpg"",""time"":1898.6349999904633}]",[],18,,,,,,,,,,,,,,
harvest,358,967590,0.0-106.0-1.0,,null,run_exp/static/images/task_images/gems/55.jpg,null,,,,,,44,,,18,,,,,55,0.792772997,0.8,,,,,,,
decision,359,967916,0.0-106.0-2.0,,324.465,run_exp/static/images/task_images/land.jpg,65,,,,,,44,,,18,,,,,,,,262909,2,3,FALSE,,,
dig,360,970597,0.0-107.0-0.0,,,,,,,,,,,"[{""stimulus"":""run_exp/static/images/task_images/dig.jpg"",""time"":0.18500001169741154},{""stimulus"":""run_exp/static/images/task_images/land.jpg"",""time"":897.0700000063516},{""stimulus"":""run_exp/static/images/task_images/dig.jpg"",""time"":1788.154999987455}]",[],18,,,,,,,,,,,,,,
harvest,361,971598,0.0-107.0-1.0,,null,run_exp/static/images/task_images/gems/44.jpg,null,,,,,,35,,,18,,,,,44,0.802231527,0.795454545,,,,,,,
decision,362,971648,0.0-107.0-2.0,,48.125,run_exp/static/images/task_images/land.jpg,65,,,,,,35,,,18,,,,,,,,266642,2,4,FALSE,,,
dig,363,974604,0.0-108.0-0.0,,,,,,,,,,,"[{""stimulus"":""run_exp/static/images/task_images/dig.jpg"",""time"":0.18499998259358108},{""stimulus"":""run_exp/static/images/task_images/land.jpg"",""time"":988.8549999741372},{""stimulus"":""run_exp/static/images/task_images/dig.jpg"",""time"":1970.2049999905284}]",[],18,,,,,,,,,,,,,,
harvest,364,975611,0.0-108.0-1.0,,null,run_exp/static/images/task_images/gems/35.jpg,null,,,,,,27,,,18,,,,,35,0.767184975,0.771428571,,,,,,,
decision,365,975652,0.0-108.0-2.0,,39.15499998,run_exp/static/images/task_images/land.jpg,65,,,,,,27,,,18,,,,,,,,270645,2,5,FALSE,,,
dig,366,978617,0.0-109.0-0.0,,,,,,,,,,,"[{""stimulus"":""run_exp/static/images/task_images/dig.jpg"",""time"":0.18999999156221747},{""stimulus"":""run_exp/static/images/task_images/land.jpg"",""time"":992.1899999899324},{""stimulus"":""run_exp/static/images/task_images/dig.jpg"",""time"":1977.6999999885447}]",[],18,,,,,,,,,,,,,,
harvest,367,979622,0.0-109.0-1.0,,null,run_exp/static/images/task_images/gems/27.jpg,null,,,,,,21,,,18,,,,,27,0.795531817,0.777777778,,,,,,,
decision,368,979718,0.0-109.0-2.0,,94.24000001,run_exp/static/images/task_images/land.jpg,76,,,,,,21,,,18,,,,,,,,274711,2,6,TRUE,,,
travel,369,989628,0.0-110.0-0.0,,,,,,,,,,,"[{""stimulus"":""run_exp/static/images/task_images/rocket-01.jpg"",""time"":0.30499999411404133},{""stimulus"":""run_exp/static/images/task_images/rocket-02.jpg"",""time"":1106.4749999786727},{""stimulus"":""run_exp/static/images/task_images/rocket-03.jpg"",""time"":2207.3049999889918},{""stimulus"":""run_exp/static/images/task_images/rocket-04.jpg"",""time"":3305.3999999829102},{""stimulus"":""run_exp/static/images/task_images/rocket-05.jpg"",""time"":4403.6749999795575},{""stimulus"":""run_exp/static/images/task_images/rocket-06.jpg"",""time"":5501.510000001872},{""stimulus"":""run_exp/static/images/task_images/rocket-07.jpg"",""time"":6606.479999987641},{""stimulus"":""run_exp/static/images/task_images/rocket-08.jpg"",""time"":7702.835000003688},{""stimulus"":""run_exp/static/images/task_images/rocket-09.jpg"",""time"":8802.00500000501}]",[],18,,,,,,,,,,,,,,
alien_welcome,370,994632,0.0-110.0-1.0,,null,run_exp/static/images/task_images/aliens/old_aliens/planet/alien_planet-47.jpg,null,,,,,,,,,,,,47,"14,12,71,7,26,62,52,32,75,5,59,28,53,21,8,20,42,48,47,60,2,46,77,10,50,80,3,35,17,78,79,29,16,39,19,4,40,23",,,,,,,,,,
land,371,995137,0.0-110.0-2.0,,null,run_exp/static/images/task_images/land.jpg,null,,,,,,92,,,19,,,,,,,,,,,,,,
dig,372,997143,0.0-110.0-3.0,,,,,,,,,,,"[{""stimulus"":""run_exp/static/images/task_images/dig.jpg"",""time"":0.3100000030826777},{""stimulus"":""run_exp/static/images/task_images/land.jpg"",""time"":673.3400000084657},{""stimulus"":""run_exp/static/images/task_images/dig.jpg"",""time"":1340.3399999951944}]",[],19,,,,,,,,,,,,,,
harvest,373,998146,0.0-110.0-4.0,,null,run_exp/static/images/task_images/gems/92.jpg,null,,,,,,43,,,19,,,,,92,0.46563569,0.467391304,,,,,,,
decision,374,1000612,0.0-110.0-5.0,,2463.655,run_exp/static/images/task_images/land.jpg,65,,,,,,43,,,19,,,,,,,,295605,2,0,FALSE,,,
dig,375,1001153,0.0-111.0-0.0,,,,,,,,,,,"[{""stimulus"":""run_exp/static/images/task_images/dig.jpg"",""time"":0.2300000051036477},{""stimulus"":""run_exp/static/images/task_images/land.jpg"",""time"":179.1699999885168},{""stimulus"":""run_exp/static/images/task_images/dig.jpg"",""time"":356.99999998905696}]",[],19,,,,,,,,,,,,,,
harvest,376,1002155,0.0-111.0-1.0,,null,run_exp/static/images/task_images/gems/43.jpg,null,,,,,,23,,,19,,,,,43,0.54219464,0.534883721,,,,,,,
decision,377,1002756,0.0-111.0-2.0,,598.19,run_exp/static/images/task_images/land.jpg,65,,,,,,23,,,19,,,,,,,,297749,2,1,FALSE,,,
dig,378,1005164,0.0-112.0-0.0,,,,,,,,,,,"[{""stimulus"":""run_exp/static/images/task_images/dig.jpg"",""time"":0.2649999805726111},{""stimulus"":""run_exp/static/images/task_images/land.jpg"",""time"":806.1899999738671},{""stimulus"":""run_exp/static/images/task_images/dig.jpg"",""time"":1606.180000002496}]",[],19,,,,,,,,,,,,,,
harvest,379,1006166,0.0-112.0-1.0,,null,run_exp/static/images/task_images/gems/23.jpg,null,,,,,,11,,,19,,,,,23,0.486951272,0.47826087,,,,,,,
decision,380,1006731,0.0-112.0-2.0,,563.17,run_exp/static/images/task_images/land.jpg,76,,,,,,11,,,19,,,,,,,,301724,2,2,TRUE,,,
end_of_block_continue,381,1008820,0.0-113.0-0.0,,2082.7,run_exp/static/audio/clip_32_block_end.m4a,,,,,,0,,,,,,,,,,,,,,,,,,
alien_welcome,382,1013835,0.0-114.0-0.0,,null,run_exp/static/images/task_images/aliens/old_aliens/planet/alien_planet-60.jpg,null,,,,,,,,,,,,60,"14,12,71,7,26,62,52,32,75,5,59,28,53,21,8,20,42,48,47,60,2,46,77,10,50,80,3,35,17,78,79,29,16,39,19,4,40,23",,,,,,,,,,
land,383,1014337,0.0-114.0-1.0,,null,run_exp/static/images/task_images/land.jpg,null,,,,,,98,,,20,,,,,,,,,,,,,,
dig,384,1016340,0.0-114.0-2.0,,,,,,,,,,,"[{""stimulus"":""run_exp/static/images/task_images/dig.jpg"",""time"":0.24500000290572643},{""stimulus"":""run_exp/static/images/task_images/land.jpg"",""time"":667.9250000161119},{""stimulus"":""run_exp/static/images/task_images/dig.jpg"",""time"":1335.2100000192877}]",[],20,,,,,,,,,,,,,,
harvest,385,1017341,0.0-114.0-3.0,,null,run_exp/static/images/task_images/gems/98.jpg,null,,,,,,49,,,20,,,,,98,0.496714318,0.5,,,,,,,
decision,386,1017554,0.0-114.0-4.0,,210.78,run_exp/static/images/task_images/land.jpg,65,,,,,,49,,,20,,,,,,,,8723,3,0,FALSE,,,
dig,387,1020346,0.0-115.0-0.0,,,,,,,,,,,"[{""stimulus"":""run_exp/static/images/task_images/dig.jpg"",""time"":0.1999999803956598},{""stimulus"":""run_exp/static/images/task_images/land.jpg"",""time"":932.6049999799579},{""stimulus"":""run_exp/static/images/task_images/dig.jpg"",""time"":1859.0599999879487}]",[],20,,,,,,,,,,,,,,
harvest,388,1021350,0.0-115.0-1.0,,null,run_exp/static/images/task_images/gems/49.jpg,null,,,,,,23,,,20,,,,,49,0.478318556,0.469387755,,,,,,,
decision,389,1021862,0.0-115.0-2.0,,510.585,run_exp/static/images/task_images/land.jpg,65,,,,,,23,,,20,,,,,,,,13032,3,1,FALSE,,,
dig,390,1024355,0.0-116.0-0.0,,,,,,,,,,,"[{""stimulus"":""run_exp/static/images/task_images/dig.jpg"",""time"":0.2099999983329326},{""stimulus"":""run_exp/static/images/task_images/land.jpg"",""time"":830.0750000053085},{""stimulus"":""run_exp/static/images/task_images/dig.jpg"",""time"":1662.2499999939464}]",[],20,,,,,,,,,,,,,,
harvest,391,1025360,0.0-116.0-1.0,,null,run_exp/static/images/task_images/gems/23.jpg,null,,,,,,13,,,20,,,,,23,0.560979599,0.565217391,,,,,,,
decision,392,1025418,0.0-116.0-2.0,,55.62500001,run_exp/static/images/task_images/land.jpg,76,,,,,,13,,,20,,,,,,,,16587,3,2,TRUE,,,
travel,393,1035365,0.0-117.0-0.0,,,,,,,,,,,"[{""stimulus"":""run_exp/static/images/task_images/rocket-01.jpg"",""time"":0.18500001169741154},{""stimulus"":""run_exp/static/images/task_images/rocket-02.jpg"",""time"":1110.130000015488},{""stimulus"":""run_exp/static/images/task_images/rocket-03.jpg"",""time"":2211.47499998915},{""stimulus"":""run_exp/static/images/task_images/rocket-04.jpg"",""time"":3313.140000012936},{""stimulus"":""run_exp/static/images/task_images/rocket-05.jpg"",""time"":4418.695000000298},{""stimulus"":""run_exp/static/images/task_images/rocket-06.jpg"",""time"":5525.175000017043},{""stimulus"":""run_exp/static/images/task_images/rocket-07.jpg"",""time"":6630.124999996042},{""stimulus"":""run_exp/static/images/task_images/rocket-08.jpg"",""time"":7731.564999994589},{""stimulus"":""run_exp/static/images/task_images/rocket-09.jpg"",""time"":8838.140000007115}]",[],20,,,,,,,,,,,,,,
alien_welcome,394,1040375,0.0-117.0-1.0,,null,run_exp/static/images/task_images/aliens/old_aliens/planet/alien_planet-2.jpg,null,,,,,,,,,,,,2,"14,12,71,7,26,62,52,32,75,5,59,28,53,21,8,20,42,48,47,60,2,46,77,10,50,80,3,35,17,78,79,29,16,39,19,4,40,23",,,,,,,,,,
land,395,1040879,0.0-117.0-2.0,,null,run_exp/static/images/task_images/land.jpg,null,,,,,,102,,,21,,,,,,,,,,,,,,
dig,396,1042886,0.0-117.0-3.0,,,,,,,,,,,"[{""stimulus"":""run_exp/static/images/task_images/dig.jpg"",""time"":0.31499998294748366},{""stimulus"":""run_exp/static/images/task_images/land.jpg"",""time"":672.7399999799673},{""stimulus"":""run_exp/static/images/task_images/dig.jpg"",""time"":1339.124999998603}]",[],21,,,,,,,,,,,,,,
harvest,397,1043894,0.0-117.0-4.0,,null,run_exp/static/images/task_images/gems/102.jpg,null,,,,,,88,,,21,,,,,102,0.859974907,0.862745098,,,,,,,
decision,398,1043956,0.0-117.0-5.0,,60.69000001,run_exp/static/images/task_images/land.jpg,65,,,,,,88,,,21,,,,,,,,35126,3,0,FALSE,,,
dig,399,1046904,0.0-118.0-0.0,,,,,,,,,,,"[{""stimulus"":""run_exp/static/images/task_images/dig.jpg"",""time"":0.3000000142492354},{""stimulus"":""run_exp/static/images/task_images/land.jpg"",""time"":985.2700000046752},{""stimulus"":""run_exp/static/images/task_images/dig.jpg"",""time"":1961.3250000111293}]",[],21,,,,,,,,,,,,,,
harvest,400,1047908,0.0-118.0-1.0,,null,run_exp/static/images/task_images/gems/88.jpg,null,,,,,,70,,,21,,,,,88,0.795044945,0.795454545,,,,,,,
