trial_type,trial_index,time_elapsed,internal_node_id,interactions,blur_events,focus_events,fullscreenenter_events,fullscreenexit_events,success,rt,stimulus,key_press,prompt,subject_id,participant_id,age,gender,button_pressed,next_reward,animation_sequence,responses,planet,curr_prac_trial,n_prac_rounds,alien,aliens,reward_received,decay_rate_actual,decay_rate_exp,time_in_block,block_num,prt,last_trial_on_planet,button_html,bonus,num_failures
pavlovia,0,50,0.0-0.0,"""event"",""trial"",""time""
""fullscreenenter"",""1"",""116720""
","
","
","""event"",""trial"",""time""
""fullscreenenter"",""1"",""116720""
","
",,,,,,,,,,,,,,,,,,,,,,,,,,,,
fullscreen,1,117562,0.0-1.0,"""event"",""trial"",""time""
""fullscreenenter"",""1"",""116720""
","
","
","""event"",""trial"",""time""
""fullscreenenter"",""1"",""116720""
","
",TRUE,,,,,,,,,,,,,,,,,,,,,,,,,,,
instruc_welcome,2,127291,0.0-2.0,"""event"",""trial"",""time""
""fullscreenenter"",""1"",""116720""
","
","
","""event"",""trial"",""time""
""fullscreenenter"",""1"",""116720""
","
",,null,run_exp/static/audio/clip_1_welcome.m4a,null,"<p>Howdy! In this experiment, you’ll be an explorer traveling through space to collect space treasure.</p><p>Your mission is to collect as much treasure as possible.</p><br><br><p><img src='run_exp/static/images/task_images/opening_img-01.jpg' height='300' width='auto'></p>",9197,897,24.87,Female,,,,,,,,,,,,,,,,,,,
audio-keyboard-response,3,143950,0.0-3.0,"""event"",""trial"",""time""
""fullscreenenter"",""1"",""116720""
","
","
","""event"",""trial"",""time""
""fullscreenenter"",""1"",""116720""
","
",,null,run_exp/static/audio/clip_2_move.m4a,null,,,,,,,,,,,,,,,,,,,,,,,,
welcome_dec,4,147688,0.0-4.0,"""event"",""trial"",""time""
""fullscreenenter"",""1"",""116720""
","
","
","""event"",""trial"",""time""
""fullscreenenter"",""1"",""116720""
","
",,3732.3,"<p>Howdy! In this experiment, you’ll be an explorer traveling through space to collect space treasure.</p><p>Your mission is to collect as much treasure as possible.</p><br><br><p><img src='run_exp/static/images/task_images/opening_img-01.jpg' height='300' width='auto'></p>",,,,,,,1,,,,,,,,,,,,,,,,,,
html-keyboard-response,5,149745,0.0-5.0,"""event"",""trial"",""time""
""fullscreenenter"",""1"",""116720""
","
","
","""event"",""trial"",""time""
""fullscreenenter"",""1"",""116720""
","
",,2054.1,"<p>Howdy! In this experiment, you’ll be an explorer traveling through space to collect space treasure.</p><p>Your mission is to collect as much treasure as possible.</p><br><br><p><img src='run_exp/static/images/task_images/opening_img-01.jpg' height='300' width='auto'></p><button class=""jspsych-html-btn-unchosen""><img src=""run_exp/static/images/task_images/planet-01.jpg"" height=""50""></button><button class=""jspsych-html-btn-chosen""><img src=""run_exp/static/images/task_images/planet-02.jpg"" height=""50""></button><p><b>[press the space bar to lock in your answer]<b><br></p>",32,,,,,,,,,,,,,,,,,,,,,,,,
instruc_goal,6,159829,0.0-6.0-0.0,"""event"",""trial"",""time""
""fullscreenenter"",""1"",""116720""
","
","
","""event"",""trial"",""time""
""fullscreenenter"",""1"",""116720""
","
",,null,run_exp/static/audio/clip_3_goal.m4a,null,"<p> As a space explorer, you’ll visit different planets to dig for space treasure, these pink gems.</p> <p> The more treasure you dig up, the more bonus money you’ll win! </p><br><br><p><img src='run_exp/static/images/task_images/pink_gem.jpg' height='300' width='auto'></p>",,,,,,,,,,,,,,,,,,,,,,,
instruc_goal,7,164411,0.0-6.0-1.0,"""event"",""trial"",""time""
""fullscreenenter"",""1"",""116720""
","
","
","""event"",""trial"",""time""
""fullscreenenter"",""1"",""116720""
","
",,4577.8,"<p> As a space explorer, you’ll visit different planets to dig for space treasure, these pink gems.</p> <p> The more treasure you dig up, the more bonus money you’ll win! </p><br><br><p><img src='run_exp/static/images/task_images/pink_gem.jpg' height='300' width='auto'></p>",,,,,,,1,,,,,,,,,,,,,,,,,,
html-keyboard-response,8,172352,0.0-6.0-2.0,"""event"",""trial"",""time""
""fullscreenenter"",""1"",""116720""
","
","
","""event"",""trial"",""time""
""fullscreenenter"",""1"",""116720""
","
",,7936.7,"<p> As a space explorer, you’ll visit different planets to dig for space treasure, these pink gems.</p> <p> The more treasure you dig up, the more bonus money you’ll win! </p><br><br><p><img src='run_exp/static/images/task_images/pink_gem.jpg' height='300' width='auto'></p><button class=""jspsych-html-btn-unchosen""><img src=""run_exp/static/images/task_images/planet-01.jpg"" height=""50""></button><button class=""jspsych-html-btn-chosen""><img src=""run_exp/static/images/task_images/planet-02.jpg"" height=""50""></button><p><b>[press the space bar to lock in your answer]<b><br></p>",32,,,,,,,,,,,,,,,,,,,,,,,,
instruc_dig,9,188392,0.0-7.0-0.0,"""event"",""trial"",""time""
""fullscreenenter"",""1"",""116720""
","
","
","""event"",""trial"",""time""
""fullscreenenter"",""1"",""116720""
","
",,null,run_exp/static/audio/clip_4_dig.m4a,null,,,,,,,100,,,,,,,,,,,,,,,,,
instruc_dig_try,10,189202,0.0-7.0-1.0,"""event"",""trial"",""time""
""fullscreenenter"",""1"",""116720""
","
","
","""event"",""trial"",""time""
""fullscreenenter"",""1"",""116720""
","
",,805.7,"<p> When you’ve arrived at a new planet, you will dig once. </p> <p>Then, you get to decide if you want to stay on the planet and dig again or travel to a new planet and dig there.</p> <p> To stay and dig, press the letter <strong>‘A’</strong> on your keyboard. Try pressing it now! </p><p><img src='run_exp/static/images/task_images/land.jpg'  height='700' width='auto'></p>",65,"<p> When you’ve arrived at a new planet, you will dig once. </p> <p>Then, you get to decide if you want to stay on the planet and dig again or travel to a new planet and dig there.</p> <p> To stay and dig, press the letter <strong>‘A’</strong> on your keyboard. Try pressing it now! </p><p><img src='run_exp/static/images/task_images/land.jpg'  height='700' width='auto'></p>",,,,,,100,,,,,,,,,,,,,,,,,
dig_prac,11,191236,0.0-7.0-2.0,"""event"",""trial"",""time""
""fullscreenenter"",""1"",""116720""
","
","
","""event"",""trial"",""time""
""fullscreenenter"",""1"",""116720""
","
",,,,,,,,,,,,"[{""stimulus"":""run_exp/static/images/task_images/dig.jpg"",""time"":0.7000000476837158},{""stimulus"":""run_exp/static/images/task_images/land.jpg"",""time"":670.3999998569489},{""stimulus"":""run_exp/static/images/task_images/dig.jpg"",""time"":1339.3999998569489}]",[],,,,,,,,,,,,,,,
instruc_travel,12,227493,0.0-7.0-3.0,"""event"",""trial"",""time""
""fullscreenenter"",""1"",""116720""
","
","
","""event"",""trial"",""time""
""fullscreenenter"",""1"",""116720""
","
",,null,run_exp/static/audio/clip_5_travel.m4a,null,"<p>Every time you dig up gems, there are less gems on the planet, so the more you dig on a planet the fewer gems you’ll get with each dig.</p><p>When gems are running low, you may want to travel to a new planet. </p> <p>  Planets are very far apart in this galaxy, so it will take some time to travel between them. </p> <br><p>There are lots and lots of planets for you to visit, so you won’t be able to return to any planets you’ve seen before. </p><br><p>To leave this planet and travel to a new one, press the letter <strong>‘L’</strong> on your keyboard. Try pressing it now! </p><p><img src='run_exp/static/images/task_images/rocket-01.jpg'  height='600' width='auto'></p>",,,,,,,,,,,,,,,,,,,,,,,
instruc_travel_try,13,232522,0.0-7.0-4.0,"""event"",""trial"",""time""
""fullscreenenter"",""1"",""116720""
","
","
","""event"",""trial"",""time""
""fullscreenenter"",""1"",""116720""
","
",,5027.3,"<p>Every time you dig up gems, there are less gems on the planet, so the more you dig on a planet the fewer gems you’ll get with each dig.</p><p>When gems are running low, you may want to travel to a new planet. </p> <p>  Planets are very far apart in this galaxy, so it will take some time to travel between them. </p> <br><p>There are lots and lots of planets for you to visit, so you won’t be able to return to any planets you’ve seen before. </p><br><p>To leave this planet and travel to a new one, press the letter <strong>‘L’</strong> on your keyboard. Try pressing it now! </p><p><img src='run_exp/static/images/task_images/rocket-01.jpg'  height='600' width='auto'></p>",76,"<p>Every time you dig up gems, there are less gems on the planet, so the more you dig on a planet the fewer gems you’ll get with each dig.</p><p>When gems are running low, you may want to travel to a new planet. </p> <p>  Planets are very far apart in this galaxy, so it will take some time to travel between them. </p> <br><p>There are lots and lots of planets for you to visit, so you won’t be able to return to any planets you’ve seen before. </p><br><p>To leave this planet and travel to a new one, press the letter <strong>‘L’</strong> on your keyboard. Try pressing it now! </p><p><img src='run_exp/static/images/task_images/rocket-01.jpg'  height='600' width='auto'></p>",,,,,,,,,,,,,,,,,,,,,,,
travel_prac,14,242541,0.0-7.0-5.0,"""event"",""trial"",""time""
""fullscreenenter"",""1"",""116720""
","
","
","""event"",""trial"",""time""
""fullscreenenter"",""1"",""116720""
","
",,,,,,,,,,,,"[{""stimulus"":""run_exp/static/images/task_images/rocket-01.jpg"",""time"":0.5999999046325684},{""stimulus"":""run_exp/static/images/task_images/rocket-02.jpg"",""time"":1127.2999999523163},{""stimulus"":""run_exp/static/images/task_images/rocket-03.jpg"",""time"":2226},{""stimulus"":""run_exp/static/images/task_images/rocket-04.jpg"",""time"":3350.7000000476837},{""stimulus"":""run_exp/static/images/task_images/rocket-05.jpg"",""time"":4457.900000095367},{""stimulus"":""run_exp/static/images/task_images/rocket-06.jpg"",""time"":5565.200000047684},{""stimulus"":""run_exp/static/images/task_images/rocket-07.jpg"",""time"":6672.599999904633},{""stimulus"":""run_exp/static/images/task_images/rocket-08.jpg"",""time"":7782.799999952316},{""stimulus"":""run_exp/static/images/task_images/rocket-09.jpg"",""time"":8893.400000095367}]",[],0,,,,,,,,,,,,,,
instruc_alien_greet,15,269785,0.0-7.0-6.0,"""event"",""trial"",""time""
""fullscreenenter"",""1"",""116720""
","
","
","""event"",""trial"",""time""
""fullscreenenter"",""1"",""116720""
","
",,null,run_exp/static/audio/clip_6_alien.m4a,null,"<p>When you arrive at a new planet, the alien who owns the treasure mine on that planet will greet you!</p><p>The better an alien takes care of their mine the easier it is to dig for gems. Some aliens take better care of their mine than others. So, you won’t get exactly the same amount of gems on each planet.</p><p>What the alien looks like does not tell you anything about how many gems there are on the planet.</p><br><p><img src=""run_exp/static/images/task_images/aliens/instructions_aliens/planet/alien_planet-1.jpg""  height=""600"" width=""auto""></p>",,,,,,,,,,,,,,,,,,,,,,,
instruc_alien_greet,16,272498,0.0-7.0-7.0,"""event"",""trial"",""time""
""fullscreenenter"",""1"",""116720""
","
","
","""event"",""trial"",""time""
""fullscreenenter"",""1"",""116720""
","
",,2708.9,"<p>When you arrive at a new planet, the alien who owns the treasure mine on that planet will greet you!</p><p>The better an alien takes care of their mine the easier it is to dig for gems. Some aliens take better care of their mine than others. So, you won’t get exactly the same amount of gems on each planet.</p><p>What the alien looks like does not tell you anything about how many gems there are on the planet.</p><br><p><img src=""run_exp/static/images/task_images/aliens/instructions_aliens/planet/alien_planet-1.jpg""  height=""600"" width=""auto""></p>",,,,,,,1,,,,,,,,,,,,,,,,,,
html-keyboard-response,17,275567,0.0-7.0-8.0,"""event"",""trial"",""time""
""fullscreenenter"",""1"",""116720""
","
","
","""event"",""trial"",""time""
""fullscreenenter"",""1"",""116720""
","
",,3066.8,"<p>When you arrive at a new planet, the alien who owns the treasure mine on that planet will greet you!</p><p>The better an alien takes care of their mine the easier it is to dig for gems. Some aliens take better care of their mine than others. So, you won’t get exactly the same amount of gems on each planet.</p><p>What the alien looks like does not tell you anything about how many gems there are on the planet.</p><br><p><img src=""run_exp/static/images/task_images/aliens/instructions_aliens/planet/alien_planet-1.jpg""  height=""600"" width=""auto""></p><button class=""jspsych-html-btn-unchosen""><img src=""run_exp/static/images/task_images/planet-01.jpg"" height=""50""></button><button class=""jspsych-html-btn-chosen""><img src=""run_exp/static/images/task_images/planet-02.jpg"" height=""50""></button><p><b>[press the space bar to lock in your answer]<b><br></p>",32,,,,,,,,,,,,,,,,,,,,,,,,
time_out,18,286724,0.0-8.0-0.0,"""event"",""trial"",""time""
""fullscreenenter"",""1"",""116720""
","
","
","""event"",""trial"",""time""
""fullscreenenter"",""1"",""116720""
","
",,null,run_exp/static/audio/clip_7_timeout.m4a,null,"<p>If you don't make your choice fast enough, you’ll have to wait a few seconds before you can make another one.</p><p>You can’t dig for more gems or travel to new planets. You just have to sit and wait.</p><br><p><img src='run_exp/static/images/task_images/time_out.jpg'  height='600' width='auto'></p>",,,,,,,,,,,,,,,,,,,,,,,
time_out,19,290468,0.0-8.0-1.0,"""event"",""trial"",""time""
""fullscreenenter"",""1"",""116720""
","
","
","""event"",""trial"",""time""
""fullscreenenter"",""1"",""116720""
","
",,3740.2,"<p>If you don't make your choice fast enough, you’ll have to wait a few seconds before you can make another one.</p><p>You can’t dig for more gems or travel to new planets. You just have to sit and wait.</p><br><p><img src='run_exp/static/images/task_images/time_out.jpg'  height='600' width='auto'></p>",,,,,,,1,,,,,,,,,,,,,,,,,,
html-keyboard-response,20,291589,0.0-8.0-2.0,"""event"",""trial"",""time""
""fullscreenenter"",""1"",""116720""
","
","
","""event"",""trial"",""time""
""fullscreenenter"",""1"",""116720""
","
",,1119.4,"<p>If you don't make your choice fast enough, you’ll have to wait a few seconds before you can make another one.</p><p>You can’t dig for more gems or travel to new planets. You just have to sit and wait.</p><br><p><img src='run_exp/static/images/task_images/time_out.jpg'  height='600' width='auto'></p><button class=""jspsych-html-btn-unchosen""><img src=""run_exp/static/images/task_images/planet-01.jpg"" height=""50""></button><button class=""jspsych-html-btn-chosen""><img src=""run_exp/static/images/task_images/planet-02.jpg"" height=""50""></button><p><b>[press the space bar to lock in your answer]<b><br></p>",32,,,,,,,,,,,,,,,,,,,,,,,,
instruc_break,21,307344,0.0-9.0-0.0,"""event"",""trial"",""time""
""fullscreenenter"",""1"",""116720""
","
","
","""event"",""trial"",""time""
""fullscreenenter"",""1"",""116720""
","
",,null,run_exp/static/audio/clip_8_break.m4a,null,"<p> After digging and traveling for a while, you’ll be able to take a break at home base. </p><p>The game will last 20 minutes no matter what.</p><p>You will visit home base every 5 minutes, so, you will visit home base three times during the game.</p><br><p><img src='run_exp/static/images/task_images/home_base.jpg' height='600' width='auto'></p>",,,,,,,,,,,,,,,,,,,,,,,
instruc_break,22,308575,0.0-9.0-1.0,"""event"",""trial"",""time""
""fullscreenenter"",""1"",""116720""
","
","
","""event"",""trial"",""time""
""fullscreenenter"",""1"",""116720""
","
",,1227.3,"<p> After digging and traveling for a while, you’ll be able to take a break at home base. </p><p>The game will last 20 minutes no matter what.</p><p>You will visit home base every 5 minutes, so, you will visit home base three times during the game.</p><br><p><img src='run_exp/static/images/task_images/home_base.jpg' height='600' width='auto'></p>",,,,,,,1,,,,,,,,,,,,,,,,,,
html-keyboard-response,23,309571,0.0-9.0-2.0,"""event"",""trial"",""time""
""fullscreenenter"",""1"",""116720""
","
","
","""event"",""trial"",""time""
""fullscreenenter"",""1"",""116720""
","
",,992.8,"<p> After digging and traveling for a while, you’ll be able to take a break at home base. </p><p>The game will last 20 minutes no matter what.</p><p>You will visit home base every 5 minutes, so, you will visit home base three times during the game.</p><br><p><img src='run_exp/static/images/task_images/home_base.jpg' height='600' width='auto'></p><button class=""jspsych-html-btn-unchosen""><img src=""run_exp/static/images/task_images/planet-01.jpg"" height=""50""></button><button class=""jspsych-html-btn-chosen""><img src=""run_exp/static/images/task_images/planet-02.jpg"" height=""50""></button><p><b>[press the space bar to lock in your answer]<b><br></p>",32,,,,,,,,,,,,,,,,,,,,,,,,
instruc_prac_game,24,319744,0.0-10.0-0.0,"""event"",""trial"",""time""
""fullscreenenter"",""1"",""116720""
","
","
","""event"",""trial"",""time""
""fullscreenenter"",""1"",""116720""
","
",,null,run_exp/static/audio/clip_9_practice.m4a,null,"<p> Are you ready to play a practice game? </p> <p>In this practice game, you'll be digging up barrels of gems. But, in the real game, you'll be digging up the gems themselves. </p>",,,,,,,,,,,,,,,,,,,,,,,
html-button-response,25,333504,0.0-10.0-1.0,"""event"",""trial"",""time""
""fullscreenenter"",""1"",""116720""
","
","
","""event"",""trial"",""time""
""fullscreenenter"",""1"",""116720""
","
",,13757.4,"<p> Are you ready to play a practice game? </p> <p>In this practice game, you'll be digging up barrels of gems. But, in the real game, you'll be digging up the gems themselves. </p>",,,,,,,0,,,,,,,,,,,,,,,,,,
alien_welcome_prac,26,338528,0.0-11.0-0.0,"""event"",""trial"",""time""
""fullscreenenter"",""1"",""116720""
","
","
","""event"",""trial"",""time""
""fullscreenenter"",""1"",""116720""
","
",,null,run_exp/static/images/task_images/aliens/practice_aliens/planet/alien_planet-5.jpg,null,,,,,,,,,,,,,,,,,,,,,,,,
land_prac,27,339040,0.0-11.0-1.0,"""event"",""trial"",""time""
""fullscreenenter"",""1"",""116720""
","
","
","""event"",""trial"",""time""
""fullscreenenter"",""1"",""116720""
","
",,null,run_exp/static/images/task_images/land.jpg,null,,,,,,,100,,,0,,,,,,,,,,,,,,
dig_prac,28,341054,0.0-11.0-2.0,"""event"",""trial"",""time""
""fullscreenenter"",""1"",""116720""
","
","
","""event"",""trial"",""time""
""fullscreenenter"",""1"",""116720""
","
",,,,,,,,,,,,"[{""stimulus"":""run_exp/static/images/task_images/dig.jpg"",""time"":0.5},{""stimulus"":""run_exp/static/images/task_images/land.jpg"",""time"":669.7999999523163},{""stimulus"":""run_exp/static/images/task_images/dig.jpg"",""time"":1338.5}]",[],,,,,,,,,,,,,,,
harvest_prac,29,342065,0.0-11.0-3.0,"""event"",""trial"",""time""
""fullscreenenter"",""1"",""116720""
","
","
","""event"",""trial"",""time""
""fullscreenenter"",""1"",""116720""
","
",,null,run_exp/static/images/task_images/barrel_text.jpg,null,,,,,,,,,,,,,,,,,,,,,,,,
decision_prac,30,343318,0.0-11.0-4.0,"""event"",""trial"",""time""
""fullscreenenter"",""1"",""116720""
","
","
","""event"",""trial"",""time""
""fullscreenenter"",""1"",""116720""
","
",,1248.9,run_exp/static/images/task_images/land.jpg,65,,,,,,,,,,,1,,,,,,,,,,,,,
dig_prac,31,345338,0.0-12.0-0.0,"""event"",""trial"",""time""
""fullscreenenter"",""1"",""116720""
","
","
","""event"",""trial"",""time""
""fullscreenenter"",""1"",""116720""
","
",,,,,,,,,,,,"[{""stimulus"":""run_exp/static/images/task_images/dig.jpg"",""time"":0.5999999046325684},{""stimulus"":""run_exp/static/images/task_images/land.jpg"",""time"":679.3999998569489},{""stimulus"":""run_exp/static/images/task_images/dig.jpg"",""time"":1348.0999999046326}]",[],,,,,,,,,,,,,,,
harvest_prac,32,346352,0.0-12.0-1.0,"""event"",""trial"",""time""
""fullscreenenter"",""1"",""116720""
","
","
","""event"",""trial"",""time""
""fullscreenenter"",""1"",""116720""
","
",,null,run_exp/static/images/task_images/barrel_text.jpg,null,,,,,,,,,,,,,,,,,,,,,,,,
decision_prac,33,348117,0.0-12.0-2.0,"""event"",""trial"",""time""
""fullscreenenter"",""1"",""116720""
","
","
","""event"",""trial"",""time""
""fullscreenenter"",""1"",""116720""
","
",,1761.7,run_exp/static/images/task_images/land.jpg,65,,,,,,,,,,,2,,,,,,,,,,,,,
dig_prac,34,350136,0.0-13.0-0.0,"""event"",""trial"",""time""
""fullscreenenter"",""1"",""116720""
","
","
","""event"",""trial"",""time""
""fullscreenenter"",""1"",""116720""
","
",,,,,,,,,,,,"[{""stimulus"":""run_exp/static/images/task_images/dig.jpg"",""time"":0.40000009536743164},{""stimulus"":""run_exp/static/images/task_images/land.jpg"",""time"":679},{""stimulus"":""run_exp/static/images/task_images/dig.jpg"",""time"":1346.6000001430511}]",[],,,,,,,,,,,,,,,
harvest_prac,35,351154,0.0-13.0-1.0,"""event"",""trial"",""time""
""fullscreenenter"",""1"",""116720""
","
","
","""event"",""trial"",""time""
""fullscreenenter"",""1"",""116720""
","
",,null,run_exp/static/images/task_images/barrel_text.jpg,null,,,,,,,,,,,,,,,,,,,,,,,,
decision_prac,36,351795,0.0-13.0-2.0,"""event"",""trial"",""time""
""fullscreenenter"",""1"",""116720""
","
","
","""event"",""trial"",""time""
""fullscreenenter"",""1"",""116720""
","
",,638.9000001,run_exp/static/images/task_images/land.jpg,65,,,,,,,,,,,3,,,,,,,,,,,,,
dig_prac,37,353818,0.0-14.0-0.0,"""event"",""trial"",""time""
""fullscreenenter"",""1"",""116720""
","
","
","""event"",""trial"",""time""
""fullscreenenter"",""1"",""116720""
","
",,,,,,,,,,,,"[{""stimulus"":""run_exp/static/images/task_images/dig.jpg"",""time"":0.5},{""stimulus"":""run_exp/static/images/task_images/land.jpg"",""time"":671.1000001430511},{""stimulus"":""run_exp/static/images/task_images/dig.jpg"",""time"":1336.6000001430511}]",[],,,,,,,,,,,,,,,
harvest_prac,38,354824,0.0-14.0-1.0,"""event"",""trial"",""time""
""fullscreenenter"",""1"",""116720""
","
","
","""event"",""trial"",""time""
""fullscreenenter"",""1"",""116720""
","
",,null,run_exp/static/images/task_images/barrel_text.jpg,null,,,,,,,,,,,,,,,,,,,,,,,,
decision_prac,39,355581,0.0-14.0-2.0,"""event"",""trial"",""time""
""fullscreenenter"",""1"",""116720""
","
","
","""event"",""trial"",""time""
""fullscreenenter"",""1"",""116720""
","
",,753.8,run_exp/static/images/task_images/land.jpg,65,,,,,,,,,,,4,,,,,,,,,,,,,
dig_prac,40,357594,0.0-15.0-0.0,"""event"",""trial"",""time""
""fullscreenenter"",""1"",""116720""
","
","
","""event"",""trial"",""time""
""fullscreenenter"",""1"",""116720""
","
",,,,,,,,,,,,"[{""stimulus"":""run_exp/static/images/task_images/dig.jpg"",""time"":0.39999985694885254},{""stimulus"":""run_exp/static/images/task_images/land.jpg"",""time"":671.2000000476837},{""stimulus"":""run_exp/static/images/task_images/dig.jpg"",""time"":1339.5}]",[],,,,,,,,,,,,,,,
harvest_prac,41,358611,0.0-15.0-1.0,"""event"",""trial"",""time""
""fullscreenenter"",""1"",""116720""
","
","
","""event"",""trial"",""time""
""fullscreenenter"",""1"",""116720""
","
",,null,run_exp/static/images/task_images/barrel_text.jpg,null,,,,,,,,,,,,,,,,,,,,,,,,
decision_prac,42,359220,0.0-15.0-2.0,"""event"",""trial"",""time""
""fullscreenenter"",""1"",""116720""
","
","
","""event"",""trial"",""time""
""fullscreenenter"",""1"",""116720""
","
",,606.7,run_exp/static/images/task_images/land.jpg,65,,,,,,,,,,,,1,,,,,,,,,,,,
quiz_instruc,43,361512,0.0-16.0-0.0,"""event"",""trial"",""time""
""fullscreenenter"",""1"",""116720""
","
","
","""event"",""trial"",""time""
""fullscreenenter"",""1"",""116720""
","
",,2285.1,run_exp/static/audio/clip_10_quiz.m4a,,,,,,,0,,,,,,,,,,,,,,,,,,
instruc_repeat,44,404335,0.0-16.0-1.0,"""event"",""trial"",""time""
""fullscreenenter"",""1"",""116720""
","
","
","""event"",""trial"",""time""
""fullscreenenter"",""1"",""116720""
","
",,null,"<p> Are you ready to play a practice game? </p> <p>In this practice game, you'll be digging up barrels of gems. But, in the real game, you'll be digging up the gems themselves. </p>",null,"<p>In this game, your goal is to collect as many gems as you can. That’s how you will win bonus money. </p> <p>The entire game will last 20 minutes no matter how many gems you collect or how many planets you visit. </p><p>To stay on a planet and dig again, press the letter A on your keyboard. To leave for a new planet, press the letter L.</p><p>The more you dig on a planet, the fewer gems you’ll get with each dig which is why you might consider leaving for a new planet. </p><p>When you arrive at a new planet, you’ll be greeted by an alien. What the alien looks like does not tell you anything about how much treasure is on the planet. </p>",,,,,,,,,,,,,,,,,,,,,,,
instruc_repeat_continue,45,405991,0.0-16.0-2.0,"""event"",""trial"",""time""
""fullscreenenter"",""1"",""116720""
","
","
","""event"",""trial"",""time""
""fullscreenenter"",""1"",""116720""
","
",,1652.8,"<p> Are you ready to play a practice game? </p> <p>In this practice game, you'll be digging up barrels of gems. But, in the real game, you'll be digging up the gems themselves. </p>",,,,,,,0,,,,,,,,,,,,,,,,,,
quiz_q_1_ask,46,410097,0.0-16.0-3.0,"""event"",""trial"",""time""
""fullscreenenter"",""1"",""116720""
","
","
","""event"",""trial"",""time""
""fullscreenenter"",""1"",""116720""
","
",,4102.3,run_exp/static/audio/clip_11_q1_ask.m4a,,,,,,,2,,,,,,,,,,,,,,,,,,
quiz_q_1_fb_correct,47,413996,0.0-17.0-0.0,"""event"",""trial"",""time""
""fullscreenenter"",""1"",""116720""
","
","
","""event"",""trial"",""time""
""fullscreenenter"",""1"",""116720""
","
",,null,run_exp/static/audio/clip_12_q1_correct.m4a,null,<p>That’s correct. You win extra money by collecting more gems.</p>,,,,,,,,,,,,,,,,,,,,,,,
quiz_q_2_ask,48,416169,0.0-17.0-1.0,"""event"",""trial"",""time""
""fullscreenenter"",""1"",""116720""
","
","
","""event"",""trial"",""time""
""fullscreenenter"",""1"",""116720""
","
",,2168.1,run_exp/static/audio/clip_14_q2_ask.m4a,,,,,,,1,,,,,,,,,,,,,,,,,,
quiz_q_2_fb_correct,49,420235,0.0-18.0-0.0,"""event"",""trial"",""time""
""fullscreenenter"",""1"",""116720""
","
","
","""event"",""trial"",""time""
""fullscreenenter"",""1"",""116720""
","
",,null,run_exp/static/audio/clip_15_q2_correct.m4a,null,<p>That’s correct. The experiment is 20 minutes no matter what.</p>,,,,,,,,,,,,,,,,,,,,,,,
quiz_q_3_ask,50,422618,0.0-18.0-1.0,"""event"",""trial"",""time""
""fullscreenenter"",""1"",""116720""
","
","
","""event"",""trial"",""time""
""fullscreenenter"",""1"",""116720""
","
",,2376.5,run_exp/static/audio/clip_17_q3_ask.m4a,,,,,,,1,,,,,,,,,,,,,,,,,,
quiz_q_3_fb_correct,51,426655,0.0-19.0-0.0,"""event"",""trial"",""time""
""fullscreenenter"",""1"",""116720""
","
","
","""event"",""trial"",""time""
""fullscreenenter"",""1"",""116720""
","
",,null,run_exp/static/audio/clip_18_q3_correct.m4a,null,<p> That’s correct. You press the letter L to travel to a new planet.</p>,,,,,,,,,,,,,,,,,,,,,,,
quiz_q_4_ask,52,430369,0.0-19.0-1.0,"""event"",""trial"",""time""
""fullscreenenter"",""1"",""116720""
","
","
","""event"",""trial"",""time""
""fullscreenenter"",""1"",""116720""
","
",,3711.1,run_exp/static/audio/clip_20_q4_ask.m4a,,,,,,,1,,,,,,,,,,,,,,,,,,
quiz_q_4_fb_incorrect,53,436275,0.0-20.0-0.0,"""event"",""trial"",""time""
""fullscreenenter"",""1"",""116720""
","
","
","""event"",""trial"",""time""
""fullscreenenter"",""1"",""116720""
","
",,null,run_exp/static/audio/clip_22_q4_incorrect.m4a,null,<p>That’s incorrect.  The more you dig on a planet the fewer gems you’ll get with each dig.</p>,,,,,,,,,,,,,,,,,,,,,,,
quiz_q_5_ask,54,438409,0.0-20.0-1.0,"""event"",""trial"",""time""
""fullscreenenter"",""1"",""116720""
","
","
","""event"",""trial"",""time""
""fullscreenenter"",""1"",""116720""
","
",,2130.5,run_exp/static/audio/clip_23_q5_ask.m4a,,,,,,,1,,,,,,,,,,,,,,,,,,
quiz_q_5_fb_correct,55,443476,0.0-21.0-0.0,"""event"",""trial"",""time""
""fullscreenenter"",""1"",""116720""
","
","
","""event"",""trial"",""time""
""fullscreenenter"",""1"",""116720""
","
",,null,run_exp/static/audio/clip_24_q5_correct.m4a,null,<p> That’s correct. The alien tells you nothing about how much treasure is on the planet.</p>,,,,,,,,,,,,,,,,,,,,,,,
quiz_incorrect,56,449075,0.0-22.0-0.0,"""event"",""trial"",""time""
""fullscreenenter"",""1"",""116720""
","
","
","""event"",""trial"",""time""
""fullscreenenter"",""1"",""116720""
","
",,null,run_exp/static/audio/clip_27_incorrect_quiz.m4a,null,,,,,,,,,,,,,,,,,,,,,,,,
quiz_incorrect_continue,57,450537,0.0-22.0-1.0,"""event"",""trial"",""time""
""fullscreenenter"",""1"",""116720""
","
","
","""event"",""trial"",""time""
""fullscreenenter"",""1"",""116720""
","
",,1454.8,"<p>Oops, you missed some questions.</p><p>Now that you’ve heard the correct answers. Try the quiz again!</p>",,,,,,,0,,,,,,,,,,,,,,,,,,
quiz_q_1_ask,58,453341,0.0-22.0-2.0,"""event"",""trial"",""time""
""fullscreenenter"",""1"",""116720""
","
","
","""event"",""trial"",""time""
""fullscreenenter"",""1"",""116720""
","
",,2800.8,run_exp/static/audio/clip_11_q1_ask.m4a,,,,,,,2,,,,,,,,,,,,,,,,,,
quiz_q_1_fb_correct,59,457236,0.0-23.0-0.0,"""event"",""trial"",""time""
""fullscreenenter"",""1"",""116720""
","
","
","""event"",""trial"",""time""
""fullscreenenter"",""1"",""116720""
","
",,null,run_exp/static/audio/clip_12_q1_correct.m4a,null,<p>That’s correct. You win extra money by collecting more gems.</p>,,,,,,,,,,,,,,,,,,,,,,,
quiz_q_2_ask,60,459085,0.0-23.0-1.0,"""event"",""trial"",""time""
""fullscreenenter"",""1"",""116720""
","
","
","""event"",""trial"",""time""
""fullscreenenter"",""1"",""116720""
","
",,1843.9,run_exp/static/audio/clip_14_q2_ask.m4a,,,,,,,1,,,,,,,,,,,,,,,,,,
quiz_q_2_fb_correct,61,463155,0.0-24.0-0.0,"""event"",""trial"",""time""
""fullscreenenter"",""1"",""116720""
","
","
","""event"",""trial"",""time""
""fullscreenenter"",""1"",""116720""
","
",,null,run_exp/static/audio/clip_15_q2_correct.m4a,null,<p>That’s correct. The experiment is 20 minutes no matter what.</p>,,,,,,,,,,,,,,,,,,,,,,,
quiz_q_3_ask,62,465788,0.0-24.0-1.0,"""event"",""trial"",""time""
""fullscreenenter"",""1"",""116720""
","
","
","""event"",""trial"",""time""
""fullscreenenter"",""1"",""116720""
","
",,2629.8,run_exp/static/audio/clip_17_q3_ask.m4a,,,,,,,1,,,,,,,,,,,,,,,,,,
quiz_q_3_fb_correct,63,469855,0.0-25.0-0.0,"""event"",""trial"",""time""
""fullscreenenter"",""1"",""116720""
","
","
","""event"",""trial"",""time""
""fullscreenenter"",""1"",""116720""
","
",,null,run_exp/static/audio/clip_18_q3_correct.m4a,null,<p> That’s correct. You press the letter L to travel to a new planet.</p>,,,,,,,,,,,,,,,,,,,,,,,
quiz_q_4_ask,64,471908,0.0-25.0-1.0,"""event"",""trial"",""time""
""fullscreenenter"",""1"",""116720""
","
","
","""event"",""trial"",""time""
""fullscreenenter"",""1"",""116720""
","
",,2048.5,run_exp/static/audio/clip_20_q4_ask.m4a,,,,,,,0,,,,,,,,,,,,,,,,,,
quiz_q_4_fb_correct,65,477295,0.0-26.0-0.0,"""event"",""trial"",""time""
""fullscreenenter"",""1"",""116720""
","
","
","""event"",""trial"",""time""
""fullscreenenter"",""1"",""116720""
","
",,null,run_exp/static/audio/clip_21_q4_correct.m4a,null,<p> That’s correct. The more you dig on a planet the fewer gems you’ll get with each dig. </p>,,,,,,,,,,,,,,,,,,,,,,,
quiz_q_5_ask,66,479453,0.0-26.0-1.0,"""event"",""trial"",""time""
""fullscreenenter"",""1"",""116720""
","
","
","""event"",""trial"",""time""
""fullscreenenter"",""1"",""116720""
","
",,2153.7,run_exp/static/audio/clip_23_q5_ask.m4a,,,,,,,1,,,,,,,,,,,,,,,,,,
quiz_q_5_fb_correct,67,484514,0.0-27.0-0.0,"""event"",""trial"",""time""
""fullscreenenter"",""1"",""116720""
","
","
","""event"",""trial"",""time""
""fullscreenenter"",""1"",""116720""
","
",,null,run_exp/static/audio/clip_24_q5_correct.m4a,null,<p> That’s correct. The alien tells you nothing about how much treasure is on the planet.</p>,,,,,,,,,,,,,,,,,,,,,,,
quiz_correct,68,488035,0.0-28.0-0.0,"""event"",""trial"",""time""
""fullscreenenter"",""1"",""116720""
","
","
","""event"",""trial"",""time""
""fullscreenenter"",""1"",""116720""
","
",,null,run_exp/static/audio/clip_26_correct_quiz.m4a,null,,,,,,,,,,,,,,,,,,,,,,,,
quiz_correct_continue,69,489707,0.0-28.0-1.0,"""event"",""trial"",""time""
""fullscreenenter"",""1"",""116720""
","
","
","""event"",""trial"",""time""
""fullscreenenter"",""1"",""116720""
","
",,1667.9,<p>Good job! You're now ready to move on to the real game!</p>,,,,,,,0,,,,,,,,,,,,,,,,,,
audio-keyboard-response,70,499895,0.0-28.0-2.0,"""event"",""trial"",""time""
""fullscreenenter"",""1"",""116720""
","
","
","""event"",""trial"",""time""
""fullscreenenter"",""1"",""116720""
","
",,null,run_exp/static/audio/clip_28_real_game.m4a,null,,,,,,,,,,,,,,,,,,,,,,,,
instruc_begin_exp_contine,71,502327,0.0-28.0-3.0,"""event"",""trial"",""time""
""fullscreenenter"",""1"",""116720""
","
","
","""event"",""trial"",""time""
""fullscreenenter"",""1"",""116720""
","
",,2428.9,"<p>Now that you know how  to dig for space treasure and travel to new planets,you can start exploring! </p><p>Do you want to go over the instructions again or get started with the real game?</p>",,,,,,,1,,,,,,1,,,,,,,,,,,,
alien_welcome,72,507350,0.0-29.0-0.0,"""event"",""trial"",""time""
""fullscreenenter"",""1"",""116720""
","
","
","""event"",""trial"",""time""
""fullscreenenter"",""1"",""116720""
","
",,null,run_exp/static/images/task_images/aliens/old_aliens/planet/alien_planet-44.jpg,null,,,,,,,,,,,,,44,"44,65,76,78,60,37,69,5,49,56,33,23,10,25,53,26,3,12,50,21,31,74,29,30,61,64,11,39,51",,,,,,,,,,
land,73,507860,0.0-29.0-1.0,"""event"",""trial"",""time""
""fullscreenenter"",""1"",""116720""
","
","
","""event"",""trial"",""time""
""fullscreenenter"",""1"",""116720""
","
",,null,run_exp/static/images/task_images/land.jpg,null,,,,,,,105,,,1,,,,,,,,,,,,,,
dig,74,509877,0.0-29.0-2.0,"""event"",""trial"",""time""
""fullscreenenter"",""1"",""116720""
","
","
","""event"",""trial"",""time""
""fullscreenenter"",""1"",""116720""
","
",,,,,,,,,,,,"[{""stimulus"":""run_exp/static/images/task_images/dig.jpg"",""time"":0.6000001430511475},{""stimulus"":""run_exp/static/images/task_images/land.jpg"",""time"":681.3000001907349},{""stimulus"":""run_exp/static/images/task_images/dig.jpg"",""time"":1348.7000000476837}]",[],1,,,,,,,,,,,,,,
harvest,75,510889,0.0-29.0-3.0,"""event"",""trial"",""time""
""fullscreenenter"",""1"",""116720""
","
","
","""event"",""trial"",""time""
""fullscreenenter"",""1"",""116720""
","
",,null,run_exp/static/images/task_images/gems/105.jpg,null,,,,,,,20,,,1,,,,,105,0.190694491,0.19047619,,,,,,,
decision,76,511812,0.0-29.0-4.0,"""event"",""trial"",""time""
""fullscreenenter"",""1"",""116720""
","
","
","""event"",""trial"",""time""
""fullscreenenter"",""1"",""116720""
","
",,919.9000001,run_exp/static/images/task_images/land.jpg,65,,,,,,,20,,,1,,,,,,,,9478,1,0,FALSE,,,
dig,77,513913,0.0-30.0-0.0,"""event"",""trial"",""time""
""fullscreenenter"",""1"",""116720""
","
","
","""event"",""trial"",""time""
""fullscreenenter"",""1"",""116720""
","
",,,,,,,,,,,,"[{""stimulus"":""run_exp/static/images/task_images/dig.jpg"",""time"":0.5},{""stimulus"":""run_exp/static/images/task_images/land.jpg"",""time"":703.2999999523163},{""stimulus"":""run_exp/static/images/task_images/dig.jpg"",""time"":1388.7999999523163}]",[],1,,,,,,,,,,,,,,
harvest,78,514921,0.0-30.0-1.0,"""event"",""trial"",""time""
""fullscreenenter"",""1"",""116720""
","
","
","""event"",""trial"",""time""
""fullscreenenter"",""1"",""116720""
","
",,null,run_exp/static/images/task_images/gems/20.jpg,null,,,,,,,5,,,1,,,,,20,0.258070647,0.25,,,,,,,
decision,79,515563,0.0-30.0-2.0,"""event"",""trial"",""time""
""fullscreenenter"",""1"",""116720""
","
","
","""event"",""trial"",""time""
""fullscreenenter"",""1"",""116720""
","
",,639.9000001,run_exp/static/images/task_images/land.jpg,65,,,,,,,5,,,1,,,,,,,,13229,1,1,FALSE,,,
dig,80,517939,0.0-31.0-0.0,"""event"",""trial"",""time""
""fullscreenenter"",""1"",""116720""
","
","
","""event"",""trial"",""time""
""fullscreenenter"",""1"",""116720""
","
",,,,,,,,,,,,"[{""stimulus"":""run_exp/static/images/task_images/dig.jpg"",""time"":0.5},{""stimulus"":""run_exp/static/images/task_images/land.jpg"",""time"":799.1999998092651},{""stimulus"":""run_exp/static/images/task_images/dig.jpg"",""time"":1576.1999998092651}]",[],1,,,,,,,,,,,,,,
harvest,81,518941,0.0-31.0-1.0,"""event"",""trial"",""time""
""fullscreenenter"",""1"",""116720""
","
","
","""event"",""trial"",""time""
""fullscreenenter"",""1"",""116720""
","
",,null,run_exp/static/images/task_images/gems/5.jpg,null,,,,,,,2,,,1,,,,,5,0.330969099,0.4,,,,,,,
decision,82,519851,0.0-31.0-2.0,"""event"",""trial"",""time""
""fullscreenenter"",""1"",""116720""
","
","
","""event"",""trial"",""time""
""fullscreenenter"",""1"",""116720""
","
",,908,run_exp/static/images/task_images/land.jpg,76,,,,,,,2,,,1,,,,,,,,17516,1,2,TRUE,,,
travel,83,528955,0.0-32.0-0.0,"""event"",""trial"",""time""
""fullscreenenter"",""1"",""116720""
","
","
","""event"",""trial"",""time""
""fullscreenenter"",""1"",""116720""
","
",,,,,,,,,,,,"[{""stimulus"":""run_exp/static/images/task_images/rocket-01.jpg"",""time"":0.6000001430511475},{""stimulus"":""run_exp/static/images/task_images/rocket-02.jpg"",""time"":1018.1000001430511},{""stimulus"":""run_exp/static/images/task_images/rocket-03.jpg"",""time"":2031.2999999523163},{""stimulus"":""run_exp/static/images/task_images/rocket-04.jpg"",""time"":3035.2000000476837},{""stimulus"":""run_exp/static/images/task_images/rocket-05.jpg"",""time"":4054.5},{""stimulus"":""run_exp/static/images/task_images/rocket-06.jpg"",""time"":5067.299999952316},{""stimulus"":""run_exp/static/images/task_images/rocket-07.jpg"",""time"":6078.5},{""stimulus"":""run_exp/static/images/task_images/rocket-08.jpg"",""time"":7085.799999952316},{""stimulus"":""run_exp/static/images/task_images/rocket-09.jpg"",""time"":8096.700000047684}]",[],1,,,,,,,,,,,,,,
alien_welcome,84,533958,0.0-32.0-1.0,"""event"",""trial"",""time""
""fullscreenenter"",""1"",""116720""
","
","
","""event"",""trial"",""time""
""fullscreenenter"",""1"",""116720""
","
",,null,run_exp/static/images/task_images/aliens/old_aliens/planet/alien_planet-65.jpg,null,,,,,,,,,,,,,65,"44,65,76,78,60,37,69,5,49,56,33,23,10,25,53,26,3,12,50,21,31,74,29,30,61,64,11,39,51",,,,,,,,,,
land,85,534462,0.0-32.0-2.0,"""event"",""trial"",""time""
""fullscreenenter"",""1"",""116720""
","
","
","""event"",""trial"",""time""
""fullscreenenter"",""1"",""116720""
","
",,null,run_exp/static/images/task_images/land.jpg,null,,,,,,,100,,,2,,,,,,,,,,,,,,
dig,86,536474,0.0-32.0-3.0,"""event"",""trial"",""time""
""fullscreenenter"",""1"",""116720""
","
","
","""event"",""trial"",""time""
""fullscreenenter"",""1"",""116720""
","
",,,,,,,,,,,,"[{""stimulus"":""run_exp/static/images/task_images/dig.jpg"",""time"":0.7000000476837158},{""stimulus"":""run_exp/static/images/task_images/land.jpg"",""time"":669.4000000953674},{""stimulus"":""run_exp/static/images/task_images/dig.jpg"",""time"":1339.7000000476837}]",[],2,,,,,,,,,,,,,,
harvest,87,537488,0.0-32.0-4.0,"""event"",""trial"",""time""
""fullscreenenter"",""1"",""116720""
","
","
","""event"",""trial"",""time""
""fullscreenenter"",""1"",""116720""
","
",,null,run_exp/static/images/task_images/gems/100.jpg,null,,,,,,,23,,,2,,,,,100,0.231738222,0.23,,,,,,,
decision,88,539115,0.0-32.0-5.0,"""event"",""trial"",""time""
""fullscreenenter"",""1"",""116720""
","
","
","""event"",""trial"",""time""
""fullscreenenter"",""1"",""116720""
","
",,1623.3,run_exp/static/images/task_images/land.jpg,65,,,,,,,23,,,2,,,,,,,,36780,1,0,FALSE,,,
dig,89,540513,0.0-33.0-0.0,"""event"",""trial"",""time""
""fullscreenenter"",""1"",""116720""
","
","
","""event"",""trial"",""time""
""fullscreenenter"",""1"",""116720""
","
",,,,,,,,,,,,"[{""stimulus"":""run_exp/static/images/task_images/dig.jpg"",""time"":0.39999985694885254},{""stimulus"":""run_exp/static/images/task_images/land.jpg"",""time"":472.59999990463257},{""stimulus"":""run_exp/static/images/task_images/dig.jpg"",""time"":922.8999998569489}]",[],2,,,,,,,,,,,,,,
harvest,90,541523,0.0-33.0-1.0,"""event"",""trial"",""time""
""fullscreenenter"",""1"",""116720""
","
","
","""event"",""trial"",""time""
""fullscreenenter"",""1"",""116720""
","
",,null,run_exp/static/images/task_images/gems/23.jpg,null,,,,,,,6,,,2,,,,,23,0.245231423,0.260869565,,,,,,,
decision,91,541793,0.0-33.0-2.0,"""event"",""trial"",""time""
""fullscreenenter"",""1"",""116720""
","
","
","""event"",""trial"",""time""
""fullscreenenter"",""1"",""116720""
","
",,267.2,run_exp/static/images/task_images/land.jpg,65,,,,,,,6,,,2,,,,,,,,39458,1,1,FALSE,,,
dig,92,544541,0.0-34.0-0.0,"""event"",""trial"",""time""
""fullscreenenter"",""1"",""116720""
","
","
","""event"",""trial"",""time""
""fullscreenenter"",""1"",""116720""
","
",,,,,,,,,,,,"[{""stimulus"":""run_exp/static/images/task_images/dig.jpg"",""time"":0.5},{""stimulus"":""run_exp/static/images/task_images/land.jpg"",""time"":924},{""stimulus"":""run_exp/static/images/task_images/dig.jpg"",""time"":1837.5}]",[],2,,,,,,,,,,,,,,
harvest,93,545552,0.0-34.0-1.0,"""event"",""trial"",""time""
""fullscreenenter"",""1"",""116720""
","
","
","""event"",""trial"",""time""
""fullscreenenter"",""1"",""116720""
","
",,null,run_exp/static/images/task_images/gems/6.jpg,null,,,,,,,1,,,2,,,,,6,0.10918364,0.166666667,,,,,,,
decision,94,545973,0.0-34.0-2.0,"""event"",""trial"",""time""
""fullscreenenter"",""1"",""116720""
","
","
","""event"",""trial"",""time""
""fullscreenenter"",""1"",""116720""
","
",,419.0999999,run_exp/static/images/task_images/land.jpg,65,,,,,,,1,,,2,,,,,,,,43638,1,2,FALSE,,,
dig,95,548558,0.0-35.0-0.0,"""event"",""trial"",""time""
""fullscreenenter"",""1"",""116720""
","
","
","""event"",""trial"",""time""
""fullscreenenter"",""1"",""116720""
","
",,,,,,,,,,,,"[{""stimulus"":""run_exp/static/images/task_images/dig.jpg"",""time"":0.2999999523162842},{""stimulus"":""run_exp/static/images/task_images/land.jpg"",""time"":867.1000001430511},{""stimulus"":""run_exp/static/images/task_images/dig.jpg"",""time"":1727.5}]",[],2,,,,,,,,,,,,,,
harvest,96,549561,0.0-35.0-1.0,"""event"",""trial"",""time""
""fullscreenenter"",""1"",""116720""
","
","
","""event"",""trial"",""time""
""fullscreenenter"",""1"",""116720""
","
",,null,run_exp/static/images/task_images/gems/1.jpg,null,,,,,,,0,,,2,,,,,1,0.253762904,0,,,,,,,
decision,97,549890,0.0-35.0-2.0,"""event"",""trial"",""time""
""fullscreenenter"",""1"",""116720""
","
","
","""event"",""trial"",""time""
""fullscreenenter"",""1"",""116720""
","
",,327.3,run_exp/static/images/task_images/land.jpg,65,,,,,,,0,,,2,,,,,,,,47555,1,3,FALSE,,,
dig,98,552573,0.0-36.0-0.0,"""event"",""trial"",""time""
""fullscreenenter"",""1"",""116720""
","
","
","""event"",""trial"",""time""
""fullscreenenter"",""1"",""116720""
","
",,,,,,,,,,,,"[{""stimulus"":""run_exp/static/images/task_images/dig.jpg"",""time"":0.2999999523162842},{""stimulus"":""run_exp/static/images/task_images/land.jpg"",""time"":904.2999999523163},{""stimulus"":""run_exp/static/images/task_images/dig.jpg"",""time"":1788.2999999523163}]",[],2,,,,,,,,,,,,,,
harvest,99,553583,0.0-36.0-1.0,"""event"",""trial"",""time""
""fullscreenenter"",""1"",""116720""
","
","
","""event"",""trial"",""time""
""fullscreenenter"",""1"",""116720""
","
",,null,run_exp/static/images/task_images/gems/0.jpg,null,,,,,,,0,,,2,,,,,0,0.15363754,NaN,,,,,,,
decision,100,554457,0.0-36.0-2.0,"""event"",""trial"",""time""
""fullscreenenter"",""1"",""116720""
","
","
","""event"",""trial"",""time""
""fullscreenenter"",""1"",""116720""
","
",,870.5,run_exp/static/images/task_images/land.jpg,76,,,,,,,0,,,2,,,,,,,,52122,1,4,TRUE,,,
travel,101,563600,0.0-37.0-0.0,"""event"",""trial"",""time""
""fullscreenenter"",""1"",""116720""
","
","
","""event"",""trial"",""time""
""fullscreenenter"",""1"",""116720""
","
",,,,,,,,,,,,"[{""stimulus"":""run_exp/static/images/task_images/rocket-01.jpg"",""time"":0.20000004768371582},{""stimulus"":""run_exp/static/images/task_images/rocket-02.jpg"",""time"":1020.5},{""stimulus"":""run_exp/static/images/task_images/rocket-03.jpg"",""time"":2043.5999999046326},{""stimulus"":""run_exp/static/images/task_images/rocket-04.jpg"",""time"":3057.2000000476837},{""stimulus"":""run_exp/static/images/task_images/rocket-05.jpg"",""time"":4070.5999999046326},{""stimulus"":""run_exp/static/images/task_images/rocket-06.jpg"",""time"":5080.900000095367},{""stimulus"":""run_exp/static/images/task_images/rocket-07.jpg"",""time"":6098.200000047684},{""stimulus"":""run_exp/static/images/task_images/rocket-08.jpg"",""time"":7107.299999952316},{""stimulus"":""run_exp/static/images/task_images/rocket-09.jpg"",""time"":8125.400000095367}]",[],2,,,,,,,,,,,,,,
alien_welcome,102,568613,0.0-37.0-1.0,"""event"",""trial"",""time""
""fullscreenenter"",""1"",""116720""
","
","
","""event"",""trial"",""time""
""fullscreenenter"",""1"",""116720""
","
",,null,run_exp/static/images/task_images/aliens/old_aliens/planet/alien_planet-76.jpg,null,,,,,,,,,,,,,76,"44,65,76,78,60,37,69,5,49,56,33,23,10,25,53,26,3,12,50,21,31,74,29,30,61,64,11,39,51",,,,,,,,,,
land,103,569118,0.0-37.0-2.0,"""event"",""trial"",""time""
""fullscreenenter"",""1"",""116720""
","
","
","""event"",""trial"",""time""
""fullscreenenter"",""1"",""116720""
","
",,null,run_exp/static/images/task_images/land.jpg,null,,,,,,,104,,,3,,,,,,,,,,,,,,
dig,104,571125,0.0-37.0-3.0,"""event"",""trial"",""time""
""fullscreenenter"",""1"",""116720""
","
","
","""event"",""trial"",""time""
""fullscreenenter"",""1"",""116720""
","
",,,,,,,,,,,,"[{""stimulus"":""run_exp/static/images/task_images/dig.jpg"",""time"":0.5999999046325684},{""stimulus"":""run_exp/static/images/task_images/land.jpg"",""time"":679.2000000476837},{""stimulus"":""run_exp/static/images/task_images/dig.jpg"",""time"":1342.5}]",[],3,,,,,,,,,,,,,,
harvest,105,572132,0.0-37.0-4.0,"""event"",""trial"",""time""
""fullscreenenter"",""1"",""116720""
","
","
","""event"",""trial"",""time""
""fullscreenenter"",""1"",""116720""
","
",,null,run_exp/static/images/task_images/gems/104.jpg,null,,,,,,,48,,,3,,,,,104,0.462422145,0.461538462,,,,,,,
decision,106,572653,0.0-37.0-5.0,"""event"",""trial"",""time""
""fullscreenenter"",""1"",""116720""
","
","
","""event"",""trial"",""time""
""fullscreenenter"",""1"",""116720""
","
",,518.8999999,run_exp/static/images/task_images/land.jpg,65,,,,,,,48,,,3,,,,,,,,70318,1,0,FALSE,,,
dig,107,575157,0.0-38.0-0.0,"""event"",""trial"",""time""
""fullscreenenter"",""1"",""116720""
","
","
","""event"",""trial"",""time""
""fullscreenenter"",""1"",""116720""
","
",,,,,,,,,,,,"[{""stimulus"":""run_exp/static/images/task_images/dig.jpg"",""time"":0.5},{""stimulus"":""run_exp/static/images/task_images/land.jpg"",""time"":832.7999999523163},{""stimulus"":""run_exp/static/images/task_images/dig.jpg"",""time"":1659.4000000953674}]",[],3,,,,,,,,,,,,,,
harvest,108,576175,0.0-38.0-1.0,"""event"",""trial"",""time""
""fullscreenenter"",""1"",""116720""
","
","
","""event"",""trial"",""time""
""fullscreenenter"",""1"",""116720""
","
",,null,run_exp/static/images/task_images/gems/48.jpg,null,,,,,,,22,,,3,,,,,48,0.448820756,0.458333333,,,,,,,
decision,109,576458,0.0-38.0-2.0,"""event"",""trial"",""time""
""fullscreenenter"",""1"",""116720""
","
","
","""event"",""trial"",""time""
""fullscreenenter"",""1"",""116720""
","
",,279.8999999,run_exp/static/images/task_images/land.jpg,65,,,,,,,22,,,3,,,,,,,,74123,1,1,FALSE,,,
dig,110,579182,0.0-39.0-0.0,"""event"",""trial"",""time""
""fullscreenenter"",""1"",""116720""
","
","
","""event"",""trial"",""time""
""fullscreenenter"",""1"",""116720""
","
",,,,,,,,,,,,"[{""stimulus"":""run_exp/static/images/task_images/dig.jpg"",""time"":0.20000004768371582},{""stimulus"":""run_exp/static/images/task_images/land.jpg"",""time"":916.7000000476837},{""stimulus"":""run_exp/static/images/task_images/dig.jpg"",""time"":1817.4000000953674}]",[],3,,,,,,,,,,,,,,
harvest,111,580189,0.0-39.0-1.0,"""event"",""trial"",""time""
""fullscreenenter"",""1"",""116720""
","
","
","""event"",""trial"",""time""
""fullscreenenter"",""1"",""116720""
","
",,null,run_exp/static/images/task_images/gems/22.jpg,null,,,,,,,12,,,3,,,,,22,0.543398924,0.545454545,,,,,,,
decision,112,581642,0.0-39.0-2.0,"""event"",""trial"",""time""
""fullscreenenter"",""1"",""116720""
","
","
","""event"",""trial"",""time""
""fullscreenenter"",""1"",""116720""
","
",,1450.2,run_exp/static/images/task_images/land.jpg,65,,,,,,,12,,,3,,,,,,,,79307,1,2,FALSE,,,
dig,113,583197,0.0-40.0-0.0,"""event"",""trial"",""time""
""fullscreenenter"",""1"",""116720""
","
","
","""event"",""trial"",""time""
""fullscreenenter"",""1"",""116720""
","
",,,,,,,,,,,,"[{""stimulus"":""run_exp/static/images/task_images/dig.jpg"",""time"":0.20000004768371582},{""stimulus"":""run_exp/static/images/task_images/land.jpg"",""time"":525.7000000476837},{""stimulus"":""run_exp/static/images/task_images/dig.jpg"",""time"":1040.0999999046326}]",[],3,,,,,,,,,,,,,,
harvest,114,584209,0.0-40.0-1.0,"""event"",""trial"",""time""
""fullscreenenter"",""1"",""116720""
","
","
","""event"",""trial"",""time""
""fullscreenenter"",""1"",""116720""
","
",,null,run_exp/static/images/task_images/gems/12.jpg,null,,,,,,,6,,,3,,,,,12,0.481504426,0.5,,,,,,,
decision,115,584558,0.0-40.0-2.0,"""event"",""trial"",""time""
""fullscreenenter"",""1"",""116720""
","
","
","""event"",""trial"",""time""
""fullscreenenter"",""1"",""116720""
","
",,345.0999999,run_exp/static/images/task_images/land.jpg,65,,,,,,,6,,,3,,,,,,,,82223,1,3,FALSE,,,
dig,116,587235,0.0-41.0-0.0,"""event"",""trial"",""time""
""fullscreenenter"",""1"",""116720""
","
","
","""event"",""trial"",""time""
""fullscreenenter"",""1"",""116720""
","
",,,,,,,,,,,,"[{""stimulus"":""run_exp/static/images/task_images/dig.jpg"",""time"":0.7000000476837158},{""stimulus"":""run_exp/static/images/task_images/land.jpg"",""time"":891.2000000476837},{""stimulus"":""run_exp/static/images/task_images/dig.jpg"",""time"":1777.0999999046326}]",[],3,,,,,,,,,,,,,,
harvest,117,588239,0.0-41.0-1.0,"""event"",""trial"",""time""
""fullscreenenter"",""1"",""116720""
","
","
","""event"",""trial"",""time""
""fullscreenenter"",""1"",""116720""
","
",,null,run_exp/static/images/task_images/gems/6.jpg,null,,,,,,,3,,,3,,,,,6,0.576402481,0.5,,,,,,,
decision,118,589626,0.0-41.0-2.0,"""event"",""trial"",""time""
""fullscreenenter"",""1"",""116720""
","
","
","""event"",""trial"",""time""
""fullscreenenter"",""1"",""116720""
","
",,1383.8,run_exp/static/images/task_images/land.jpg,65,,,,,,,3,,,3,,,,,,,,87292,1,4,FALSE,,,
dig,119,591257,0.0-42.0-0.0,"""event"",""trial"",""time""
""fullscreenenter"",""1"",""116720""
","
","
","""event"",""trial"",""time""
""fullscreenenter"",""1"",""116720""
","
",,,,,,,,,,,,"[{""stimulus"":""run_exp/static/images/task_images/dig.jpg"",""time"":0.40000009536743164},{""stimulus"":""run_exp/static/images/task_images/land.jpg"",""time"":552.5},{""stimulus"":""run_exp/static/images/task_images/dig.jpg"",""time"":1082.7000000476837}]",[],3,,,,,,,,,,,,,,
harvest,120,592270,0.0-42.0-1.0,"""event"",""trial"",""time""
""fullscreenenter"",""1"",""116720""
","
","
","""event"",""trial"",""time""
""fullscreenenter"",""1"",""116720""
","
",,null,run_exp/static/images/task_images/gems/3.jpg,null,,,,,,,2,,,3,,,,,3,0.511588407,0.666666667,,,,,,,
decision,121,592619,0.0-42.0-2.0,"""event"",""trial"",""time""
""fullscreenenter"",""1"",""116720""
","
","
","""event"",""trial"",""time""
""fullscreenenter"",""1"",""116720""
","
",,346.9000001,run_exp/static/images/task_images/land.jpg,76,,,,,,,2,,,3,,,,,,,,90284,1,5,TRUE,,,
travel,122,602281,0.0-43.0-0.0,"""event"",""trial"",""time""
""fullscreenenter"",""1"",""116720""
","
","
","""event"",""trial"",""time""
""fullscreenenter"",""1"",""116720""
","
",,,,,,,,,,,,"[{""stimulus"":""run_exp/static/images/task_images/rocket-01.jpg"",""time"":0.40000009536743164},{""stimulus"":""run_exp/static/images/task_images/rocket-02.jpg"",""time"":1082.7000000476837},{""stimulus"":""run_exp/static/images/task_images/rocket-03.jpg"",""time"":2155.100000143051},{""stimulus"":""run_exp/static/images/task_images/rocket-04.jpg"",""time"":3225.100000143051},{""stimulus"":""run_exp/static/images/task_images/rocket-05.jpg"",""time"":4304.400000095367},{""stimulus"":""run_exp/static/images/task_images/rocket-06.jpg"",""time"":5365},{""stimulus"":""run_exp/static/images/task_images/rocket-07.jpg"",""time"":6443.100000143051},{""stimulus"":""run_exp/static/images/task_images/rocket-08.jpg"",""time"":7516.5},{""stimulus"":""run_exp/static/images/task_images/rocket-09.jpg"",""time"":8582.799999952316}]",[],3,,,,,,,,,,,,,,
alien_welcome,123,607295,0.0-43.0-1.0,"""event"",""trial"",""time""
""fullscreenenter"",""1"",""116720""
","
","
","""event"",""trial"",""time""
""fullscreenenter"",""1"",""116720""
","
",,null,run_exp/static/images/task_images/aliens/old_aliens/planet/alien_planet-78.jpg,null,,,,,,,,,,,,,78,"44,65,76,78,60,37,69,5,49,56,33,23,10,25,53,26,3,12,50,21,31,74,29,30,61,64,11,39,51",,,,,,,,,,
land,124,607807,0.0-43.0-2.0,"""event"",""trial"",""time""
""fullscreenenter"",""1"",""116720""
","
","
","""event"",""trial"",""time""
""fullscreenenter"",""1"",""116720""
","
",,null,run_exp/static/images/task_images/land.jpg,null,,,,,,,92,,,4,,,,,,,,,,,,,,
dig,125,609828,0.0-43.0-3.0,"""event"",""trial"",""time""
""fullscreenenter"",""1"",""116720""
","
","
","""event"",""trial"",""time""
""fullscreenenter"",""1"",""116720""
","
",,,,,,,,,,,,"[{""stimulus"":""run_exp/static/images/task_images/dig.jpg"",""time"":0.5},{""stimulus"":""run_exp/static/images/task_images/land.jpg"",""time"":683.7999999523163},{""stimulus"":""run_exp/static/images/task_images/dig.jpg"",""time"":1351.5}]",[],4,,,,,,,,,,,,,,
harvest,126,610834,0.0-43.0-4.0,"""event"",""trial"",""time""
""fullscreenenter"",""1"",""116720""
","
","
","""event"",""trial"",""time""
""fullscreenenter"",""1"",""116720""
","
",,null,run_exp/static/images/task_images/gems/92.jpg,null,,,,,,,53,,,4,,,,,92,0.575137218,0.576086957,,,,,,,
decision,127,611289,0.0-43.0-5.0,"""event"",""trial"",""time""
""fullscreenenter"",""1"",""116720""
","
","
","""event"",""trial"",""time""
""fullscreenenter"",""1"",""116720""
","
",,451.5999999,run_exp/static/images/task_images/land.jpg,65,,,,,,,53,,,4,,,,,,,,108954,1,0,FALSE,,,
dig,128,613857,0.0-44.0-0.0,"""event"",""trial"",""time""
""fullscreenenter"",""1"",""116720""
","
","
","""event"",""trial"",""time""
""fullscreenenter"",""1"",""116720""
","
",,,,,,,,,,,,"[{""stimulus"":""run_exp/static/images/task_images/dig.jpg"",""time"":1.5},{""stimulus"":""run_exp/static/images/task_images/land.jpg"",""time"":858.0999999046326},{""stimulus"":""run_exp/static/images/task_images/dig.jpg"",""time"":1709.3999998569489}]",[],4,,,,,,,,,,,,,,
harvest,129,614862,0.0-44.0-1.0,"""event"",""trial"",""time""
""fullscreenenter"",""1"",""116720""
","
","
","""event"",""trial"",""time""
""fullscreenenter"",""1"",""116720""
","
",,null,run_exp/static/images/task_images/gems/53.jpg,null,,,,,,,27,,,4,,,,,53,0.502323533,0.509433962,,,,,,,
decision,130,614896,0.0-44.0-2.0,"""event"",""trial"",""time""
""fullscreenenter"",""1"",""116720""
","
","
","""event"",""trial"",""time""
""fullscreenenter"",""1"",""116720""
","
",,31.79999995,run_exp/static/images/task_images/land.jpg,65,,,,,,,27,,,4,,,,,,,,112561,1,1,FALSE,,,
dig,131,617888,0.0-45.0-0.0,"""event"",""trial"",""time""
""fullscreenenter"",""1"",""116720""
","
","
","""event"",""trial"",""time""
""fullscreenenter"",""1"",""116720""
","
",,,,,,,,,,,,"[{""stimulus"":""run_exp/static/images/task_images/dig.jpg"",""time"":0.5999999046325684},{""stimulus"":""run_exp/static/images/task_images/land.jpg"",""time"":1000.7000000476837},{""stimulus"":""run_exp/static/images/task_images/dig.jpg"",""time"":1991.7000000476837}]",[],4,,,,,,,,,,,,,,
harvest,132,618900,0.0-45.0-1.0,"""event"",""trial"",""time""
""fullscreenenter"",""1"",""116720""
","
","
","""event"",""trial"",""time""
""fullscreenenter"",""1"",""116720""
","
",,null,run_exp/static/images/task_images/gems/27.jpg,null,,,,,,,14,,,4,,,,,27,0.518233906,0.518518519,,,,,,,
decision,133,619121,0.0-45.0-2.0,"""event"",""trial"",""time""
""fullscreenenter"",""1"",""116720""
","
","
","""event"",""trial"",""time""
""fullscreenenter"",""1"",""116720""
","
",,217.2,run_exp/static/images/task_images/land.jpg,65,,,,,,,14,,,4,,,,,,,,116786,1,2,FALSE,,,
dig,134,621913,0.0-46.0-0.0,"""event"",""trial"",""time""
""fullscreenenter"",""1"",""116720""
","
","
","""event"",""trial"",""time""
""fullscreenenter"",""1"",""116720""
","
",,,,,,,,,,,,"[{""stimulus"":""run_exp/static/images/task_images/dig.jpg"",""time"":0.5},{""stimulus"":""run_exp/static/images/task_images/land.jpg"",""time"":937.6000001430511},{""stimulus"":""run_exp/static/images/task_images/dig.jpg"",""time"":1866.7000000476837}]",[],4,,,,,,,,,,,,,,
harvest,135,622919,0.0-46.0-1.0,"""event"",""trial"",""time""
""fullscreenenter"",""1"",""116720""
","
","
","""event"",""trial"",""time""
""fullscreenenter"",""1"",""116720""
","
",,null,run_exp/static/images/task_images/gems/14.jpg,null,,,,,,,8,,,4,,,,,14,0.549511503,0.571428571,,,,,,,
decision,136,623337,0.0-46.0-2.0,"""event"",""trial"",""time""
""fullscreenenter"",""1"",""116720""
","
","
","""event"",""trial"",""time""
""fullscreenenter"",""1"",""116720""
","
",,414.8,run_exp/static/images/task_images/land.jpg,65,,,,,,,8,,,4,,,,,,,,121003,1,3,FALSE,,,
dig,137,625931,0.0-47.0-0.0,"""event"",""trial"",""time""
""fullscreenenter"",""1"",""116720""
","
","
","""event"",""trial"",""time""
""fullscreenenter"",""1"",""116720""
","
",,,,,,,,,,,,"[{""stimulus"":""run_exp/static/images/task_images/dig.jpg"",""time"":0.5},{""stimulus"":""run_exp/static/images/task_images/land.jpg"",""time"":875.6000001430511},{""stimulus"":""run_exp/static/images/task_images/dig.jpg"",""time"":1733.5}]",[],4,,,,,,,,,,,,,,
harvest,138,626936,0.0-47.0-1.0,"""event"",""trial"",""time""
""fullscreenenter"",""1"",""116720""
","
","
","""event"",""trial"",""time""
""fullscreenenter"",""1"",""116720""
","
",,null,run_exp/static/images/task_images/gems/8.jpg,null,,,,,,,4,,,4,,,,,8,0.440383287,0.5,,,,,,,
decision,139,627281,0.0-47.0-2.0,"""event"",""trial"",""time""
""fullscreenenter"",""1"",""116720""
","
","
","""event"",""trial"",""time""
""fullscreenenter"",""1"",""116720""
","
",,342.6000001,run_exp/static/images/task_images/land.jpg,65,,,,,,,4,,,4,,,,,,,,124946,1,4,FALSE,,,
dig,140,629959,0.0-48.0-0.0,"""event"",""trial"",""time""
""fullscreenenter"",""1"",""116720""
","
","
","""event"",""trial"",""time""
""fullscreenenter"",""1"",""116720""
","
",,,,,,,,,,,,"[{""stimulus"":""run_exp/static/images/task_images/dig.jpg"",""time"":0.5},{""stimulus"":""run_exp/static/images/task_images/land.jpg"",""time"":892.4000000953674},{""stimulus"":""run_exp/static/images/task_images/dig.jpg"",""time"":1775.5}]",[],4,,,,,,,,,,,,,,
harvest,141,630975,0.0-48.0-1.0,"""event"",""trial"",""time""
""fullscreenenter"",""1"",""116720""
","
","
","""event"",""trial"",""time""
""fullscreenenter"",""1"",""116720""
","
",,null,run_exp/static/images/task_images/gems/4.jpg,null,,,,,,,2,,,4,,,,,4,0.541728182,0.5,,,,,,,
decision,142,631275,0.0-48.0-2.0,"""event"",""trial"",""time""
""fullscreenenter"",""1"",""116720""
","
","
","""event"",""trial"",""time""
""fullscreenenter"",""1"",""116720""
","
",,297.2,run_exp/static/images/task_images/land.jpg,76,,,,,,,2,,,4,,,,,,,,128940,1,5,TRUE,,,
travel,143,640993,0.0-49.0-0.0,"""event"",""trial"",""time""
""fullscreenenter"",""1"",""116720""
","
","
","""event"",""trial"",""time""
""fullscreenenter"",""1"",""116720""
","
",,,,,,,,,,,,"[{""stimulus"":""run_exp/static/images/task_images/rocket-01.jpg"",""time"":0.5},{""stimulus"":""run_exp/static/images/task_images/rocket-02.jpg"",""time"":1081.2000000476837},{""stimulus"":""run_exp/static/images/task_images/rocket-03.jpg"",""time"":2170.2999999523163},{""stimulus"":""run_exp/static/images/task_images/rocket-04.jpg"",""time"":3245.5999999046326},{""stimulus"":""run_exp/static/images/task_images/rocket-05.jpg"",""time"":4315.900000095367},{""stimulus"":""run_exp/static/images/task_images/rocket-06.jpg"",""time"":5399},{""stimulus"":""run_exp/static/images/task_images/rocket-07.jpg"",""time"":6485},{""stimulus"":""run_exp/static/images/task_images/rocket-08.jpg"",""time"":7556},{""stimulus"":""run_exp/static/images/task_images/rocket-09.jpg"",""time"":8638.400000095367}]",[],4,,,,,,,,,,,,,,
alien_welcome,144,646001,0.0-49.0-1.0,"""event"",""trial"",""time""
""fullscreenenter"",""1"",""116720""
","
","
","""event"",""trial"",""time""
""fullscreenenter"",""1"",""116720""
","
",,null,run_exp/static/images/task_images/aliens/old_aliens/planet/alien_planet-60.jpg,null,,,,,,,,,,,,,60,"44,65,76,78,60,37,69,5,49,56,33,23,10,25,53,26,3,12,50,21,31,74,29,30,61,64,11,39,51",,,,,,,,,,
land,145,646513,0.0-49.0-2.0,"""event"",""trial"",""time""
""fullscreenenter"",""1"",""116720""
","
","
","""event"",""trial"",""time""
""fullscreenenter"",""1"",""116720""
","
",,null,run_exp/static/images/task_images/land.jpg,null,,,,,,,103,,,5,,,,,,,,,,,,,,
dig,146,648532,0.0-49.0-3.0,"""event"",""trial"",""time""
""fullscreenenter"",""1"",""116720""
","
","
","""event"",""trial"",""time""
""fullscreenenter"",""1"",""116720""
","
",,,,,,,,,,,,"[{""stimulus"":""run_exp/static/images/task_images/dig.jpg"",""time"":0.5},{""stimulus"":""run_exp/static/images/task_images/land.jpg"",""time"":681.5999999046326},{""stimulus"":""run_exp/static/images/task_images/dig.jpg"",""time"":1351.0999999046326}]",[],5,,,,,,,,,,,,,,
harvest,147,649540,0.0-49.0-4.0,"""event"",""trial"",""time""
""fullscreenenter"",""1"",""116720""
","
","
","""event"",""trial"",""time""
""fullscreenenter"",""1"",""116720""
","
",,null,run_exp/static/images/task_images/gems/103.jpg,null,,,,,,,46,,,5,,,,,103,0.447316675,0.446601942,,,,,,,
decision,148,649918,0.0-49.0-5.0,"""event"",""trial"",""time""
""fullscreenenter"",""1"",""116720""
","
","
","""event"",""trial"",""time""
""fullscreenenter"",""1"",""116720""
","
",,375.6000001,run_exp/static/images/task_images/land.jpg,65,,,,,,,46,,,5,,,,,,,,147583,1,0,FALSE,,,
dig,149,652564,0.0-50.0-0.0,"""event"",""trial"",""time""
""fullscreenenter"",""1"",""116720""
","
","
","""event"",""trial"",""time""
""fullscreenenter"",""1"",""116720""
","
",,,,,,,,,,,,"[{""stimulus"":""run_exp/static/images/task_images/dig.jpg"",""time"":0.7000000476837158},{""stimulus"":""run_exp/static/images/task_images/land.jpg"",""time"":877},{""stimulus"":""run_exp/static/images/task_images/dig.jpg"",""time"":1764.5999999046326}]",[],5,,,,,,,,,,,,,,
harvest,150,653573,0.0-50.0-1.0,"""event"",""trial"",""time""
""fullscreenenter"",""1"",""116720""
","
","
","""event"",""trial"",""time""
""fullscreenenter"",""1"",""116720""
","
",,null,run_exp/static/images/task_images/gems/46.jpg,null,,,,,,,22,,,5,,,,,46,0.480371919,0.47826087,,,,,,,
decision,151,653857,0.0-50.0-2.0,"""event"",""trial"",""time""
""fullscreenenter"",""1"",""116720""
","
","
","""event"",""trial"",""time""
""fullscreenenter"",""1"",""116720""
","
",,280.3000002,run_exp/static/images/task_images/land.jpg,65,,,,,,,22,,,5,,,,,,,,151522,1,1,FALSE,,,
dig,152,656591,0.0-51.0-0.0,"""event"",""trial"",""time""
""fullscreenenter"",""1"",""116720""
","
","
","""event"",""trial"",""time""
""fullscreenenter"",""1"",""116720""
","
",,,,,,,,,,,,"[{""stimulus"":""run_exp/static/images/task_images/dig.jpg"",""time"":1.1000001430511475},{""stimulus"":""run_exp/static/images/task_images/land.jpg"",""time"":917.9000000953674},{""stimulus"":""run_exp/static/images/task_images/dig.jpg"",""time"":1824.3000001907349}]",[],5,,,,,,,,,,,,,,
harvest,153,657605,0.0-51.0-1.0,"""event"",""trial"",""time""
""fullscreenenter"",""1"",""116720""
","
","
","""event"",""trial"",""time""
""fullscreenenter"",""1"",""116720""
","
",,null,run_exp/static/images/task_images/gems/22.jpg,null,,,,,,,10,,,5,,,,,22,0.456397134,0.454545455,,,,,,,
decision,154,658609,0.0-51.0-2.0,"""event"",""trial"",""time""
""fullscreenenter"",""1"",""116720""
","
","
","""event"",""trial"",""time""
""fullscreenenter"",""1"",""116720""
","
",,1000.8,run_exp/static/images/task_images/land.jpg,65,,,,,,,10,,,5,,,,,,,,156275,1,2,FALSE,,,
dig,155,660627,0.0-52.0-0.0,"""event"",""trial"",""time""
""fullscreenenter"",""1"",""116720""
","
","
","""event"",""trial"",""time""
""fullscreenenter"",""1"",""116720""
","
",,,,,,,,,,,,"[{""stimulus"":""run_exp/static/images/task_images/dig.jpg"",""time"":0.40000009536743164},{""stimulus"":""run_exp/static/images/task_images/land.jpg"",""time"":675.7000000476837},{""stimulus"":""run_exp/static/images/task_images/dig.jpg"",""time"":1339.5}]",[],5,,,,,,,,,,,,,,
harvest,156,661643,0.0-52.0-1.0,"""event"",""trial"",""time""
""fullscreenenter"",""1"",""116720""
","
","
","""event"",""trial"",""time""
""fullscreenenter"",""1"",""116720""
","
",,null,run_exp/static/images/task_images/gems/10.jpg,null,,,,,,,5,,,5,,,,,10,0.476241254,0.5,,,,,,,
decision,157,661803,0.0-52.0-2.0,"""event"",""trial"",""time""
""fullscreenenter"",""1"",""116720""
","
","
","""event"",""trial"",""time""
""fullscreenenter"",""1"",""116720""
","
",,156.4000001,run_exp/static/images/task_images/land.jpg,65,,,,,,,5,,,5,,,,,,,,159468,1,3,FALSE,,,
dig,158,664662,0.0-53.0-0.0,"""event"",""trial"",""time""
""fullscreenenter"",""1"",""116720""
","
","
","""event"",""trial"",""time""
""fullscreenenter"",""1"",""116720""
","
",,,,,,,,,,,,"[{""stimulus"":""run_exp/static/images/task_images/dig.jpg"",""time"":0.5},{""stimulus"":""run_exp/static/images/task_images/land.jpg"",""time"":958.1000001430511},{""stimulus"":""run_exp/static/images/task_images/dig.jpg"",""time"":1906.2000000476837}]",[],5,,,,,,,,,,,,,,
harvest,159,665669,0.0-53.0-1.0,"""event"",""trial"",""time""
""fullscreenenter"",""1"",""116720""
","
","
","""event"",""trial"",""time""
""fullscreenenter"",""1"",""116720""
","
",,null,run_exp/static/images/task_images/gems/5.jpg,null,,,,,,,3,,,5,,,,,5,0.515994758,0.6,,,,,,,
decision,160,666144,0.0-53.0-2.0,"""event"",""trial"",""time""
""fullscreenenter"",""1"",""116720""
","
","
","""event"",""trial"",""time""
""fullscreenenter"",""1"",""116720""
","
",,472.7,run_exp/static/images/task_images/land.jpg,76,,,,,,,3,,,5,,,,,,,,163809,1,4,TRUE,,,
travel,161,675673,0.0-54.0-0.0,"""event"",""trial"",""time""
""fullscreenenter"",""1"",""116720""
","
","
","""event"",""trial"",""time""
""fullscreenenter"",""1"",""116720""
","
",,,,,,,,,,,,"[{""stimulus"":""run_exp/static/images/task_images/rocket-01.jpg"",""time"":0.39999985694885254},{""stimulus"":""run_exp/static/images/task_images/rocket-02.jpg"",""time"":1073.5999999046326},{""stimulus"":""run_exp/static/images/task_images/rocket-03.jpg"",""time"":2119.399999856949},{""stimulus"":""run_exp/static/images/task_images/rocket-04.jpg"",""time"":3179.0999999046326},{""stimulus"":""run_exp/static/images/task_images/rocket-05.jpg"",""time"":4238},{""stimulus"":""run_exp/static/images/task_images/rocket-06.jpg"",""time"":5302.700000047684},{""stimulus"":""run_exp/static/images/task_images/rocket-07.jpg"",""time"":6353.599999904633},{""stimulus"":""run_exp/static/images/task_images/rocket-08.jpg"",""time"":7409.5},{""stimulus"":""run_exp/static/images/task_images/rocket-09.jpg"",""time"":8469.5}]",[],5,,,,,,,,,,,,,,
alien_welcome,162,680692,0.0-54.0-1.0,"""event"",""trial"",""time""
""fullscreenenter"",""1"",""116720""
","
","
","""event"",""trial"",""time""
""fullscreenenter"",""1"",""116720""
","
",,null,run_exp/static/images/task_images/aliens/old_aliens/planet/alien_planet-37.jpg,null,,,,,,,,,,,,,37,"44,65,76,78,60,37,69,5,49,56,33,23,10,25,53,26,3,12,50,21,31,74,29,30,61,64,11,39,51",,,,,,,,,,
land,163,681203,0.0-54.0-2.0,"""event"",""trial"",""time""
""fullscreenenter"",""1"",""116720""
","
","
","""event"",""trial"",""time""
""fullscreenenter"",""1"",""116720""
","
",,null,run_exp/static/images/task_images/land.jpg,null,,,,,,,107,,,6,,,,,,,,,,,,,,
dig,164,683212,0.0-54.0-3.0,"""event"",""trial"",""time""
""fullscreenenter"",""1"",""116720""
","
","
","""event"",""trial"",""time""
""fullscreenenter"",""1"",""116720""
","
",,,,,,,,,,,,"[{""stimulus"":""run_exp/static/images/task_images/dig.jpg"",""time"":0.5},{""stimulus"":""run_exp/static/images/task_images/land.jpg"",""time"":672.7999999523163},{""stimulus"":""run_exp/static/images/task_images/dig.jpg"",""time"":1339.0999999046326}]",[],6,,,,,,,,,,,,,,
harvest,165,684223,0.0-54.0-4.0,"""event"",""trial"",""time""
""fullscreenenter"",""1"",""116720""
","
","
","""event"",""trial"",""time""
""fullscreenenter"",""1"",""116720""
","
",,null,run_exp/static/images/task_images/gems/107.jpg,null,,,,,,,90,,,6,,,,,107,0.845560555,0.841121495,,,,,,,
decision,166,685078,0.0-54.0-5.0,"""event"",""trial"",""time""
""fullscreenenter"",""1"",""116720""
","
","
","""event"",""trial"",""time""
""fullscreenenter"",""1"",""116720""
","
",,853.2,run_exp/static/images/task_images/land.jpg,65,,,,,,,90,,,6,,,,,,,,182744,1,0,FALSE,,,
dig,167,687245,0.0-55.0-0.0,"""event"",""trial"",""time""
""fullscreenenter"",""1"",""116720""
","
","
","""event"",""trial"",""time""
""fullscreenenter"",""1"",""116720""
","
",,,,,,,,,,,,"[{""stimulus"":""run_exp/static/images/task_images/dig.jpg"",""time"":0.6000001430511475},{""stimulus"":""run_exp/static/images/task_images/land.jpg"",""time"":719.4000000953674},{""stimulus"":""run_exp/static/images/task_images/dig.jpg"",""time"":1447}]",[],6,,,,,,,,,,,,,,
harvest,168,688265,0.0-55.0-1.0,"""event"",""trial"",""time""
""fullscreenenter"",""1"",""116720""
","
","
","""event"",""trial"",""time""
""fullscreenenter"",""1"",""116720""
","
",,null,run_exp/static/images/task_images/gems/90.jpg,null,,,,,,,63,,,6,,,,,90,0.703711992,0.7,,,,,,,
decision,169,688639,0.0-55.0-2.0,"""event"",""trial"",""time""
""fullscreenenter"",""1"",""116720""
","
","
","""event"",""trial"",""time""
""fullscreenenter"",""1"",""116720""
","
",,370.9000001,run_exp/static/images/task_images/land.jpg,65,,,,,,,63,,,6,,,,,,,,186304,1,1,FALSE,,,
dig,170,691289,0.0-56.0-0.0,"""event"",""trial"",""time""
""fullscreenenter"",""1"",""116720""
","
","
","""event"",""trial"",""time""
""fullscreenenter"",""1"",""116720""
","
",,,,,,,,,,,,"[{""stimulus"":""run_exp/static/images/task_images/dig.jpg"",""time"":1},{""stimulus"":""run_exp/static/images/task_images/land.jpg"",""time"":891.1999998092651},{""stimulus"":""run_exp/static/images/task_images/dig.jpg"",""time"":1759}]",[],6,,,,,,,,,,,,,,
harvest,171,692301,0.0-56.0-1.0,"""event"",""trial"",""time""
""fullscreenenter"",""1"",""116720""
","
","
","""event"",""trial"",""time""
""fullscreenenter"",""1"",""116720""
","
",,null,run_exp/static/images/task_images/gems/63.jpg,null,,,,,,,49,,,6,,,,,63,0.776339549,0.777777778,,,,,,,
decision,172,692540,0.0-56.0-2.0,"""event"",""trial"",""time""
""fullscreenenter"",""1"",""116720""
","
","
","""event"",""trial"",""time""
""fullscreenenter"",""1"",""116720""
","
",,235.9000001,run_exp/static/images/task_images/land.jpg,65,,,,,,,49,,,6,,,,,,,,190205,1,2,FALSE,,,
dig,173,695328,0.0-57.0-0.0,"""event"",""trial"",""time""
""fullscreenenter"",""1"",""116720""
","
","
","""event"",""trial"",""time""
""fullscreenenter"",""1"",""116720""
","
",,,,,,,,,,,,"[{""stimulus"":""run_exp/static/images/task_images/dig.jpg"",""time"":0.5},{""stimulus"":""run_exp/static/images/task_images/land.jpg"",""time"":935.5},{""stimulus"":""run_exp/static/images/task_images/dig.jpg"",""time"":1849.2999999523163}]",[],6,,,,,,,,,,,,,,
harvest,174,696344,0.0-57.0-1.0,"""event"",""trial"",""time""
""fullscreenenter"",""1"",""116720""
","
","
","""event"",""trial"",""time""
""fullscreenenter"",""1"",""116720""
","
",,null,run_exp/static/images/task_images/gems/49.jpg,null,,,,,,,40,,,6,,,,,49,0.808903782,0.816326531,,,,,,,
decision,175,696704,0.0-57.0-2.0,"""event"",""trial"",""time""
""fullscreenenter"",""1"",""116720""
","
","
","""event"",""trial"",""time""
""fullscreenenter"",""1"",""116720""
","
",,357.4000001,run_exp/static/images/task_images/land.jpg,65,,,,,,,40,,,6,,,,,,,,194369,1,3,FALSE,,,
dig,176,699356,0.0-58.0-0.0,"""event"",""trial"",""time""
""fullscreenenter"",""1"",""116720""
","
","
","""event"",""trial"",""time""
""fullscreenenter"",""1"",""116720""
","
",,,,,,,,,,,,"[{""stimulus"":""run_exp/static/images/task_images/dig.jpg"",""time"":0.5},{""stimulus"":""run_exp/static/images/task_images/land.jpg"",""time"":887.6999998092651},{""stimulus"":""run_exp/static/images/task_images/dig.jpg"",""time"":1774.2999999523163}]",[],6,,,,,,,,,,,,,,
harvest,177,700359,0.0-58.0-1.0,"""event"",""trial"",""time""
""fullscreenenter"",""1"",""116720""
","
","
","""event"",""trial"",""time""
""fullscreenenter"",""1"",""116720""
","
",,null,run_exp/static/images/task_images/gems/40.jpg,null,,,,,,,35,,,6,,,,,40,0.878402836,0.875,,,,,,,
decision,178,700848,0.0-58.0-2.0,"""event"",""trial"",""time""
""fullscreenenter"",""1"",""116720""
","
","
","""event"",""trial"",""time""
""fullscreenenter"",""1"",""116720""
","
",,486.5,run_exp/static/images/task_images/land.jpg,65,,,,,,,35,,,6,,,,,,,,198513,1,4,FALSE,,,
dig,179,703366,0.0-59.0-0.0,"""event"",""trial"",""time""
""fullscreenenter"",""1"",""116720""
","
","
","""event"",""trial"",""time""
""fullscreenenter"",""1"",""116720""
","
",,,,,,,,,,,,"[{""stimulus"":""run_exp/static/images/task_images/dig.jpg"",""time"":0.3000001907348633},{""stimulus"":""run_exp/static/images/task_images/land.jpg"",""time"":848.2000000476837},{""stimulus"":""run_exp/static/images/task_images/dig.jpg"",""time"":1677.2000000476837}]",[],6,,,,,,,,,,,,,,
harvest,180,704374,0.0-59.0-1.0,"""event"",""trial"",""time""
""fullscreenenter"",""1"",""116720""
","
","
","""event"",""trial"",""time""
""fullscreenenter"",""1"",""116720""
","
",,null,run_exp/static/images/task_images/gems/35.jpg,null,,,,,,,27,,,6,,,,,35,0.784439385,0.771428571,,,,,,,
decision,181,704802,0.0-59.0-2.0,"""event"",""trial"",""time""
""fullscreenenter"",""1"",""116720""
","
","
","""event"",""trial"",""time""
""fullscreenenter"",""1"",""116720""
","
",,425.3,run_exp/static/images/task_images/land.jpg,65,,,,,,,27,,,6,,,,,,,,202467,1,5,FALSE,,,
dig,182,707394,0.0-60.0-0.0,"""event"",""trial"",""time""
""fullscreenenter"",""1"",""116720""
","
","
","""event"",""trial"",""time""
""fullscreenenter"",""1"",""116720""
","
",,,,,,,,,,,,"[{""stimulus"":""run_exp/static/images/task_images/dig.jpg"",""time"":0.40000009536743164},{""stimulus"":""run_exp/static/images/task_images/land.jpg"",""time"":870.6000001430511},{""stimulus"":""run_exp/static/images/task_images/dig.jpg"",""time"":1729.6000001430511}]",[],6,,,,,,,,,,,,,,
harvest,183,708411,0.0-60.0-1.0,"""event"",""trial"",""time""
""fullscreenenter"",""1"",""116720""
","
","
","""event"",""trial"",""time""
""fullscreenenter"",""1"",""116720""
","
",,null,run_exp/static/images/task_images/gems/27.jpg,null,,,,,,,23,,,6,,,,,27,0.833506962,0.851851852,,,,,,,
decision,184,708445,0.0-60.0-2.0,"""event"",""trial"",""time""
""fullscreenenter"",""1"",""116720""
","
","
","""event"",""trial"",""time""
""fullscreenenter"",""1"",""116720""
","
",,31.70000005,run_exp/static/images/task_images/land.jpg,65,,,,,,,23,,,6,,,,,,,,206110,1,6,FALSE,,,
dig,185,711435,0.0-61.0-0.0,"""event"",""trial"",""time""
""fullscreenenter"",""1"",""116720""
","
","
","""event"",""trial"",""time""
""fullscreenenter"",""1"",""116720""
","
",,,,,,,,,,,,"[{""stimulus"":""run_exp/static/images/task_images/dig.jpg"",""time"":0.7000000476837158},{""stimulus"":""run_exp/static/images/task_images/land.jpg"",""time"":1000.9000000953674},{""stimulus"":""run_exp/static/images/task_images/dig.jpg"",""time"":1995.6000001430511}]",[],6,,,,,,,,,,,,,,
harvest,186,712442,0.0-61.0-1.0,"""event"",""trial"",""time""
""fullscreenenter"",""1"",""116720""
","
","
","""event"",""trial"",""time""
""fullscreenenter"",""1"",""116720""
","
",,null,run_exp/static/images/task_images/gems/23.jpg,null,,,,,,,18,,,6,,,,,23,0.787411603,0.782608696,,,,,,,
decision,187,713073,0.0-61.0-2.0,"""event"",""trial"",""time""
""fullscreenenter"",""1"",""116720""
","
","
","""event"",""trial"",""time""
""fullscreenenter"",""1"",""116720""
","
",,628.3,run_exp/static/images/task_images/land.jpg,65,,,,,,,18,,,6,,,,,,,,210738,1,7,FALSE,,,
dig,188,715458,0.0-62.0-0.0,"""event"",""trial"",""time""
""fullscreenenter"",""1"",""116720""
","
","
","""event"",""trial"",""time""
""fullscreenenter"",""1"",""116720""
","
",,,,,,,,,,,,"[{""stimulus"":""run_exp/static/images/task_images/dig.jpg"",""time"":0.7000000476837158},{""stimulus"":""run_exp/static/images/task_images/land.jpg"",""time"":798.9000000953674},{""stimulus"":""run_exp/static/images/task_images/dig.jpg"",""time"":1589.9000000953674}]",[],6,,,,,,,,,,,,,,
harvest,189,716470,0.0-62.0-1.0,"""event"",""trial"",""time""
""fullscreenenter"",""1"",""116720""
","
","
","""event"",""trial"",""time""
""fullscreenenter"",""1"",""116720""
","
",,null,run_exp/static/images/task_images/gems/18.jpg,null,,,,,,,14,,,6,,,,,18,0.768645457,0.777777778,,,,,,,
decision,190,716954,0.0-62.0-2.0,"""event"",""trial"",""time""
""fullscreenenter"",""1"",""116720""
","
","
","""event"",""trial"",""time""
""fullscreenenter"",""1"",""116720""
","
",,481.5,run_exp/static/images/task_images/land.jpg,65,,,,,,,14,,,6,,,,,,,,214619,1,8,FALSE,,,
dig,191,719486,0.0-63.0-0.0,"""event"",""trial"",""time""
""fullscreenenter"",""1"",""116720""
","
","
","""event"",""trial"",""time""
""fullscreenenter"",""1"",""116720""
","
",,,,,,,,,,,,"[{""stimulus"":""run_exp/static/images/task_images/dig.jpg"",""time"":0.6000001430511475},{""stimulus"":""run_exp/static/images/task_images/land.jpg"",""time"":856.3000001907349},{""stimulus"":""run_exp/static/images/task_images/dig.jpg"",""time"":1687}]",[],6,,,,,,,,,,,,,,
harvest,192,720492,0.0-63.0-1.0,"""event"",""trial"",""time""
""fullscreenenter"",""1"",""116720""
","
","
","""event"",""trial"",""time""
""fullscreenenter"",""1"",""116720""
","
",,null,run_exp/static/images/task_images/gems/14.jpg,null,,,,,,,11,,,6,,,,,14,0.785899228,0.785714286,,,,,,,
decision,193,722342,0.0-63.0-2.0,"""event"",""trial"",""time""
""fullscreenenter"",""1"",""116720""
","
","
","""event"",""trial"",""time""
""fullscreenenter"",""1"",""116720""
","
",,1846.9,run_exp/static/images/task_images/land.jpg,65,,,,,,,11,,,6,,,,,,,,220007,1,9,FALSE,,,
dig,194,723516,0.0-64.0-0.0,"""event"",""trial"",""time""
""fullscreenenter"",""1"",""116720""
","
","
","""event"",""trial"",""time""
""fullscreenenter"",""1"",""116720""
","
",,,,,,,,,,,,"[{""stimulus"":""run_exp/static/images/task_images/dig.jpg"",""time"":0.40000009536743164},{""stimulus"":""run_exp/static/images/task_images/land.jpg"",""time"":391},{""stimulus"":""run_exp/static/images/task_images/dig.jpg"",""time"":777.2999999523163}]",[],6,,,,,,,,,,,,,,
harvest,195,724524,0.0-64.0-1.0,"""event"",""trial"",""time""
""fullscreenenter"",""1"",""116720""
","
","
","""event"",""trial"",""time""
""fullscreenenter"",""1"",""116720""
","
",,null,run_exp/static/images/task_images/gems/11.jpg,null,,,,,,,9,,,6,,,,,11,0.801965083,0.818181818,,,,,,,
decision,196,725524,0.0-64.0-2.0,"""event"",""trial"",""time""
""fullscreenenter"",""1"",""116720""
","
","
","""event"",""trial"",""time""
""fullscreenenter"",""1"",""116720""
","
",,997.5,run_exp/static/images/task_images/land.jpg,65,,,,,,,9,,,6,,,,,,,,223189,1,10,FALSE,,,
dig,197,727543,0.0-65.0-0.0,"""event"",""trial"",""time""
""fullscreenenter"",""1"",""116720""
","
","
","""event"",""trial"",""time""
""fullscreenenter"",""1"",""116720""
","
",,,,,,,,,,,,"[{""stimulus"":""run_exp/static/images/task_images/dig.jpg"",""time"":0.6000001430511475},{""stimulus"":""run_exp/static/images/task_images/land.jpg"",""time"":684.4000000953674},{""stimulus"":""run_exp/static/images/task_images/dig.jpg"",""time"":1345.9000000953674}]",[],6,,,,,,,,,,,,,,
harvest,198,728555,0.0-65.0-1.0,"""event"",""trial"",""time""
""fullscreenenter"",""1"",""116720""
","
","
","""event"",""trial"",""time""
""fullscreenenter"",""1"",""116720""
","
",,null,run_exp/static/images/task_images/gems/9.jpg,null,,,,,,,6,,,6,,,,,9,0.685752334,0.666666667,,,,,,,
decision,199,728966,0.0-65.0-2.0,"""event"",""trial"",""time""
""fullscreenenter"",""1"",""116720""
","
","
","""event"",""trial"",""time""
""fullscreenenter"",""1"",""116720""
","
",,408.3,run_exp/static/images/task_images/land.jpg,65,,,,,,,6,,,6,,,,,,,,226631,1,11,FALSE,,,
dig,200,731570,0.0-66.0-0.0,"""event"",""trial"",""time""
""fullscreenenter"",""1"",""116720""
","
","
","""event"",""trial"",""time""
""fullscreenenter"",""1"",""116720""
","
",,,,,,,,,,,,"[{""stimulus"":""run_exp/static/images/task_images/dig.jpg"",""time"":0.19999980926513672},{""stimulus"":""run_exp/static/images/task_images/land.jpg"",""time"":869.1999998092651},{""stimulus"":""run_exp/static/images/task_images/dig.jpg"",""time"":1728.3999998569489}]",[],6,,,,,,,,,,,,,,
harvest,201,732586,0.0-66.0-1.0,"""event"",""trial"",""time""
""fullscreenenter"",""1"",""116720""
","
","
","""event"",""trial"",""time""
""fullscreenenter"",""1"",""116720""
","
",,null,run_exp/static/images/task_images/gems/6.jpg,null,,,,,,,5,,,6,,,,,6,0.814997316,0.833333333,,,,,,,
decision,202,733208,0.0-66.0-2.0,"""event"",""trial"",""time""
""fullscreenenter"",""1"",""116720""
","
","
","""event"",""trial"",""time""
""fullscreenenter"",""1"",""116720""
","
",,619.8000002,run_exp/static/images/task_images/land.jpg,76,,,,,,,5,,,6,,,,,,,,230873,1,12,TRUE,,,
travel,203,742600,0.0-67.0-0.0,"""event"",""trial"",""time""
""fullscreenenter"",""1"",""116720""
","
","
","""event"",""trial"",""time""
""fullscreenenter"",""1"",""116720""
","
",,,,,,,,,,,,"[{""stimulus"":""run_exp/static/images/task_images/rocket-01.jpg"",""time"":0.19999980926513672},{""stimulus"":""run_exp/static/images/task_images/rocket-02.jpg"",""time"":1055.5},{""stimulus"":""run_exp/static/images/task_images/rocket-03.jpg"",""time"":2093.0999999046326},{""stimulus"":""run_exp/static/images/task_images/rocket-04.jpg"",""time"":3138.399999856949},{""stimulus"":""run_exp/static/images/task_images/rocket-05.jpg"",""time"":4185.299999952316},{""stimulus"":""run_exp/static/images/task_images/rocket-06.jpg"",""time"":5227},{""stimulus"":""run_exp/static/images/task_images/rocket-07.jpg"",""time"":6258.299999952316},{""stimulus"":""run_exp/static/images/task_images/rocket-08.jpg"",""time"":7301.099999904633},{""stimulus"":""run_exp/static/images/task_images/rocket-09.jpg"",""time"":8345.299999952316}]",[],6,,,,,,,,,,,,,,
alien_welcome,204,747609,0.0-67.0-1.0,"""event"",""trial"",""time""
""fullscreenenter"",""1"",""116720""
","
","
","""event"",""trial"",""time""
""fullscreenenter"",""1"",""116720""
","
",,null,run_exp/static/images/task_images/aliens/old_aliens/planet/alien_planet-69.jpg,null,,,,,,,,,,,,,69,"44,65,76,78,60,37,69,5,49,56,33,23,10,25,53,26,3,12,50,21,31,74,29,30,61,64,11,39,51",,,,,,,,,,
land,205,748115,0.0-67.0-2.0,"""event"",""trial"",""time""
""fullscreenenter"",""1"",""116720""
","
","
","""event"",""trial"",""time""
""fullscreenenter"",""1"",""116720""
","
",,null,run_exp/static/images/task_images/land.jpg,null,,,,,,,98,,,7,,,,,,,,,,,,,,
dig,206,750128,0.0-67.0-3.0,"""event"",""trial"",""time""
""fullscreenenter"",""1"",""116720""
","
","
","""event"",""trial"",""time""
""fullscreenenter"",""1"",""116720""
","
",,,,,,,,,,,,"[{""stimulus"":""run_exp/static/images/task_images/dig.jpg"",""time"":0.5},{""stimulus"":""run_exp/static/images/task_images/land.jpg"",""time"":679.5},{""stimulus"":""run_exp/static/images/task_images/dig.jpg"",""time"":1343.6000001430511}]",[],7,,,,,,,,,,,,,,
harvest,207,751133,0.0-67.0-4.0,"""event"",""trial"",""time""
""fullscreenenter"",""1"",""116720""
","
","
","""event"",""trial"",""time""
""fullscreenenter"",""1"",""116720""
","
",,null,run_exp/static/images/task_images/gems/98.jpg,null,,,,,,,76,,,7,,,,,98,0.771154426,0.775510204,,,,,,,
decision,208,751263,0.0-67.0-5.0,"""event"",""trial"",""time""
""fullscreenenter"",""1"",""116720""
","
","
","""event"",""trial"",""time""
""fullscreenenter"",""1"",""116720""
","
",,128.0999999,run_exp/static/images/task_images/land.jpg,65,,,,,,,76,,,7,,,,,,,,248928,1,0,FALSE,,,
dig,209,754154,0.0-68.0-0.0,"""event"",""trial"",""time""
""fullscreenenter"",""1"",""116720""
","
","
","""event"",""trial"",""time""
""fullscreenenter"",""1"",""116720""
","
",,,,,,,,,,,,"[{""stimulus"":""run_exp/static/images/task_images/dig.jpg"",""time"":0.5},{""stimulus"":""run_exp/static/images/task_images/land.jpg"",""time"":973.7999999523163},{""stimulus"":""run_exp/static/images/task_images/dig.jpg"",""time"":1919.9000000953674}]",[],7,,,,,,,,,,,,,,
harvest,210,755169,0.0-68.0-1.0,"""event"",""trial"",""time""
""fullscreenenter"",""1"",""116720""
","
","
","""event"",""trial"",""time""
""fullscreenenter"",""1"",""116720""
","
",,null,run_exp/static/images/task_images/gems/76.jpg,null,,,,,,,62,,,7,,,,,76,0.81186303,0.815789474,,,,,,,
decision,211,756386,0.0-68.0-2.0,"""event"",""trial"",""time""
""fullscreenenter"",""1"",""116720""
","
","
","""event"",""trial"",""time""
""fullscreenenter"",""1"",""116720""
","
",,1213.6,run_exp/static/images/task_images/land.jpg,65,,,,,,,62,,,7,,,,,,,,254051,1,1,FALSE,,,
dig,212,758191,0.0-69.0-0.0,"""event"",""trial"",""time""
""fullscreenenter"",""1"",""116720""
","
","
","""event"",""trial"",""time""
""fullscreenenter"",""1"",""116720""
","
",,,,,,,,,,,,"[{""stimulus"":""run_exp/static/images/task_images/dig.jpg"",""time"":0.5},{""stimulus"":""run_exp/static/images/task_images/land.jpg"",""time"":613},{""stimulus"":""run_exp/static/images/task_images/dig.jpg"",""time"":1205.8999998569489}]",[],7,,,,,,,,,,,,,,
harvest,213,759203,0.0-69.0-1.0,"""event"",""trial"",""time""
""fullscreenenter"",""1"",""116720""
","
","
","""event"",""trial"",""time""
""fullscreenenter"",""1"",""116720""
","
",,null,run_exp/static/images/task_images/gems/62.jpg,null,,,,,,,48,,,7,,,,,62,0.776271785,0.774193548,,,,,,,
decision,214,759804,0.0-69.0-2.0,"""event"",""trial"",""time""
""fullscreenenter"",""1"",""116720""
","
","
","""event"",""trial"",""time""
""fullscreenenter"",""1"",""116720""
","
",,598.8,run_exp/static/images/task_images/land.jpg,65,,,,,,,48,,,7,,,,,,,,257469,1,2,FALSE,,,
dig,215,762218,0.0-70.0-0.0,"""event"",""trial"",""time""
""fullscreenenter"",""1"",""116720""
","
","
","""event"",""trial"",""time""
""fullscreenenter"",""1"",""116720""
","
",,,,,,,,,,,,"[{""stimulus"":""run_exp/static/images/task_images/dig.jpg"",""time"":0.40000009536743164},{""stimulus"":""run_exp/static/images/task_images/land.jpg"",""time"":803.5},{""stimulus"":""run_exp/static/images/task_images/dig.jpg"",""time"":1616.7999999523163}]",[],7,,,,,,,,,,,,,,
harvest,216,763222,0.0-70.0-1.0,"""event"",""trial"",""time""
""fullscreenenter"",""1"",""116720""
","
","
","""event"",""trial"",""time""
""fullscreenenter"",""1"",""116720""
","
",,null,run_exp/static/images/task_images/gems/48.jpg,null,,,,,,,40,,,7,,,,,48,0.834962287,0.833333333,,,,,,,
decision,217,763679,0.0-70.0-2.0,"""event"",""trial"",""time""
""fullscreenenter"",""1"",""116720""
","
","
","""event"",""trial"",""time""
""fullscreenenter"",""1"",""116720""
","
",,453.3999999,run_exp/static/images/task_images/land.jpg,65,,,,,,,40,,,7,,,,,,,,261344,1,3,FALSE,,,
dig,218,766249,0.0-71.0-0.0,"""event"",""trial"",""time""
""fullscreenenter"",""1"",""116720""
","
","
","""event"",""trial"",""time""
""fullscreenenter"",""1"",""116720""
","
",,,,,,,,,,,,"[{""stimulus"":""run_exp/static/images/task_images/dig.jpg"",""time"":1.1000001430511475},{""stimulus"":""run_exp/static/images/task_images/land.jpg"",""time"":852.4000000953674},{""stimulus"":""run_exp/static/images/task_images/dig.jpg"",""time"":1704}]",[],7,,,,,,,,,,,,,,
harvest,219,767253,0.0-71.0-1.0,"""event"",""trial"",""time""
""fullscreenenter"",""1"",""116720""
","
","
","""event"",""trial"",""time""
""fullscreenenter"",""1"",""116720""
","
",,null,run_exp/static/images/task_images/gems/40.jpg,null,,,,,,,34,,,7,,,,,40,0.861016335,0.85,,,,,,,
decision,220,767834,0.0-71.0-2.0,"""event"",""trial"",""time""
""fullscreenenter"",""1"",""116720""
","
","
","""event"",""trial"",""time""
""fullscreenenter"",""1"",""116720""
","
",,577.8,run_exp/static/images/task_images/land.jpg,65,,,,,,,34,,,7,,,,,,,,265499,1,4,FALSE,,,
dig,221,770273,0.0-72.0-0.0,"""event"",""trial"",""time""
""fullscreenenter"",""1"",""116720""
","
","
","""event"",""trial"",""time""
""fullscreenenter"",""1"",""116720""
","
",,,,,,,,,,,,"[{""stimulus"":""run_exp/static/images/task_images/dig.jpg"",""time"":0.5},{""stimulus"":""run_exp/static/images/task_images/land.jpg"",""time"":816.4000000953674},{""stimulus"":""run_exp/static/images/task_images/dig.jpg"",""time"":1623.5}]",[],7,,,,,,,,,,,,,,
harvest,222,771281,0.0-72.0-1.0,"""event"",""trial"",""time""
""fullscreenenter"",""1"",""116720""
","
","
","""event"",""trial"",""time""
""fullscreenenter"",""1"",""116720""
","
",,null,run_exp/static/images/task_images/gems/34.jpg,null,,,,,,,25,,,7,,,,,34,0.732412421,0.735294118,,,,,,,
decision,223,771488,0.0-72.0-2.0,"""event"",""trial"",""time""
""fullscreenenter"",""1"",""116720""
","
","
","""event"",""trial"",""time""
""fullscreenenter"",""1"",""116720""
","
",,204.3,run_exp/static/images/task_images/land.jpg,65,,,,,,,25,,,7,,,,,,,,269153,1,5,FALSE,,,
dig,224,774298,0.0-73.0-0.0,"""event"",""trial"",""time""
""fullscreenenter"",""1"",""116720""
","
","
","""event"",""trial"",""time""
""fullscreenenter"",""1"",""116720""
","
",,,,,,,,,,,,"[{""stimulus"":""run_exp/static/images/task_images/dig.jpg"",""time"":0.5},{""stimulus"":""run_exp/static/images/task_images/land.jpg"",""time"":942.6000001430511},{""stimulus"":""run_exp/static/images/task_images/dig.jpg"",""time"":1872.1000001430511}]",[],7,,,,,,,,,,,,,,
harvest,225,775303,0.0-73.0-1.0,"""event"",""trial"",""time""
""fullscreenenter"",""1"",""116720""
","
","
","""event"",""trial"",""time""
""fullscreenenter"",""1"",""116720""
","
",,null,run_exp/static/images/task_images/gems/25.jpg,null,,,,,,,21,,,7,,,,,25,0.824736716,0.84,,,,,,,
decision,226,775912,0.0-73.0-2.0,"""event"",""trial"",""time""
""fullscreenenter"",""1"",""116720""
","
","
","""event"",""trial"",""time""
""fullscreenenter"",""1"",""116720""
","
",,605.6000001,run_exp/static/images/task_images/land.jpg,65,,,,,,,21,,,7,,,,,,,,273577,1,6,FALSE,,,
dig,227,778321,0.0-74.0-0.0,"""event"",""trial"",""time""
""fullscreenenter"",""1"",""116720""
","
","
","""event"",""trial"",""time""
""fullscreenenter"",""1"",""116720""
","
",,,,,,,,,,,,"[{""stimulus"":""run_exp/static/images/task_images/dig.jpg"",""time"":0.40000009536743164},{""stimulus"":""run_exp/static/images/task_images/land.jpg"",""time"":811},{""stimulus"":""run_exp/static/images/task_images/dig.jpg"",""time"":1603.3000001907349}]",[],7,,,,,,,,,,,,,,
harvest,228,779330,0.0-74.0-1.0,"""event"",""trial"",""time""
""fullscreenenter"",""1"",""116720""
","
","
","""event"",""trial"",""time""
""fullscreenenter"",""1"",""116720""
","
",,null,run_exp/static/images/task_images/gems/21.jpg,null,,,,,,,19,,,7,,,,,21,0.88147481,0.904761905,,,,,,,
decision,229,779721,0.0-74.0-2.0,"""event"",""trial"",""time""
""fullscreenenter"",""1"",""116720""
","
","
","""event"",""trial"",""time""
""fullscreenenter"",""1"",""116720""
","
",,388.0999999,run_exp/static/images/task_images/land.jpg,65,,,,,,,19,,,7,,,,,,,,277386,1,7,FALSE,,,
dig,230,782347,0.0-75.0-0.0,"""event"",""trial"",""time""
""fullscreenenter"",""1"",""116720""
","
","
","""event"",""trial"",""time""
""fullscreenenter"",""1"",""116720""
","
",,,,,,,,,,,,"[{""stimulus"":""run_exp/static/images/task_images/dig.jpg"",""time"":0.9000000953674316},{""stimulus"":""run_exp/static/images/task_images/land.jpg"",""time"":886},{""stimulus"":""run_exp/static/images/task_images/dig.jpg"",""time"":1747}]",[],7,,,,,,,,,,,,,,
harvest,231,783353,0.0-75.0-1.0,"""event"",""trial"",""time""
""fullscreenenter"",""1"",""116720""
","
","
","""event"",""trial"",""time""
""fullscreenenter"",""1"",""116720""
","
",,null,run_exp/static/images/task_images/gems/19.jpg,null,,,,,,,16,,,7,,,,,19,0.836219593,0.842105263,,,,,,,
decision,232,786364,0.0-75.0-2.0,"""event"",""trial"",""time""
""fullscreenenter"",""1"",""116720""
","
","
","""event"",""trial"",""time""
""fullscreenenter"",""1"",""116720""
","
",,null,run_exp/static/images/task_images/land.jpg,null,,,,,,,16,,,7,,,,,,,,284030,1,8,FALSE,,,
time_out,233,788373,0.0-76.0-0.0,"""event"",""trial"",""time""
""fullscreenenter"",""1"",""116720""
","
","
","""event"",""trial"",""time""
""fullscreenenter"",""1"",""116720""
","
",,null,run_exp/static/images/task_images/time_out.jpg,null,,,,,,,16,,,,,,,,,,,,,,,,,
decision,234,789401,0.0-76.0-1.0,"""event"",""trial"",""time""
""fullscreenenter"",""1"",""116720""
","
","
","""event"",""trial"",""time""
""fullscreenenter"",""1"",""116720""
","
",,1024.4,run_exp/static/images/task_images/land.jpg,65,,,,,,,16,,,7,,,,,,,,287066,1,8,FALSE,,,
dig,235,791390,0.0-77.0-0.0,"""event"",""trial"",""time""
""fullscreenenter"",""1"",""116720""
","
","
","""event"",""trial"",""time""
""fullscreenenter"",""1"",""116720""
","
",,,,,,,,,,,,"[{""stimulus"":""run_exp/static/images/task_images/dig.jpg"",""time"":0.7999999523162842},{""stimulus"":""run_exp/static/images/task_images/land.jpg"",""time"":667},{""stimulus"":""run_exp/static/images/task_images/dig.jpg"",""time"":1334.8999998569489}]",[],7,,,,,,,,,,,,,,
harvest,236,792407,0.0-77.0-1.0,"""event"",""trial"",""time""
""fullscreenenter"",""1"",""116720""
","
","
","""event"",""trial"",""time""
""fullscreenenter"",""1"",""116720""
","
",,null,run_exp/static/images/task_images/gems/16.jpg,null,,,,,,,13,,,7,,,,,16,0.842101769,0.8125,,,,,,,
decision,237,792951,0.0-77.0-2.0,"""event"",""trial"",""time""
""fullscreenenter"",""1"",""116720""
","
","
","""event"",""trial"",""time""
""fullscreenenter"",""1"",""116720""
","
",,541.4000001,run_exp/static/images/task_images/land.jpg,76,,,,,,,13,,,7,,,,,,,,290616,1,9,TRUE,,,
travel,238,802419,0.0-78.0-0.0,"""event"",""trial"",""time""
""fullscreenenter"",""1"",""116720""
","
","
","""event"",""trial"",""time""
""fullscreenenter"",""1"",""116720""
","
",,,,,,,,,,,,"[{""stimulus"":""run_exp/static/images/task_images/rocket-01.jpg"",""time"":0.2999999523162842},{""stimulus"":""run_exp/static/images/task_images/rocket-02.jpg"",""time"":1054.3999998569489},{""stimulus"":""run_exp/static/images/task_images/rocket-03.jpg"",""time"":2108.5999999046326},{""stimulus"":""run_exp/static/images/task_images/rocket-04.jpg"",""time"":3158.7999999523163},{""stimulus"":""run_exp/static/images/task_images/rocket-05.jpg"",""time"":4215},{""stimulus"":""run_exp/static/images/task_images/rocket-06.jpg"",""time"":5257.5},{""stimulus"":""run_exp/static/images/task_images/rocket-07.jpg"",""time"":6317.200000047684},{""stimulus"":""run_exp/static/images/task_images/rocket-08.jpg"",""time"":7357.599999904633},{""stimulus"":""run_exp/static/images/task_images/rocket-09.jpg"",""time"":8416.5}]",[],7,,,,,,,,,,,,,,
alien_welcome,239,807423,0.0-78.0-1.0,"""event"",""trial"",""time""
""fullscreenenter"",""1"",""116720""
","
","
","""event"",""trial"",""time""
""fullscreenenter"",""1"",""116720""
","
",,null,run_exp/static/images/task_images/aliens/old_aliens/planet/alien_planet-5.jpg,null,,,,,,,,,,,,,5,"44,65,76,78,60,37,69,5,49,56,33,23,10,25,53,26,3,12,50,21,31,74,29,30,61,64,11,39,51",,,,,,,,,,
land,240,807939,0.0-78.0-2.0,"""event"",""trial"",""time""
""fullscreenenter"",""1"",""116720""
","
","
","""event"",""trial"",""time""
""fullscreenenter"",""1"",""116720""
","
",,null,run_exp/static/images/task_images/land.jpg,null,,,,,,,101,,,8,,,,,,,,,,,,,,
dig,241,809954,0.0-78.0-3.0,"""event"",""trial"",""time""
""fullscreenenter"",""1"",""116720""
","
","
","""event"",""trial"",""time""
""fullscreenenter"",""1"",""116720""
","
",,,,,,,,,,,,"[{""stimulus"":""run_exp/static/images/task_images/dig.jpg"",""time"":0.5},{""stimulus"":""run_exp/static/images/task_images/land.jpg"",""time"":679.5},{""stimulus"":""run_exp/static/images/task_images/dig.jpg"",""time"":1346}]",[],8,,,,,,,,,,,,,,
harvest,242,810960,0.0-78.0-4.0,"""event"",""trial"",""time""
""fullscreenenter"",""1"",""116720""
","
","
","""event"",""trial"",""time""
""fullscreenenter"",""1"",""116720""
","
",,null,run_exp/static/images/task_images/gems/101.jpg,null,,,,,,,76,,,8,,,,,101,0.753100995,0.752475248,,,,,,,
decision,243,810965,0.0-78.0-5.0,"""event"",""trial"",""time""
""fullscreenenter"",""1"",""116720""
","
","
","""event"",""trial"",""time""
""fullscreenenter"",""1"",""116720""
","
",,0.599999905,run_exp/static/images/task_images/land.jpg,65,,,,,,,76,,,8,,,,,,,,308630,1,0,TRUE,,,
end_of_block_continue,244,819879,0.0-79.0-0.0,"""event"",""trial"",""time""
""fullscreenenter"",""1"",""116720""
","
","
","""event"",""trial"",""time""
""fullscreenenter"",""1"",""116720""
","
",,null,run_exp/static/audio/clip_32_block_end.m4a,,,,,,,null,,,,,,,,,,,,,,,,,,
alien_welcome,245,824898,0.0-80.0-0.0,"""event"",""trial"",""time""
""fullscreenenter"",""1"",""116720""
","
","
","""event"",""trial"",""time""
""fullscreenenter"",""1"",""116720""
","
",,null,run_exp/static/images/task_images/aliens/old_aliens/planet/alien_planet-49.jpg,null,,,,,,,,,,,,,49,"44,65,76,78,60,37,69,5,49,56,33,23,10,25,53,26,3,12,50,21,31,74,29,30,61,64,11,39,51",,,,,,,,,,
land,246,825408,0.0-80.0-1.0,"""event"",""trial"",""time""
""fullscreenenter"",""1"",""116720""
","
","
","""event"",""trial"",""time""
""fullscreenenter"",""1"",""116720""
","
",,null,run_exp/static/images/task_images/land.jpg,null,,,,,,,101,,,9,,,,,,,,,,,,,,
dig,247,827427,0.0-80.0-2.0,"""event"",""trial"",""time""
""fullscreenenter"",""1"",""116720""
","
","
","""event"",""trial"",""time""
""fullscreenenter"",""1"",""116720""
","
",,,,,,,,,,,,"[{""stimulus"":""run_exp/static/images/task_images/dig.jpg"",""time"":0.5},{""stimulus"":""run_exp/static/images/task_images/land.jpg"",""time"":681.2999999523163},{""stimulus"":""run_exp/static/images/task_images/dig.jpg"",""time"":1352.2000000476837}]",[],9,,,,,,,,,,,,,,
harvest,248,828438,0.0-80.0-3.0,"""event"",""trial"",""time""
""fullscreenenter"",""1"",""116720""
","
","
","""event"",""trial"",""time""
""fullscreenenter"",""1"",""116720""
","
",,null,run_exp/static/images/task_images/gems/101.jpg,null,,,,,,,30,,,9,,,,,101,0.292455498,0.297029703,,,,,,,
decision,249,829571,0.0-80.0-4.0,"""event"",""trial"",""time""
""fullscreenenter"",""1"",""116720""
","
","
","""event"",""trial"",""time""
""fullscreenenter"",""1"",""116720""
","
",,1130.5,run_exp/static/images/task_images/land.jpg,65,,,,,,,30,,,9,,,,,,,,9685,2,0,FALSE,,,
dig,250,831467,0.0-81.0-0.0,"""event"",""trial"",""time""
""fullscreenenter"",""1"",""116720""
","
","
","""event"",""trial"",""time""
""fullscreenenter"",""1"",""116720""
","
",,,,,,,,,,,,"[{""stimulus"":""run_exp/static/images/task_images/dig.jpg"",""time"":0.5999999046325684},{""stimulus"":""run_exp/static/images/task_images/land.jpg"",""time"":627.4000000953674},{""stimulus"":""run_exp/static/images/task_images/dig.jpg"",""time"":1262.5}]",[],9,,,,,,,,,,,,,,
harvest,251,832477,0.0-81.0-1.0,"""event"",""trial"",""time""
""fullscreenenter"",""1"",""116720""
","
","
","""event"",""trial"",""time""
""fullscreenenter"",""1"",""116720""
","
",,null,run_exp/static/images/task_images/gems/30.jpg,null,,,,,,,7,,,9,,,,,30,0.243376725,0.233333333,,,,,,,
decision,252,833019,0.0-81.0-2.0,"""event"",""trial"",""time""
""fullscreenenter"",""1"",""116720""
","
","
","""event"",""trial"",""time""
""fullscreenenter"",""1"",""116720""
","
",,538.2,run_exp/static/images/task_images/land.jpg,65,,,,,,,7,,,9,,,,,,,,13133,2,1,FALSE,,,
dig,253,835494,0.0-82.0-0.0,"""event"",""trial"",""time""
""fullscreenenter"",""1"",""116720""
","
","
","""event"",""trial"",""time""
""fullscreenenter"",""1"",""116720""
","
",,,,,,,,,,,,"[{""stimulus"":""run_exp/static/images/task_images/dig.jpg"",""time"":0.09999990463256836},{""stimulus"":""run_exp/static/images/task_images/land.jpg"",""time"":835.3999998569489},{""stimulus"":""run_exp/static/images/task_images/dig.jpg"",""time"":1647.3999998569489}]",[],9,,,,,,,,,,,,,,
