trial_type,trial_index,time_elapsed,internal_node_id,interactions,blur_events,focus_events,fullscreenenter_events,fullscreenexit_events,success,rt,stimulus,key_press,prompt,subject_id,participant_id,age,gender,button_pressed,next_reward,animation_sequence,responses,planet,curr_prac_trial,n_prac_rounds,alien,aliens,reward_received,decay_rate_actual,decay_rate_exp,time_in_block,block_num,prt,last_trial_on_planet,button_html,bonus,num_failures
pavlovia,0,6,0.0-0.0,"""event"",""trial"",""time""
""fullscreenenter"",""1"",""1655""
","
","
","""event"",""trial"",""time""
""fullscreenenter"",""1"",""1655""
","
",,,,,,,,,,,,,,,,,,,,,,,,,,,,
fullscreen,1,2622,0.0-1.0,"""event"",""trial"",""time""
""fullscreenenter"",""1"",""1655""
","
","
","""event"",""trial"",""time""
""fullscreenenter"",""1"",""1655""
","
",TRUE,,,,,,,,,,,,,,,,,,,,,,,,,,,
instruc_welcome,2,12373,0.0-2.0,"""event"",""trial"",""time""
""fullscreenenter"",""1"",""1655""
","
","
","""event"",""trial"",""time""
""fullscreenenter"",""1"",""1655""
","
",,null,run_exp/static/audio/clip_1_welcome.m4a,null,"<p>Howdy! In this experiment, you’ll be an explorer traveling through space to collect space treasure.</p><p>Your mission is to collect as much treasure as possible.</p><br><br><p><img src='run_exp/static/images/task_images/opening_img-01.jpg' height='300' width='auto'></p>",8540,3530,22.57,Female,,,,,,,,,,,,,,,,,,,
audio-keyboard-response,3,28993,0.0-3.0,"""event"",""trial"",""time""
""fullscreenenter"",""1"",""1655""
","
","
","""event"",""trial"",""time""
""fullscreenenter"",""1"",""1655""
","
",,null,run_exp/static/audio/clip_2_move.m4a,null,,,,,,,,,,,,,,,,,,,,,,,,
welcome_dec,4,33125,0.0-4.0,"""event"",""trial"",""time""
""fullscreenenter"",""1"",""1655""
","
","
","""event"",""trial"",""time""
""fullscreenenter"",""1"",""1655""
","
",,4128.5,"<p>Howdy! In this experiment, you’ll be an explorer traveling through space to collect space treasure.</p><p>Your mission is to collect as much treasure as possible.</p><br><br><p><img src='run_exp/static/images/task_images/opening_img-01.jpg' height='300' width='auto'></p>",,,,,,,1,,,,,,,,,,,,,,,,,,
html-keyboard-response,5,35161,0.0-5.0,"""event"",""trial"",""time""
""fullscreenenter"",""1"",""1655""
","
","
","""event"",""trial"",""time""
""fullscreenenter"",""1"",""1655""
","
",,2033.6,"<p>Howdy! In this experiment, you’ll be an explorer traveling through space to collect space treasure.</p><p>Your mission is to collect as much treasure as possible.</p><br><br><p><img src='run_exp/static/images/task_images/opening_img-01.jpg' height='300' width='auto'></p><button class=""jspsych-html-btn-unchosen""><img src=""run_exp/static/images/task_images/planet-01.jpg"" height=""50""></button><button class=""jspsych-html-btn-chosen""><img src=""run_exp/static/images/task_images/planet-02.jpg"" height=""50""></button><p><b>[press the space bar to lock in your answer]<b><br></p>",32,,,,,,,,,,,,,,,,,,,,,,,,
instruc_goal,6,45232,0.0-6.0-0.0,"""event"",""trial"",""time""
""fullscreenenter"",""1"",""1655""
","
","
","""event"",""trial"",""time""
""fullscreenenter"",""1"",""1655""
","
",,null,run_exp/static/audio/clip_3_goal.m4a,null,"<p> As a space explorer, you’ll visit different planets to dig for space treasure, these pink gems.</p> <p> The more treasure you dig up, the more bonus money you’ll win! </p><br><br><p><img src='run_exp/static/images/task_images/pink_gem.jpg' height='300' width='auto'></p>",,,,,,,,,,,,,,,,,,,,,,,
instruc_goal,7,48817,0.0-6.0-1.0,"""event"",""trial"",""time""
""fullscreenenter"",""1"",""1655""
","
","
","""event"",""trial"",""time""
""fullscreenenter"",""1"",""1655""
","
",,3583.1,"<p> As a space explorer, you’ll visit different planets to dig for space treasure, these pink gems.</p> <p> The more treasure you dig up, the more bonus money you’ll win! </p><br><br><p><img src='run_exp/static/images/task_images/pink_gem.jpg' height='300' width='auto'></p>",,,,,,,1,,,,,,,,,,,,,,,,,,
html-keyboard-response,8,49382,0.0-6.0-2.0,"""event"",""trial"",""time""
""fullscreenenter"",""1"",""1655""
","
","
","""event"",""trial"",""time""
""fullscreenenter"",""1"",""1655""
","
",,561.8,"<p> As a space explorer, you’ll visit different planets to dig for space treasure, these pink gems.</p> <p> The more treasure you dig up, the more bonus money you’ll win! </p><br><br><p><img src='run_exp/static/images/task_images/pink_gem.jpg' height='300' width='auto'></p><button class=""jspsych-html-btn-unchosen""><img src=""run_exp/static/images/task_images/planet-01.jpg"" height=""50""></button><button class=""jspsych-html-btn-chosen""><img src=""run_exp/static/images/task_images/planet-02.jpg"" height=""50""></button><p><b>[press the space bar to lock in your answer]<b><br></p>",32,,,,,,,,,,,,,,,,,,,,,,,,
instruc_dig,9,65392,0.0-7.0-0.0,"""event"",""trial"",""time""
""fullscreenenter"",""1"",""1655""
","
","
","""event"",""trial"",""time""
""fullscreenenter"",""1"",""1655""
","
",,null,run_exp/static/audio/clip_4_dig.m4a,null,,,,,,,100,,,,,,,,,,,,,,,,,
instruc_dig_try,10,69574,0.0-7.0-1.0,"""event"",""trial"",""time""
""fullscreenenter"",""1"",""1655""
","
","
","""event"",""trial"",""time""
""fullscreenenter"",""1"",""1655""
","
",,4179.5,"<p> When you’ve arrived at a new planet, you will dig once. </p> <p>Then, you get to decide if you want to stay on the planet and dig again or travel to a new planet and dig there.</p> <p> To stay and dig, press the letter <strong>‘A’</strong> on your keyboard. Try pressing it now! </p><p><img src='run_exp/static/images/task_images/land.jpg'  height='700' width='auto'></p>",65,"<p> When you’ve arrived at a new planet, you will dig once. </p> <p>Then, you get to decide if you want to stay on the planet and dig again or travel to a new planet and dig there.</p> <p> To stay and dig, press the letter <strong>‘A’</strong> on your keyboard. Try pressing it now! </p><p><img src='run_exp/static/images/task_images/land.jpg'  height='700' width='auto'></p>",,,,,,100,,,,,,,,,,,,,,,,,
dig_prac,11,71610,0.0-7.0-2.0,"""event"",""trial"",""time""
""fullscreenenter"",""1"",""1655""
","
","
","""event"",""trial"",""time""
""fullscreenenter"",""1"",""1655""
","
",,,,,,,,,,,,"[{""stimulus"":""run_exp/static/images/task_images/dig.jpg"",""time"":0.2999999523162842},{""stimulus"":""run_exp/static/images/task_images/land.jpg"",""time"":676.7000000476837},{""stimulus"":""run_exp/static/images/task_images/dig.jpg"",""time"":1342.5}]",[],,,,,,,,,,,,,,,
instruc_travel,12,107851,0.0-7.0-3.0,"""event"",""trial"",""time""
""fullscreenenter"",""1"",""1655""
","
","
","""event"",""trial"",""time""
""fullscreenenter"",""1"",""1655""
","
",,null,run_exp/static/audio/clip_5_travel.m4a,null,"<p>Every time you dig up gems, there are less gems on the planet, so the more you dig on a planet the fewer gems you’ll get with each dig.</p><p>When gems are running low, you may want to travel to a new planet. </p> <p>  Planets are very far apart in this galaxy, so it will take some time to travel between them. </p> <br><p>There are lots and lots of planets for you to visit, so you won’t be able to return to any planets you’ve seen before. </p><br><p>To leave this planet and travel to a new one, press the letter <strong>‘L’</strong> on your keyboard. Try pressing it now! </p><p><img src='run_exp/static/images/task_images/rocket-01.jpg'  height='600' width='auto'></p>",,,,,,,,,,,,,,,,,,,,,,,
instruc_travel_try,13,114141,0.0-7.0-4.0,"""event"",""trial"",""time""
""fullscreenenter"",""1"",""1655""
","
","
","""event"",""trial"",""time""
""fullscreenenter"",""1"",""1655""
","
",,6287.9,"<p>Every time you dig up gems, there are less gems on the planet, so the more you dig on a planet the fewer gems you’ll get with each dig.</p><p>When gems are running low, you may want to travel to a new planet. </p> <p>  Planets are very far apart in this galaxy, so it will take some time to travel between them. </p> <br><p>There are lots and lots of planets for you to visit, so you won’t be able to return to any planets you’ve seen before. </p><br><p>To leave this planet and travel to a new one, press the letter <strong>‘L’</strong> on your keyboard. Try pressing it now! </p><p><img src='run_exp/static/images/task_images/rocket-01.jpg'  height='600' width='auto'></p>",76,"<p>Every time you dig up gems, there are less gems on the planet, so the more you dig on a planet the fewer gems you’ll get with each dig.</p><p>When gems are running low, you may want to travel to a new planet. </p> <p>  Planets are very far apart in this galaxy, so it will take some time to travel between them. </p> <br><p>There are lots and lots of planets for you to visit, so you won’t be able to return to any planets you’ve seen before. </p><br><p>To leave this planet and travel to a new one, press the letter <strong>‘L’</strong> on your keyboard. Try pressing it now! </p><p><img src='run_exp/static/images/task_images/rocket-01.jpg'  height='600' width='auto'></p>",,,,,,,,,,,,,,,,,,,,,,,
travel_prac,14,124148,0.0-7.0-5.0,"""event"",""trial"",""time""
""fullscreenenter"",""1"",""1655""
","
","
","""event"",""trial"",""time""
""fullscreenenter"",""1"",""1655""
","
",,,,,,,,,,,,"[{""stimulus"":""run_exp/static/images/task_images/rocket-01.jpg"",""time"":0.2999999523162842},{""stimulus"":""run_exp/static/images/task_images/rocket-02.jpg"",""time"":1116.5},{""stimulus"":""run_exp/static/images/task_images/rocket-03.jpg"",""time"":2236.7000000476837},{""stimulus"":""run_exp/static/images/task_images/rocket-04.jpg"",""time"":3336.2999999523163},{""stimulus"":""run_exp/static/images/task_images/rocket-05.jpg"",""time"":4466.5},{""stimulus"":""run_exp/static/images/task_images/rocket-06.jpg"",""time"":5576.5},{""stimulus"":""run_exp/static/images/task_images/rocket-07.jpg"",""time"":6676.400000095367},{""stimulus"":""run_exp/static/images/task_images/rocket-08.jpg"",""time"":7786.599999904633},{""stimulus"":""run_exp/static/images/task_images/rocket-09.jpg"",""time"":8906.900000095367}]",[],0,,,,,,,,,,,,,,
instruc_alien_greet,15,151389,0.0-7.0-6.0,"""event"",""trial"",""time""
""fullscreenenter"",""1"",""1655""
","
","
","""event"",""trial"",""time""
""fullscreenenter"",""1"",""1655""
","
",,null,run_exp/static/audio/clip_6_alien.m4a,null,"<p>When you arrive at a new planet, the alien who owns the treasure mine on that planet will greet you!</p><p>The better an alien takes care of their mine the easier it is to dig for gems. Some aliens take better care of their mine than others. So, you won’t get exactly the same amount of gems on each planet.</p><p>What the alien looks like does not tell you anything about how many gems there are on the planet.</p><br><p><img src=""run_exp/static/images/task_images/aliens/instructions_aliens/planet/alien_planet-1.jpg""  height=""600"" width=""auto""></p>",,,,,,,,,,,,,,,,,,,,,,,
instruc_alien_greet,16,154620,0.0-7.0-7.0,"""event"",""trial"",""time""
""fullscreenenter"",""1"",""1655""
","
","
","""event"",""trial"",""time""
""fullscreenenter"",""1"",""1655""
","
",,3228.2,"<p>When you arrive at a new planet, the alien who owns the treasure mine on that planet will greet you!</p><p>The better an alien takes care of their mine the easier it is to dig for gems. Some aliens take better care of their mine than others. So, you won’t get exactly the same amount of gems on each planet.</p><p>What the alien looks like does not tell you anything about how many gems there are on the planet.</p><br><p><img src=""run_exp/static/images/task_images/aliens/instructions_aliens/planet/alien_planet-1.jpg""  height=""600"" width=""auto""></p>",,,,,,,1,,,,,,,,,,,,,,,,,,
html-keyboard-response,17,155933,0.0-7.0-8.0,"""event"",""trial"",""time""
""fullscreenenter"",""1"",""1655""
","
","
","""event"",""trial"",""time""
""fullscreenenter"",""1"",""1655""
","
",,1311.6,"<p>When you arrive at a new planet, the alien who owns the treasure mine on that planet will greet you!</p><p>The better an alien takes care of their mine the easier it is to dig for gems. Some aliens take better care of their mine than others. So, you won’t get exactly the same amount of gems on each planet.</p><p>What the alien looks like does not tell you anything about how many gems there are on the planet.</p><br><p><img src=""run_exp/static/images/task_images/aliens/instructions_aliens/planet/alien_planet-1.jpg""  height=""600"" width=""auto""></p><button class=""jspsych-html-btn-unchosen""><img src=""run_exp/static/images/task_images/planet-01.jpg"" height=""50""></button><button class=""jspsych-html-btn-chosen""><img src=""run_exp/static/images/task_images/planet-02.jpg"" height=""50""></button><p><b>[press the space bar to lock in your answer]<b><br></p>",32,,,,,,,,,,,,,,,,,,,,,,,,
time_out,18,167029,0.0-8.0-0.0,"""event"",""trial"",""time""
""fullscreenenter"",""1"",""1655""
","
","
","""event"",""trial"",""time""
""fullscreenenter"",""1"",""1655""
","
",,null,run_exp/static/audio/clip_7_timeout.m4a,null,"<p>If you don't make your choice fast enough, you’ll have to wait a few seconds before you can make another one.</p><p>You can’t dig for more gems or travel to new planets. You just have to sit and wait.</p><br><p><img src='run_exp/static/images/task_images/time_out.jpg'  height='600' width='auto'></p>",,,,,,,,,,,,,,,,,,,,,,,
time_out,19,170087,0.0-8.0-1.0,"""event"",""trial"",""time""
""fullscreenenter"",""1"",""1655""
","
","
","""event"",""trial"",""time""
""fullscreenenter"",""1"",""1655""
","
",,3055.9,"<p>If you don't make your choice fast enough, you’ll have to wait a few seconds before you can make another one.</p><p>You can’t dig for more gems or travel to new planets. You just have to sit and wait.</p><br><p><img src='run_exp/static/images/task_images/time_out.jpg'  height='600' width='auto'></p>",,,,,,,1,,,,,,,,,,,,,,,,,,
html-keyboard-response,20,171303,0.0-8.0-2.0,"""event"",""trial"",""time""
""fullscreenenter"",""1"",""1655""
","
","
","""event"",""trial"",""time""
""fullscreenenter"",""1"",""1655""
","
",,1214.2,"<p>If you don't make your choice fast enough, you’ll have to wait a few seconds before you can make another one.</p><p>You can’t dig for more gems or travel to new planets. You just have to sit and wait.</p><br><p><img src='run_exp/static/images/task_images/time_out.jpg'  height='600' width='auto'></p><button class=""jspsych-html-btn-unchosen""><img src=""run_exp/static/images/task_images/planet-01.jpg"" height=""50""></button><button class=""jspsych-html-btn-chosen""><img src=""run_exp/static/images/task_images/planet-02.jpg"" height=""50""></button><p><b>[press the space bar to lock in your answer]<b><br></p>",32,,,,,,,,,,,,,,,,,,,,,,,,
instruc_break,21,186969,0.0-9.0-0.0,"""event"",""trial"",""time""
""fullscreenenter"",""1"",""1655""
","
","
","""event"",""trial"",""time""
""fullscreenenter"",""1"",""1655""
","
",,null,run_exp/static/audio/clip_8_break.m4a,null,"<p> After digging and traveling for a while, you’ll be able to take a break at home base. </p><p>The game will last 20 minutes no matter what.</p><p>You will visit home base every 5 minutes, so, you will visit home base three times during the game.</p><br><p><img src='run_exp/static/images/task_images/home_base.jpg' height='600' width='auto'></p>",,,,,,,,,,,,,,,,,,,,,,,
instruc_break,22,188570,0.0-9.0-1.0,"""event"",""trial"",""time""
""fullscreenenter"",""1"",""1655""
","
","
","""event"",""trial"",""time""
""fullscreenenter"",""1"",""1655""
","
",,1598.3,"<p> After digging and traveling for a while, you’ll be able to take a break at home base. </p><p>The game will last 20 minutes no matter what.</p><p>You will visit home base every 5 minutes, so, you will visit home base three times during the game.</p><br><p><img src='run_exp/static/images/task_images/home_base.jpg' height='600' width='auto'></p>",,,,,,,1,,,,,,,,,,,,,,,,,,
html-keyboard-response,23,190905,0.0-9.0-2.0,"""event"",""trial"",""time""
""fullscreenenter"",""1"",""1655""
","
","
","""event"",""trial"",""time""
""fullscreenenter"",""1"",""1655""
","
",,2333.3,"<p> After digging and traveling for a while, you’ll be able to take a break at home base. </p><p>The game will last 20 minutes no matter what.</p><p>You will visit home base every 5 minutes, so, you will visit home base three times during the game.</p><br><p><img src='run_exp/static/images/task_images/home_base.jpg' height='600' width='auto'></p><button class=""jspsych-html-btn-unchosen""><img src=""run_exp/static/images/task_images/planet-01.jpg"" height=""50""></button><button class=""jspsych-html-btn-chosen""><img src=""run_exp/static/images/task_images/planet-02.jpg"" height=""50""></button><p><b>[press the space bar to lock in your answer]<b><br></p>",32,,,,,,,,,,,,,,,,,,,,,,,,
instruc_prac_game,24,201031,0.0-10.0-0.0,"""event"",""trial"",""time""
""fullscreenenter"",""1"",""1655""
","
","
","""event"",""trial"",""time""
""fullscreenenter"",""1"",""1655""
","
",,null,run_exp/static/audio/clip_9_practice.m4a,null,"<p> Are you ready to play a practice game? </p> <p>In this practice game, you'll be digging up barrels of gems. But, in the real game, you'll be digging up the gems themselves. </p>",,,,,,,,,,,,,,,,,,,,,,,
html-button-response,25,202311,0.0-10.0-1.0,"""event"",""trial"",""time""
""fullscreenenter"",""1"",""1655""
","
","
","""event"",""trial"",""time""
""fullscreenenter"",""1"",""1655""
","
",,1277.6,"<p> Are you ready to play a practice game? </p> <p>In this practice game, you'll be digging up barrels of gems. But, in the real game, you'll be digging up the gems themselves. </p>",,,,,,,0,,,,,,,,,,,,,,,,,,
alien_welcome_prac,26,207318,0.0-11.0-0.0,"""event"",""trial"",""time""
""fullscreenenter"",""1"",""1655""
","
","
","""event"",""trial"",""time""
""fullscreenenter"",""1"",""1655""
","
",,null,run_exp/static/images/task_images/aliens/practice_aliens/planet/alien_planet-5.jpg,null,,,,,,,,,,,,,,,,,,,,,,,,
land_prac,27,207828,0.0-11.0-1.0,"""event"",""trial"",""time""
""fullscreenenter"",""1"",""1655""
","
","
","""event"",""trial"",""time""
""fullscreenenter"",""1"",""1655""
","
",,null,run_exp/static/images/task_images/land.jpg,null,,,,,,,105,,,0,,,,,,,,,,,,,,
dig_prac,28,209846,0.0-11.0-2.0,"""event"",""trial"",""time""
""fullscreenenter"",""1"",""1655""
","
","
","""event"",""trial"",""time""
""fullscreenenter"",""1"",""1655""
","
",,,,,,,,,,,,"[{""stimulus"":""run_exp/static/images/task_images/dig.jpg"",""time"":0.2999999523162842},{""stimulus"":""run_exp/static/images/task_images/land.jpg"",""time"":677.7000000476837},{""stimulus"":""run_exp/static/images/task_images/dig.jpg"",""time"":1338.1000001430511}]",[],,,,,,,,,,,,,,,
harvest_prac,29,210858,0.0-11.0-3.0,"""event"",""trial"",""time""
""fullscreenenter"",""1"",""1655""
","
","
","""event"",""trial"",""time""
""fullscreenenter"",""1"",""1655""
","
",,null,run_exp/static/images/task_images/barrel_text.jpg,null,,,,,,,,,,,,,,,,,,,,,,,,
decision_prac,30,212378,0.0-11.0-4.0,"""event"",""trial"",""time""
""fullscreenenter"",""1"",""1655""
","
","
","""event"",""trial"",""time""
""fullscreenenter"",""1"",""1655""
","
",,1517.9,run_exp/static/images/task_images/land.jpg,65,,,,,,,,,,,1,,,,,,,,,,,,,
dig_prac,31,214398,0.0-12.0-0.0,"""event"",""trial"",""time""
""fullscreenenter"",""1"",""1655""
","
","
","""event"",""trial"",""time""
""fullscreenenter"",""1"",""1655""
","
",,,,,,,,,,,,"[{""stimulus"":""run_exp/static/images/task_images/dig.jpg"",""time"":0.20000004768371582},{""stimulus"":""run_exp/static/images/task_images/land.jpg"",""time"":686.7000000476837},{""stimulus"":""run_exp/static/images/task_images/dig.jpg"",""time"":1336.5}]",[],,,,,,,,,,,,,,,
harvest_prac,32,215407,0.0-12.0-1.0,"""event"",""trial"",""time""
""fullscreenenter"",""1"",""1655""
","
","
","""event"",""trial"",""time""
""fullscreenenter"",""1"",""1655""
","
",,null,run_exp/static/images/task_images/barrel_text.jpg,null,,,,,,,,,,,,,,,,,,,,,,,,
decision_prac,33,216966,0.0-12.0-2.0,"""event"",""trial"",""time""
""fullscreenenter"",""1"",""1655""
","
","
","""event"",""trial"",""time""
""fullscreenenter"",""1"",""1655""
","
",,1556.8,run_exp/static/images/task_images/land.jpg,65,,,,,,,,,,,2,,,,,,,,,,,,,
dig_prac,34,218978,0.0-13.0-0.0,"""event"",""trial"",""time""
""fullscreenenter"",""1"",""1655""
","
","
","""event"",""trial"",""time""
""fullscreenenter"",""1"",""1655""
","
",,,,,,,,,,,,"[{""stimulus"":""run_exp/static/images/task_images/dig.jpg"",""time"":0.20000004768371582},{""stimulus"":""run_exp/static/images/task_images/land.jpg"",""time"":669},{""stimulus"":""run_exp/static/images/task_images/dig.jpg"",""time"":1349.2999999523163}]",[],,,,,,,,,,,,,,,
harvest_prac,35,219988,0.0-13.0-1.0,"""event"",""trial"",""time""
""fullscreenenter"",""1"",""1655""
","
","
","""event"",""trial"",""time""
""fullscreenenter"",""1"",""1655""
","
",,null,run_exp/static/images/task_images/barrel_text.jpg,null,,,,,,,,,,,,,,,,,,,,,,,,
decision_prac,36,220378,0.0-13.0-2.0,"""event"",""trial"",""time""
""fullscreenenter"",""1"",""1655""
","
","
","""event"",""trial"",""time""
""fullscreenenter"",""1"",""1655""
","
",,388,run_exp/static/images/task_images/land.jpg,65,,,,,,,,,,,3,,,,,,,,,,,,,
dig_prac,37,222397,0.0-14.0-0.0,"""event"",""trial"",""time""
""fullscreenenter"",""1"",""1655""
","
","
","""event"",""trial"",""time""
""fullscreenenter"",""1"",""1655""
","
",,,,,,,,,,,,"[{""stimulus"":""run_exp/static/images/task_images/dig.jpg"",""time"":0.19999980926513672},{""stimulus"":""run_exp/static/images/task_images/land.jpg"",""time"":687.1999998092651},{""stimulus"":""run_exp/static/images/task_images/dig.jpg"",""time"":1337.0999999046326}]",[],,,,,,,,,,,,,,,
harvest_prac,38,223407,0.0-14.0-1.0,"""event"",""trial"",""time""
""fullscreenenter"",""1"",""1655""
","
","
","""event"",""trial"",""time""
""fullscreenenter"",""1"",""1655""
","
",,null,run_exp/static/images/task_images/barrel_text.jpg,null,,,,,,,,,,,,,,,,,,,,,,,,
decision_prac,39,224234,0.0-14.0-2.0,"""event"",""trial"",""time""
""fullscreenenter"",""1"",""1655""
","
","
","""event"",""trial"",""time""
""fullscreenenter"",""1"",""1655""
","
",,825.2,run_exp/static/images/task_images/land.jpg,65,,,,,,,,,,,4,,,,,,,,,,,,,
dig_prac,40,226257,0.0-15.0-0.0,"""event"",""trial"",""time""
""fullscreenenter"",""1"",""1655""
","
","
","""event"",""trial"",""time""
""fullscreenenter"",""1"",""1655""
","
",,,,,,,,,,,,"[{""stimulus"":""run_exp/static/images/task_images/dig.jpg"",""time"":0.19999980926513672},{""stimulus"":""run_exp/static/images/task_images/land.jpg"",""time"":670.5999999046326},{""stimulus"":""run_exp/static/images/task_images/dig.jpg"",""time"":1350.3999998569489}]",[],,,,,,,,,,,,,,,
harvest_prac,41,227267,0.0-15.0-1.0,"""event"",""trial"",""time""
""fullscreenenter"",""1"",""1655""
","
","
","""event"",""trial"",""time""
""fullscreenenter"",""1"",""1655""
","
",,null,run_exp/static/images/task_images/barrel_text.jpg,null,,,,,,,,,,,,,,,,,,,,,,,,
decision_prac,42,227701,0.0-15.0-2.0,"""event"",""trial"",""time""
""fullscreenenter"",""1"",""1655""
","
","
","""event"",""trial"",""time""
""fullscreenenter"",""1"",""1655""
","
",,432.4000001,run_exp/static/images/task_images/land.jpg,65,,,,,,,,,,,,1,,,,,,,,,,,,
quiz_instruc,43,249621,0.0-16.0-0.0,"""event"",""trial"",""time""
""fullscreenenter"",""1"",""1655""
","
","
","""event"",""trial"",""time""
""fullscreenenter"",""1"",""1655""
","
",,21917.4,run_exp/static/audio/clip_10_quiz.m4a,,,,,,,0,,,,,,,,,,,,,,,,,,
instruc_repeat,44,292365,0.0-16.0-1.0,"""event"",""trial"",""time""
""fullscreenenter"",""1"",""1655""
","
","
","""event"",""trial"",""time""
""fullscreenenter"",""1"",""1655""
","
",,null,"<p> Are you ready to play a practice game? </p> <p>In this practice game, you'll be digging up barrels of gems. But, in the real game, you'll be digging up the gems themselves. </p>",null,"<p>In this game, your goal is to collect as many gems as you can. That’s how you will win bonus money. </p> <p>The entire game will last 20 minutes no matter how many gems you collect or how many planets you visit. </p><p>To stay on a planet and dig again, press the letter A on your keyboard. To leave for a new planet, press the letter L.</p><p>The more you dig on a planet, the fewer gems you’ll get with each dig which is why you might consider leaving for a new planet. </p><p>When you arrive at a new planet, you’ll be greeted by an alien. What the alien looks like does not tell you anything about how much treasure is on the planet. </p>",,,,,,,,,,,,,,,,,,,,,,,
instruc_repeat_continue,45,293966,0.0-16.0-2.0,"""event"",""trial"",""time""
""fullscreenenter"",""1"",""1655""
","
","
","""event"",""trial"",""time""
""fullscreenenter"",""1"",""1655""
","
",,1599.2,"<p> Are you ready to play a practice game? </p> <p>In this practice game, you'll be digging up barrels of gems. But, in the real game, you'll be digging up the gems themselves. </p>",,,,,,,0,,,,,,,,,,,,,,,,,,
quiz_q_1_ask,46,297216,0.0-16.0-3.0,"""event"",""trial"",""time""
""fullscreenenter"",""1"",""1655""
","
","
","""event"",""trial"",""time""
""fullscreenenter"",""1"",""1655""
","
",,3248.2,run_exp/static/audio/clip_11_q1_ask.m4a,,,,,,,2,,,,,,,,,,,,,,,,,,
quiz_q_1_fb_correct,47,301064,0.0-17.0-0.0,"""event"",""trial"",""time""
""fullscreenenter"",""1"",""1655""
","
","
","""event"",""trial"",""time""
""fullscreenenter"",""1"",""1655""
","
",,null,run_exp/static/audio/clip_12_q1_correct.m4a,null,<p>That’s correct. You win extra money by collecting more gems.</p>,,,,,,,,,,,,,,,,,,,,,,,
quiz_q_2_ask,48,305386,0.0-17.0-1.0,"""event"",""trial"",""time""
""fullscreenenter"",""1"",""1655""
","
","
","""event"",""trial"",""time""
""fullscreenenter"",""1"",""1655""
","
",,4318.7,run_exp/static/audio/clip_14_q2_ask.m4a,,,,,,,1,,,,,,,,,,,,,,,,,,
quiz_q_2_fb_correct,49,309403,0.0-18.0-0.0,"""event"",""trial"",""time""
""fullscreenenter"",""1"",""1655""
","
","
","""event"",""trial"",""time""
""fullscreenenter"",""1"",""1655""
","
",,null,run_exp/static/audio/clip_15_q2_correct.m4a,null,<p>That’s correct. The experiment is 20 minutes no matter what.</p>,,,,,,,,,,,,,,,,,,,,,,,
quiz_q_3_ask,50,311804,0.0-18.0-1.0,"""event"",""trial"",""time""
""fullscreenenter"",""1"",""1655""
","
","
","""event"",""trial"",""time""
""fullscreenenter"",""1"",""1655""
","
",,2399.3,run_exp/static/audio/clip_17_q3_ask.m4a,,,,,,,1,,,,,,,,,,,,,,,,,,
quiz_q_3_fb_correct,51,315802,0.0-19.0-0.0,"""event"",""trial"",""time""
""fullscreenenter"",""1"",""1655""
","
","
","""event"",""trial"",""time""
""fullscreenenter"",""1"",""1655""
","
",,null,run_exp/static/audio/clip_18_q3_correct.m4a,null,<p> That’s correct. You press the letter L to travel to a new planet.</p>,,,,,,,,,,,,,,,,,,,,,,,
quiz_q_4_ask,52,318924,0.0-19.0-1.0,"""event"",""trial"",""time""
""fullscreenenter"",""1"",""1655""
","
","
","""event"",""trial"",""time""
""fullscreenenter"",""1"",""1655""
","
",,3119.2,run_exp/static/audio/clip_20_q4_ask.m4a,,,,,,,1,,,,,,,,,,,,,,,,,,
quiz_q_4_fb_incorrect,53,324782,0.0-20.0-0.0,"""event"",""trial"",""time""
""fullscreenenter"",""1"",""1655""
","
","
","""event"",""trial"",""time""
""fullscreenenter"",""1"",""1655""
","
",,null,run_exp/static/audio/clip_22_q4_incorrect.m4a,null,<p>That’s incorrect.  The more you dig on a planet the fewer gems you’ll get with each dig.</p>,,,,,,,,,,,,,,,,,,,,,,,
quiz_q_5_ask,54,327183,0.0-20.0-1.0,"""event"",""trial"",""time""
""fullscreenenter"",""1"",""1655""
","
","
","""event"",""trial"",""time""
""fullscreenenter"",""1"",""1655""
","
",,2398.9,run_exp/static/audio/clip_23_q5_ask.m4a,,,,,,,0,,,,,,,,,,,,,,,,,,
quiz_q_5_fb_incorrect,55,332862,0.0-21.0-0.0,"""event"",""trial"",""time""
""fullscreenenter"",""1"",""1655""
","
","
","""event"",""trial"",""time""
""fullscreenenter"",""1"",""1655""
","
",,null,run_exp/static/audio/clip_25_q5_incorrect.m4a,null,<p>That’s incorrect. The alien tells you nothing about how much treasure is on the planet.</p>,,,,,,,,,,,,,,,,,,,,,,,
quiz_incorrect,56,338422,0.0-22.0-0.0,"""event"",""trial"",""time""
""fullscreenenter"",""1"",""1655""
","
","
","""event"",""trial"",""time""
""fullscreenenter"",""1"",""1655""
","
",,null,run_exp/static/audio/clip_27_incorrect_quiz.m4a,null,,,,,,,,,,,,,,,,,,,,,,,,
quiz_incorrect_continue,57,339093,0.0-22.0-1.0,"""event"",""trial"",""time""
""fullscreenenter"",""1"",""1655""
","
","
","""event"",""trial"",""time""
""fullscreenenter"",""1"",""1655""
","
",,669.6000001,"<p>Oops, you missed some questions.</p><p>Now that you’ve heard the correct answers. Try the quiz again!</p>",,,,,,,0,,,,,,,,,,,,,,,,,,
quiz_q_1_ask,58,341853,0.0-22.0-2.0,"""event"",""trial"",""time""
""fullscreenenter"",""1"",""1655""
","
","
","""event"",""trial"",""time""
""fullscreenenter"",""1"",""1655""
","
",,2757.7,run_exp/static/audio/clip_11_q1_ask.m4a,,,,,,,2,,,,,,,,,,,,,,,,,,
quiz_q_1_fb_correct,59,345701,0.0-23.0-0.0,"""event"",""trial"",""time""
""fullscreenenter"",""1"",""1655""
","
","
","""event"",""trial"",""time""
""fullscreenenter"",""1"",""1655""
","
",,null,run_exp/static/audio/clip_12_q1_correct.m4a,null,<p>That’s correct. You win extra money by collecting more gems.</p>,,,,,,,,,,,,,,,,,,,,,,,
quiz_q_2_ask,60,347411,0.0-23.0-1.0,"""event"",""trial"",""time""
""fullscreenenter"",""1"",""1655""
","
","
","""event"",""trial"",""time""
""fullscreenenter"",""1"",""1655""
","
",,1707.4,run_exp/static/audio/clip_14_q2_ask.m4a,,,,,,,1,,,,,,,,,,,,,,,,,,
quiz_q_2_fb_correct,61,351422,0.0-24.0-0.0,"""event"",""trial"",""time""
""fullscreenenter"",""1"",""1655""
","
","
","""event"",""trial"",""time""
""fullscreenenter"",""1"",""1655""
","
",,null,run_exp/static/audio/clip_15_q2_correct.m4a,null,<p>That’s correct. The experiment is 20 minutes no matter what.</p>,,,,,,,,,,,,,,,,,,,,,,,
quiz_q_3_ask,62,353153,0.0-24.0-1.0,"""event"",""trial"",""time""
""fullscreenenter"",""1"",""1655""
","
","
","""event"",""trial"",""time""
""fullscreenenter"",""1"",""1655""
","
",,1728.8,run_exp/static/audio/clip_17_q3_ask.m4a,,,,,,,1,,,,,,,,,,,,,,,,,,
quiz_q_3_fb_correct,63,357141,0.0-25.0-0.0,"""event"",""trial"",""time""
""fullscreenenter"",""1"",""1655""
","
","
","""event"",""trial"",""time""
""fullscreenenter"",""1"",""1655""
","
",,null,run_exp/static/audio/clip_18_q3_correct.m4a,null,<p> That’s correct. You press the letter L to travel to a new planet.</p>,,,,,,,,,,,,,,,,,,,,,,,
quiz_q_4_ask,64,361422,0.0-25.0-1.0,"""event"",""trial"",""time""
""fullscreenenter"",""1"",""1655""
","
","
","""event"",""trial"",""time""
""fullscreenenter"",""1"",""1655""
","
",,4279.9,run_exp/static/audio/clip_20_q4_ask.m4a,,,,,,,0,,,,,,,,,,,,,,,,,,
quiz_q_4_fb_correct,65,366741,0.0-26.0-0.0,"""event"",""trial"",""time""
""fullscreenenter"",""1"",""1655""
","
","
","""event"",""trial"",""time""
""fullscreenenter"",""1"",""1655""
","
",,null,run_exp/static/audio/clip_21_q4_correct.m4a,null,<p> That’s correct. The more you dig on a planet the fewer gems you’ll get with each dig. </p>,,,,,,,,,,,,,,,,,,,,,,,
quiz_q_5_ask,66,372892,0.0-26.0-1.0,"""event"",""trial"",""time""
""fullscreenenter"",""1"",""1655""
","
","
","""event"",""trial"",""time""
""fullscreenenter"",""1"",""1655""
","
",,6148.5,run_exp/static/audio/clip_23_q5_ask.m4a,,,,,,,1,,,,,,,,,,,,,,,,,,
quiz_q_5_fb_correct,67,377902,0.0-27.0-0.0,"""event"",""trial"",""time""
""fullscreenenter"",""1"",""1655""
","
","
","""event"",""trial"",""time""
""fullscreenenter"",""1"",""1655""
","
",,null,run_exp/static/audio/clip_24_q5_correct.m4a,null,<p> That’s correct. The alien tells you nothing about how much treasure is on the planet.</p>,,,,,,,,,,,,,,,,,,,,,,,
quiz_correct,68,381381,0.0-28.0-0.0,"""event"",""trial"",""time""
""fullscreenenter"",""1"",""1655""
","
","
","""event"",""trial"",""time""
""fullscreenenter"",""1"",""1655""
","
",,null,run_exp/static/audio/clip_26_correct_quiz.m4a,null,,,,,,,,,,,,,,,,,,,,,,,,
quiz_correct_continue,69,382912,0.0-28.0-1.0,"""event"",""trial"",""time""
""fullscreenenter"",""1"",""1655""
","
","
","""event"",""trial"",""time""
""fullscreenenter"",""1"",""1655""
","
",,1529.5,<p>Good job! You're now ready to move on to the real game!</p>,,,,,,,0,,,,,,,,,,,,,,,,,,
audio-keyboard-response,70,393041,0.0-28.0-2.0,"""event"",""trial"",""time""
""fullscreenenter"",""1"",""1655""
","
","
","""event"",""trial"",""time""
""fullscreenenter"",""1"",""1655""
","
",,null,run_exp/static/audio/clip_28_real_game.m4a,null,,,,,,,,,,,,,,,,,,,,,,,,
instruc_begin_exp_contine,71,395662,0.0-28.0-3.0,"""event"",""trial"",""time""
""fullscreenenter"",""1"",""1655""
","
","
","""event"",""trial"",""time""
""fullscreenenter"",""1"",""1655""
","
",,2619.2,"<p>Now that you know how  to dig for space treasure and travel to new planets,you can start exploring! </p><p>Do you want to go over the instructions again or get started with the real game?</p>",,,,,,,1,,,,,,1,,,,,,,,,,,,
alien_welcome,72,400670,0.0-29.0-0.0,"""event"",""trial"",""time""
""fullscreenenter"",""1"",""1655""
","
","
","""event"",""trial"",""time""
""fullscreenenter"",""1"",""1655""
","
",,null,run_exp/static/images/task_images/aliens/old_aliens/planet/alien_planet-11.jpg,null,,,,,,,,,,,,,11,"11,52,36,62,20,54,65,1,74,47,6,8,53,13,46,41,34,14,18,15,39,77,9,78,73,75,33,68,70,49,12,44,35,59,58,69,7,26,50,29,28,61,56,79,22,30,55,21",,,,,,,,,,
land,73,401180,0.0-29.0-1.0,"""event"",""trial"",""time""
""fullscreenenter"",""1"",""1655""
","
","
","""event"",""trial"",""time""
""fullscreenenter"",""1"",""1655""
","
",,null,run_exp/static/images/task_images/land.jpg,null,,,,,,,111,,,1,,,,,,,,,,,,,,
dig,74,403190,0.0-29.0-2.0,"""event"",""trial"",""time""
""fullscreenenter"",""1"",""1655""
","
","
","""event"",""trial"",""time""
""fullscreenenter"",""1"",""1655""
","
",,,,,,,,,,,,"[{""stimulus"":""run_exp/static/images/task_images/dig.jpg"",""time"":0.40000009536743164},{""stimulus"":""run_exp/static/images/task_images/land.jpg"",""time"":678.7000000476837},{""stimulus"":""run_exp/static/images/task_images/dig.jpg"",""time"":1338.5}]",[],1,,,,,,,,,,,,,,
harvest,75,404209,0.0-29.0-3.0,"""event"",""trial"",""time""
""fullscreenenter"",""1"",""1655""
","
","
","""event"",""trial"",""time""
""fullscreenenter"",""1"",""1655""
","
",,null,run_exp/static/images/task_images/gems/111.jpg,null,,,,,,,38,,,1,,,,,111,0.344910138,0.342342342,,,,,,,
decision,76,405403,0.0-29.0-4.0,"""event"",""trial"",""time""
""fullscreenenter"",""1"",""1655""
","
","
","""event"",""trial"",""time""
""fullscreenenter"",""1"",""1655""
","
",,1191.4,run_exp/static/images/task_images/land.jpg,65,,,,,,,38,,,1,,,,,,,,9739,1,0,FALSE,,,
dig,77,407220,0.0-30.0-0.0,"""event"",""trial"",""time""
""fullscreenenter"",""1"",""1655""
","
","
","""event"",""trial"",""time""
""fullscreenenter"",""1"",""1655""
","
",,,,,,,,,,,,"[{""stimulus"":""run_exp/static/images/task_images/dig.jpg"",""time"":0.2999999523162842},{""stimulus"":""run_exp/static/images/task_images/land.jpg"",""time"":613.8999998569489},{""stimulus"":""run_exp/static/images/task_images/dig.jpg"",""time"":1224.5}]",[],1,,,,,,,,,,,,,,
harvest,78,408239,0.0-30.0-1.0,"""event"",""trial"",""time""
""fullscreenenter"",""1"",""1655""
","
","
","""event"",""trial"",""time""
""fullscreenenter"",""1"",""1655""
","
",,null,run_exp/static/images/task_images/gems/38.jpg,null,,,,,,,7,,,1,,,,,38,0.182544451,0.184210526,,,,,,,
decision,79,410588,0.0-30.0-2.0,"""event"",""trial"",""time""
""fullscreenenter"",""1"",""1655""
","
","
","""event"",""trial"",""time""
""fullscreenenter"",""1"",""1655""
","
",,2347,run_exp/static/images/task_images/land.jpg,65,,,,,,,7,,,1,,,,,,,,14924,1,1,FALSE,,,
dig,80,411260,0.0-31.0-0.0,"""event"",""trial"",""time""
""fullscreenenter"",""1"",""1655""
","
","
","""event"",""trial"",""time""
""fullscreenenter"",""1"",""1655""
","
",,,,,,,,,,,,"[{""stimulus"":""run_exp/static/images/task_images/dig.jpg"",""time"":0.20000004768371582},{""stimulus"":""run_exp/static/images/task_images/land.jpg"",""time"":228.29999995231628},{""stimulus"":""run_exp/static/images/task_images/dig.jpg"",""time"":438.5}]",[],1,,,,,,,,,,,,,,
harvest,81,412275,0.0-31.0-1.0,"""event"",""trial"",""time""
""fullscreenenter"",""1"",""1655""
","
","
","""event"",""trial"",""time""
""fullscreenenter"",""1"",""1655""
","
",,null,run_exp/static/images/task_images/gems/7.jpg,null,,,,,,,2,,,1,,,,,7,0.217349943,0.285714286,,,,,,,
decision,82,412594,0.0-31.0-2.0,"""event"",""trial"",""time""
""fullscreenenter"",""1"",""1655""
","
","
","""event"",""trial"",""time""
""fullscreenenter"",""1"",""1655""
","
",,317.4000001,run_exp/static/images/task_images/land.jpg,76,,,,,,,2,,,1,,,,,,,,16930,1,2,TRUE,,,
travel,83,422289,0.0-32.0-0.0,"""event"",""trial"",""time""
""fullscreenenter"",""1"",""1655""
","
","
","""event"",""trial"",""time""
""fullscreenenter"",""1"",""1655""
","
",,,,,,,,,,,,"[{""stimulus"":""run_exp/static/images/task_images/rocket-01.jpg"",""time"":0.20000004768371582},{""stimulus"":""run_exp/static/images/task_images/rocket-02.jpg"",""time"":1092.7000000476837},{""stimulus"":""run_exp/static/images/task_images/rocket-03.jpg"",""time"":2152.899999856949},{""stimulus"":""run_exp/static/images/task_images/rocket-04.jpg"",""time"":3233},{""stimulus"":""run_exp/static/images/task_images/rocket-05.jpg"",""time"":4313.200000047684},{""stimulus"":""run_exp/static/images/task_images/rocket-06.jpg"",""time"":5392.599999904633},{""stimulus"":""run_exp/static/images/task_images/rocket-07.jpg"",""time"":6452.599999904633},{""stimulus"":""run_exp/static/images/task_images/rocket-08.jpg"",""time"":7542.599999904633},{""stimulus"":""run_exp/static/images/task_images/rocket-09.jpg"",""time"":8602.799999952316}]",[],1,,,,,,,,,,,,,,
alien_welcome,84,427299,0.0-32.0-1.0,"""event"",""trial"",""time""
""fullscreenenter"",""1"",""1655""
","
","
","""event"",""trial"",""time""
""fullscreenenter"",""1"",""1655""
","
",,null,run_exp/static/images/task_images/aliens/old_aliens/planet/alien_planet-52.jpg,null,,,,,,,,,,,,,52,"11,52,36,62,20,54,65,1,74,47,6,8,53,13,46,41,34,14,18,15,39,77,9,78,73,75,33,68,70,49,12,44,35,59,58,69,7,26,50,29,28,61,56,79,22,30,55,21",,,,,,,,,,
land,85,427819,0.0-32.0-2.0,"""event"",""trial"",""time""
""fullscreenenter"",""1"",""1655""
","
","
","""event"",""trial"",""time""
""fullscreenenter"",""1"",""1655""
","
",,null,run_exp/static/images/task_images/land.jpg,null,,,,,,,105,,,2,,,,,,,,,,,,,,
dig,86,429829,0.0-32.0-3.0,"""event"",""trial"",""time""
""fullscreenenter"",""1"",""1655""
","
","
","""event"",""trial"",""time""
""fullscreenenter"",""1"",""1655""
","
",,,,,,,,,,,,"[{""stimulus"":""run_exp/static/images/task_images/dig.jpg"",""time"":0.5},{""stimulus"":""run_exp/static/images/task_images/land.jpg"",""time"":678.2999999523163},{""stimulus"":""run_exp/static/images/task_images/dig.jpg"",""time"":1348.2000000476837}]",[],2,,,,,,,,,,,,,,
harvest,87,430849,0.0-32.0-4.0,"""event"",""trial"",""time""
""fullscreenenter"",""1"",""1655""
","
","
","""event"",""trial"",""time""
""fullscreenenter"",""1"",""1655""
","
",,null,run_exp/static/images/task_images/gems/105.jpg,null,,,,,,,16,,,2,,,,,105,0.148949864,0.152380952,,,,,,,
decision,88,432870,0.0-32.0-5.0,"""event"",""trial"",""time""
""fullscreenenter"",""1"",""1655""
","
","
","""event"",""trial"",""time""
""fullscreenenter"",""1"",""1655""
","
",,2020.9,run_exp/static/images/task_images/land.jpg,65,,,,,,,16,,,2,,,,,,,,37206,1,0,FALSE,,,
dig,89,433857,0.0-33.0-0.0,"""event"",""trial"",""time""
""fullscreenenter"",""1"",""1655""
","
","
","""event"",""trial"",""time""
""fullscreenenter"",""1"",""1655""
","
",,,,,,,,,,,,"[{""stimulus"":""run_exp/static/images/task_images/dig.jpg"",""time"":0.20000004768371582},{""stimulus"":""run_exp/static/images/task_images/land.jpg"",""time"":344.90000009536743},{""stimulus"":""run_exp/static/images/task_images/dig.jpg"",""time"":654.7000000476837}]",[],2,,,,,,,,,,,,,,
harvest,90,434877,0.0-33.0-1.0,"""event"",""trial"",""time""
""fullscreenenter"",""1"",""1655""
","
","
","""event"",""trial"",""time""
""fullscreenenter"",""1"",""1655""
","
",,null,run_exp/static/images/task_images/gems/16.jpg,null,,,,,,,3,,,2,,,,,16,0.185553871,0.1875,,,,,,,
decision,91,435527,0.0-33.0-2.0,"""event"",""trial"",""time""
""fullscreenenter"",""1"",""1655""
","
","
","""event"",""trial"",""time""
""fullscreenenter"",""1"",""1655""
","
",,648.6000001,run_exp/static/images/task_images/land.jpg,76,,,,,,,3,,,2,,,,,,,,39863,1,1,TRUE,,,
travel,92,444897,0.0-34.0-0.0,"""event"",""trial"",""time""
""fullscreenenter"",""1"",""1655""
","
","
","""event"",""trial"",""time""
""fullscreenenter"",""1"",""1655""
","
",,,,,,,,,,,,"[{""stimulus"":""run_exp/static/images/task_images/rocket-01.jpg"",""time"":0.20000004768371582},{""stimulus"":""run_exp/static/images/task_images/rocket-02.jpg"",""time"":1045.7000000476837},{""stimulus"":""run_exp/static/images/task_images/rocket-03.jpg"",""time"":2095.5},{""stimulus"":""run_exp/static/images/task_images/rocket-04.jpg"",""time"":3135.9000000953674},{""stimulus"":""run_exp/static/images/task_images/rocket-05.jpg"",""time"":4176.300000190735},{""stimulus"":""run_exp/static/images/task_images/rocket-06.jpg"",""time"":5216},{""stimulus"":""run_exp/static/images/task_images/rocket-07.jpg"",""time"":6245.800000190735},{""stimulus"":""run_exp/static/images/task_images/rocket-08.jpg"",""time"":7276},{""stimulus"":""run_exp/static/images/task_images/rocket-09.jpg"",""time"":8325.700000047684}]",[],2,,,,,,,,,,,,,,
alien_welcome,93,449916,0.0-34.0-1.0,"""event"",""trial"",""time""
""fullscreenenter"",""1"",""1655""
","
","
","""event"",""trial"",""time""
""fullscreenenter"",""1"",""1655""
","
",,null,run_exp/static/images/task_images/aliens/old_aliens/planet/alien_planet-36.jpg,null,,,,,,,,,,,,,36,"11,52,36,62,20,54,65,1,74,47,6,8,53,13,46,41,34,14,18,15,39,77,9,78,73,75,33,68,70,49,12,44,35,59,58,69,7,26,50,29,28,61,56,79,22,30,55,21",,,,,,,,,,
land,94,450437,0.0-34.0-2.0,"""event"",""trial"",""time""
""fullscreenenter"",""1"",""1655""
","
","
","""event"",""trial"",""time""
""fullscreenenter"",""1"",""1655""
","
",,null,run_exp/static/images/task_images/land.jpg,null,,,,,,,97,,,3,,,,,,,,,,,,,,
dig,95,452447,0.0-34.0-3.0,"""event"",""trial"",""time""
""fullscreenenter"",""1"",""1655""
","
","
","""event"",""trial"",""time""
""fullscreenenter"",""1"",""1655""
","
",,,,,,,,,,,,"[{""stimulus"":""run_exp/static/images/task_images/dig.jpg"",""time"":0.2999999523162842},{""stimulus"":""run_exp/static/images/task_images/land.jpg"",""time"":688.9000000953674},{""stimulus"":""run_exp/static/images/task_images/dig.jpg"",""time"":1348.6000001430511}]",[],3,,,,,,,,,,,,,,
harvest,96,453467,0.0-34.0-4.0,"""event"",""trial"",""time""
""fullscreenenter"",""1"",""1655""
","
","
","""event"",""trial"",""time""
""fullscreenenter"",""1"",""1655""
","
",,null,run_exp/static/images/task_images/gems/97.jpg,null,,,,,,,42,,,3,,,,,97,0.430665332,0.432989691,,,,,,,
decision,97,453859,0.0-34.0-5.0,"""event"",""trial"",""time""
""fullscreenenter"",""1"",""1655""
","
","
","""event"",""trial"",""time""
""fullscreenenter"",""1"",""1655""
","
",,390.5,run_exp/static/images/task_images/land.jpg,65,,,,,,,42,,,3,,,,,,,,58195,1,0,FALSE,,,
dig,98,456486,0.0-35.0-0.0,"""event"",""trial"",""time""
""fullscreenenter"",""1"",""1655""
","
","
","""event"",""trial"",""time""
""fullscreenenter"",""1"",""1655""
","
",,,,,,,,,,,,"[{""stimulus"":""run_exp/static/images/task_images/dig.jpg"",""time"":0.19999980926513672},{""stimulus"":""run_exp/static/images/task_images/land.jpg"",""time"":875},{""stimulus"":""run_exp/static/images/task_images/dig.jpg"",""time"":1755.2999999523163}]",[],3,,,,,,,,,,,,,,
harvest,99,457506,0.0-35.0-1.0,"""event"",""trial"",""time""
""fullscreenenter"",""1"",""1655""
","
","
","""event"",""trial"",""time""
""fullscreenenter"",""1"",""1655""
","
",,null,run_exp/static/images/task_images/gems/42.jpg,null,,,,,,,21,,,3,,,,,42,0.505187996,0.5,,,,,,,
decision,100,458059,0.0-35.0-2.0,"""event"",""trial"",""time""
""fullscreenenter"",""1"",""1655""
","
","
","""event"",""trial"",""time""
""fullscreenenter"",""1"",""1655""
","
",,551.8,run_exp/static/images/task_images/land.jpg,65,,,,,,,21,,,3,,,,,,,,62396,1,1,FALSE,,,
dig,101,460514,0.0-36.0-0.0,"""event"",""trial"",""time""
""fullscreenenter"",""1"",""1655""
","
","
","""event"",""trial"",""time""
""fullscreenenter"",""1"",""1655""
","
",,,,,,,,,,,,"[{""stimulus"":""run_exp/static/images/task_images/dig.jpg"",""time"":0.20000004768371582},{""stimulus"":""run_exp/static/images/task_images/land.jpg"",""time"":825.4000000953674},{""stimulus"":""run_exp/static/images/task_images/dig.jpg"",""time"":1644.6000001430511}]",[],3,,,,,,,,,,,,,,
harvest,102,461516,0.0-36.0-1.0,"""event"",""trial"",""time""
""fullscreenenter"",""1"",""1655""
","
","
","""event"",""trial"",""time""
""fullscreenenter"",""1"",""1655""
","
",,null,run_exp/static/images/task_images/gems/21.jpg,null,,,,,,,10,,,3,,,,,21,0.494681649,0.476190476,,,,,,,
decision,103,462489,0.0-36.0-2.0,"""event"",""trial"",""time""
""fullscreenenter"",""1"",""1655""
","
","
","""event"",""trial"",""time""
""fullscreenenter"",""1"",""1655""
","
",,971.3,run_exp/static/images/task_images/land.jpg,76,,,,,,,10,,,3,,,,,,,,66826,1,2,TRUE,,,
travel,104,471536,0.0-37.0-0.0,"""event"",""trial"",""time""
""fullscreenenter"",""1"",""1655""
","
","
","""event"",""trial"",""time""
""fullscreenenter"",""1"",""1655""
","
",,,,,,,,,,,,"[{""stimulus"":""run_exp/static/images/task_images/rocket-01.jpg"",""time"":0.20000004768371582},{""stimulus"":""run_exp/static/images/task_images/rocket-02.jpg"",""time"":1004.8000001907349},{""stimulus"":""run_exp/static/images/task_images/rocket-03.jpg"",""time"":2014},{""stimulus"":""run_exp/static/images/task_images/rocket-04.jpg"",""time"":3014.800000190735},{""stimulus"":""run_exp/static/images/task_images/rocket-05.jpg"",""time"":4024.4000000953674},{""stimulus"":""run_exp/static/images/task_images/rocket-06.jpg"",""time"":5034.5},{""stimulus"":""run_exp/static/images/task_images/rocket-07.jpg"",""time"":6034.200000047684},{""stimulus"":""run_exp/static/images/task_images/rocket-08.jpg"",""time"":7034.5},{""stimulus"":""run_exp/static/images/task_images/rocket-09.jpg"",""time"":8044.200000047684}]",[],3,,,,,,,,,,,,,,
alien_welcome,105,476543,0.0-37.0-1.0,"""event"",""trial"",""time""
""fullscreenenter"",""1"",""1655""
","
","
","""event"",""trial"",""time""
""fullscreenenter"",""1"",""1655""
","
",,null,run_exp/static/images/task_images/aliens/old_aliens/planet/alien_planet-62.jpg,null,,,,,,,,,,,,,62,"11,52,36,62,20,54,65,1,74,47,6,8,53,13,46,41,34,14,18,15,39,77,9,78,73,75,33,68,70,49,12,44,35,59,58,69,7,26,50,29,28,61,56,79,22,30,55,21",,,,,,,,,,
land,106,477056,0.0-37.0-2.0,"""event"",""trial"",""time""
""fullscreenenter"",""1"",""1655""
","
","
","""event"",""trial"",""time""
""fullscreenenter"",""1"",""1655""
","
",,null,run_exp/static/images/task_images/land.jpg,null,,,,,,,108,,,4,,,,,,,,,,,,,,
dig,107,479066,0.0-37.0-3.0,"""event"",""trial"",""time""
""fullscreenenter"",""1"",""1655""
","
","
","""event"",""trial"",""time""
""fullscreenenter"",""1"",""1655""
","
",,,,,,,,,,,,"[{""stimulus"":""run_exp/static/images/task_images/dig.jpg"",""time"":0.5},{""stimulus"":""run_exp/static/images/task_images/land.jpg"",""time"":678.2000000476837},{""stimulus"":""run_exp/static/images/task_images/dig.jpg"",""time"":1338.1000001430511}]",[],4,,,,,,,,,,,,,,
harvest,108,480076,0.0-37.0-4.0,"""event"",""trial"",""time""
""fullscreenenter"",""1"",""1655""
","
","
","""event"",""trial"",""time""
""fullscreenenter"",""1"",""1655""
","
",,null,run_exp/static/images/task_images/gems/108.jpg,null,,,,,,,52,,,4,,,,,108,0.485082215,0.481481481,,,,,,,
decision,109,480601,0.0-37.0-5.0,"""event"",""trial"",""time""
""fullscreenenter"",""1"",""1655""
","
","
","""event"",""trial"",""time""
""fullscreenenter"",""1"",""1655""
","
",,523.2,run_exp/static/images/task_images/land.jpg,65,,,,,,,52,,,4,,,,,,,,84937,1,0,FALSE,,,
dig,110,483086,0.0-38.0-0.0,"""event"",""trial"",""time""
""fullscreenenter"",""1"",""1655""
","
","
","""event"",""trial"",""time""
""fullscreenenter"",""1"",""1655""
","
",,,,,,,,,,,,"[{""stimulus"":""run_exp/static/images/task_images/dig.jpg"",""time"":0.20000004768371582},{""stimulus"":""run_exp/static/images/task_images/land.jpg"",""time"":842.7000000476837},{""stimulus"":""run_exp/static/images/task_images/dig.jpg"",""time"":1662.0999999046326}]",[],4,,,,,,,,,,,,,,
harvest,111,484106,0.0-38.0-1.0,"""event"",""trial"",""time""
""fullscreenenter"",""1"",""1655""
","
","
","""event"",""trial"",""time""
""fullscreenenter"",""1"",""1655""
","
",,null,run_exp/static/images/task_images/gems/52.jpg,null,,,,,,,26,,,4,,,,,52,0.505059455,0.5,,,,,,,
decision,112,484721,0.0-38.0-2.0,"""event"",""trial"",""time""
""fullscreenenter"",""1"",""1655""
","
","
","""event"",""trial"",""time""
""fullscreenenter"",""1"",""1655""
","
",,613.3999999,run_exp/static/images/task_images/land.jpg,76,,,,,,,26,,,4,,,,,,,,89057,1,1,TRUE,,,
travel,113,494118,0.0-39.0-0.0,"""event"",""trial"",""time""
""fullscreenenter"",""1"",""1655""
","
","
","""event"",""trial"",""time""
""fullscreenenter"",""1"",""1655""
","
",,,,,,,,,,,,"[{""stimulus"":""run_exp/static/images/task_images/rocket-01.jpg"",""time"":0.09999990463256836},{""stimulus"":""run_exp/static/images/task_images/rocket-02.jpg"",""time"":1052.5999999046326},{""stimulus"":""run_exp/static/images/task_images/rocket-03.jpg"",""time"":2092.7999999523163},{""stimulus"":""run_exp/static/images/task_images/rocket-04.jpg"",""time"":3143},{""stimulus"":""run_exp/static/images/task_images/rocket-05.jpg"",""time"":4183},{""stimulus"":""run_exp/static/images/task_images/rocket-06.jpg"",""time"":5222.699999809265},{""stimulus"":""run_exp/static/images/task_images/rocket-07.jpg"",""time"":6262.299999952316},{""stimulus"":""run_exp/static/images/task_images/rocket-08.jpg"",""time"":7312.599999904633},{""stimulus"":""run_exp/static/images/task_images/rocket-09.jpg"",""time"":8342.899999856949}]",[],4,,,,,,,,,,,,,,
alien_welcome,114,499128,0.0-39.0-1.0,"""event"",""trial"",""time""
""fullscreenenter"",""1"",""1655""
","
","
","""event"",""trial"",""time""
""fullscreenenter"",""1"",""1655""
","
",,null,run_exp/static/images/task_images/aliens/old_aliens/planet/alien_planet-20.jpg,null,,,,,,,,,,,,,20,"11,52,36,62,20,54,65,1,74,47,6,8,53,13,46,41,34,14,18,15,39,77,9,78,73,75,33,68,70,49,12,44,35,59,58,69,7,26,50,29,28,61,56,79,22,30,55,21",,,,,,,,,,
land,115,499638,0.0-39.0-2.0,"""event"",""trial"",""time""
""fullscreenenter"",""1"",""1655""
","
","
","""event"",""trial"",""time""
""fullscreenenter"",""1"",""1655""
","
",,null,run_exp/static/images/task_images/land.jpg,null,,,,,,,109,,,5,,,,,,,,,,,,,,
dig,116,501658,0.0-39.0-3.0,"""event"",""trial"",""time""
""fullscreenenter"",""1"",""1655""
","
","
","""event"",""trial"",""time""
""fullscreenenter"",""1"",""1655""
","
",,,,,,,,,,,,"[{""stimulus"":""run_exp/static/images/task_images/dig.jpg"",""time"":0.2999999523162842},{""stimulus"":""run_exp/static/images/task_images/land.jpg"",""time"":678.5},{""stimulus"":""run_exp/static/images/task_images/dig.jpg"",""time"":1348.2999999523163}]",[],5,,,,,,,,,,,,,,
harvest,117,502668,0.0-39.0-4.0,"""event"",""trial"",""time""
""fullscreenenter"",""1"",""1655""
","
","
","""event"",""trial"",""time""
""fullscreenenter"",""1"",""1655""
","
",,null,run_exp/static/images/task_images/gems/109.jpg,null,,,,,,,55,,,5,,,,,109,0.503689989,0.504587156,,,,,,,
decision,118,502808,0.0-39.0-5.0,"""event"",""trial"",""time""
""fullscreenenter"",""1"",""1655""
","
","
","""event"",""trial"",""time""
""fullscreenenter"",""1"",""1655""
","
",,137.5,run_exp/static/images/task_images/land.jpg,65,,,,,,,55,,,5,,,,,,,,107144,1,0,FALSE,,,
dig,119,505674,0.0-40.0-0.0,"""event"",""trial"",""time""
""fullscreenenter"",""1"",""1655""
","
","
","""event"",""trial"",""time""
""fullscreenenter"",""1"",""1655""
","
",,,,,,,,,,,,"[{""stimulus"":""run_exp/static/images/task_images/dig.jpg"",""time"":0.09999990463256836},{""stimulus"":""run_exp/static/images/task_images/land.jpg"",""time"":967.5999999046326},{""stimulus"":""run_exp/static/images/task_images/dig.jpg"",""time"":1927.2999999523163}]",[],5,,,,,,,,,,,,,,
harvest,120,506694,0.0-40.0-1.0,"""event"",""trial"",""time""
""fullscreenenter"",""1"",""1655""
","
","
","""event"",""trial"",""time""
""fullscreenenter"",""1"",""1655""
","
",,null,run_exp/static/images/task_images/gems/55.jpg,null,,,,,,,27,,,5,,,,,55,0.490054529,0.490909091,,,,,,,
decision,121,506821,0.0-40.0-2.0,"""event"",""trial"",""time""
""fullscreenenter"",""1"",""1655""
","
","
","""event"",""trial"",""time""
""fullscreenenter"",""1"",""1655""
","
",,125.1000001,run_exp/static/images/task_images/land.jpg,76,,,,,,,27,,,5,,,,,,,,111157,1,1,TRUE,,,
travel,122,516707,0.0-41.0-0.0,"""event"",""trial"",""time""
""fullscreenenter"",""1"",""1655""
","
","
","""event"",""trial"",""time""
""fullscreenenter"",""1"",""1655""
","
",,,,,,,,,,,,"[{""stimulus"":""run_exp/static/images/task_images/rocket-01.jpg"",""time"":0.20000004768371582},{""stimulus"":""run_exp/static/images/task_images/rocket-02.jpg"",""time"":1103.9000000953674},{""stimulus"":""run_exp/static/images/task_images/rocket-03.jpg"",""time"":2204.4000000953674},{""stimulus"":""run_exp/static/images/task_images/rocket-04.jpg"",""time"":3293.600000143051},{""stimulus"":""run_exp/static/images/task_images/rocket-05.jpg"",""time"":4393.600000143051},{""stimulus"":""run_exp/static/images/task_images/rocket-06.jpg"",""time"":5500.200000047684},{""stimulus"":""run_exp/static/images/task_images/rocket-07.jpg"",""time"":6594.200000047684},{""stimulus"":""run_exp/static/images/task_images/rocket-08.jpg"",""time"":7694.100000143051},{""stimulus"":""run_exp/static/images/task_images/rocket-09.jpg"",""time"":8784.100000143051}]",[],5,,,,,,,,,,,,,,
alien_welcome,123,521712,0.0-41.0-1.0,"""event"",""trial"",""time""
""fullscreenenter"",""1"",""1655""
","
","
","""event"",""trial"",""time""
""fullscreenenter"",""1"",""1655""
","
",,null,run_exp/static/images/task_images/aliens/old_aliens/planet/alien_planet-54.jpg,null,,,,,,,,,,,,,54,"11,52,36,62,20,54,65,1,74,47,6,8,53,13,46,41,34,14,18,15,39,77,9,78,73,75,33,68,70,49,12,44,35,59,58,69,7,26,50,29,28,61,56,79,22,30,55,21",,,,,,,,,,
land,124,522227,0.0-41.0-2.0,"""event"",""trial"",""time""
""fullscreenenter"",""1"",""1655""
","
","
","""event"",""trial"",""time""
""fullscreenenter"",""1"",""1655""
","
",,null,run_exp/static/images/task_images/land.jpg,null,,,,,,,94,,,6,,,,,,,,,,,,,,
dig,125,524237,0.0-41.0-3.0,"""event"",""trial"",""time""
""fullscreenenter"",""1"",""1655""
","
","
","""event"",""trial"",""time""
""fullscreenenter"",""1"",""1655""
","
",,,,,,,,,,,,"[{""stimulus"":""run_exp/static/images/task_images/dig.jpg"",""time"":0.2999999523162842},{""stimulus"":""run_exp/static/images/task_images/land.jpg"",""time"":678.2000000476837},{""stimulus"":""run_exp/static/images/task_images/dig.jpg"",""time"":1348.5999999046326}]",[],6,,,,,,,,,,,,,,
harvest,126,525257,0.0-41.0-4.0,"""event"",""trial"",""time""
""fullscreenenter"",""1"",""1655""
","
","
","""event"",""trial"",""time""
""fullscreenenter"",""1"",""1655""
","
",,null,run_exp/static/images/task_images/gems/94.jpg,null,,,,,,,79,,,6,,,,,94,0.835400359,0.840425532,,,,,,,
decision,127,526227,0.0-41.0-5.0,"""event"",""trial"",""time""
""fullscreenenter"",""1"",""1655""
","
","
","""event"",""trial"",""time""
""fullscreenenter"",""1"",""1655""
","
",,967.9000001,run_exp/static/images/task_images/land.jpg,76,,,,,,,79,,,6,,,,,,,,130563,1,0,TRUE,,,
travel,128,535277,0.0-42.0-0.0,"""event"",""trial"",""time""
""fullscreenenter"",""1"",""1655""
","
","
","""event"",""trial"",""time""
""fullscreenenter"",""1"",""1655""
","
",,,,,,,,,,,,"[{""stimulus"":""run_exp/static/images/task_images/rocket-01.jpg"",""time"":0.19999980926513672},{""stimulus"":""run_exp/static/images/task_images/rocket-02.jpg"",""time"":1017.1999998092651},{""stimulus"":""run_exp/static/images/task_images/rocket-03.jpg"",""time"":2016.5999999046326},{""stimulus"":""run_exp/static/images/task_images/rocket-04.jpg"",""time"":3016.7999999523163},{""stimulus"":""run_exp/static/images/task_images/rocket-05.jpg"",""time"":4016.5999999046326},{""stimulus"":""run_exp/static/images/task_images/rocket-06.jpg"",""time"":5016.799999952316},{""stimulus"":""run_exp/static/images/task_images/rocket-07.jpg"",""time"":6033.799999952316},{""stimulus"":""run_exp/static/images/task_images/rocket-08.jpg"",""time"":7036.699999809265},{""stimulus"":""run_exp/static/images/task_images/rocket-09.jpg"",""time"":8026.799999952316}]",[],6,,,,,,,,,,,,,,
alien_welcome,129,540297,0.0-42.0-1.0,"""event"",""trial"",""time""
""fullscreenenter"",""1"",""1655""
","
","
","""event"",""trial"",""time""
""fullscreenenter"",""1"",""1655""
","
",,null,run_exp/static/images/task_images/aliens/old_aliens/planet/alien_planet-65.jpg,null,,,,,,,,,,,,,65,"11,52,36,62,20,54,65,1,74,47,6,8,53,13,46,41,34,14,18,15,39,77,9,78,73,75,33,68,70,49,12,44,35,59,58,69,7,26,50,29,28,61,56,79,22,30,55,21",,,,,,,,,,
land,130,540807,0.0-42.0-2.0,"""event"",""trial"",""time""
""fullscreenenter"",""1"",""1655""
","
","
","""event"",""trial"",""time""
""fullscreenenter"",""1"",""1655""
","
",,null,run_exp/static/images/task_images/land.jpg,null,,,,,,,92,,,7,,,,,,,,,,,,,,
dig,131,542817,0.0-42.0-3.0,"""event"",""trial"",""time""
""fullscreenenter"",""1"",""1655""
","
","
","""event"",""trial"",""time""
""fullscreenenter"",""1"",""1655""
","
",,,,,,,,,,,,"[{""stimulus"":""run_exp/static/images/task_images/dig.jpg"",""time"":0.39999985694885254},{""stimulus"":""run_exp/static/images/task_images/land.jpg"",""time"":677.7999999523163},{""stimulus"":""run_exp/static/images/task_images/dig.jpg"",""time"":1348.5999999046326}]",[],7,,,,,,,,,,,,,,
harvest,132,543837,0.0-42.0-4.0,"""event"",""trial"",""time""
""fullscreenenter"",""1"",""1655""
","
","
","""event"",""trial"",""time""
""fullscreenenter"",""1"",""1655""
","
",,null,run_exp/static/images/task_images/gems/92.jpg,null,,,,,,,79,,,7,,,,,92,0.859754748,0.858695652,,,,,,,
decision,133,544239,0.0-42.0-5.0,"""event"",""trial"",""time""
""fullscreenenter"",""1"",""1655""
","
","
","""event"",""trial"",""time""
""fullscreenenter"",""1"",""1655""
","
",,400.6000001,run_exp/static/images/task_images/land.jpg,76,,,,,,,79,,,7,,,,,,,,148575,1,0,TRUE,,,
travel,134,553858,0.0-43.0-0.0,"""event"",""trial"",""time""
""fullscreenenter"",""1"",""1655""
","
","
","""event"",""trial"",""time""
""fullscreenenter"",""1"",""1655""
","
",,,,,,,,,,,,"[{""stimulus"":""run_exp/static/images/task_images/rocket-01.jpg"",""time"":0.2999999523162842},{""stimulus"":""run_exp/static/images/task_images/rocket-02.jpg"",""time"":1075.2999999523163},{""stimulus"":""run_exp/static/images/task_images/rocket-03.jpg"",""time"":2140.7000000476837},{""stimulus"":""run_exp/static/images/task_images/rocket-04.jpg"",""time"":3205.5999999046326},{""stimulus"":""run_exp/static/images/task_images/rocket-05.jpg"",""time"":4275.200000047684},{""stimulus"":""run_exp/static/images/task_images/rocket-06.jpg"",""time"":5340.099999904633},{""stimulus"":""run_exp/static/images/task_images/rocket-07.jpg"",""time"":6405},{""stimulus"":""run_exp/static/images/task_images/rocket-08.jpg"",""time"":7465.200000047684},{""stimulus"":""run_exp/static/images/task_images/rocket-09.jpg"",""time"":8544.799999952316}]",[],7,,,,,,,,,,,,,,
alien_welcome,135,558868,0.0-43.0-1.0,"""event"",""trial"",""time""
""fullscreenenter"",""1"",""1655""
","
","
","""event"",""trial"",""time""
""fullscreenenter"",""1"",""1655""
","
",,null,run_exp/static/images/task_images/aliens/old_aliens/planet/alien_planet-1.jpg,null,,,,,,,,,,,,,1,"11,52,36,62,20,54,65,1,74,47,6,8,53,13,46,41,34,14,18,15,39,77,9,78,73,75,33,68,70,49,12,44,35,59,58,69,7,26,50,29,28,61,56,79,22,30,55,21",,,,,,,,,,
land,136,559376,0.0-43.0-2.0,"""event"",""trial"",""time""
""fullscreenenter"",""1"",""1655""
","
","
","""event"",""trial"",""time""
""fullscreenenter"",""1"",""1655""
","
",,null,run_exp/static/images/task_images/land.jpg,null,,,,,,,103,,,8,,,,,,,,,,,,,,
dig,137,561398,0.0-43.0-3.0,"""event"",""trial"",""time""
""fullscreenenter"",""1"",""1655""
","
","
","""event"",""trial"",""time""
""fullscreenenter"",""1"",""1655""
","
",,,,,,,,,,,,"[{""stimulus"":""run_exp/static/images/task_images/dig.jpg"",""time"":0.40000009536743164},{""stimulus"":""run_exp/static/images/task_images/land.jpg"",""time"":670.5999999046326},{""stimulus"":""run_exp/static/images/task_images/dig.jpg"",""time"":1340.2999999523163}]",[],8,,,,,,,,,,,,,,
harvest,138,562408,0.0-43.0-4.0,"""event"",""trial"",""time""
""fullscreenenter"",""1"",""1655""
","
","
","""event"",""trial"",""time""
""fullscreenenter"",""1"",""1655""
","
",,null,run_exp/static/images/task_images/gems/103.jpg,null,,,,,,,73,,,8,,,,,103,0.711183069,0.708737864,,,,,,,
decision,139,562561,0.0-43.0-5.0,"""event"",""trial"",""time""
""fullscreenenter"",""1"",""1655""
","
","
","""event"",""trial"",""time""
""fullscreenenter"",""1"",""1655""
","
",,151.5,run_exp/static/images/task_images/land.jpg,65,,,,,,,73,,,8,,,,,,,,166897,1,0,FALSE,,,
dig,140,565418,0.0-44.0-0.0,"""event"",""trial"",""time""
""fullscreenenter"",""1"",""1655""
","
","
","""event"",""trial"",""time""
""fullscreenenter"",""1"",""1655""
","
",,,,,,,,,,,,"[{""stimulus"":""run_exp/static/images/task_images/dig.jpg"",""time"":0.09999990463256836},{""stimulus"":""run_exp/static/images/task_images/land.jpg"",""time"":959.8999998569489},{""stimulus"":""run_exp/static/images/task_images/dig.jpg"",""time"":1913.5999999046326}]",[],8,,,,,,,,,,,,,,
harvest,141,566426,0.0-44.0-1.0,"""event"",""trial"",""time""
""fullscreenenter"",""1"",""1655""
","
","
","""event"",""trial"",""time""
""fullscreenenter"",""1"",""1655""
","
",,null,run_exp/static/images/task_images/gems/73.jpg,null,,,,,,,64,,,8,,,,,73,0.87144497,0.876712329,,,,,,,
decision,142,567043,0.0-44.0-2.0,"""event"",""trial"",""time""
""fullscreenenter"",""1"",""1655""
","
","
","""event"",""trial"",""time""
""fullscreenenter"",""1"",""1655""
","
",,615.6000001,run_exp/static/images/task_images/land.jpg,65,,,,,,,64,,,8,,,,,,,,171379,1,1,FALSE,,,
dig,143,569448,0.0-45.0-0.0,"""event"",""trial"",""time""
""fullscreenenter"",""1"",""1655""
","
","
","""event"",""trial"",""time""
""fullscreenenter"",""1"",""1655""
","
",,,,,,,,,,,,"[{""stimulus"":""run_exp/static/images/task_images/dig.jpg"",""time"":0.19999980926513672},{""stimulus"":""run_exp/static/images/task_images/land.jpg"",""time"":802.5999999046326},{""stimulus"":""run_exp/static/images/task_images/dig.jpg"",""time"":1592.6999998092651}]",[],8,,,,,,,,,,,,,,
harvest,144,570467,0.0-45.0-1.0,"""event"",""trial"",""time""
""fullscreenenter"",""1"",""1655""
","
","
","""event"",""trial"",""time""
""fullscreenenter"",""1"",""1655""
","
",,null,run_exp/static/images/task_images/gems/64.jpg,null,,,,,,,46,,,8,,,,,64,0.715132876,0.71875,,,,,,,
decision,145,570946,0.0-45.0-2.0,"""event"",""trial"",""time""
""fullscreenenter"",""1"",""1655""
","
","
","""event"",""trial"",""time""
""fullscreenenter"",""1"",""1655""
","
",,477.5,run_exp/static/images/task_images/land.jpg,76,,,,,,,46,,,8,,,,,,,,175283,1,2,TRUE,,,
travel,146,580477,0.0-46.0-0.0,"""event"",""trial"",""time""
""fullscreenenter"",""1"",""1655""
","
","
","""event"",""trial"",""time""
""fullscreenenter"",""1"",""1655""
","
",,,,,,,,,,,,"[{""stimulus"":""run_exp/static/images/task_images/rocket-01.jpg"",""time"":0.2999999523162842},{""stimulus"":""run_exp/static/images/task_images/rocket-02.jpg"",""time"":1067.1999998092651},{""stimulus"":""run_exp/static/images/task_images/rocket-03.jpg"",""time"":2137.699999809265},{""stimulus"":""run_exp/static/images/task_images/rocket-04.jpg"",""time"":3177.199999809265},{""stimulus"":""run_exp/static/images/task_images/rocket-05.jpg"",""time"":4236.699999809265},{""stimulus"":""run_exp/static/images/task_images/rocket-06.jpg"",""time"":5296.899999856949},{""stimulus"":""run_exp/static/images/task_images/rocket-07.jpg"",""time"":6367.299999952316},{""stimulus"":""run_exp/static/images/task_images/rocket-08.jpg"",""time"":7417.599999904633},{""stimulus"":""run_exp/static/images/task_images/rocket-09.jpg"",""time"":8476.799999952316}]",[],8,,,,,,,,,,,,,,
alien_welcome,147,585497,0.0-46.0-1.0,"""event"",""trial"",""time""
""fullscreenenter"",""1"",""1655""
","
","
","""event"",""trial"",""time""
""fullscreenenter"",""1"",""1655""
","
",,null,run_exp/static/images/task_images/aliens/old_aliens/planet/alien_planet-74.jpg,null,,,,,,,,,,,,,74,"11,52,36,62,20,54,65,1,74,47,6,8,53,13,46,41,34,14,18,15,39,77,9,78,73,75,33,68,70,49,12,44,35,59,58,69,7,26,50,29,28,61,56,79,22,30,55,21",,,,,,,,,,
land,148,586007,0.0-46.0-2.0,"""event"",""trial"",""time""
""fullscreenenter"",""1"",""1655""
","
","
","""event"",""trial"",""time""
""fullscreenenter"",""1"",""1655""
","
",,null,run_exp/static/images/task_images/land.jpg,null,,,,,,,98,,,9,,,,,,,,,,,,,,
dig,149,588017,0.0-46.0-3.0,"""event"",""trial"",""time""
""fullscreenenter"",""1"",""1655""
","
","
","""event"",""trial"",""time""
""fullscreenenter"",""1"",""1655""
","
",,,,,,,,,,,,"[{""stimulus"":""run_exp/static/images/task_images/dig.jpg"",""time"":0.40000009536743164},{""stimulus"":""run_exp/static/images/task_images/land.jpg"",""time"":678.4000000953674},{""stimulus"":""run_exp/static/images/task_images/dig.jpg"",""time"":1348.1000001430511}]",[],9,,,,,,,,,,,,,,
harvest,150,589037,0.0-46.0-4.0,"""event"",""trial"",""time""
""fullscreenenter"",""1"",""1655""
","
","
","""event"",""trial"",""time""
""fullscreenenter"",""1"",""1655""
","
",,null,run_exp/static/images/task_images/gems/98.jpg,null,,,,,,,25,,,9,,,,,98,0.25047495,0.255102041,,,,,,,
decision,151,589665,0.0-46.0-5.0,"""event"",""trial"",""time""
""fullscreenenter"",""1"",""1655""
","
","
","""event"",""trial"",""time""
""fullscreenenter"",""1"",""1655""
","
",,625.5999999,run_exp/static/images/task_images/land.jpg,65,,,,,,,25,,,9,,,,,,,,194001,1,0,FALSE,,,
dig,152,592047,0.0-47.0-0.0,"""event"",""trial"",""time""
""fullscreenenter"",""1"",""1655""
","
","
","""event"",""trial"",""time""
""fullscreenenter"",""1"",""1655""
","
",,,,,,,,,,,,"[{""stimulus"":""run_exp/static/images/task_images/dig.jpg"",""time"":0.20000004768371582},{""stimulus"":""run_exp/static/images/task_images/land.jpg"",""time"":799},{""stimulus"":""run_exp/static/images/task_images/dig.jpg"",""time"":1599.7999999523163}]",[],9,,,,,,,,,,,,,,
harvest,153,593067,0.0-47.0-1.0,"""event"",""trial"",""time""
""fullscreenenter"",""1"",""1655""
","
","
","""event"",""trial"",""time""
""fullscreenenter"",""1"",""1655""
","
",,null,run_exp/static/images/task_images/gems/25.jpg,null,,,,,,,4,,,9,,,,,25,0.144957581,0.16,,,,,,,
decision,154,593370,0.0-47.0-2.0,"""event"",""trial"",""time""
""fullscreenenter"",""1"",""1655""
","
","
","""event"",""trial"",""time""
""fullscreenenter"",""1"",""1655""
","
",,300.4000001,run_exp/static/images/task_images/land.jpg,76,,,,,,,4,,,9,,,,,,,,197706,1,1,TRUE,,,
travel,155,603077,0.0-48.0-0.0,"""event"",""trial"",""time""
""fullscreenenter"",""1"",""1655""
","
","
","""event"",""trial"",""time""
""fullscreenenter"",""1"",""1655""
","
",,,,,,,,,,,,"[{""stimulus"":""run_exp/static/images/task_images/rocket-01.jpg"",""time"":0.2999999523162842},{""stimulus"":""run_exp/static/images/task_images/rocket-02.jpg"",""time"":1095.0999999046326},{""stimulus"":""run_exp/static/images/task_images/rocket-03.jpg"",""time"":2164.7999999523163},{""stimulus"":""run_exp/static/images/task_images/rocket-04.jpg"",""time"":3244.7000000476837},{""stimulus"":""run_exp/static/images/task_images/rocket-05.jpg"",""time"":4314.400000095367},{""stimulus"":""run_exp/static/images/task_images/rocket-06.jpg"",""time"":5395.099999904633},{""stimulus"":""run_exp/static/images/task_images/rocket-07.jpg"",""time"":6464.900000095367},{""stimulus"":""run_exp/static/images/task_images/rocket-08.jpg"",""time"":7545},{""stimulus"":""run_exp/static/images/task_images/rocket-09.jpg"",""time"":8634.700000047684}]",[],9,,,,,,,,,,,,,,
alien_welcome,156,608087,0.0-48.0-1.0,"""event"",""trial"",""time""
""fullscreenenter"",""1"",""1655""
","
","
","""event"",""trial"",""time""
""fullscreenenter"",""1"",""1655""
","
",,null,run_exp/static/images/task_images/aliens/old_aliens/planet/alien_planet-47.jpg,null,,,,,,,,,,,,,47,"11,52,36,62,20,54,65,1,74,47,6,8,53,13,46,41,34,14,18,15,39,77,9,78,73,75,33,68,70,49,12,44,35,59,58,69,7,26,50,29,28,61,56,79,22,30,55,21",,,,,,,,,,
land,157,608597,0.0-48.0-2.0,"""event"",""trial"",""time""
""fullscreenenter"",""1"",""1655""
","
","
","""event"",""trial"",""time""
""fullscreenenter"",""1"",""1655""
","
",,null,run_exp/static/images/task_images/land.jpg,null,,,,,,,95,,,10,,,,,,,,,,,,,,
dig,158,610615,0.0-48.0-3.0,"""event"",""trial"",""time""
""fullscreenenter"",""1"",""1655""
","
","
","""event"",""trial"",""time""
""fullscreenenter"",""1"",""1655""
","
",,,,,,,,,,,,"[{""stimulus"":""run_exp/static/images/task_images/dig.jpg"",""time"":0.20000004768371582},{""stimulus"":""run_exp/static/images/task_images/land.jpg"",""time"":689},{""stimulus"":""run_exp/static/images/task_images/dig.jpg"",""time"":1348.2999999523163}]",[],10,,,,,,,,,,,,,,
harvest,159,611617,0.0-48.0-4.0,"""event"",""trial"",""time""
""fullscreenenter"",""1"",""1655""
","
","
","""event"",""trial"",""time""
""fullscreenenter"",""1"",""1655""
","
",,null,run_exp/static/images/task_images/gems/95.jpg,null,,,,,,,21,,,10,,,,,95,0.224391242,0.221052632,,,,,,,
decision,160,611922,0.0-48.0-5.0,"""event"",""trial"",""time""
""fullscreenenter"",""1"",""1655""
","
","
","""event"",""trial"",""time""
""fullscreenenter"",""1"",""1655""
","
",,304,run_exp/static/images/task_images/land.jpg,65,,,,,,,21,,,10,,,,,,,,216258,1,0,FALSE,,,
dig,161,614626,0.0-49.0-0.0,"""event"",""trial"",""time""
""fullscreenenter"",""1"",""1655""
","
","
","""event"",""trial"",""time""
""fullscreenenter"",""1"",""1655""
","
",,,,,,,,,,,,"[{""stimulus"":""run_exp/static/images/task_images/dig.jpg"",""time"":0.40000009536743164},{""stimulus"":""run_exp/static/images/task_images/land.jpg"",""time"":901.2000000476837},{""stimulus"":""run_exp/static/images/task_images/dig.jpg"",""time"":1800.6000001430511}]",[],10,,,,,,,,,,,,,,
harvest,162,615647,0.0-49.0-1.0,"""event"",""trial"",""time""
""fullscreenenter"",""1"",""1655""
","
","
","""event"",""trial"",""time""
""fullscreenenter"",""1"",""1655""
","
",,null,run_exp/static/images/task_images/gems/21.jpg,null,,,,,,,5,,,10,,,,,21,0.256282108,0.238095238,,,,,,,
decision,163,616459,0.0-49.0-2.0,"""event"",""trial"",""time""
""fullscreenenter"",""1"",""1655""
","
","
","""event"",""trial"",""time""
""fullscreenenter"",""1"",""1655""
","
",,810.7,run_exp/static/images/task_images/land.jpg,76,,,,,,,5,,,10,,,,,,,,220795,1,1,TRUE,,,
travel,164,625666,0.0-50.0-0.0,"""event"",""trial"",""time""
""fullscreenenter"",""1"",""1655""
","
","
","""event"",""trial"",""time""
""fullscreenenter"",""1"",""1655""
","
",,,,,,,,,,,,"[{""stimulus"":""run_exp/static/images/task_images/rocket-01.jpg"",""time"":0.20000004768371582},{""stimulus"":""run_exp/static/images/task_images/rocket-02.jpg"",""time"":1035.2999999523163},{""stimulus"":""run_exp/static/images/task_images/rocket-03.jpg"",""time"":2045.5999999046326},{""stimulus"":""run_exp/static/images/task_images/rocket-04.jpg"",""time"":3075.399999856949},{""stimulus"":""run_exp/static/images/task_images/rocket-05.jpg"",""time"":4095.2000000476837},{""stimulus"":""run_exp/static/images/task_images/rocket-06.jpg"",""time"":5114.799999952316},{""stimulus"":""run_exp/static/images/task_images/rocket-07.jpg"",""time"":6135},{""stimulus"":""run_exp/static/images/task_images/rocket-08.jpg"",""time"":7154.799999952316},{""stimulus"":""run_exp/static/images/task_images/rocket-09.jpg"",""time"":8175.200000047684}]",[],10,,,,,,,,,,,,,,
alien_welcome,165,630687,0.0-50.0-1.0,"""event"",""trial"",""time""
""fullscreenenter"",""1"",""1655""
","
","
","""event"",""trial"",""time""
""fullscreenenter"",""1"",""1655""
","
",,null,run_exp/static/images/task_images/aliens/old_aliens/planet/alien_planet-6.jpg,null,,,,,,,,,,,,,6,"11,52,36,62,20,54,65,1,74,47,6,8,53,13,46,41,34,14,18,15,39,77,9,78,73,75,33,68,70,49,12,44,35,59,58,69,7,26,50,29,28,61,56,79,22,30,55,21",,,,,,,,,,
land,166,631197,0.0-50.0-2.0,"""event"",""trial"",""time""
""fullscreenenter"",""1"",""1655""
","
","
","""event"",""trial"",""time""
""fullscreenenter"",""1"",""1655""
","
",,null,run_exp/static/images/task_images/land.jpg,null,,,,,,,102,,,11,,,,,,,,,,,,,,
dig,167,633207,0.0-50.0-3.0,"""event"",""trial"",""time""
""fullscreenenter"",""1"",""1655""
","
","
","""event"",""trial"",""time""
""fullscreenenter"",""1"",""1655""
","
",,,,,,,,,,,,"[{""stimulus"":""run_exp/static/images/task_images/dig.jpg"",""time"":0.5},{""stimulus"":""run_exp/static/images/task_images/land.jpg"",""time"":678.5999999046326},{""stimulus"":""run_exp/static/images/task_images/dig.jpg"",""time"":1338}]",[],11,,,,,,,,,,,,,,
harvest,168,634226,0.0-50.0-4.0,"""event"",""trial"",""time""
""fullscreenenter"",""1"",""1655""
","
","
","""event"",""trial"",""time""
""fullscreenenter"",""1"",""1655""
","
",,null,run_exp/static/images/task_images/gems/102.jpg,null,,,,,,,14,,,11,,,,,102,0.137594176,0.137254902,,,,,,,
decision,169,634713,0.0-50.0-5.0,"""event"",""trial"",""time""
""fullscreenenter"",""1"",""1655""
","
","
","""event"",""trial"",""time""
""fullscreenenter"",""1"",""1655""
","
",,485.3999999,run_exp/static/images/task_images/land.jpg,65,,,,,,,14,,,11,,,,,,,,239049,1,0,FALSE,,,
dig,170,637242,0.0-51.0-0.0,"""event"",""trial"",""time""
""fullscreenenter"",""1"",""1655""
","
","
","""event"",""trial"",""time""
""fullscreenenter"",""1"",""1655""
","
",,,,,,,,,,,,"[{""stimulus"":""run_exp/static/images/task_images/dig.jpg"",""time"":0.10000014305114746},{""stimulus"":""run_exp/static/images/task_images/land.jpg"",""time"":851},{""stimulus"":""run_exp/static/images/task_images/dig.jpg"",""time"":1690.8000001907349}]",[],11,,,,,,,,,,,,,,
harvest,171,638256,0.0-51.0-1.0,"""event"",""trial"",""time""
""fullscreenenter"",""1"",""1655""
","
","
","""event"",""trial"",""time""
""fullscreenenter"",""1"",""1655""
","
",,null,run_exp/static/images/task_images/gems/14.jpg,null,,,,,,,3,,,11,,,,,14,0.192436838,0.214285714,,,,,,,
decision,172,638354,0.0-51.0-2.0,"""event"",""trial"",""time""
""fullscreenenter"",""1"",""1655""
","
","
","""event"",""trial"",""time""
""fullscreenenter"",""1"",""1655""
","
",,96.5,run_exp/static/images/task_images/land.jpg,76,,,,,,,3,,,11,,,,,,,,242691,1,1,TRUE,,,
travel,173,648266,0.0-52.0-0.0,"""event"",""trial"",""time""
""fullscreenenter"",""1"",""1655""
","
","
","""event"",""trial"",""time""
""fullscreenenter"",""1"",""1655""
","
",,,,,,,,,,,,"[{""stimulus"":""run_exp/static/images/task_images/rocket-01.jpg"",""time"":0.20000004768371582},{""stimulus"":""run_exp/static/images/task_images/rocket-02.jpg"",""time"":1108.1000001430511},{""stimulus"":""run_exp/static/images/task_images/rocket-03.jpg"",""time"":2207.9000000953674},{""stimulus"":""run_exp/static/images/task_images/rocket-04.jpg"",""time"":3307.600000143051},{""stimulus"":""run_exp/static/images/task_images/rocket-05.jpg"",""time"":4408.100000143051},{""stimulus"":""run_exp/static/images/task_images/rocket-06.jpg"",""time"":5518},{""stimulus"":""run_exp/static/images/task_images/rocket-07.jpg"",""time"":6603.800000190735},{""stimulus"":""run_exp/static/images/task_images/rocket-08.jpg"",""time"":7718},{""stimulus"":""run_exp/static/images/task_images/rocket-09.jpg"",""time"":8807.600000143051}]",[],11,,,,,,,,,,,,,,
alien_welcome,174,653276,0.0-52.0-1.0,"""event"",""trial"",""time""
""fullscreenenter"",""1"",""1655""
","
","
","""event"",""trial"",""time""
""fullscreenenter"",""1"",""1655""
","
",,null,run_exp/static/images/task_images/aliens/old_aliens/planet/alien_planet-8.jpg,null,,,,,,,,,,,,,8,"11,52,36,62,20,54,65,1,74,47,6,8,53,13,46,41,34,14,18,15,39,77,9,78,73,75,33,68,70,49,12,44,35,59,58,69,7,26,50,29,28,61,56,79,22,30,55,21",,,,,,,,,,
land,175,653786,0.0-52.0-2.0,"""event"",""trial"",""time""
""fullscreenenter"",""1"",""1655""
","
","
","""event"",""trial"",""time""
""fullscreenenter"",""1"",""1655""
","
",,null,run_exp/static/images/task_images/land.jpg,null,,,,,,,105,,,12,,,,,,,,,,,,,,
dig,176,655806,0.0-52.0-3.0,"""event"",""trial"",""time""
""fullscreenenter"",""1"",""1655""
","
","
","""event"",""trial"",""time""
""fullscreenenter"",""1"",""1655""
","
",,,,,,,,,,,,"[{""stimulus"":""run_exp/static/images/task_images/dig.jpg"",""time"":0.2999999523162842},{""stimulus"":""run_exp/static/images/task_images/land.jpg"",""time"":688.7999999523163},{""stimulus"":""run_exp/static/images/task_images/dig.jpg"",""time"":1338.5}]",[],12,,,,,,,,,,,,,,
harvest,177,656826,0.0-52.0-4.0,"""event"",""trial"",""time""
""fullscreenenter"",""1"",""1655""
","
","
","""event"",""trial"",""time""
""fullscreenenter"",""1"",""1655""
","
",,null,run_exp/static/images/task_images/gems/105.jpg,null,,,,,,,25,,,12,,,,,105,0.242812648,0.238095238,,,,,,,
decision,178,658035,0.0-52.0-5.0,"""event"",""trial"",""time""
""fullscreenenter"",""1"",""1655""
","
","
","""event"",""trial"",""time""
""fullscreenenter"",""1"",""1655""
","
",,1207.6,run_exp/static/images/task_images/land.jpg,65,,,,,,,25,,,12,,,,,,,,262371,1,0,FALSE,,,
dig,179,659835,0.0-53.0-0.0,"""event"",""trial"",""time""
""fullscreenenter"",""1"",""1655""
","
","
","""event"",""trial"",""time""
""fullscreenenter"",""1"",""1655""
","
",,,,,,,,,,,,"[{""stimulus"":""run_exp/static/images/task_images/dig.jpg"",""time"":0.40000009536743164},{""stimulus"":""run_exp/static/images/task_images/land.jpg"",""time"":616.2999999523163},{""stimulus"":""run_exp/static/images/task_images/dig.jpg"",""time"":1206.2000000476837}]",[],12,,,,,,,,,,,,,,
harvest,180,660851,0.0-53.0-1.0,"""event"",""trial"",""time""
""fullscreenenter"",""1"",""1655""
","
","
","""event"",""trial"",""time""
""fullscreenenter"",""1"",""1655""
","
",,null,run_exp/static/images/task_images/gems/25.jpg,null,,,,,,,7,,,12,,,,,25,0.286841204,0.28,,,,,,,
decision,181,661339,0.0-53.0-2.0,"""event"",""trial"",""time""
""fullscreenenter"",""1"",""1655""
","
","
","""event"",""trial"",""time""
""fullscreenenter"",""1"",""1655""
","
",,486.6999998,run_exp/static/images/task_images/land.jpg,76,,,,,,,7,,,12,,,,,,,,265675,1,1,TRUE,,,
travel,182,670865,0.0-54.0-0.0,"""event"",""trial"",""time""
""fullscreenenter"",""1"",""1655""
","
","
","""event"",""trial"",""time""
""fullscreenenter"",""1"",""1655""
","
",,,,,,,,,,,,"[{""stimulus"":""run_exp/static/images/task_images/rocket-01.jpg"",""time"":0.19999980926513672},{""stimulus"":""run_exp/static/images/task_images/rocket-02.jpg"",""time"":1073.8999998569489},{""stimulus"":""run_exp/static/images/task_images/rocket-03.jpg"",""time"":2134.199999809265},{""stimulus"":""run_exp/static/images/task_images/rocket-04.jpg"",""time"":3174.0999999046326},{""stimulus"":""run_exp/static/images/task_images/rocket-05.jpg"",""time"":4244.199999809265},{""stimulus"":""run_exp/static/images/task_images/rocket-06.jpg"",""time"":5304},{""stimulus"":""run_exp/static/images/task_images/rocket-07.jpg"",""time"":6344.399999856949},{""stimulus"":""run_exp/static/images/task_images/rocket-08.jpg"",""time"":7404.099999904633},{""stimulus"":""run_exp/static/images/task_images/rocket-09.jpg"",""time"":8474.299999952316}]",[],12,,,,,,,,,,,,,,
alien_welcome,183,675875,0.0-54.0-1.0,"""event"",""trial"",""time""
""fullscreenenter"",""1"",""1655""
","
","
","""event"",""trial"",""time""
""fullscreenenter"",""1"",""1655""
","
",,null,run_exp/static/images/task_images/aliens/old_aliens/planet/alien_planet-53.jpg,null,,,,,,,,,,,,,53,"11,52,36,62,20,54,65,1,74,47,6,8,53,13,46,41,34,14,18,15,39,77,9,78,73,75,33,68,70,49,12,44,35,59,58,69,7,26,50,29,28,61,56,79,22,30,55,21",,,,,,,,,,
land,184,676395,0.0-54.0-2.0,"""event"",""trial"",""time""
""fullscreenenter"",""1"",""1655""
","
","
","""event"",""trial"",""time""
""fullscreenenter"",""1"",""1655""
","
",,null,run_exp/static/images/task_images/land.jpg,null,,,,,,,109,,,13,,,,,,,,,,,,,,
dig,185,678415,0.0-54.0-3.0,"""event"",""trial"",""time""
""fullscreenenter"",""1"",""1655""
","
","
","""event"",""trial"",""time""
""fullscreenenter"",""1"",""1655""
","
",,,,,,,,,,,,"[{""stimulus"":""run_exp/static/images/task_images/dig.jpg"",""time"":0.40000009536743164},{""stimulus"":""run_exp/static/images/task_images/land.jpg"",""time"":687.9000000953674},{""stimulus"":""run_exp/static/images/task_images/dig.jpg"",""time"":1337.7000000476837}]",[],13,,,,,,,,,,,,,,
harvest,186,679425,0.0-54.0-4.0,"""event"",""trial"",""time""
""fullscreenenter"",""1"",""1655""
","
","
","""event"",""trial"",""time""
""fullscreenenter"",""1"",""1655""
","
",,null,run_exp/static/images/task_images/gems/109.jpg,null,,,,,,,16,,,13,,,,,109,0.14433668,0.146788991,,,,,,,
decision,187,679932,0.0-54.0-5.0,"""event"",""trial"",""time""
""fullscreenenter"",""1"",""1655""
","
","
","""event"",""trial"",""time""
""fullscreenenter"",""1"",""1655""
","
",,504.4000001,run_exp/static/images/task_images/land.jpg,65,,,,,,,16,,,13,,,,,,,,284268,1,0,FALSE,,,
dig,188,682435,0.0-55.0-0.0,"""event"",""trial"",""time""
""fullscreenenter"",""1"",""1655""
","
","
","""event"",""trial"",""time""
""fullscreenenter"",""1"",""1655""
","
",,,,,,,,,,,,"[{""stimulus"":""run_exp/static/images/task_images/dig.jpg"",""time"":0.20000004768371582},{""stimulus"":""run_exp/static/images/task_images/land.jpg"",""time"":850.7999999523163},{""stimulus"":""run_exp/static/images/task_images/dig.jpg"",""time"":1670.4000000953674}]",[],13,,,,,,,,,,,,,,
harvest,189,683445,0.0-55.0-1.0,"""event"",""trial"",""time""
""fullscreenenter"",""1"",""1655""
","
","
","""event"",""trial"",""time""
""fullscreenenter"",""1"",""1655""
","
",,null,run_exp/static/images/task_images/gems/16.jpg,null,,,,,,,4,,,13,,,,,16,0.222561476,0.25,,,,,,,
decision,190,683936,0.0-55.0-2.0,"""event"",""trial"",""time""
""fullscreenenter"",""1"",""1655""
","
","
","""event"",""trial"",""time""
""fullscreenenter"",""1"",""1655""
","
",,489.3,run_exp/static/images/task_images/land.jpg,76,,,,,,,4,,,13,,,,,,,,288272,1,1,TRUE,,,
travel,191,693465,0.0-56.0-0.0,"""event"",""trial"",""time""
""fullscreenenter"",""1"",""1655""
","
","
","""event"",""trial"",""time""
""fullscreenenter"",""1"",""1655""
","
",,,,,,,,,,,,"[{""stimulus"":""run_exp/static/images/task_images/rocket-01.jpg"",""time"":0.20000004768371582},{""stimulus"":""run_exp/static/images/task_images/rocket-02.jpg"",""time"":1066.0999999046326},{""stimulus"":""run_exp/static/images/task_images/rocket-03.jpg"",""time"":2125.899999856949},{""stimulus"":""run_exp/static/images/task_images/rocket-04.jpg"",""time"":3186.0999999046326},{""stimulus"":""run_exp/static/images/task_images/rocket-05.jpg"",""time"":4236.399999856949},{""stimulus"":""run_exp/static/images/task_images/rocket-06.jpg"",""time"":5285.599999904633},{""stimulus"":""run_exp/static/images/task_images/rocket-07.jpg"",""time"":6355.899999856949},{""stimulus"":""run_exp/static/images/task_images/rocket-08.jpg"",""time"":7405.799999952316},{""stimulus"":""run_exp/static/images/task_images/rocket-09.jpg"",""time"":8465.599999904633}]",[],13,,,,,,,,,,,,,,
alien_welcome,192,698475,0.0-56.0-1.0,"""event"",""trial"",""time""
""fullscreenenter"",""1"",""1655""
","
","
","""event"",""trial"",""time""
""fullscreenenter"",""1"",""1655""
","
",,null,run_exp/static/images/task_images/aliens/old_aliens/planet/alien_planet-13.jpg,null,,,,,,,,,,,,,13,"11,52,36,62,20,54,65,1,74,47,6,8,53,13,46,41,34,14,18,15,39,77,9,78,73,75,33,68,70,49,12,44,35,59,58,69,7,26,50,29,28,61,56,79,22,30,55,21",,,,,,,,,,
land,193,698985,0.0-56.0-2.0,"""event"",""trial"",""time""
""fullscreenenter"",""1"",""1655""
","
","
","""event"",""trial"",""time""
""fullscreenenter"",""1"",""1655""
","
",,null,run_exp/static/images/task_images/land.jpg,null,,,,,,,92,,,14,,,,,,,,,,,,,,
dig,194,701005,0.0-56.0-3.0,"""event"",""trial"",""time""
""fullscreenenter"",""1"",""1655""
","
","
","""event"",""trial"",""time""
""fullscreenenter"",""1"",""1655""
","
",,,,,,,,,,,,"[{""stimulus"":""run_exp/static/images/task_images/dig.jpg"",""time"":0.39999985694885254},{""stimulus"":""run_exp/static/images/task_images/land.jpg"",""time"":688.3999998569489},{""stimulus"":""run_exp/static/images/task_images/dig.jpg"",""time"":1348.2000000476837}]",[],14,,,,,,,,,,,,,,
harvest,195,702015,0.0-56.0-4.0,"""event"",""trial"",""time""
""fullscreenenter"",""1"",""1655""
","
","
","""event"",""trial"",""time""
""fullscreenenter"",""1"",""1655""
","
",,null,run_exp/static/images/task_images/gems/92.jpg,null,,,,,,,73,,,14,,,,,92,0.791706539,0.793478261,,,,,,,
decision,196,702308,0.0-56.0-5.0,"""event"",""trial"",""time""
""fullscreenenter"",""1"",""1655""
","
","
","""event"",""trial"",""time""
""fullscreenenter"",""1"",""1655""
","
",,291.8,run_exp/static/images/task_images/land.jpg,65,,,,,,,73,,,14,,,,,,,,306645,1,0,TRUE,,,
end_of_block_continue,197,707587,0.0-57.0-0.0,"""event"",""trial"",""time""
""fullscreenenter"",""1"",""1655""
","
","
","""event"",""trial"",""time""
""fullscreenenter"",""1"",""1655""
","
",,5274,run_exp/static/audio/clip_32_block_end.m4a,,,,,,,0,,,,,,,,,,,,,,,,,,
alien_welcome,198,712604,0.0-58.0-0.0,"""event"",""trial"",""time""
""fullscreenenter"",""1"",""1655""
","
","
","""event"",""trial"",""time""
""fullscreenenter"",""1"",""1655""
","
",,null,run_exp/static/images/task_images/aliens/old_aliens/planet/alien_planet-46.jpg,null,,,,,,,,,,,,,46,"11,52,36,62,20,54,65,1,74,47,6,8,53,13,46,41,34,14,18,15,39,77,9,78,73,75,33,68,70,49,12,44,35,59,58,69,7,26,50,29,28,61,56,79,22,30,55,21",,,,,,,,,,
land,199,713114,0.0-58.0-1.0,"""event"",""trial"",""time""
""fullscreenenter"",""1"",""1655""
","
","
","""event"",""trial"",""time""
""fullscreenenter"",""1"",""1655""
","
",,null,run_exp/static/images/task_images/land.jpg,null,,,,,,,92,,,15,,,,,,,,,,,,,,
dig,200,715134,0.0-58.0-2.0,"""event"",""trial"",""time""
""fullscreenenter"",""1"",""1655""
","
","
","""event"",""trial"",""time""
""fullscreenenter"",""1"",""1655""
","
",,,,,,,,,,,,"[{""stimulus"":""run_exp/static/images/task_images/dig.jpg"",""time"":0.2999999523162842},{""stimulus"":""run_exp/static/images/task_images/land.jpg"",""time"":679.5},{""stimulus"":""run_exp/static/images/task_images/dig.jpg"",""time"":1350}]",[],15,,,,,,,,,,,,,,
harvest,201,716142,0.0-58.0-3.0,"""event"",""trial"",""time""
""fullscreenenter"",""1"",""1655""
","
","
","""event"",""trial"",""time""
""fullscreenenter"",""1"",""1655""
","
",,null,run_exp/static/images/task_images/gems/92.jpg,null,,,,,,,15,,,15,,,,,92,0.166940351,0.163043478,,,,,,,
decision,202,716790,0.0-58.0-4.0,"""event"",""trial"",""time""
""fullscreenenter"",""1"",""1655""
","
","
","""event"",""trial"",""time""
""fullscreenenter"",""1"",""1655""
","
",,647.0999999,run_exp/static/images/task_images/land.jpg,65,,,,,,,15,,,15,,,,,,,,9202,2,0,FALSE,,,
dig,203,719155,0.0-59.0-0.0,"""event"",""trial"",""time""
""fullscreenenter"",""1"",""1655""
","
","
","""event"",""trial"",""time""
""fullscreenenter"",""1"",""1655""
","
",,,,,,,,,,,,"[{""stimulus"":""run_exp/static/images/task_images/dig.jpg"",""time"":0.09999990463256836},{""stimulus"":""run_exp/static/images/task_images/land.jpg"",""time"":791},{""stimulus"":""run_exp/static/images/task_images/dig.jpg"",""time"":1580.8999998569489}]",[],15,,,,,,,,,,,,,,
harvest,204,720164,0.0-59.0-1.0,"""event"",""trial"",""time""
""fullscreenenter"",""1"",""1655""
","
","
","""event"",""trial"",""time""
""fullscreenenter"",""1"",""1655""
","
",,null,run_exp/static/images/task_images/gems/15.jpg,null,,,,,,,3,,,15,,,,,15,0.171571176,0.2,,,,,,,
decision,205,721627,0.0-59.0-2.0,"""event"",""trial"",""time""
""fullscreenenter"",""1"",""1655""
","
","
","""event"",""trial"",""time""
""fullscreenenter"",""1"",""1655""
","
",,1461.3,run_exp/static/images/task_images/land.jpg,76,,,,,,,3,,,15,,,,,,,,14038,2,1,TRUE,,,
travel,206,730164,0.0-60.0-0.0,"""event"",""trial"",""time""
""fullscreenenter"",""1"",""1655""
","
","
","""event"",""trial"",""time""
""fullscreenenter"",""1"",""1655""
","
",,,,,,,,,,,,"[{""stimulus"":""run_exp/static/images/task_images/rocket-01.jpg"",""time"":0.10000014305114746},{""stimulus"":""run_exp/static/images/task_images/rocket-02.jpg"",""time"":965.2999999523163},{""stimulus"":""run_exp/static/images/task_images/rocket-03.jpg"",""time"":1915.2999999523163},{""stimulus"":""run_exp/static/images/task_images/rocket-04.jpg"",""time"":2854.600000143051},{""stimulus"":""run_exp/static/images/task_images/rocket-05.jpg"",""time"":3804.2000000476837},{""stimulus"":""run_exp/static/images/task_images/rocket-06.jpg"",""time"":4755.100000143051},{""stimulus"":""run_exp/static/images/task_images/rocket-07.jpg"",""time"":5704.299999952316},{""stimulus"":""run_exp/static/images/task_images/rocket-08.jpg"",""time"":6649.700000047684},{""stimulus"":""run_exp/static/images/task_images/rocket-09.jpg"",""time"":7604.799999952316}]",[],15,,,,,,,,,,,,,,
alien_welcome,207,735174,0.0-60.0-1.0,"""event"",""trial"",""time""
""fullscreenenter"",""1"",""1655""
","
","
","""event"",""trial"",""time""
""fullscreenenter"",""1"",""1655""
","
",,null,run_exp/static/images/task_images/aliens/old_aliens/planet/alien_planet-41.jpg,null,,,,,,,,,,,,,41,"11,52,36,62,20,54,65,1,74,47,6,8,53,13,46,41,34,14,18,15,39,77,9,78,73,75,33,68,70,49,12,44,35,59,58,69,7,26,50,29,28,61,56,79,22,30,55,21",,,,,,,,,,
land,208,735684,0.0-60.0-2.0,"""event"",""trial"",""time""
""fullscreenenter"",""1"",""1655""
","
","
","""event"",""trial"",""time""
""fullscreenenter"",""1"",""1655""
","
",,null,run_exp/static/images/task_images/land.jpg,null,,,,,,,101,,,16,,,,,,,,,,,,,,
dig,209,737693,0.0-60.0-3.0,"""event"",""trial"",""time""
""fullscreenenter"",""1"",""1655""
","
","
","""event"",""trial"",""time""
""fullscreenenter"",""1"",""1655""
","
",,,,,,,,,,,,"[{""stimulus"":""run_exp/static/images/task_images/dig.jpg"",""time"":0.7000000476837158},{""stimulus"":""run_exp/static/images/task_images/land.jpg"",""time"":677.6000001430511},{""stimulus"":""run_exp/static/images/task_images/dig.jpg"",""time"":1347.8000001907349}]",[],16,,,,,,,,,,,,,,
harvest,210,738703,0.0-60.0-4.0,"""event"",""trial"",""time""
""fullscreenenter"",""1"",""1655""
","
","
","""event"",""trial"",""time""
""fullscreenenter"",""1"",""1655""
","
",,null,run_exp/static/images/task_images/gems/101.jpg,null,,,,,,,14,,,16,,,,,101,0.142601375,0.138613861,,,,,,,
decision,211,739012,0.0-60.0-5.0,"""event"",""trial"",""time""
""fullscreenenter"",""1"",""1655""
","
","
","""event"",""trial"",""time""
""fullscreenenter"",""1"",""1655""
","
",,307.8,run_exp/static/images/task_images/land.jpg,65,,,,,,,14,,,16,,,,,,,,31423,2,0,FALSE,,,
dig,212,741713,0.0-61.0-0.0,"""event"",""trial"",""time""
""fullscreenenter"",""1"",""1655""
","
","
","""event"",""trial"",""time""
""fullscreenenter"",""1"",""1655""
","
",,,,,,,,,,,,"[{""stimulus"":""run_exp/static/images/task_images/dig.jpg"",""time"":0.2999999523162842},{""stimulus"":""run_exp/static/images/task_images/land.jpg"",""time"":917.5},{""stimulus"":""run_exp/static/images/task_images/dig.jpg"",""time"":1807.4000000953674}]",[],16,,,,,,,,,,,,,,
harvest,213,742733,0.0-61.0-1.0,"""event"",""trial"",""time""
""fullscreenenter"",""1"",""1655""
","
","
","""event"",""trial"",""time""
""fullscreenenter"",""1"",""1655""
","
",,null,run_exp/static/images/task_images/gems/14.jpg,null,,,,,,,1,,,16,,,,,14,0.096773711,0.071428571,,,,,,,
decision,214,743008,0.0-61.0-2.0,"""event"",""trial"",""time""
""fullscreenenter"",""1"",""1655""
","
","
","""event"",""trial"",""time""
""fullscreenenter"",""1"",""1655""
","
",,274,run_exp/static/images/task_images/land.jpg,76,,,,,,,1,,,16,,,,,,,,35419,2,1,TRUE,,,
travel,215,752752,0.0-62.0-0.0,"""event"",""trial"",""time""
""fullscreenenter"",""1"",""1655""
","
","
","""event"",""trial"",""time""
""fullscreenenter"",""1"",""1655""
","
",,,,,,,,,,,,"[{""stimulus"":""run_exp/static/images/task_images/rocket-01.jpg"",""time"":0.09999990463256836},{""stimulus"":""run_exp/static/images/task_images/rocket-02.jpg"",""time"":1082.0999999046326},{""stimulus"":""run_exp/static/images/task_images/rocket-03.jpg"",""time"":2162.2999999523163},{""stimulus"":""run_exp/static/images/task_images/rocket-04.jpg"",""time"":3241.7999999523163},{""stimulus"":""run_exp/static/images/task_images/rocket-05.jpg"",""time"":4321.599999904633},{""stimulus"":""run_exp/static/images/task_images/rocket-06.jpg"",""time"":5401.5},{""stimulus"":""run_exp/static/images/task_images/rocket-07.jpg"",""time"":6486.599999904633},{""stimulus"":""run_exp/static/images/task_images/rocket-08.jpg"",""time"":7571.900000095367},{""stimulus"":""run_exp/static/images/task_images/rocket-09.jpg"",""time"":8661.5}]",[],16,,,,,,,,,,,,,,
alien_welcome,216,757763,0.0-62.0-1.0,"""event"",""trial"",""time""
""fullscreenenter"",""1"",""1655""
","
","
","""event"",""trial"",""time""
""fullscreenenter"",""1"",""1655""
","
",,null,run_exp/static/images/task_images/aliens/old_aliens/planet/alien_planet-34.jpg,null,,,,,,,,,,,,,34,"11,52,36,62,20,54,65,1,74,47,6,8,53,13,46,41,34,14,18,15,39,77,9,78,73,75,33,68,70,49,12,44,35,59,58,69,7,26,50,29,28,61,56,79,22,30,55,21",,,,,,,,,,
land,217,758283,0.0-62.0-2.0,"""event"",""trial"",""time""
""fullscreenenter"",""1"",""1655""
","
","
","""event"",""trial"",""time""
""fullscreenenter"",""1"",""1655""
","
",,null,run_exp/static/images/task_images/land.jpg,null,,,,,,,94,,,17,,,,,,,,,,,,,,
dig,218,760302,0.0-62.0-3.0,"""event"",""trial"",""time""
""fullscreenenter"",""1"",""1655""
","
","
","""event"",""trial"",""time""
""fullscreenenter"",""1"",""1655""
","
",,,,,,,,,,,,"[{""stimulus"":""run_exp/static/images/task_images/dig.jpg"",""time"":0.2999999523162842},{""stimulus"":""run_exp/static/images/task_images/land.jpg"",""time"":678.9000000953674},{""stimulus"":""run_exp/static/images/task_images/dig.jpg"",""time"":1338.7000000476837}]",[],17,,,,,,,,,,,,,,
harvest,219,761306,0.0-62.0-4.0,"""event"",""trial"",""time""
""fullscreenenter"",""1"",""1655""
","
","
","""event"",""trial"",""time""
""fullscreenenter"",""1"",""1655""
","
",,null,run_exp/static/images/task_images/gems/94.jpg,null,,,,,,,18,,,17,,,,,94,0.188994735,0.191489362,,,,,,,
decision,220,762100,0.0-62.0-5.0,"""event"",""trial"",""time""
""fullscreenenter"",""1"",""1655""
","
","
","""event"",""trial"",""time""
""fullscreenenter"",""1"",""1655""
","
",,793,run_exp/static/images/task_images/land.jpg,65,,,,,,,18,,,17,,,,,,,,54511,2,0,FALSE,,,
dig,221,764322,0.0-63.0-0.0,"""event"",""trial"",""time""
""fullscreenenter"",""1"",""1655""
","
","
","""event"",""trial"",""time""
""fullscreenenter"",""1"",""1655""
","
",,,,,,,,,,,,"[{""stimulus"":""run_exp/static/images/task_images/dig.jpg"",""time"":0.20000004768371582},{""stimulus"":""run_exp/static/images/task_images/land.jpg"",""time"":737.0999999046326},{""stimulus"":""run_exp/static/images/task_images/dig.jpg"",""time"":1478.7000000476837}]",[],17,,,,,,,,,,,,,,
harvest,222,765332,0.0-63.0-1.0,"""event"",""trial"",""time""
""fullscreenenter"",""1"",""1655""
","
","
","""event"",""trial"",""time""
""fullscreenenter"",""1"",""1655""
","
",,null,run_exp/static/images/task_images/gems/18.jpg,null,,,,,,,4,,,17,,,,,18,0.228574383,0.222222222,,,,,,,
decision,223,765471,0.0-63.0-2.0,"""event"",""trial"",""time""
""fullscreenenter"",""1"",""1655""
","
","
","""event"",""trial"",""time""
""fullscreenenter"",""1"",""1655""
","
",,136.8,run_exp/static/images/task_images/land.jpg,76,,,,,,,4,,,17,,,,,,,,57882,2,1,TRUE,,,
travel,224,775342,0.0-64.0-0.0,"""event"",""trial"",""time""
""fullscreenenter"",""1"",""1655""
","
","
","""event"",""trial"",""time""
""fullscreenenter"",""1"",""1655""
","
",,,,,,,,,,,,"[{""stimulus"":""run_exp/static/images/task_images/rocket-01.jpg"",""time"":0.20000004768371582},{""stimulus"":""run_exp/static/images/task_images/rocket-02.jpg"",""time"":1098.2999999523163},{""stimulus"":""run_exp/static/images/task_images/rocket-03.jpg"",""time"":2198.100000143051},{""stimulus"":""run_exp/static/images/task_images/rocket-04.jpg"",""time"":3297.7999999523163},{""stimulus"":""run_exp/static/images/task_images/rocket-05.jpg"",""time"":4397.799999952316},{""stimulus"":""run_exp/static/images/task_images/rocket-06.jpg"",""time"":5487.799999952316},{""stimulus"":""run_exp/static/images/task_images/rocket-07.jpg"",""time"":6577.900000095367},{""stimulus"":""run_exp/static/images/task_images/rocket-08.jpg"",""time"":7668.100000143051},{""stimulus"":""run_exp/static/images/task_images/rocket-09.jpg"",""time"":8778.299999952316}]",[],17,,,,,,,,,,,,,,
alien_welcome,225,780362,0.0-64.0-1.0,"""event"",""trial"",""time""
""fullscreenenter"",""1"",""1655""
","
","
","""event"",""trial"",""time""
""fullscreenenter"",""1"",""1655""
","
",,null,run_exp/static/images/task_images/aliens/old_aliens/planet/alien_planet-14.jpg,null,,,,,,,,,,,,,14,"11,52,36,62,20,54,65,1,74,47,6,8,53,13,46,41,34,14,18,15,39,77,9,78,73,75,33,68,70,49,12,44,35,59,58,69,7,26,50,29,28,61,56,79,22,30,55,21",,,,,,,,,,
land,226,780882,0.0-64.0-2.0,"""event"",""trial"",""time""
""fullscreenenter"",""1"",""1655""
","
","
","""event"",""trial"",""time""
""fullscreenenter"",""1"",""1655""
","
",,null,run_exp/static/images/task_images/land.jpg,null,,,,,,,90,,,18,,,,,,,,,,,,,,
dig,227,782892,0.0-64.0-3.0,"""event"",""trial"",""time""
""fullscreenenter"",""1"",""1655""
","
","
","""event"",""trial"",""time""
""fullscreenenter"",""1"",""1655""
","
",,,,,,,,,,,,"[{""stimulus"":""run_exp/static/images/task_images/dig.jpg"",""time"":0.39999985694885254},{""stimulus"":""run_exp/static/images/task_images/land.jpg"",""time"":673.1999998092651},{""stimulus"":""run_exp/static/images/task_images/dig.jpg"",""time"":1338.0999999046326}]",[],18,,,,,,,,,,,,,,
harvest,228,783912,0.0-64.0-4.0,"""event"",""trial"",""time""
""fullscreenenter"",""1"",""1655""
","
","
","""event"",""trial"",""time""
""fullscreenenter"",""1"",""1655""
","
",,null,run_exp/static/images/task_images/gems/90.jpg,null,,,,,,,72,,,18,,,,,90,0.804568842,0.8,,,,,,,
decision,229,784072,0.0-64.0-5.0,"""event"",""trial"",""time""
""fullscreenenter"",""1"",""1655""
","
","
","""event"",""trial"",""time""
""fullscreenenter"",""1"",""1655""
","
",,157.5,run_exp/static/images/task_images/land.jpg,65,,,,,,,72,,,18,,,,,,,,76483,2,0,FALSE,,,
dig,230,786930,0.0-65.0-0.0,"""event"",""trial"",""time""
""fullscreenenter"",""1"",""1655""
","
","
","""event"",""trial"",""time""
""fullscreenenter"",""1"",""1655""
","
",,,,,,,,,,,,"[{""stimulus"":""run_exp/static/images/task_images/dig.jpg"",""time"":0.20000004768371582},{""stimulus"":""run_exp/static/images/task_images/land.jpg"",""time"":966.7000000476837},{""stimulus"":""run_exp/static/images/task_images/dig.jpg"",""time"":1906.7000000476837}]",[],18,,,,,,,,,,,,,,
harvest,231,787952,0.0-65.0-1.0,"""event"",""trial"",""time""
""fullscreenenter"",""1"",""1655""
","
","
","""event"",""trial"",""time""
""fullscreenenter"",""1"",""1655""
","
",,null,run_exp/static/images/task_images/gems/72.jpg,null,,,,,,,55,,,18,,,,,72,0.759085921,0.763888889,,,,,,,
decision,232,788132,0.0-65.0-2.0,"""event"",""trial"",""time""
""fullscreenenter"",""1"",""1655""
","
","
","""event"",""trial"",""time""
""fullscreenenter"",""1"",""1655""
","
",,178.3,run_exp/static/images/task_images/land.jpg,65,,,,,,,55,,,18,,,,,,,,80543,2,1,FALSE,,,
dig,233,790972,0.0-66.0-0.0,"""event"",""trial"",""time""
""fullscreenenter"",""1"",""1655""
","
","
","""event"",""trial"",""time""
""fullscreenenter"",""1"",""1655""
","
",,,,,,,,,,,,"[{""stimulus"":""run_exp/static/images/task_images/dig.jpg"",""time"":0.20000004768371582},{""stimulus"":""run_exp/static/images/task_images/land.jpg"",""time"":946.9000000953674},{""stimulus"":""run_exp/static/images/task_images/dig.jpg"",""time"":1887.2999999523163}]",[],18,,,,,,,,,,,,,,
harvest,234,791992,0.0-66.0-1.0,"""event"",""trial"",""time""
""fullscreenenter"",""1"",""1655""
","
","
","""event"",""trial"",""time""
""fullscreenenter"",""1"",""1655""
","
