trial_type,trial_index,time_elapsed,internal_node_id,interactions,blur_events,focus_events,fullscreenenter_events,fullscreenexit_events,success,rt,stimulus,key_press,prompt,subject_id,participant_id,age,gender,button_pressed,next_reward,animation_sequence,responses,planet,curr_prac_trial,n_prac_rounds,alien,aliens,reward_received,decay_rate_actual,decay_rate_exp,time_in_block,block_num,prt,last_trial_on_planet,button_html,bonus,num_failures
pavlovia,0,13,0.0-0.0,"""event"",""trial"",""time""
""blur"",""0"",""0""
""focus"",""0"",""0""
""fullscreenenter"",""1"",""6146""
","""event"",""trial"",""time""
""blur"",""0"",""0""
","""event"",""trial"",""time""
""focus"",""0"",""0""
","""event"",""trial"",""time""
""fullscreenenter"",""1"",""6146""
","
",,,,,,,,,,,,,,,,,,,,,,,,,,,,
fullscreen,1,6825,0.0-1.0,"""event"",""trial"",""time""
""blur"",""0"",""0""
""focus"",""0"",""0""
""fullscreenenter"",""1"",""6146""
","""event"",""trial"",""time""
""blur"",""0"",""0""
","""event"",""trial"",""time""
""focus"",""0"",""0""
","""event"",""trial"",""time""
""fullscreenenter"",""1"",""6146""
","
",TRUE,,,,,,,,,,,,,,,,,,,,,,,,,,,
instruc_welcome,2,16614,0.0-2.0,"""event"",""trial"",""time""
""blur"",""0"",""0""
""focus"",""0"",""0""
""fullscreenenter"",""1"",""6146""
","""event"",""trial"",""time""
""blur"",""0"",""0""
","""event"",""trial"",""time""
""focus"",""0"",""0""
","""event"",""trial"",""time""
""fullscreenenter"",""1"",""6146""
","
",,null,run_exp/static/audio/clip_1_welcome.m4a,null,"<p>Howdy! In this experiment, you’ll be an explorer traveling through space to collect space treasure.</p><p>Your mission is to collect as much treasure as possible.</p><br><br><p><img src='run_exp/static/images/task_images/opening_img-01.jpg' height='300' width='auto'></p>",7832,3891,24.58,Male,,,,,,,,,,,,,,,,,,,
audio-keyboard-response,3,33200,0.0-3.0,"""event"",""trial"",""time""
""blur"",""0"",""0""
""focus"",""0"",""0""
""fullscreenenter"",""1"",""6146""
","""event"",""trial"",""time""
""blur"",""0"",""0""
","""event"",""trial"",""time""
""focus"",""0"",""0""
","""event"",""trial"",""time""
""fullscreenenter"",""1"",""6146""
","
",,null,run_exp/static/audio/clip_2_move.m4a,null,,,,,,,,,,,,,,,,,,,,,,,,
welcome_dec,4,34233,0.0-4.0,"""event"",""trial"",""time""
""blur"",""0"",""0""
""focus"",""0"",""0""
""fullscreenenter"",""1"",""6146""
","""event"",""trial"",""time""
""blur"",""0"",""0""
","""event"",""trial"",""time""
""focus"",""0"",""0""
","""event"",""trial"",""time""
""fullscreenenter"",""1"",""6146""
","
",,1024,"<p>Howdy! In this experiment, you’ll be an explorer traveling through space to collect space treasure.</p><p>Your mission is to collect as much treasure as possible.</p><br><br><p><img src='run_exp/static/images/task_images/opening_img-01.jpg' height='300' width='auto'></p>",,,,,,,1,,,,,,,,,,,,,,,,,,
html-keyboard-response,5,34962,0.0-5.0,"""event"",""trial"",""time""
""blur"",""0"",""0""
""focus"",""0"",""0""
""fullscreenenter"",""1"",""6146""
","""event"",""trial"",""time""
""blur"",""0"",""0""
","""event"",""trial"",""time""
""focus"",""0"",""0""
","""event"",""trial"",""time""
""fullscreenenter"",""1"",""6146""
","
",,727,"<p>Howdy! In this experiment, you’ll be an explorer traveling through space to collect space treasure.</p><p>Your mission is to collect as much treasure as possible.</p><br><br><p><img src='run_exp/static/images/task_images/opening_img-01.jpg' height='300' width='auto'></p><button class=""jspsych-html-btn-unchosen""><img src=""run_exp/static/images/task_images/planet-01.jpg"" height=""50""></button><button class=""jspsych-html-btn-chosen""><img src=""run_exp/static/images/task_images/planet-02.jpg"" height=""50""></button><p><b>[press the space bar to lock in your answer]<b><br></p>",32,,,,,,,,,,,,,,,,,,,,,,,,
instruc_goal,6,45027,0.0-6.0-0.0,"""event"",""trial"",""time""
""blur"",""0"",""0""
""focus"",""0"",""0""
""fullscreenenter"",""1"",""6146""
","""event"",""trial"",""time""
""blur"",""0"",""0""
","""event"",""trial"",""time""
""focus"",""0"",""0""
","""event"",""trial"",""time""
""fullscreenenter"",""1"",""6146""
","
",,null,run_exp/static/audio/clip_3_goal.m4a,null,"<p> As a space explorer, you’ll visit different planets to dig for space treasure, these pink gems.</p> <p> The more treasure you dig up, the more bonus money you’ll win! </p><br><br><p><img src='run_exp/static/images/task_images/pink_gem.jpg' height='300' width='auto'></p>",,,,,,,,,,,,,,,,,,,,,,,
instruc_goal,7,48466,0.0-6.0-1.0,"""event"",""trial"",""time""
""blur"",""0"",""0""
""focus"",""0"",""0""
""fullscreenenter"",""1"",""6146""
","""event"",""trial"",""time""
""blur"",""0"",""0""
","""event"",""trial"",""time""
""focus"",""0"",""0""
","""event"",""trial"",""time""
""fullscreenenter"",""1"",""6146""
","
",,3436,"<p> As a space explorer, you’ll visit different planets to dig for space treasure, these pink gems.</p> <p> The more treasure you dig up, the more bonus money you’ll win! </p><br><br><p><img src='run_exp/static/images/task_images/pink_gem.jpg' height='300' width='auto'></p>",,,,,,,1,,,,,,,,,,,,,,,,,,
html-keyboard-response,8,48877,0.0-6.0-2.0,"""event"",""trial"",""time""
""blur"",""0"",""0""
""focus"",""0"",""0""
""fullscreenenter"",""1"",""6146""
","""event"",""trial"",""time""
""blur"",""0"",""0""
","""event"",""trial"",""time""
""focus"",""0"",""0""
","""event"",""trial"",""time""
""fullscreenenter"",""1"",""6146""
","
",,408,"<p> As a space explorer, you’ll visit different planets to dig for space treasure, these pink gems.</p> <p> The more treasure you dig up, the more bonus money you’ll win! </p><br><br><p><img src='run_exp/static/images/task_images/pink_gem.jpg' height='300' width='auto'></p><button class=""jspsych-html-btn-unchosen""><img src=""run_exp/static/images/task_images/planet-01.jpg"" height=""50""></button><button class=""jspsych-html-btn-chosen""><img src=""run_exp/static/images/task_images/planet-02.jpg"" height=""50""></button><p><b>[press the space bar to lock in your answer]<b><br></p>",32,,,,,,,,,,,,,,,,,,,,,,,,
instruc_dig,9,64926,0.0-7.0-0.0,"""event"",""trial"",""time""
""blur"",""0"",""0""
""focus"",""0"",""0""
""fullscreenenter"",""1"",""6146""
","""event"",""trial"",""time""
""blur"",""0"",""0""
","""event"",""trial"",""time""
""focus"",""0"",""0""
","""event"",""trial"",""time""
""fullscreenenter"",""1"",""6146""
","
",,null,run_exp/static/audio/clip_4_dig.m4a,null,,,,,,,100,,,,,,,,,,,,,,,,,
instruc_dig_try,10,66379,0.0-7.0-1.0,"""event"",""trial"",""time""
""blur"",""0"",""0""
""focus"",""0"",""0""
""fullscreenenter"",""1"",""6146""
","""event"",""trial"",""time""
""blur"",""0"",""0""
","""event"",""trial"",""time""
""focus"",""0"",""0""
","""event"",""trial"",""time""
""fullscreenenter"",""1"",""6146""
","
",,1449,"<p> When you’ve arrived at a new planet, you will dig once. </p> <p>Then, you get to decide if you want to stay on the planet and dig again or travel to a new planet and dig there.</p> <p> To stay and dig, press the letter <strong>‘A’</strong> on your keyboard. Try pressing it now! </p><p><img src='run_exp/static/images/task_images/land.jpg'  height='700' width='auto'></p>",65,"<p> When you’ve arrived at a new planet, you will dig once. </p> <p>Then, you get to decide if you want to stay on the planet and dig again or travel to a new planet and dig there.</p> <p> To stay and dig, press the letter <strong>‘A’</strong> on your keyboard. Try pressing it now! </p><p><img src='run_exp/static/images/task_images/land.jpg'  height='700' width='auto'></p>",,,,,,100,,,,,,,,,,,,,,,,,
dig_prac,11,68430,0.0-7.0-2.0,"""event"",""trial"",""time""
""blur"",""0"",""0""
""focus"",""0"",""0""
""fullscreenenter"",""1"",""6146""
","""event"",""trial"",""time""
""blur"",""0"",""0""
","""event"",""trial"",""time""
""focus"",""0"",""0""
","""event"",""trial"",""time""
""fullscreenenter"",""1"",""6146""
","
",,,,,,,,,,,,"[{""stimulus"":""run_exp/static/images/task_images/dig.jpg"",""time"":0},{""stimulus"":""run_exp/static/images/task_images/land.jpg"",""time"":669},{""stimulus"":""run_exp/static/images/task_images/dig.jpg"",""time"":1340}]",[],,,,,,,,,,,,,,,
instruc_travel,12,104664,0.0-7.0-3.0,"""event"",""trial"",""time""
""blur"",""0"",""0""
""focus"",""0"",""0""
""fullscreenenter"",""1"",""6146""
","""event"",""trial"",""time""
""blur"",""0"",""0""
","""event"",""trial"",""time""
""focus"",""0"",""0""
","""event"",""trial"",""time""
""fullscreenenter"",""1"",""6146""
","
",,null,run_exp/static/audio/clip_5_travel.m4a,null,"<p>Every time you dig up gems, there are less gems on the planet, so the more you dig on a planet the fewer gems you’ll get with each dig.</p><p>When gems are running low, you may want to travel to a new planet. </p> <p>  Planets are very far apart in this galaxy, so it will take some time to travel between them. </p> <br><p>There are lots and lots of planets for you to visit, so you won’t be able to return to any planets you’ve seen before. </p><br><p>To leave this planet and travel to a new one, press the letter <strong>‘L’</strong> on your keyboard. Try pressing it now! </p><p><img src='run_exp/static/images/task_images/rocket-01.jpg'  height='600' width='auto'></p>",,,,,,,,,,,,,,,,,,,,,,,
instruc_travel_try,13,106307,0.0-7.0-4.0,"""event"",""trial"",""time""
""blur"",""0"",""0""
""focus"",""0"",""0""
""fullscreenenter"",""1"",""6146""
","""event"",""trial"",""time""
""blur"",""0"",""0""
","""event"",""trial"",""time""
""focus"",""0"",""0""
","""event"",""trial"",""time""
""fullscreenenter"",""1"",""6146""
","
",,1641,"<p>Every time you dig up gems, there are less gems on the planet, so the more you dig on a planet the fewer gems you’ll get with each dig.</p><p>When gems are running low, you may want to travel to a new planet. </p> <p>  Planets are very far apart in this galaxy, so it will take some time to travel between them. </p> <br><p>There are lots and lots of planets for you to visit, so you won’t be able to return to any planets you’ve seen before. </p><br><p>To leave this planet and travel to a new one, press the letter <strong>‘L’</strong> on your keyboard. Try pressing it now! </p><p><img src='run_exp/static/images/task_images/rocket-01.jpg'  height='600' width='auto'></p>",76,"<p>Every time you dig up gems, there are less gems on the planet, so the more you dig on a planet the fewer gems you’ll get with each dig.</p><p>When gems are running low, you may want to travel to a new planet. </p> <p>  Planets are very far apart in this galaxy, so it will take some time to travel between them. </p> <br><p>There are lots and lots of planets for you to visit, so you won’t be able to return to any planets you’ve seen before. </p><br><p>To leave this planet and travel to a new one, press the letter <strong>‘L’</strong> on your keyboard. Try pressing it now! </p><p><img src='run_exp/static/images/task_images/rocket-01.jpg'  height='600' width='auto'></p>",,,,,,,,,,,,,,,,,,,,,,,
travel_prac,14,116345,0.0-7.0-5.0,"""event"",""trial"",""time""
""blur"",""0"",""0""
""focus"",""0"",""0""
""fullscreenenter"",""1"",""6146""
","""event"",""trial"",""time""
""blur"",""0"",""0""
","""event"",""trial"",""time""
""focus"",""0"",""0""
","""event"",""trial"",""time""
""fullscreenenter"",""1"",""6146""
","
",,,,,,,,,,,,"[{""stimulus"":""run_exp/static/images/task_images/rocket-01.jpg"",""time"":0},{""stimulus"":""run_exp/static/images/task_images/rocket-02.jpg"",""time"":1113},{""stimulus"":""run_exp/static/images/task_images/rocket-03.jpg"",""time"":2229},{""stimulus"":""run_exp/static/images/task_images/rocket-04.jpg"",""time"":3342},{""stimulus"":""run_exp/static/images/task_images/rocket-05.jpg"",""time"":4457},{""stimulus"":""run_exp/static/images/task_images/rocket-06.jpg"",""time"":5578},{""stimulus"":""run_exp/static/images/task_images/rocket-07.jpg"",""time"":6686},{""stimulus"":""run_exp/static/images/task_images/rocket-08.jpg"",""time"":7801},{""stimulus"":""run_exp/static/images/task_images/rocket-09.jpg"",""time"":8915}]",[],0,,,,,,,,,,,,,,
instruc_alien_greet,15,143577,0.0-7.0-6.0,"""event"",""trial"",""time""
""blur"",""0"",""0""
""focus"",""0"",""0""
""fullscreenenter"",""1"",""6146""
","""event"",""trial"",""time""
""blur"",""0"",""0""
","""event"",""trial"",""time""
""focus"",""0"",""0""
","""event"",""trial"",""time""
""fullscreenenter"",""1"",""6146""
","
",,null,run_exp/static/audio/clip_6_alien.m4a,null,"<p>When you arrive at a new planet, the alien who owns the treasure mine on that planet will greet you!</p><p>The better an alien takes care of their mine the easier it is to dig for gems. Some aliens take better care of their mine than others. So, you won’t get exactly the same amount of gems on each planet.</p><p>What the alien looks like does not tell you anything about how many gems there are on the planet.</p><br><p><img src=""run_exp/static/images/task_images/aliens/instructions_aliens/planet/alien_planet-1.jpg""  height=""600"" width=""auto""></p>",,,,,,,,,,,,,,,,,,,,,,,
instruc_alien_greet,16,149316,0.0-7.0-7.0,"""event"",""trial"",""time""
""blur"",""0"",""0""
""focus"",""0"",""0""
""fullscreenenter"",""1"",""6146""
","""event"",""trial"",""time""
""blur"",""0"",""0""
","""event"",""trial"",""time""
""focus"",""0"",""0""
","""event"",""trial"",""time""
""fullscreenenter"",""1"",""6146""
","
",,5727,"<p>When you arrive at a new planet, the alien who owns the treasure mine on that planet will greet you!</p><p>The better an alien takes care of their mine the easier it is to dig for gems. Some aliens take better care of their mine than others. So, you won’t get exactly the same amount of gems on each planet.</p><p>What the alien looks like does not tell you anything about how many gems there are on the planet.</p><br><p><img src=""run_exp/static/images/task_images/aliens/instructions_aliens/planet/alien_planet-1.jpg""  height=""600"" width=""auto""></p>",,,,,,,1,,,,,,,,,,,,,,,,,,
html-keyboard-response,17,149852,0.0-7.0-8.0,"""event"",""trial"",""time""
""blur"",""0"",""0""
""focus"",""0"",""0""
""fullscreenenter"",""1"",""6146""
","""event"",""trial"",""time""
""blur"",""0"",""0""
","""event"",""trial"",""time""
""focus"",""0"",""0""
","""event"",""trial"",""time""
""fullscreenenter"",""1"",""6146""
","
",,532,"<p>When you arrive at a new planet, the alien who owns the treasure mine on that planet will greet you!</p><p>The better an alien takes care of their mine the easier it is to dig for gems. Some aliens take better care of their mine than others. So, you won’t get exactly the same amount of gems on each planet.</p><p>What the alien looks like does not tell you anything about how many gems there are on the planet.</p><br><p><img src=""run_exp/static/images/task_images/aliens/instructions_aliens/planet/alien_planet-1.jpg""  height=""600"" width=""auto""></p><button class=""jspsych-html-btn-unchosen""><img src=""run_exp/static/images/task_images/planet-01.jpg"" height=""50""></button><button class=""jspsych-html-btn-chosen""><img src=""run_exp/static/images/task_images/planet-02.jpg"" height=""50""></button><p><b>[press the space bar to lock in your answer]<b><br></p>",32,,,,,,,,,,,,,,,,,,,,,,,,
time_out,18,160965,0.0-8.0-0.0,"""event"",""trial"",""time""
""blur"",""0"",""0""
""focus"",""0"",""0""
""fullscreenenter"",""1"",""6146""
","""event"",""trial"",""time""
""blur"",""0"",""0""
","""event"",""trial"",""time""
""focus"",""0"",""0""
","""event"",""trial"",""time""
""fullscreenenter"",""1"",""6146""
","
",,null,run_exp/static/audio/clip_7_timeout.m4a,null,"<p>If you don't make your choice fast enough, you’ll have to wait a few seconds before you can make another one.</p><p>You can’t dig for more gems or travel to new planets. You just have to sit and wait.</p><br><p><img src='run_exp/static/images/task_images/time_out.jpg'  height='600' width='auto'></p>",,,,,,,,,,,,,,,,,,,,,,,
time_out,19,164450,0.0-8.0-1.0,"""event"",""trial"",""time""
""blur"",""0"",""0""
""focus"",""0"",""0""
""fullscreenenter"",""1"",""6146""
","""event"",""trial"",""time""
""blur"",""0"",""0""
","""event"",""trial"",""time""
""focus"",""0"",""0""
","""event"",""trial"",""time""
""fullscreenenter"",""1"",""6146""
","
",,3481,"<p>If you don't make your choice fast enough, you’ll have to wait a few seconds before you can make another one.</p><p>You can’t dig for more gems or travel to new planets. You just have to sit and wait.</p><br><p><img src='run_exp/static/images/task_images/time_out.jpg'  height='600' width='auto'></p>",,,,,,,1,,,,,,,,,,,,,,,,,,
html-keyboard-response,20,165154,0.0-8.0-2.0,"""event"",""trial"",""time""
""blur"",""0"",""0""
""focus"",""0"",""0""
""fullscreenenter"",""1"",""6146""
","""event"",""trial"",""time""
""blur"",""0"",""0""
","""event"",""trial"",""time""
""focus"",""0"",""0""
","""event"",""trial"",""time""
""fullscreenenter"",""1"",""6146""
","
",,691,"<p>If you don't make your choice fast enough, you’ll have to wait a few seconds before you can make another one.</p><p>You can’t dig for more gems or travel to new planets. You just have to sit and wait.</p><br><p><img src='run_exp/static/images/task_images/time_out.jpg'  height='600' width='auto'></p><button class=""jspsych-html-btn-unchosen""><img src=""run_exp/static/images/task_images/planet-01.jpg"" height=""50""></button><button class=""jspsych-html-btn-chosen""><img src=""run_exp/static/images/task_images/planet-02.jpg"" height=""50""></button><p><b>[press the space bar to lock in your answer]<b><br></p>",32,,,,,,,,,,,,,,,,,,,,,,,,
instruc_break,21,180888,0.0-9.0-0.0,"""event"",""trial"",""time""
""blur"",""0"",""0""
""focus"",""0"",""0""
""fullscreenenter"",""1"",""6146""
","""event"",""trial"",""time""
""blur"",""0"",""0""
","""event"",""trial"",""time""
""focus"",""0"",""0""
","""event"",""trial"",""time""
""fullscreenenter"",""1"",""6146""
","
",,null,run_exp/static/audio/clip_8_break.m4a,null,"<p> After digging and traveling for a while, you’ll be able to take a break at home base. </p><p>The game will last 20 minutes no matter what.</p><p>You will visit home base every 5 minutes, so, you will visit home base three times during the game.</p><br><p><img src='run_exp/static/images/task_images/home_base.jpg' height='600' width='auto'></p>",,,,,,,,,,,,,,,,,,,,,,,
instruc_break,22,182930,0.0-9.0-1.0,"""event"",""trial"",""time""
""blur"",""0"",""0""
""focus"",""0"",""0""
""fullscreenenter"",""1"",""6146""
","""event"",""trial"",""time""
""blur"",""0"",""0""
","""event"",""trial"",""time""
""focus"",""0"",""0""
","""event"",""trial"",""time""
""fullscreenenter"",""1"",""6146""
","
",,2041,"<p> After digging and traveling for a while, you’ll be able to take a break at home base. </p><p>The game will last 20 minutes no matter what.</p><p>You will visit home base every 5 minutes, so, you will visit home base three times during the game.</p><br><p><img src='run_exp/static/images/task_images/home_base.jpg' height='600' width='auto'></p>",,,,,,,1,,,,,,,,,,,,,,,,,,
html-keyboard-response,23,183453,0.0-9.0-2.0,"""event"",""trial"",""time""
""blur"",""0"",""0""
""focus"",""0"",""0""
""fullscreenenter"",""1"",""6146""
","""event"",""trial"",""time""
""blur"",""0"",""0""
","""event"",""trial"",""time""
""focus"",""0"",""0""
","""event"",""trial"",""time""
""fullscreenenter"",""1"",""6146""
","
",,519,"<p> After digging and traveling for a while, you’ll be able to take a break at home base. </p><p>The game will last 20 minutes no matter what.</p><p>You will visit home base every 5 minutes, so, you will visit home base three times during the game.</p><br><p><img src='run_exp/static/images/task_images/home_base.jpg' height='600' width='auto'></p><button class=""jspsych-html-btn-unchosen""><img src=""run_exp/static/images/task_images/planet-01.jpg"" height=""50""></button><button class=""jspsych-html-btn-chosen""><img src=""run_exp/static/images/task_images/planet-02.jpg"" height=""50""></button><p><b>[press the space bar to lock in your answer]<b><br></p>",32,,,,,,,,,,,,,,,,,,,,,,,,
instruc_prac_game,24,193592,0.0-10.0-0.0,"""event"",""trial"",""time""
""blur"",""0"",""0""
""focus"",""0"",""0""
""fullscreenenter"",""1"",""6146""
","""event"",""trial"",""time""
""blur"",""0"",""0""
","""event"",""trial"",""time""
""focus"",""0"",""0""
","""event"",""trial"",""time""
""fullscreenenter"",""1"",""6146""
","
",,null,run_exp/static/audio/clip_9_practice.m4a,null,"<p> Are you ready to play a practice game? </p> <p>In this practice game, you'll be digging up barrels of gems. But, in the real game, you'll be digging up the gems themselves. </p>",,,,,,,,,,,,,,,,,,,,,,,
html-button-response,25,195580,0.0-10.0-1.0,"""event"",""trial"",""time""
""blur"",""0"",""0""
""focus"",""0"",""0""
""fullscreenenter"",""1"",""6146""
","""event"",""trial"",""time""
""blur"",""0"",""0""
","""event"",""trial"",""time""
""focus"",""0"",""0""
","""event"",""trial"",""time""
""fullscreenenter"",""1"",""6146""
","
",,1987,"<p> Are you ready to play a practice game? </p> <p>In this practice game, you'll be digging up barrels of gems. But, in the real game, you'll be digging up the gems themselves. </p>",,,,,,,0,,,,,,,,,,,,,,,,,,
alien_welcome_prac,26,200589,0.0-11.0-0.0,"""event"",""trial"",""time""
""blur"",""0"",""0""
""focus"",""0"",""0""
""fullscreenenter"",""1"",""6146""
","""event"",""trial"",""time""
""blur"",""0"",""0""
","""event"",""trial"",""time""
""focus"",""0"",""0""
","""event"",""trial"",""time""
""fullscreenenter"",""1"",""6146""
","
",,null,run_exp/static/images/task_images/aliens/practice_aliens/planet/alien_planet-5.jpg,null,,,,,,,,,,,,,,,,,,,,,,,,
land_prac,27,201090,0.0-11.0-1.0,"""event"",""trial"",""time""
""blur"",""0"",""0""
""focus"",""0"",""0""
""fullscreenenter"",""1"",""6146""
","""event"",""trial"",""time""
""blur"",""0"",""0""
","""event"",""trial"",""time""
""focus"",""0"",""0""
","""event"",""trial"",""time""
""fullscreenenter"",""1"",""6146""
","
",,null,run_exp/static/images/task_images/land.jpg,null,,,,,,,98,,,0,,,,,,,,,,,,,,
dig_prac,28,203131,0.0-11.0-2.0,"""event"",""trial"",""time""
""blur"",""0"",""0""
""focus"",""0"",""0""
""fullscreenenter"",""1"",""6146""
","""event"",""trial"",""time""
""blur"",""0"",""0""
","""event"",""trial"",""time""
""focus"",""0"",""0""
","""event"",""trial"",""time""
""fullscreenenter"",""1"",""6146""
","
",,,,,,,,,,,,"[{""stimulus"":""run_exp/static/images/task_images/dig.jpg"",""time"":0},{""stimulus"":""run_exp/static/images/task_images/land.jpg"",""time"":670},{""stimulus"":""run_exp/static/images/task_images/dig.jpg"",""time"":1343}]",[],,,,,,,,,,,,,,,
harvest_prac,29,204134,0.0-11.0-3.0,"""event"",""trial"",""time""
""blur"",""0"",""0""
""focus"",""0"",""0""
""fullscreenenter"",""1"",""6146""
","""event"",""trial"",""time""
""blur"",""0"",""0""
","""event"",""trial"",""time""
""focus"",""0"",""0""
","""event"",""trial"",""time""
""fullscreenenter"",""1"",""6146""
","
",,null,run_exp/static/images/task_images/barrel_text.jpg,null,,,,,,,,,,,,,,,,,,,,,,,,
decision_prac,30,207140,0.0-11.0-4.0,"""event"",""trial"",""time""
""blur"",""0"",""0""
""focus"",""0"",""0""
""fullscreenenter"",""1"",""6146""
","""event"",""trial"",""time""
""blur"",""0"",""0""
","""event"",""trial"",""time""
""focus"",""0"",""0""
","""event"",""trial"",""time""
""fullscreenenter"",""1"",""6146""
","
",,null,run_exp/static/images/task_images/land.jpg,null,,,,,,,,,,,1,,,,,,,,,,,,,
time_out,31,209149,0.0-12.0-0.0,"""event"",""trial"",""time""
""blur"",""0"",""0""
""focus"",""0"",""0""
""fullscreenenter"",""1"",""6146""
","""event"",""trial"",""time""
""blur"",""0"",""0""
","""event"",""trial"",""time""
""focus"",""0"",""0""
","""event"",""trial"",""time""
""fullscreenenter"",""1"",""6146""
","
",,null,run_exp/static/images/task_images/time_out.jpg,null,,,,,,,,,,,,,,,,,,,,,,,,
decision_prac,32,209748,0.0-12.0-1.0,"""event"",""trial"",""time""
""blur"",""0"",""0""
""focus"",""0"",""0""
""fullscreenenter"",""1"",""6146""
","""event"",""trial"",""time""
""blur"",""0"",""0""
","""event"",""trial"",""time""
""focus"",""0"",""0""
","""event"",""trial"",""time""
""fullscreenenter"",""1"",""6146""
","
",,597,run_exp/static/images/task_images/land.jpg,65,,,,,,,,,,,2,,,,,,,,,,,,,
dig_prac,33,211773,0.0-13.0-0.0,"""event"",""trial"",""time""
""blur"",""0"",""0""
""focus"",""0"",""0""
""fullscreenenter"",""1"",""6146""
","""event"",""trial"",""time""
""blur"",""0"",""0""
","""event"",""trial"",""time""
""focus"",""0"",""0""
","""event"",""trial"",""time""
""fullscreenenter"",""1"",""6146""
","
",,,,,,,,,,,,"[{""stimulus"":""run_exp/static/images/task_images/dig.jpg"",""time"":0},{""stimulus"":""run_exp/static/images/task_images/land.jpg"",""time"":673},{""stimulus"":""run_exp/static/images/task_images/dig.jpg"",""time"":1345}]",[],,,,,,,,,,,,,,,
harvest_prac,34,212777,0.0-13.0-1.0,"""event"",""trial"",""time""
""blur"",""0"",""0""
""focus"",""0"",""0""
""fullscreenenter"",""1"",""6146""
","""event"",""trial"",""time""
""blur"",""0"",""0""
","""event"",""trial"",""time""
""focus"",""0"",""0""
","""event"",""trial"",""time""
""fullscreenenter"",""1"",""6146""
","
",,null,run_exp/static/images/task_images/barrel_text.jpg,null,,,,,,,,,,,,,,,,,,,,,,,,
decision_prac,35,213935,0.0-13.0-2.0,"""event"",""trial"",""time""
""blur"",""0"",""0""
""focus"",""0"",""0""
""fullscreenenter"",""1"",""6146""
","""event"",""trial"",""time""
""blur"",""0"",""0""
","""event"",""trial"",""time""
""focus"",""0"",""0""
","""event"",""trial"",""time""
""fullscreenenter"",""1"",""6146""
","
",,1157,run_exp/static/images/task_images/land.jpg,65,,,,,,,,,,,3,,,,,,,,,,,,,
dig_prac,36,215957,0.0-14.0-0.0,"""event"",""trial"",""time""
""blur"",""0"",""0""
""focus"",""0"",""0""
""fullscreenenter"",""1"",""6146""
","""event"",""trial"",""time""
""blur"",""0"",""0""
","""event"",""trial"",""time""
""focus"",""0"",""0""
","""event"",""trial"",""time""
""fullscreenenter"",""1"",""6146""
","
",,,,,,,,,,,,"[{""stimulus"":""run_exp/static/images/task_images/dig.jpg"",""time"":0},{""stimulus"":""run_exp/static/images/task_images/land.jpg"",""time"":671},{""stimulus"":""run_exp/static/images/task_images/dig.jpg"",""time"":1342}]",[],,,,,,,,,,,,,,,
harvest_prac,37,216964,0.0-14.0-1.0,"""event"",""trial"",""time""
""blur"",""0"",""0""
""focus"",""0"",""0""
""fullscreenenter"",""1"",""6146""
","""event"",""trial"",""time""
""blur"",""0"",""0""
","""event"",""trial"",""time""
""focus"",""0"",""0""
","""event"",""trial"",""time""
""fullscreenenter"",""1"",""6146""
","
",,null,run_exp/static/images/task_images/barrel_text.jpg,null,,,,,,,,,,,,,,,,,,,,,,,,
decision_prac,38,218546,0.0-14.0-2.0,"""event"",""trial"",""time""
""blur"",""0"",""0""
""focus"",""0"",""0""
""fullscreenenter"",""1"",""6146""
","""event"",""trial"",""time""
""blur"",""0"",""0""
","""event"",""trial"",""time""
""focus"",""0"",""0""
","""event"",""trial"",""time""
""fullscreenenter"",""1"",""6146""
","
",,1581,run_exp/static/images/task_images/land.jpg,65,,,,,,,,,,,4,,,,,,,,,,,,,
dig_prac,39,220572,0.0-15.0-0.0,"""event"",""trial"",""time""
""blur"",""0"",""0""
""focus"",""0"",""0""
""fullscreenenter"",""1"",""6146""
","""event"",""trial"",""time""
""blur"",""0"",""0""
","""event"",""trial"",""time""
""focus"",""0"",""0""
","""event"",""trial"",""time""
""fullscreenenter"",""1"",""6146""
","
",,,,,,,,,,,,"[{""stimulus"":""run_exp/static/images/task_images/dig.jpg"",""time"":0},{""stimulus"":""run_exp/static/images/task_images/land.jpg"",""time"":672},{""stimulus"":""run_exp/static/images/task_images/dig.jpg"",""time"":1345}]",[],,,,,,,,,,,,,,,
harvest_prac,40,221574,0.0-15.0-1.0,"""event"",""trial"",""time""
""blur"",""0"",""0""
""focus"",""0"",""0""
""fullscreenenter"",""1"",""6146""
","""event"",""trial"",""time""
""blur"",""0"",""0""
","""event"",""trial"",""time""
""focus"",""0"",""0""
","""event"",""trial"",""time""
""fullscreenenter"",""1"",""6146""
","
",,null,run_exp/static/images/task_images/barrel_text.jpg,null,,,,,,,,,,,,,,,,,,,,,,,,
decision_prac,41,222166,0.0-15.0-2.0,"""event"",""trial"",""time""
""blur"",""0"",""0""
""focus"",""0"",""0""
""fullscreenenter"",""1"",""6146""
","""event"",""trial"",""time""
""blur"",""0"",""0""
","""event"",""trial"",""time""
""focus"",""0"",""0""
","""event"",""trial"",""time""
""fullscreenenter"",""1"",""6146""
","
",,590,run_exp/static/images/task_images/land.jpg,65,,,,,,,,,,,,1,,,,,,,,,,,,
quiz_instruc,42,235298,0.0-16.0-0.0,"""event"",""trial"",""time""
""blur"",""0"",""0""
""focus"",""0"",""0""
""fullscreenenter"",""1"",""6146""
","""event"",""trial"",""time""
""blur"",""0"",""0""
","""event"",""trial"",""time""
""focus"",""0"",""0""
","""event"",""trial"",""time""
""fullscreenenter"",""1"",""6146""
","
",,13128,run_exp/static/audio/clip_10_quiz.m4a,,,,,,,0,,,,,,,,,,,,,,,,,,
instruc_repeat,43,278090,0.0-16.0-1.0,"""event"",""trial"",""time""
""blur"",""0"",""0""
""focus"",""0"",""0""
""fullscreenenter"",""1"",""6146""
","""event"",""trial"",""time""
""blur"",""0"",""0""
","""event"",""trial"",""time""
""focus"",""0"",""0""
","""event"",""trial"",""time""
""fullscreenenter"",""1"",""6146""
","
",,null,"<p> Are you ready to play a practice game? </p> <p>In this practice game, you'll be digging up barrels of gems. But, in the real game, you'll be digging up the gems themselves. </p>",null,"<p>In this game, your goal is to collect as many gems as you can. That’s how you will win bonus money. </p> <p>The entire game will last 20 minutes no matter how many gems you collect or how many planets you visit. </p><p>To stay on a planet and dig again, press the letter A on your keyboard. To leave for a new planet, press the letter L.</p><p>The more you dig on a planet, the fewer gems you’ll get with each dig which is why you might consider leaving for a new planet. </p><p>When you arrive at a new planet, you’ll be greeted by an alien. What the alien looks like does not tell you anything about how much treasure is on the planet. </p>",,,,,,,,,,,,,,,,,,,,,,,
instruc_repeat_continue,44,280997,0.0-16.0-2.0,"""event"",""trial"",""time""
""blur"",""0"",""0""
""focus"",""0"",""0""
""fullscreenenter"",""1"",""6146""
","""event"",""trial"",""time""
""blur"",""0"",""0""
","""event"",""trial"",""time""
""focus"",""0"",""0""
","""event"",""trial"",""time""
""fullscreenenter"",""1"",""6146""
","
",,2902,"<p> Are you ready to play a practice game? </p> <p>In this practice game, you'll be digging up barrels of gems. But, in the real game, you'll be digging up the gems themselves. </p>",,,,,,,0,,,,,,,,,,,,,,,,,,
quiz_q_1_ask,45,291247,0.0-16.0-3.0,"""event"",""trial"",""time""
""blur"",""0"",""0""
""focus"",""0"",""0""
""fullscreenenter"",""1"",""6146""
","""event"",""trial"",""time""
""blur"",""0"",""0""
","""event"",""trial"",""time""
""focus"",""0"",""0""
","""event"",""trial"",""time""
""fullscreenenter"",""1"",""6146""
","
",,10246,run_exp/static/audio/clip_11_q1_ask.m4a,,,,,,,2,,,,,,,,,,,,,,,,,,
quiz_q_1_fb_correct,46,295106,0.0-17.0-0.0,"""event"",""trial"",""time""
""blur"",""0"",""0""
""focus"",""0"",""0""
""fullscreenenter"",""1"",""6146""
","""event"",""trial"",""time""
""blur"",""0"",""0""
","""event"",""trial"",""time""
""focus"",""0"",""0""
","""event"",""trial"",""time""
""fullscreenenter"",""1"",""6146""
","
",,null,run_exp/static/audio/clip_12_q1_correct.m4a,null,<p>That’s correct. You win extra money by collecting more gems.</p>,,,,,,,,,,,,,,,,,,,,,,,
quiz_q_2_ask,47,307214,0.0-17.0-1.0,"""event"",""trial"",""time""
""blur"",""0"",""0""
""focus"",""0"",""0""
""fullscreenenter"",""1"",""6146""
","""event"",""trial"",""time""
""blur"",""0"",""0""
","""event"",""trial"",""time""
""focus"",""0"",""0""
","""event"",""trial"",""time""
""fullscreenenter"",""1"",""6146""
","
",,12092,run_exp/static/audio/clip_14_q2_ask.m4a,,,,,,,2,,,,,,,,,,,,,,,,,,
quiz_q_2_fb_incorrect,48,311331,0.0-18.0-0.0,"""event"",""trial"",""time""
""blur"",""0"",""0""
""focus"",""0"",""0""
""fullscreenenter"",""1"",""6146""
","""event"",""trial"",""time""
""blur"",""0"",""0""
","""event"",""trial"",""time""
""focus"",""0"",""0""
","""event"",""trial"",""time""
""fullscreenenter"",""1"",""6146""
","
",,null,run_exp/static/audio/clip_16_q2_incorrect.m4a,null,<p>That’s incorrect. The experiment is 20 minutes no matter what.</p>,,,,,,,,,,,,,,,,,,,,,,,
quiz_q_3_ask,49,315779,0.0-18.0-1.0,"""event"",""trial"",""time""
""blur"",""0"",""0""
""focus"",""0"",""0""
""fullscreenenter"",""1"",""6146""
","""event"",""trial"",""time""
""blur"",""0"",""0""
","""event"",""trial"",""time""
""focus"",""0"",""0""
","""event"",""trial"",""time""
""fullscreenenter"",""1"",""6146""
","
",,4442,run_exp/static/audio/clip_17_q3_ask.m4a,,,,,,,1,,,,,,,,,,,,,,,,,,
quiz_q_3_fb_correct,50,319749,0.0-19.0-0.0,"""event"",""trial"",""time""
""blur"",""0"",""0""
""focus"",""0"",""0""
""fullscreenenter"",""1"",""6146""
","""event"",""trial"",""time""
""blur"",""0"",""0""
","""event"",""trial"",""time""
""focus"",""0"",""0""
","""event"",""trial"",""time""
""fullscreenenter"",""1"",""6146""
","
",,null,run_exp/static/audio/clip_18_q3_correct.m4a,null,<p> That’s correct. You press the letter L to travel to a new planet.</p>,,,,,,,,,,,,,,,,,,,,,,,
quiz_q_4_ask,51,329729,0.0-19.0-1.0,"""event"",""trial"",""time""
""blur"",""0"",""0""
""focus"",""0"",""0""
""fullscreenenter"",""1"",""6146""
","""event"",""trial"",""time""
""blur"",""0"",""0""
","""event"",""trial"",""time""
""focus"",""0"",""0""
","""event"",""trial"",""time""
""fullscreenenter"",""1"",""6146""
","
",,9979,run_exp/static/audio/clip_20_q4_ask.m4a,,,,,,,0,,,,,,,,,,,,,,,,,,
quiz_q_4_fb_correct,52,335055,0.0-20.0-0.0,"""event"",""trial"",""time""
""blur"",""0"",""0""
""focus"",""0"",""0""
""fullscreenenter"",""1"",""6146""
","""event"",""trial"",""time""
""blur"",""0"",""0""
","""event"",""trial"",""time""
""focus"",""0"",""0""
","""event"",""trial"",""time""
""fullscreenenter"",""1"",""6146""
","
",,null,run_exp/static/audio/clip_21_q4_correct.m4a,null,<p> That’s correct. The more you dig on a planet the fewer gems you’ll get with each dig. </p>,,,,,,,,,,,,,,,,,,,,,,,
quiz_q_5_ask,53,340113,0.0-20.0-1.0,"""event"",""trial"",""time""
""blur"",""0"",""0""
""focus"",""0"",""0""
""fullscreenenter"",""1"",""6146""
","""event"",""trial"",""time""
""blur"",""0"",""0""
","""event"",""trial"",""time""
""focus"",""0"",""0""
","""event"",""trial"",""time""
""fullscreenenter"",""1"",""6146""
","
",,5056,run_exp/static/audio/clip_23_q5_ask.m4a,,,,,,,1,,,,,,,,,,,,,,,,,,
quiz_q_5_fb_correct,54,345104,0.0-21.0-0.0,"""event"",""trial"",""time""
""blur"",""0"",""0""
""focus"",""0"",""0""
""fullscreenenter"",""1"",""6146""
","""event"",""trial"",""time""
""blur"",""0"",""0""
","""event"",""trial"",""time""
""focus"",""0"",""0""
","""event"",""trial"",""time""
""fullscreenenter"",""1"",""6146""
","
",,null,run_exp/static/audio/clip_24_q5_correct.m4a,null,<p> That’s correct. The alien tells you nothing about how much treasure is on the planet.</p>,,,,,,,,,,,,,,,,,,,,,,,
quiz_incorrect,55,350688,0.0-22.0-0.0,"""event"",""trial"",""time""
""blur"",""0"",""0""
""focus"",""0"",""0""
""fullscreenenter"",""1"",""6146""
","""event"",""trial"",""time""
""blur"",""0"",""0""
","""event"",""trial"",""time""
""focus"",""0"",""0""
","""event"",""trial"",""time""
""fullscreenenter"",""1"",""6146""
","
",,null,run_exp/static/audio/clip_27_incorrect_quiz.m4a,null,,,,,,,,,,,,,,,,,,,,,,,,
quiz_incorrect_continue,56,352462,0.0-22.0-1.0,"""event"",""trial"",""time""
""blur"",""0"",""0""
""focus"",""0"",""0""
""fullscreenenter"",""1"",""6146""
","""event"",""trial"",""time""
""blur"",""0"",""0""
","""event"",""trial"",""time""
""focus"",""0"",""0""
","""event"",""trial"",""time""
""fullscreenenter"",""1"",""6146""
","
",,1774,"<p>Oops, you missed some questions.</p><p>Now that you’ve heard the correct answers. Try the quiz again!</p>",,,,,,,0,,,,,,,,,,,,,,,,,,
quiz_q_1_ask,57,355295,0.0-22.0-2.0,"""event"",""trial"",""time""
""blur"",""0"",""0""
""focus"",""0"",""0""
""fullscreenenter"",""1"",""6146""
","""event"",""trial"",""time""
""blur"",""0"",""0""
","""event"",""trial"",""time""
""focus"",""0"",""0""
","""event"",""trial"",""time""
""fullscreenenter"",""1"",""6146""
","
",,2831,run_exp/static/audio/clip_11_q1_ask.m4a,,,,,,,2,,,,,,,,,,,,,,,,,,
quiz_q_1_fb_correct,58,359129,0.0-23.0-0.0,"""event"",""trial"",""time""
""blur"",""0"",""0""
""focus"",""0"",""0""
""fullscreenenter"",""1"",""6146""
","""event"",""trial"",""time""
""blur"",""0"",""0""
","""event"",""trial"",""time""
""focus"",""0"",""0""
","""event"",""trial"",""time""
""fullscreenenter"",""1"",""6146""
","
",,null,run_exp/static/audio/clip_12_q1_correct.m4a,null,<p>That’s correct. You win extra money by collecting more gems.</p>,,,,,,,,,,,,,,,,,,,,,,,
quiz_q_2_ask,59,361678,0.0-23.0-1.0,"""event"",""trial"",""time""
""blur"",""0"",""0""
""focus"",""0"",""0""
""fullscreenenter"",""1"",""6146""
","""event"",""trial"",""time""
""blur"",""0"",""0""
","""event"",""trial"",""time""
""focus"",""0"",""0""
","""event"",""trial"",""time""
""fullscreenenter"",""1"",""6146""
","
",,2546,run_exp/static/audio/clip_14_q2_ask.m4a,,,,,,,1,,,,,,,,,,,,,,,,,,
quiz_q_2_fb_correct,60,365669,0.0-24.0-0.0,"""event"",""trial"",""time""
""blur"",""0"",""0""
""focus"",""0"",""0""
""fullscreenenter"",""1"",""6146""
","""event"",""trial"",""time""
""blur"",""0"",""0""
","""event"",""trial"",""time""
""focus"",""0"",""0""
","""event"",""trial"",""time""
""fullscreenenter"",""1"",""6146""
","
",,null,run_exp/static/audio/clip_15_q2_correct.m4a,null,<p>That’s correct. The experiment is 20 minutes no matter what.</p>,,,,,,,,,,,,,,,,,,,,,,,
quiz_q_3_ask,61,367929,0.0-24.0-1.0,"""event"",""trial"",""time""
""blur"",""0"",""0""
""focus"",""0"",""0""
""fullscreenenter"",""1"",""6146""
","""event"",""trial"",""time""
""blur"",""0"",""0""
","""event"",""trial"",""time""
""focus"",""0"",""0""
","""event"",""trial"",""time""
""fullscreenenter"",""1"",""6146""
","
",,2260,run_exp/static/audio/clip_17_q3_ask.m4a,,,,,,,1,,,,,,,,,,,,,,,,,,
quiz_q_3_fb_correct,62,371894,0.0-25.0-0.0,"""event"",""trial"",""time""
""blur"",""0"",""0""
""focus"",""0"",""0""
""fullscreenenter"",""1"",""6146""
","""event"",""trial"",""time""
""blur"",""0"",""0""
","""event"",""trial"",""time""
""focus"",""0"",""0""
","""event"",""trial"",""time""
""fullscreenenter"",""1"",""6146""
","
",,null,run_exp/static/audio/clip_18_q3_correct.m4a,null,<p> That’s correct. You press the letter L to travel to a new planet.</p>,,,,,,,,,,,,,,,,,,,,,,,
quiz_q_4_ask,63,375995,0.0-25.0-1.0,"""event"",""trial"",""time""
""blur"",""0"",""0""
""focus"",""0"",""0""
""fullscreenenter"",""1"",""6146""
","""event"",""trial"",""time""
""blur"",""0"",""0""
","""event"",""trial"",""time""
""focus"",""0"",""0""
","""event"",""trial"",""time""
""fullscreenenter"",""1"",""6146""
","
",,4100,run_exp/static/audio/clip_20_q4_ask.m4a,,,,,,,0,,,,,,,,,,,,,,,,,,
quiz_q_4_fb_correct,64,381306,0.0-26.0-0.0,"""event"",""trial"",""time""
""blur"",""0"",""0""
""focus"",""0"",""0""
""fullscreenenter"",""1"",""6146""
","""event"",""trial"",""time""
""blur"",""0"",""0""
","""event"",""trial"",""time""
""focus"",""0"",""0""
","""event"",""trial"",""time""
""fullscreenenter"",""1"",""6146""
","
",,null,run_exp/static/audio/clip_21_q4_correct.m4a,null,<p> That’s correct. The more you dig on a planet the fewer gems you’ll get with each dig. </p>,,,,,,,,,,,,,,,,,,,,,,,
quiz_q_5_ask,65,384148,0.0-26.0-1.0,"""event"",""trial"",""time""
""blur"",""0"",""0""
""focus"",""0"",""0""
""fullscreenenter"",""1"",""6146""
","""event"",""trial"",""time""
""blur"",""0"",""0""
","""event"",""trial"",""time""
""focus"",""0"",""0""
","""event"",""trial"",""time""
""fullscreenenter"",""1"",""6146""
","
",,2836,run_exp/static/audio/clip_23_q5_ask.m4a,,,,,,,1,,,,,,,,,,,,,,,,,,
quiz_q_5_fb_correct,66,389140,0.0-27.0-0.0,"""event"",""trial"",""time""
""blur"",""0"",""0""
""focus"",""0"",""0""
""fullscreenenter"",""1"",""6146""
","""event"",""trial"",""time""
""blur"",""0"",""0""
","""event"",""trial"",""time""
""focus"",""0"",""0""
","""event"",""trial"",""time""
""fullscreenenter"",""1"",""6146""
","
",,null,run_exp/static/audio/clip_24_q5_correct.m4a,null,<p> That’s correct. The alien tells you nothing about how much treasure is on the planet.</p>,,,,,,,,,,,,,,,,,,,,,,,
quiz_correct,67,392609,0.0-28.0-0.0,"""event"",""trial"",""time""
""blur"",""0"",""0""
""focus"",""0"",""0""
""fullscreenenter"",""1"",""6146""
","""event"",""trial"",""time""
""blur"",""0"",""0""
","""event"",""trial"",""time""
""focus"",""0"",""0""
","""event"",""trial"",""time""
""fullscreenenter"",""1"",""6146""
","
",,null,run_exp/static/audio/clip_26_correct_quiz.m4a,null,,,,,,,,,,,,,,,,,,,,,,,,
quiz_correct_continue,68,393985,0.0-28.0-1.0,"""event"",""trial"",""time""
""blur"",""0"",""0""
""focus"",""0"",""0""
""fullscreenenter"",""1"",""6146""
","""event"",""trial"",""time""
""blur"",""0"",""0""
","""event"",""trial"",""time""
""focus"",""0"",""0""
","""event"",""trial"",""time""
""fullscreenenter"",""1"",""6146""
","
",,1374,<p>Good job! You're now ready to move on to the real game!</p>,,,,,,,0,,,,,,,,,,,,,,,,,,
audio-keyboard-response,69,404107,0.0-28.0-2.0,"""event"",""trial"",""time""
""blur"",""0"",""0""
""focus"",""0"",""0""
""fullscreenenter"",""1"",""6146""
","""event"",""trial"",""time""
""blur"",""0"",""0""
","""event"",""trial"",""time""
""focus"",""0"",""0""
","""event"",""trial"",""time""
""fullscreenenter"",""1"",""6146""
","
",,null,run_exp/static/audio/clip_28_real_game.m4a,null,,,,,,,,,,,,,,,,,,,,,,,,
instruc_begin_exp_contine,70,405737,0.0-28.0-3.0,"""event"",""trial"",""time""
""blur"",""0"",""0""
""focus"",""0"",""0""
""fullscreenenter"",""1"",""6146""
","""event"",""trial"",""time""
""blur"",""0"",""0""
","""event"",""trial"",""time""
""focus"",""0"",""0""
","""event"",""trial"",""time""
""fullscreenenter"",""1"",""6146""
","
",,1621,"<p>Now that you know how  to dig for space treasure and travel to new planets,you can start exploring! </p><p>Do you want to go over the instructions again or get started with the real game?</p>",,,,,,,1,,,,,,1,,,,,,,,,,,,
alien_welcome,71,410747,0.0-29.0-0.0,"""event"",""trial"",""time""
""blur"",""0"",""0""
""focus"",""0"",""0""
""fullscreenenter"",""1"",""6146""
","""event"",""trial"",""time""
""blur"",""0"",""0""
","""event"",""trial"",""time""
""focus"",""0"",""0""
","""event"",""trial"",""time""
""fullscreenenter"",""1"",""6146""
","
",,null,run_exp/static/images/task_images/aliens/old_aliens/planet/alien_planet-24.jpg,null,,,,,,,,,,,,,24,"24,15,56,67,48,4,9,77,75,52,16,69,39,62,30,13,53,71,55,17,21,14,22,6,33,59,51,49,29,10,38,19,28,76,54,63,32,27,5,80,23,45,40,73,35,36,31,47,74,66,11,42",,,,,,,,,,
land,72,411253,0.0-29.0-1.0,"""event"",""trial"",""time""
""blur"",""0"",""0""
""focus"",""0"",""0""
""fullscreenenter"",""1"",""6146""
","""event"",""trial"",""time""
""blur"",""0"",""0""
","""event"",""trial"",""time""
""focus"",""0"",""0""
","""event"",""trial"",""time""
""fullscreenenter"",""1"",""6146""
","
",,null,run_exp/static/images/task_images/land.jpg,null,,,,,,,92,,,1,,,,,,,,,,,,,,
dig,73,413272,0.0-29.0-2.0,"""event"",""trial"",""time""
""blur"",""0"",""0""
""focus"",""0"",""0""
""fullscreenenter"",""1"",""6146""
","""event"",""trial"",""time""
""blur"",""0"",""0""
","""event"",""trial"",""time""
""focus"",""0"",""0""
","""event"",""trial"",""time""
""fullscreenenter"",""1"",""6146""
","
",,,,,,,,,,,,"[{""stimulus"":""run_exp/static/images/task_images/dig.jpg"",""time"":1},{""stimulus"":""run_exp/static/images/task_images/land.jpg"",""time"":672},{""stimulus"":""run_exp/static/images/task_images/dig.jpg"",""time"":1341}]",[],1,,,,,,,,,,,,,,
harvest,74,414279,0.0-29.0-3.0,"""event"",""trial"",""time""
""blur"",""0"",""0""
""focus"",""0"",""0""
""fullscreenenter"",""1"",""6146""
","""event"",""trial"",""time""
""blur"",""0"",""0""
","""event"",""trial"",""time""
""focus"",""0"",""0""
","""event"",""trial"",""time""
""fullscreenenter"",""1"",""6146""
","
",,null,run_exp/static/images/task_images/gems/92.jpg,null,,,,,,,20,,,1,,,,,92,0.214278946,0.217391304,,,,,,,
decision,75,414965,0.0-29.0-4.0,"""event"",""trial"",""time""
""blur"",""0"",""0""
""focus"",""0"",""0""
""fullscreenenter"",""1"",""6146""
","""event"",""trial"",""time""
""blur"",""0"",""0""
","""event"",""trial"",""time""
""focus"",""0"",""0""
","""event"",""trial"",""time""
""fullscreenenter"",""1"",""6146""
","
",,680,run_exp/static/images/task_images/land.jpg,76,,,,,,,20,,,1,,,,,,,,9225,1,0,TRUE,,,
travel,76,424315,0.0-30.0-0.0,"""event"",""trial"",""time""
""blur"",""0"",""0""
""focus"",""0"",""0""
""fullscreenenter"",""1"",""6146""
","""event"",""trial"",""time""
""blur"",""0"",""0""
","""event"",""trial"",""time""
""focus"",""0"",""0""
","""event"",""trial"",""time""
""fullscreenenter"",""1"",""6146""
","
",,,,,,,,,,,,"[{""stimulus"":""run_exp/static/images/task_images/rocket-01.jpg"",""time"":0},{""stimulus"":""run_exp/static/images/task_images/rocket-02.jpg"",""time"":1037},{""stimulus"":""run_exp/static/images/task_images/rocket-03.jpg"",""time"":2074},{""stimulus"":""run_exp/static/images/task_images/rocket-04.jpg"",""time"":3111},{""stimulus"":""run_exp/static/images/task_images/rocket-05.jpg"",""time"":4147},{""stimulus"":""run_exp/static/images/task_images/rocket-06.jpg"",""time"":5187},{""stimulus"":""run_exp/static/images/task_images/rocket-07.jpg"",""time"":6227},{""stimulus"":""run_exp/static/images/task_images/rocket-08.jpg"",""time"":7267},{""stimulus"":""run_exp/static/images/task_images/rocket-09.jpg"",""time"":8306}]",[],1,,,,,,,,,,,,,,
alien_welcome,77,429324,0.0-30.0-1.0,"""event"",""trial"",""time""
""blur"",""0"",""0""
""focus"",""0"",""0""
""fullscreenenter"",""1"",""6146""
","""event"",""trial"",""time""
""blur"",""0"",""0""
","""event"",""trial"",""time""
""focus"",""0"",""0""
","""event"",""trial"",""time""
""fullscreenenter"",""1"",""6146""
","
",,null,run_exp/static/images/task_images/aliens/old_aliens/planet/alien_planet-15.jpg,null,,,,,,,,,,,,,15,"24,15,56,67,48,4,9,77,75,52,16,69,39,62,30,13,53,71,55,17,21,14,22,6,33,59,51,49,29,10,38,19,28,76,54,63,32,27,5,80,23,45,40,73,35,36,31,47,74,66,11,42",,,,,,,,,,
land,78,429831,0.0-30.0-2.0,"""event"",""trial"",""time""
""blur"",""0"",""0""
""focus"",""0"",""0""
""fullscreenenter"",""1"",""6146""
","""event"",""trial"",""time""
""blur"",""0"",""0""
","""event"",""trial"",""time""
""focus"",""0"",""0""
","""event"",""trial"",""time""
""fullscreenenter"",""1"",""6146""
","
",,null,run_exp/static/images/task_images/land.jpg,null,,,,,,,107,,,2,,,,,,,,,,,,,,
dig,79,431852,0.0-30.0-3.0,"""event"",""trial"",""time""
""blur"",""0"",""0""
""focus"",""0"",""0""
""fullscreenenter"",""1"",""6146""
","""event"",""trial"",""time""
""blur"",""0"",""0""
","""event"",""trial"",""time""
""focus"",""0"",""0""
","""event"",""trial"",""time""
""fullscreenenter"",""1"",""6146""
","
",,,,,,,,,,,,"[{""stimulus"":""run_exp/static/images/task_images/dig.jpg"",""time"":0},{""stimulus"":""run_exp/static/images/task_images/land.jpg"",""time"":669},{""stimulus"":""run_exp/static/images/task_images/dig.jpg"",""time"":1339}]",[],2,,,,,,,,,,,,,,
harvest,80,432860,0.0-30.0-4.0,"""event"",""trial"",""time""
""blur"",""0"",""0""
""focus"",""0"",""0""
""fullscreenenter"",""1"",""6146""
","""event"",""trial"",""time""
""blur"",""0"",""0""
","""event"",""trial"",""time""
""focus"",""0"",""0""
","""event"",""trial"",""time""
""fullscreenenter"",""1"",""6146""
","
",,null,run_exp/static/images/task_images/gems/107.jpg,null,,,,,,,14,,,2,,,,,107,0.131964179,0.130841121,,,,,,,
decision,81,434671,0.0-30.0-5.0,"""event"",""trial"",""time""
""blur"",""0"",""0""
""focus"",""0"",""0""
""fullscreenenter"",""1"",""6146""
","""event"",""trial"",""time""
""blur"",""0"",""0""
","""event"",""trial"",""time""
""focus"",""0"",""0""
","""event"",""trial"",""time""
""fullscreenenter"",""1"",""6146""
","
",,1809,run_exp/static/images/task_images/land.jpg,65,,,,,,,14,,,2,,,,,,,,28931,1,0,FALSE,,,
dig,82,435875,0.0-31.0-0.0,"""event"",""trial"",""time""
""blur"",""0"",""0""
""focus"",""0"",""0""
""fullscreenenter"",""1"",""6146""
","""event"",""trial"",""time""
""blur"",""0"",""0""
","""event"",""trial"",""time""
""focus"",""0"",""0""
","""event"",""trial"",""time""
""fullscreenenter"",""1"",""6146""
","
",,,,,,,,,,,,"[{""stimulus"":""run_exp/static/images/task_images/dig.jpg"",""time"":1},{""stimulus"":""run_exp/static/images/task_images/land.jpg"",""time"":399},{""stimulus"":""run_exp/static/images/task_images/dig.jpg"",""time"":797}]",[],2,,,,,,,,,,,,,,
harvest,83,436881,0.0-31.0-1.0,"""event"",""trial"",""time""
""blur"",""0"",""0""
""focus"",""0"",""0""
""fullscreenenter"",""1"",""6146""
","""event"",""trial"",""time""
""blur"",""0"",""0""
","""event"",""trial"",""time""
""focus"",""0"",""0""
","""event"",""trial"",""time""
""fullscreenenter"",""1"",""6146""
","
",,null,run_exp/static/images/task_images/gems/14.jpg,null,,,,,,,3,,,2,,,,,14,0.240559107,0.214285714,,,,,,,
decision,84,437023,0.0-31.0-2.0,"""event"",""trial"",""time""
""blur"",""0"",""0""
""focus"",""0"",""0""
""fullscreenenter"",""1"",""6146""
","""event"",""trial"",""time""
""blur"",""0"",""0""
","""event"",""trial"",""time""
""focus"",""0"",""0""
","""event"",""trial"",""time""
""fullscreenenter"",""1"",""6146""
","
",,139,run_exp/static/images/task_images/land.jpg,65,,,,,,,3,,,2,,,,,,,,31283,1,1,FALSE,,,
dig,85,439901,0.0-32.0-0.0,"""event"",""trial"",""time""
""blur"",""0"",""0""
""focus"",""0"",""0""
""fullscreenenter"",""1"",""6146""
","""event"",""trial"",""time""
""blur"",""0"",""0""
","""event"",""trial"",""time""
""focus"",""0"",""0""
","""event"",""trial"",""time""
""fullscreenenter"",""1"",""6146""
","
",,,,,,,,,,,,"[{""stimulus"":""run_exp/static/images/task_images/dig.jpg"",""time"":0},{""stimulus"":""run_exp/static/images/task_images/land.jpg"",""time"":957},{""stimulus"":""run_exp/static/images/task_images/dig.jpg"",""time"":1914}]",[],2,,,,,,,,,,,,,,
harvest,86,440903,0.0-32.0-1.0,"""event"",""trial"",""time""
""blur"",""0"",""0""
""focus"",""0"",""0""
""fullscreenenter"",""1"",""6146""
","""event"",""trial"",""time""
""blur"",""0"",""0""
","""event"",""trial"",""time""
""focus"",""0"",""0""
","""event"",""trial"",""time""
""fullscreenenter"",""1"",""6146""
","
",,null,run_exp/static/images/task_images/gems/3.jpg,null,,,,,,,0,,,2,,,,,3,0.128041696,0,,,,,,,
decision,87,441926,0.0-32.0-2.0,"""event"",""trial"",""time""
""blur"",""0"",""0""
""focus"",""0"",""0""
""fullscreenenter"",""1"",""6146""
","""event"",""trial"",""time""
""blur"",""0"",""0""
","""event"",""trial"",""time""
""focus"",""0"",""0""
","""event"",""trial"",""time""
""fullscreenenter"",""1"",""6146""
","
",,1020,run_exp/static/images/task_images/land.jpg,65,,,,,,,0,,,2,,,,,,,,36186,1,2,FALSE,,,
dig,88,443925,0.0-33.0-0.0,"""event"",""trial"",""time""
""blur"",""0"",""0""
""focus"",""0"",""0""
""fullscreenenter"",""1"",""6146""
","""event"",""trial"",""time""
""blur"",""0"",""0""
","""event"",""trial"",""time""
""focus"",""0"",""0""
","""event"",""trial"",""time""
""fullscreenenter"",""1"",""6146""
","
",,,,,,,,,,,,"[{""stimulus"":""run_exp/static/images/task_images/dig.jpg"",""time"":1},{""stimulus"":""run_exp/static/images/task_images/land.jpg"",""time"":664},{""stimulus"":""run_exp/static/images/task_images/dig.jpg"",""time"":1330}]",[],2,,,,,,,,,,,,,,
harvest,89,444932,0.0-33.0-1.0,"""event"",""trial"",""time""
""blur"",""0"",""0""
""focus"",""0"",""0""
""fullscreenenter"",""1"",""6146""
","""event"",""trial"",""time""
""blur"",""0"",""0""
","""event"",""trial"",""time""
""focus"",""0"",""0""
","""event"",""trial"",""time""
""fullscreenenter"",""1"",""6146""
","
",,null,run_exp/static/images/task_images/gems/0.jpg,null,,,,,,,0,,,2,,,,,0,0.11265944,NaN,,,,,,,
decision,90,445555,0.0-33.0-2.0,"""event"",""trial"",""time""
""blur"",""0"",""0""
""focus"",""0"",""0""
""fullscreenenter"",""1"",""6146""
","""event"",""trial"",""time""
""blur"",""0"",""0""
","""event"",""trial"",""time""
""focus"",""0"",""0""
","""event"",""trial"",""time""
""fullscreenenter"",""1"",""6146""
","
",,622,run_exp/static/images/task_images/land.jpg,65,,,,,,,0,,,2,,,,,,,,39815,1,3,FALSE,,,
dig,91,447943,0.0-34.0-0.0,"""event"",""trial"",""time""
""blur"",""0"",""0""
""focus"",""0"",""0""
""fullscreenenter"",""1"",""6146""
","""event"",""trial"",""time""
""blur"",""0"",""0""
","""event"",""trial"",""time""
""focus"",""0"",""0""
","""event"",""trial"",""time""
""fullscreenenter"",""1"",""6146""
","
",,,,,,,,,,,,"[{""stimulus"":""run_exp/static/images/task_images/dig.jpg"",""time"":0},{""stimulus"":""run_exp/static/images/task_images/land.jpg"",""time"":792},{""stimulus"":""run_exp/static/images/task_images/dig.jpg"",""time"":1588}]",[],2,,,,,,,,,,,,,,
harvest,92,448946,0.0-34.0-1.0,"""event"",""trial"",""time""
""blur"",""0"",""0""
""focus"",""0"",""0""
""fullscreenenter"",""1"",""6146""
","""event"",""trial"",""time""
""blur"",""0"",""0""
","""event"",""trial"",""time""
""focus"",""0"",""0""
","""event"",""trial"",""time""
""fullscreenenter"",""1"",""6146""
","
",,null,run_exp/static/images/task_images/gems/0.jpg,null,,,,,,,0,,,2,,,,,0,0.167809992,NaN,,,,,,,
decision,93,449869,0.0-34.0-2.0,"""event"",""trial"",""time""
""blur"",""0"",""0""
""focus"",""0"",""0""
""fullscreenenter"",""1"",""6146""
","""event"",""trial"",""time""
""blur"",""0"",""0""
","""event"",""trial"",""time""
""focus"",""0"",""0""
","""event"",""trial"",""time""
""fullscreenenter"",""1"",""6146""
","
",,921,run_exp/static/images/task_images/land.jpg,76,,,,,,,0,,,2,,,,,,,,44129,1,4,TRUE,,,
travel,94,458970,0.0-35.0-0.0,"""event"",""trial"",""time""
""blur"",""0"",""0""
""focus"",""0"",""0""
""fullscreenenter"",""1"",""6146""
","""event"",""trial"",""time""
""blur"",""0"",""0""
","""event"",""trial"",""time""
""focus"",""0"",""0""
","""event"",""trial"",""time""
""fullscreenenter"",""1"",""6146""
","
",,,,,,,,,,,,"[{""stimulus"":""run_exp/static/images/task_images/rocket-01.jpg"",""time"":0},{""stimulus"":""run_exp/static/images/task_images/rocket-02.jpg"",""time"":1013},{""stimulus"":""run_exp/static/images/task_images/rocket-03.jpg"",""time"":2021},{""stimulus"":""run_exp/static/images/task_images/rocket-04.jpg"",""time"":3031},{""stimulus"":""run_exp/static/images/task_images/rocket-05.jpg"",""time"":4041},{""stimulus"":""run_exp/static/images/task_images/rocket-06.jpg"",""time"":5053},{""stimulus"":""run_exp/static/images/task_images/rocket-07.jpg"",""time"":6062},{""stimulus"":""run_exp/static/images/task_images/rocket-08.jpg"",""time"":7071},{""stimulus"":""run_exp/static/images/task_images/rocket-09.jpg"",""time"":8080}]",[],2,,,,,,,,,,,,,,
alien_welcome,95,463977,0.0-35.0-1.0,"""event"",""trial"",""time""
""blur"",""0"",""0""
""focus"",""0"",""0""
""fullscreenenter"",""1"",""6146""
","""event"",""trial"",""time""
""blur"",""0"",""0""
","""event"",""trial"",""time""
""focus"",""0"",""0""
","""event"",""trial"",""time""
""fullscreenenter"",""1"",""6146""
","
",,null,run_exp/static/images/task_images/aliens/old_aliens/planet/alien_planet-56.jpg,null,,,,,,,,,,,,,56,"24,15,56,67,48,4,9,77,75,52,16,69,39,62,30,13,53,71,55,17,21,14,22,6,33,59,51,49,29,10,38,19,28,76,54,63,32,27,5,80,23,45,40,73,35,36,31,47,74,66,11,42",,,,,,,,,,
land,96,464485,0.0-35.0-2.0,"""event"",""trial"",""time""
""blur"",""0"",""0""
""focus"",""0"",""0""
""fullscreenenter"",""1"",""6146""
","""event"",""trial"",""time""
""blur"",""0"",""0""
","""event"",""trial"",""time""
""focus"",""0"",""0""
","""event"",""trial"",""time""
""fullscreenenter"",""1"",""6146""
","
",,null,run_exp/static/images/task_images/land.jpg,null,,,,,,,100,,,3,,,,,,,,,,,,,,
dig,97,466505,0.0-35.0-3.0,"""event"",""trial"",""time""
""blur"",""0"",""0""
""focus"",""0"",""0""
""fullscreenenter"",""1"",""6146""
","""event"",""trial"",""time""
""blur"",""0"",""0""
","""event"",""trial"",""time""
""focus"",""0"",""0""
","""event"",""trial"",""time""
""fullscreenenter"",""1"",""6146""
","
",,,,,,,,,,,,"[{""stimulus"":""run_exp/static/images/task_images/dig.jpg"",""time"":1},{""stimulus"":""run_exp/static/images/task_images/land.jpg"",""time"":669},{""stimulus"":""run_exp/static/images/task_images/dig.jpg"",""time"":1341}]",[],3,,,,,,,,,,,,,,
harvest,98,467512,0.0-35.0-4.0,"""event"",""trial"",""time""
""blur"",""0"",""0""
""focus"",""0"",""0""
""fullscreenenter"",""1"",""6146""
","""event"",""trial"",""time""
""blur"",""0"",""0""
","""event"",""trial"",""time""
""focus"",""0"",""0""
","""event"",""trial"",""time""
""fullscreenenter"",""1"",""6146""
","
",,null,run_exp/static/images/task_images/gems/100.jpg,null,,,,,,,52,,,3,,,,,100,0.517527196,0.52,,,,,,,
decision,99,468507,0.0-35.0-5.0,"""event"",""trial"",""time""
""blur"",""0"",""0""
""focus"",""0"",""0""
""fullscreenenter"",""1"",""6146""
","""event"",""trial"",""time""
""blur"",""0"",""0""
","""event"",""trial"",""time""
""focus"",""0"",""0""
","""event"",""trial"",""time""
""fullscreenenter"",""1"",""6146""
","
",,993,run_exp/static/images/task_images/land.jpg,65,,,,,,,52,,,3,,,,,,,,62767,1,0,FALSE,,,
dig,100,470531,0.0-36.0-0.0,"""event"",""trial"",""time""
""blur"",""0"",""0""
""focus"",""0"",""0""
""fullscreenenter"",""1"",""6146""
","""event"",""trial"",""time""
""blur"",""0"",""0""
","""event"",""trial"",""time""
""focus"",""0"",""0""
","""event"",""trial"",""time""
""fullscreenenter"",""1"",""6146""
","
",,,,,,,,,,,,"[{""stimulus"":""run_exp/static/images/task_images/dig.jpg"",""time"":1},{""stimulus"":""run_exp/static/images/task_images/land.jpg"",""time"":674},{""stimulus"":""run_exp/static/images/task_images/dig.jpg"",""time"":1348}]",[],3,,,,,,,,,,,,,,
harvest,101,471534,0.0-36.0-1.0,"""event"",""trial"",""time""
""blur"",""0"",""0""
""focus"",""0"",""0""
""fullscreenenter"",""1"",""6146""
","""event"",""trial"",""time""
""blur"",""0"",""0""
","""event"",""trial"",""time""
""focus"",""0"",""0""
","""event"",""trial"",""time""
""fullscreenenter"",""1"",""6146""
","
",,null,run_exp/static/images/task_images/gems/52.jpg,null,,,,,,,25,,,3,,,,,52,0.48993959,0.480769231,,,,,,,
decision,102,472980,0.0-36.0-2.0,"""event"",""trial"",""time""
""blur"",""0"",""0""
""focus"",""0"",""0""
""fullscreenenter"",""1"",""6146""
","""event"",""trial"",""time""
""blur"",""0"",""0""
","""event"",""trial"",""time""
""focus"",""0"",""0""
","""event"",""trial"",""time""
""fullscreenenter"",""1"",""6146""
","
",,1444,run_exp/static/images/task_images/land.jpg,65,,,,,,,25,,,3,,,,,,,,67241,1,1,FALSE,,,
dig,103,474558,0.0-37.0-0.0,"""event"",""trial"",""time""
""blur"",""0"",""0""
""focus"",""0"",""0""
""fullscreenenter"",""1"",""6146""
","""event"",""trial"",""time""
""blur"",""0"",""0""
","""event"",""trial"",""time""
""focus"",""0"",""0""
","""event"",""trial"",""time""
""fullscreenenter"",""1"",""6146""
","
",,,,,,,,,,,,"[{""stimulus"":""run_exp/static/images/task_images/dig.jpg"",""time"":0},{""stimulus"":""run_exp/static/images/task_images/land.jpg"",""time"":520},{""stimulus"":""run_exp/static/images/task_images/dig.jpg"",""time"":1044}]",[],3,,,,,,,,,,,,,,
harvest,104,475561,0.0-37.0-1.0,"""event"",""trial"",""time""
""blur"",""0"",""0""
""focus"",""0"",""0""
""fullscreenenter"",""1"",""6146""
","""event"",""trial"",""time""
""blur"",""0"",""0""
","""event"",""trial"",""time""
""focus"",""0"",""0""
","""event"",""trial"",""time""
""fullscreenenter"",""1"",""6146""
","
",,null,run_exp/static/images/task_images/gems/25.jpg,null,,,,,,,13,,,3,,,,,25,0.509355522,0.52,,,,,,,
decision,105,475564,0.0-37.0-2.0,"""event"",""trial"",""time""
""blur"",""0"",""0""
""focus"",""0"",""0""
""fullscreenenter"",""1"",""6146""
","""event"",""trial"",""time""
""blur"",""0"",""0""
","""event"",""trial"",""time""
""focus"",""0"",""0""
","""event"",""trial"",""time""
""fullscreenenter"",""1"",""6146""
","
",,3,run_exp/static/images/task_images/land.jpg,65,,,,,,,13,,,3,,,,,,,,69825,1,2,FALSE,,,
dig,106,478581,0.0-38.0-0.0,"""event"",""trial"",""time""
""blur"",""0"",""0""
""focus"",""0"",""0""
""fullscreenenter"",""1"",""6146""
","""event"",""trial"",""time""
""blur"",""0"",""0""
","""event"",""trial"",""time""
""focus"",""0"",""0""
","""event"",""trial"",""time""
""fullscreenenter"",""1"",""6146""
","
",,,,,,,,,,,,"[{""stimulus"":""run_exp/static/images/task_images/dig.jpg"",""time"":0},{""stimulus"":""run_exp/static/images/task_images/land.jpg"",""time"":1001},{""stimulus"":""run_exp/static/images/task_images/dig.jpg"",""time"":2004}]",[],3,,,,,,,,,,,,,,
harvest,107,479584,0.0-38.0-1.0,"""event"",""trial"",""time""
""blur"",""0"",""0""
""focus"",""0"",""0""
""fullscreenenter"",""1"",""6146""
","""event"",""trial"",""time""
""blur"",""0"",""0""
","""event"",""trial"",""time""
""focus"",""0"",""0""
","""event"",""trial"",""time""
""fullscreenenter"",""1"",""6146""
","
",,null,run_exp/static/images/task_images/gems/13.jpg,null,,,,,,,7,,,3,,,,,13,0.507760781,0.538461538,,,,,,,
decision,108,480052,0.0-38.0-2.0,"""event"",""trial"",""time""
""blur"",""0"",""0""
""focus"",""0"",""0""
""fullscreenenter"",""1"",""6146""
","""event"",""trial"",""time""
""blur"",""0"",""0""
","""event"",""trial"",""time""
""focus"",""0"",""0""
","""event"",""trial"",""time""
""fullscreenenter"",""1"",""6146""
","
",,466,run_exp/static/images/task_images/land.jpg,65,,,,,,,7,,,3,,,,,,,,74312,1,3,FALSE,,,
dig,109,482606,0.0-39.0-0.0,"""event"",""trial"",""time""
""blur"",""0"",""0""
""focus"",""0"",""0""
""fullscreenenter"",""1"",""6146""
","""event"",""trial"",""time""
""blur"",""0"",""0""
","""event"",""trial"",""time""
""focus"",""0"",""0""
","""event"",""trial"",""time""
""fullscreenenter"",""1"",""6146""
","
",,,,,,,,,,,,"[{""stimulus"":""run_exp/static/images/task_images/dig.jpg"",""time"":0},{""stimulus"":""run_exp/static/images/task_images/land.jpg"",""time"":846},{""stimulus"":""run_exp/static/images/task_images/dig.jpg"",""time"":1695}]",[],3,,,,,,,,,,,,,,
harvest,110,483614,0.0-39.0-1.0,"""event"",""trial"",""time""
""blur"",""0"",""0""
""focus"",""0"",""0""
""fullscreenenter"",""1"",""6146""
","""event"",""trial"",""time""
""blur"",""0"",""0""
","""event"",""trial"",""time""
""focus"",""0"",""0""
","""event"",""trial"",""time""
""fullscreenenter"",""1"",""6146""
","
",,null,run_exp/static/images/task_images/gems/7.jpg,null,,,,,,,3,,,3,,,,,7,0.4867246,0.428571429,,,,,,,
decision,111,484744,0.0-39.0-2.0,"""event"",""trial"",""time""
""blur"",""0"",""0""
""focus"",""0"",""0""
""fullscreenenter"",""1"",""6146""
","""event"",""trial"",""time""
""blur"",""0"",""0""
","""event"",""trial"",""time""
""focus"",""0"",""0""
","""event"",""trial"",""time""
""fullscreenenter"",""1"",""6146""
","
",,1129,run_exp/static/images/task_images/land.jpg,65,,,,,,,3,,,3,,,,,,,,79005,1,4,FALSE,,,
dig,112,486632,0.0-40.0-0.0,"""event"",""trial"",""time""
""blur"",""0"",""0""
""focus"",""0"",""0""
""fullscreenenter"",""1"",""6146""
","""event"",""trial"",""time""
""blur"",""0"",""0""
","""event"",""trial"",""time""
""focus"",""0"",""0""
","""event"",""trial"",""time""
""fullscreenenter"",""1"",""6146""
","
",,,,,,,,,,,,"[{""stimulus"":""run_exp/static/images/task_images/dig.jpg"",""time"":0},{""stimulus"":""run_exp/static/images/task_images/land.jpg"",""time"":629},{""stimulus"":""run_exp/static/images/task_images/dig.jpg"",""time"":1256}]",[],3,,,,,,,,,,,,,,
harvest,113,487635,0.0-40.0-1.0,"""event"",""trial"",""time""
""blur"",""0"",""0""
""focus"",""0"",""0""
""fullscreenenter"",""1"",""6146""
","""event"",""trial"",""time""
""blur"",""0"",""0""
","""event"",""trial"",""time""
""focus"",""0"",""0""
","""event"",""trial"",""time""
""fullscreenenter"",""1"",""6146""
","
",,null,run_exp/static/images/task_images/gems/3.jpg,null,,,,,,,1,,,3,,,,,3,0.470143954,0.333333333,,,,,,,
decision,114,489102,0.0-40.0-2.0,"""event"",""trial"",""time""
""blur"",""0"",""0""
""focus"",""0"",""0""
""fullscreenenter"",""1"",""6146""
","""event"",""trial"",""time""
""blur"",""0"",""0""
","""event"",""trial"",""time""
""focus"",""0"",""0""
","""event"",""trial"",""time""
""fullscreenenter"",""1"",""6146""
","
",,1467,run_exp/static/images/task_images/land.jpg,65,,,,,,,1,,,3,,,,,,,,83363,1,5,FALSE,,,
dig,115,490651,0.0-41.0-0.0,"""event"",""trial"",""time""
""blur"",""0"",""0""
""focus"",""0"",""0""
""fullscreenenter"",""1"",""6146""
","""event"",""trial"",""time""
""blur"",""0"",""0""
","""event"",""trial"",""time""
""focus"",""0"",""0""
","""event"",""trial"",""time""
""fullscreenenter"",""1"",""6146""
","
",,,,,,,,,,,,"[{""stimulus"":""run_exp/static/images/task_images/dig.jpg"",""time"":0},{""stimulus"":""run_exp/static/images/task_images/land.jpg"",""time"":512},{""stimulus"":""run_exp/static/images/task_images/dig.jpg"",""time"":1027}]",[],3,,,,,,,,,,,,,,
harvest,116,491652,0.0-41.0-1.0,"""event"",""trial"",""time""
""blur"",""0"",""0""
""focus"",""0"",""0""
""fullscreenenter"",""1"",""6146""
","""event"",""trial"",""time""
""blur"",""0"",""0""
","""event"",""trial"",""time""
""focus"",""0"",""0""
","""event"",""trial"",""time""
""fullscreenenter"",""1"",""6146""
","
",,null,run_exp/static/images/task_images/gems/1.jpg,null,,,,,,,0,,,3,,,,,1,0.422795185,0,,,,,,,
decision,117,492396,0.0-41.0-2.0,"""event"",""trial"",""time""
""blur"",""0"",""0""
""focus"",""0"",""0""
""fullscreenenter"",""1"",""6146""
","""event"",""trial"",""time""
""blur"",""0"",""0""
","""event"",""trial"",""time""
""focus"",""0"",""0""
","""event"",""trial"",""time""
""fullscreenenter"",""1"",""6146""
","
",,741,run_exp/static/images/task_images/land.jpg,65,,,,,,,0,,,3,,,,,,,,86656,1,6,FALSE,,,
dig,118,494675,0.0-42.0-0.0,"""event"",""trial"",""time""
""blur"",""0"",""0""
""focus"",""0"",""0""
""fullscreenenter"",""1"",""6146""
","""event"",""trial"",""time""
""blur"",""0"",""0""
","""event"",""trial"",""time""
""focus"",""0"",""0""
","""event"",""trial"",""time""
""fullscreenenter"",""1"",""6146""
","
",,,,,,,,,,,,"[{""stimulus"":""run_exp/static/images/task_images/dig.jpg"",""time"":0},{""stimulus"":""run_exp/static/images/task_images/land.jpg"",""time"":758},{""stimulus"":""run_exp/static/images/task_images/dig.jpg"",""time"":1513}]",[],3,,,,,,,,,,,,,,
harvest,119,495682,0.0-42.0-1.0,"""event"",""trial"",""time""
""blur"",""0"",""0""
""focus"",""0"",""0""
""fullscreenenter"",""1"",""6146""
","""event"",""trial"",""time""
""blur"",""0"",""0""
","""event"",""trial"",""time""
""focus"",""0"",""0""
","""event"",""trial"",""time""
""fullscreenenter"",""1"",""6146""
","
",,null,run_exp/static/images/task_images/gems/0.jpg,null,,,,,,,0,,,3,,,,,0,0.46469559,NaN,,,,,,,
decision,120,495753,0.0-42.0-2.0,"""event"",""trial"",""time""
""blur"",""0"",""0""
""focus"",""0"",""0""
""fullscreenenter"",""1"",""6146""
","""event"",""trial"",""time""
""blur"",""0"",""0""
","""event"",""trial"",""time""
""focus"",""0"",""0""
","""event"",""trial"",""time""
""fullscreenenter"",""1"",""6146""
","
",,70,run_exp/static/images/task_images/land.jpg,76,,,,,,,0,,,3,,,,,,,,90013,1,7,TRUE,,,
travel,121,505716,0.0-43.0-0.0,"""event"",""trial"",""time""
""blur"",""0"",""0""
""focus"",""0"",""0""
""fullscreenenter"",""1"",""6146""
","""event"",""trial"",""time""
""blur"",""0"",""0""
","""event"",""trial"",""time""
""focus"",""0"",""0""
","""event"",""trial"",""time""
""fullscreenenter"",""1"",""6146""
","
",,,,,,,,,,,,"[{""stimulus"":""run_exp/static/images/task_images/rocket-01.jpg"",""time"":0},{""stimulus"":""run_exp/static/images/task_images/rocket-02.jpg"",""time"":1104},{""stimulus"":""run_exp/static/images/task_images/rocket-03.jpg"",""time"":2211},{""stimulus"":""run_exp/static/images/task_images/rocket-04.jpg"",""time"":3316},{""stimulus"":""run_exp/static/images/task_images/rocket-05.jpg"",""time"":4425},{""stimulus"":""run_exp/static/images/task_images/rocket-06.jpg"",""time"":5530},{""stimulus"":""run_exp/static/images/task_images/rocket-07.jpg"",""time"":6634},{""stimulus"":""run_exp/static/images/task_images/rocket-08.jpg"",""time"":7740},{""stimulus"":""run_exp/static/images/task_images/rocket-09.jpg"",""time"":8843}]",[],3,,,,,,,,,,,,,,
alien_welcome,122,510726,0.0-43.0-1.0,"""event"",""trial"",""time""
""blur"",""0"",""0""
""focus"",""0"",""0""
""fullscreenenter"",""1"",""6146""
","""event"",""trial"",""time""
""blur"",""0"",""0""
","""event"",""trial"",""time""
""focus"",""0"",""0""
","""event"",""trial"",""time""
""fullscreenenter"",""1"",""6146""
","
",,null,run_exp/static/images/task_images/aliens/old_aliens/planet/alien_planet-67.jpg,null,,,,,,,,,,,,,67,"24,15,56,67,48,4,9,77,75,52,16,69,39,62,30,13,53,71,55,17,21,14,22,6,33,59,51,49,29,10,38,19,28,76,54,63,32,27,5,80,23,45,40,73,35,36,31,47,74,66,11,42",,,,,,,,,,
land,123,511231,0.0-43.0-2.0,"""event"",""trial"",""time""
""blur"",""0"",""0""
""focus"",""0"",""0""
""fullscreenenter"",""1"",""6146""
","""event"",""trial"",""time""
""blur"",""0"",""0""
","""event"",""trial"",""time""
""focus"",""0"",""0""
","""event"",""trial"",""time""
""fullscreenenter"",""1"",""6146""
","
",,null,run_exp/static/images/task_images/land.jpg,null,,,,,,,103,,,4,,,,,,,,,,,,,,
dig,124,513258,0.0-43.0-3.0,"""event"",""trial"",""time""
""blur"",""0"",""0""
""focus"",""0"",""0""
""fullscreenenter"",""1"",""6146""
","""event"",""trial"",""time""
""blur"",""0"",""0""
","""event"",""trial"",""time""
""focus"",""0"",""0""
","""event"",""trial"",""time""
""fullscreenenter"",""1"",""6146""
","
",,,,,,,,,,,,"[{""stimulus"":""run_exp/static/images/task_images/dig.jpg"",""time"":1},{""stimulus"":""run_exp/static/images/task_images/land.jpg"",""time"":669},{""stimulus"":""run_exp/static/images/task_images/dig.jpg"",""time"":1340}]",[],4,,,,,,,,,,,,,,
harvest,125,514263,0.0-43.0-4.0,"""event"",""trial"",""time""
""blur"",""0"",""0""
""focus"",""0"",""0""
""fullscreenenter"",""1"",""6146""
","""event"",""trial"",""time""
""blur"",""0"",""0""
","""event"",""trial"",""time""
""focus"",""0"",""0""
","""event"",""trial"",""time""
""fullscreenenter"",""1"",""6146""
","
",,null,run_exp/static/images/task_images/gems/103.jpg,null,,,,,,,48,,,4,,,,,103,0.463532291,0.466019417,,,,,,,
decision,126,515933,0.0-43.0-5.0,"""event"",""trial"",""time""
""blur"",""0"",""0""
""focus"",""0"",""0""
""fullscreenenter"",""1"",""6146""
","""event"",""trial"",""time""
""blur"",""0"",""0""
","""event"",""trial"",""time""
""focus"",""0"",""0""
","""event"",""trial"",""time""
""fullscreenenter"",""1"",""6146""
","
",,1668,run_exp/static/images/task_images/land.jpg,65,,,,,,,48,,,4,,,,,,,,110194,1,0,FALSE,,,
dig,127,517283,0.0-44.0-0.0,"""event"",""trial"",""time""
""blur"",""0"",""0""
""focus"",""0"",""0""
""fullscreenenter"",""1"",""6146""
","""event"",""trial"",""time""
""blur"",""0"",""0""
","""event"",""trial"",""time""
""focus"",""0"",""0""
","""event"",""trial"",""time""
""fullscreenenter"",""1"",""6146""
","
",,,,,,,,,,,,"[{""stimulus"":""run_exp/static/images/task_images/dig.jpg"",""time"":0},{""stimulus"":""run_exp/static/images/task_images/land.jpg"",""time"":446},{""stimulus"":""run_exp/static/images/task_images/dig.jpg"",""time"":890}]",[],4,,,,,,,,,,,,,,
harvest,128,518290,0.0-44.0-1.0,"""event"",""trial"",""time""
""blur"",""0"",""0""
""focus"",""0"",""0""
""fullscreenenter"",""1"",""6146""
","""event"",""trial"",""time""
""blur"",""0"",""0""
","""event"",""trial"",""time""
""focus"",""0"",""0""
","""event"",""trial"",""time""
""fullscreenenter"",""1"",""6146""
","
",,null,run_exp/static/images/task_images/gems/48.jpg,null,,,,,,,23,,,4,,,,,48,0.476573977,0.479166667,,,,,,,
decision,129,520704,0.0-44.0-2.0,"""event"",""trial"",""time""
""blur"",""0"",""0""
""focus"",""0"",""0""
""fullscreenenter"",""1"",""6146""
","""event"",""trial"",""time""
""blur"",""0"",""0""
","""event"",""trial"",""time""
""focus"",""0"",""0""
","""event"",""trial"",""time""
""fullscreenenter"",""1"",""6146""
","
",,2411,run_exp/static/images/task_images/land.jpg,65,,,,,,,23,,,4,,,,,,,,114964,1,1,FALSE,,,
dig,130,521310,0.0-45.0-0.0,"""event"",""trial"",""time""
""blur"",""0"",""0""
""focus"",""0"",""0""
""fullscreenenter"",""1"",""6146""
","""event"",""trial"",""time""
""blur"",""0"",""0""
","""event"",""trial"",""time""
""focus"",""0"",""0""
","""event"",""trial"",""time""
""fullscreenenter"",""1"",""6146""
","
",,,,,,,,,,,,"[{""stimulus"":""run_exp/static/images/task_images/dig.jpg"",""time"":1},{""stimulus"":""run_exp/static/images/task_images/land.jpg"",""time"":198},{""stimulus"":""run_exp/static/images/task_images/dig.jpg"",""time"":400}]",[],4,,,,,,,,,,,,,,
harvest,131,522317,0.0-45.0-1.0,"""event"",""trial"",""time""
""blur"",""0"",""0""
""focus"",""0"",""0""
""fullscreenenter"",""1"",""6146""
","""event"",""trial"",""time""
""blur"",""0"",""0""
","""event"",""trial"",""time""
""focus"",""0"",""0""
","""event"",""trial"",""time""
""fullscreenenter"",""1"",""6146""
","
",,null,run_exp/static/images/task_images/gems/23.jpg,null,,,,,,,11,,,4,,,,,23,0.459649572,0.47826087,,,,,,,
decision,132,522437,0.0-45.0-2.0,"""event"",""trial"",""time""
""blur"",""0"",""0""
""focus"",""0"",""0""
""fullscreenenter"",""1"",""6146""
","""event"",""trial"",""time""
""blur"",""0"",""0""
","""event"",""trial"",""time""
""focus"",""0"",""0""
","""event"",""trial"",""time""
""fullscreenenter"",""1"",""6146""
","
",,117,run_exp/static/images/task_images/land.jpg,65,,,,,,,11,,,4,,,,,,,,116698,1,2,FALSE,,,
dig,133,525338,0.0-46.0-0.0,"""event"",""trial"",""time""
""blur"",""0"",""0""
""focus"",""0"",""0""
""fullscreenenter"",""1"",""6146""
","""event"",""trial"",""time""
""blur"",""0"",""0""
","""event"",""trial"",""time""
""focus"",""0"",""0""
","""event"",""trial"",""time""
""fullscreenenter"",""1"",""6146""
","
",,,,,,,,,,,,"[{""stimulus"":""run_exp/static/images/task_images/dig.jpg"",""time"":0},{""stimulus"":""run_exp/static/images/task_images/land.jpg"",""time"":963},{""stimulus"":""run_exp/static/images/task_images/dig.jpg"",""time"":1926}]",[],4,,,,,,,,,,,,,,
harvest,134,526344,0.0-46.0-1.0,"""event"",""trial"",""time""
""blur"",""0"",""0""
""focus"",""0"",""0""
""fullscreenenter"",""1"",""6146""
","""event"",""trial"",""time""
""blur"",""0"",""0""
","""event"",""trial"",""time""
""focus"",""0"",""0""
","""event"",""trial"",""time""
""fullscreenenter"",""1"",""6146""
","
",,null,run_exp/static/images/task_images/gems/11.jpg,null,,,,,,,6,,,4,,,,,11,0.530588213,0.545454545,,,,,,,
decision,135,527007,0.0-46.0-2.0,"""event"",""trial"",""time""
""blur"",""0"",""0""
""focus"",""0"",""0""
""fullscreenenter"",""1"",""6146""
","""event"",""trial"",""time""
""blur"",""0"",""0""
","""event"",""trial"",""time""
""focus"",""0"",""0""
","""event"",""trial"",""time""
""fullscreenenter"",""1"",""6146""
","
",,661,run_exp/static/images/task_images/land.jpg,65,,,,,,,6,,,4,,,,,,,,121267,1,3,FALSE,,,
dig,136,529360,0.0-47.0-0.0,"""event"",""trial"",""time""
""blur"",""0"",""0""
""focus"",""0"",""0""
""fullscreenenter"",""1"",""6146""
","""event"",""trial"",""time""
""blur"",""0"",""0""
","""event"",""trial"",""time""
""focus"",""0"",""0""
","""event"",""trial"",""time""
""fullscreenenter"",""1"",""6146""
","
",,,,,,,,,,,,"[{""stimulus"":""run_exp/static/images/task_images/dig.jpg"",""time"":0},{""stimulus"":""run_exp/static/images/task_images/land.jpg"",""time"":781},{""stimulus"":""run_exp/static/images/task_images/dig.jpg"",""time"":1562}]",[],4,,,,,,,,,,,,,,
harvest,137,530367,0.0-47.0-1.0,"""event"",""trial"",""time""
""blur"",""0"",""0""
""focus"",""0"",""0""
""fullscreenenter"",""1"",""6146""
","""event"",""trial"",""time""
""blur"",""0"",""0""
","""event"",""trial"",""time""
""focus"",""0"",""0""
","""event"",""trial"",""time""
""fullscreenenter"",""1"",""6146""
","
",,null,run_exp/static/images/task_images/gems/6.jpg,null,,,,,,,3,,,4,,,,,6,0.502093112,0.5,,,,,,,
decision,138,530986,0.0-47.0-2.0,"""event"",""trial"",""time""
""blur"",""0"",""0""
""focus"",""0"",""0""
""fullscreenenter"",""1"",""6146""
","""event"",""trial"",""time""
""blur"",""0"",""0""
","""event"",""trial"",""time""
""focus"",""0"",""0""
","""event"",""trial"",""time""
""fullscreenenter"",""1"",""6146""
","
",,616,run_exp/static/images/task_images/land.jpg,65,,,,,,,3,,,4,,,,,,,,125246,1,4,FALSE,,,
dig,139,533383,0.0-48.0-0.0,"""event"",""trial"",""time""
""blur"",""0"",""0""
""focus"",""0"",""0""
""fullscreenenter"",""1"",""6146""
","""event"",""trial"",""time""
""blur"",""0"",""0""
","""event"",""trial"",""time""
""focus"",""0"",""0""
","""event"",""trial"",""time""
""fullscreenenter"",""1"",""6146""
","
",,,,,,,,,,,,"[{""stimulus"":""run_exp/static/images/task_images/dig.jpg"",""time"":0},{""stimulus"":""run_exp/static/images/task_images/land.jpg"",""time"":796},{""stimulus"":""run_exp/static/images/task_images/dig.jpg"",""time"":1591}]",[],4,,,,,,,,,,,,,,
harvest,140,534388,0.0-48.0-1.0,"""event"",""trial"",""time""
""blur"",""0"",""0""
""focus"",""0"",""0""
""fullscreenenter"",""1"",""6146""
","""event"",""trial"",""time""
""blur"",""0"",""0""
","""event"",""trial"",""time""
""focus"",""0"",""0""
","""event"",""trial"",""time""
""fullscreenenter"",""1"",""6146""
","
",,null,run_exp/static/images/task_images/gems/3.jpg,null,,,,,,,2,,,4,,,,,3,0.516090656,0.666666667,,,,,,,
decision,141,534959,0.0-48.0-2.0,"""event"",""trial"",""time""
""blur"",""0"",""0""
""focus"",""0"",""0""
""fullscreenenter"",""1"",""6146""
","""event"",""trial"",""time""
""blur"",""0"",""0""
","""event"",""trial"",""time""
""focus"",""0"",""0""
","""event"",""trial"",""time""
""fullscreenenter"",""1"",""6146""
","
",,567,run_exp/static/images/task_images/land.jpg,65,,,,,,,2,,,4,,,,,,,,129219,1,5,FALSE,,,
dig,142,537411,0.0-49.0-0.0,"""event"",""trial"",""time""
""blur"",""0"",""0""
""focus"",""0"",""0""
""fullscreenenter"",""1"",""6146""
","""event"",""trial"",""time""
""blur"",""0"",""0""
","""event"",""trial"",""time""
""focus"",""0"",""0""
","""event"",""trial"",""time""
""fullscreenenter"",""1"",""6146""
","
",,,,,,,,,,,,"[{""stimulus"":""run_exp/static/images/task_images/dig.jpg"",""time"":0},{""stimulus"":""run_exp/static/images/task_images/land.jpg"",""time"":815},{""stimulus"":""run_exp/static/images/task_images/dig.jpg"",""time"":1630}]",[],4,,,,,,,,,,,,,,
harvest,143,538416,0.0-49.0-1.0,"""event"",""trial"",""time""
""blur"",""0"",""0""
""focus"",""0"",""0""
""fullscreenenter"",""1"",""6146""
","""event"",""trial"",""time""
""blur"",""0"",""0""
","""event"",""trial"",""time""
""focus"",""0"",""0""
","""event"",""trial"",""time""
""fullscreenenter"",""1"",""6146""
","
",,null,run_exp/static/images/task_images/gems/2.jpg,null,,,,,,,1,,,4,,,,,2,0.494218106,0.5,,,,,,,
decision,144,538634,0.0-49.0-2.0,"""event"",""trial"",""time""
""blur"",""0"",""0""
""focus"",""0"",""0""
""fullscreenenter"",""1"",""6146""
","""event"",""trial"",""time""
""blur"",""0"",""0""
","""event"",""trial"",""time""
""focus"",""0"",""0""
","""event"",""trial"",""time""
""fullscreenenter"",""1"",""6146""
","
",,216,run_exp/static/images/task_images/land.jpg,65,,,,,,,1,,,4,,,,,,,,132894,1,6,FALSE,,,
dig,145,541439,0.0-50.0-0.0,"""event"",""trial"",""time""
""blur"",""0"",""0""
""focus"",""0"",""0""
""fullscreenenter"",""1"",""6146""
","""event"",""trial"",""time""
""blur"",""0"",""0""
","""event"",""trial"",""time""
""focus"",""0"",""0""
","""event"",""trial"",""time""
""fullscreenenter"",""1"",""6146""
","
",,,,,,,,,,,,"[{""stimulus"":""run_exp/static/images/task_images/dig.jpg"",""time"":0},{""stimulus"":""run_exp/static/images/task_images/land.jpg"",""time"":932},{""stimulus"":""run_exp/static/images/task_images/dig.jpg"",""time"":1865}]",[],4,,,,,,,,,,,,,,
harvest,146,542446,0.0-50.0-1.0,"""event"",""trial"",""time""
""blur"",""0"",""0""
""focus"",""0"",""0""
""fullscreenenter"",""1"",""6146""
","""event"",""trial"",""time""
""blur"",""0"",""0""
","""event"",""trial"",""time""
""focus"",""0"",""0""
","""event"",""trial"",""time""
""fullscreenenter"",""1"",""6146""
","
",,null,run_exp/static/images/task_images/gems/1.jpg,null,,,,,,,1,,,4,,,,,1,0.50713103,1,,,,,,,
decision,147,542646,0.0-50.0-2.0,"""event"",""trial"",""time""
""blur"",""0"",""0""
""focus"",""0"",""0""
""fullscreenenter"",""1"",""6146""
","""event"",""trial"",""time""
""blur"",""0"",""0""
","""event"",""trial"",""time""
""focus"",""0"",""0""
","""event"",""trial"",""time""
""fullscreenenter"",""1"",""6146""
","
",,198,run_exp/static/images/task_images/land.jpg,65,,,,,,,1,,,4,,,,,,,,136906,1,7,FALSE,,,
dig,148,545464,0.0-51.0-0.0,"""event"",""trial"",""time""
""blur"",""0"",""0""
""focus"",""0"",""0""
""fullscreenenter"",""1"",""6146""
","""event"",""trial"",""time""
""blur"",""0"",""0""
","""event"",""trial"",""time""
""focus"",""0"",""0""
","""event"",""trial"",""time""
""fullscreenenter"",""1"",""6146""
","
",,,,,,,,,,,,"[{""stimulus"":""run_exp/static/images/task_images/dig.jpg"",""time"":0},{""stimulus"":""run_exp/static/images/task_images/land.jpg"",""time"":936},{""stimulus"":""run_exp/static/images/task_images/dig.jpg"",""time"":1872}]",[],4,,,,,,,,,,,,,,
harvest,149,546471,0.0-51.0-1.0,"""event"",""trial"",""time""
""blur"",""0"",""0""
""focus"",""0"",""0""
""fullscreenenter"",""1"",""6146""
","""event"",""trial"",""time""
""blur"",""0"",""0""
","""event"",""trial"",""time""
""focus"",""0"",""0""
","""event"",""trial"",""time""
""fullscreenenter"",""1"",""6146""
","
",,null,run_exp/static/images/task_images/gems/1.jpg,null,,,,,,,0,,,4,,,,,1,0.45014946,0,,,,,,,
decision,150,547307,0.0-51.0-2.0,"""event"",""trial"",""time""
""blur"",""0"",""0""
""focus"",""0"",""0""
""fullscreenenter"",""1"",""6146""
","""event"",""trial"",""time""
""blur"",""0"",""0""
","""event"",""trial"",""time""
""focus"",""0"",""0""
","""event"",""trial"",""time""
""fullscreenenter"",""1"",""6146""
","
",,834,run_exp/static/images/task_images/land.jpg,65,,,,,,,0,,,4,,,,,,,,141567,1,8,FALSE,,,
dig,151,549495,0.0-52.0-0.0,"""event"",""trial"",""time""
""blur"",""0"",""0""
""focus"",""0"",""0""
""fullscreenenter"",""1"",""6146""
","""event"",""trial"",""time""
""blur"",""0"",""0""
","""event"",""trial"",""time""
""focus"",""0"",""0""
","""event"",""trial"",""time""
""fullscreenenter"",""1"",""6146""
","
",,,,,,,,,,,,"[{""stimulus"":""run_exp/static/images/task_images/dig.jpg"",""time"":0},{""stimulus"":""run_exp/static/images/task_images/land.jpg"",""time"":726},{""stimulus"":""run_exp/static/images/task_images/dig.jpg"",""time"":1454}]",[],4,,,,,,,,,,,,,,
harvest,152,550501,0.0-52.0-1.0,"""event"",""trial"",""time""
""blur"",""0"",""0""
""focus"",""0"",""0""
""fullscreenenter"",""1"",""6146""
","""event"",""trial"",""time""
""blur"",""0"",""0""
","""event"",""trial"",""time""
""focus"",""0"",""0""
","""event"",""trial"",""time""
""fullscreenenter"",""1"",""6146""
","
",,null,run_exp/static/images/task_images/gems/0.jpg,null,,,,,,,0,,,4,,,,,0,0.441887458,NaN,,,,,,,
decision,153,550999,0.0-52.0-2.0,"""event"",""trial"",""time""
""blur"",""0"",""0""
""focus"",""0"",""0""
""fullscreenenter"",""1"",""6146""
","""event"",""trial"",""time""
""blur"",""0"",""0""
","""event"",""trial"",""time""
""focus"",""0"",""0""
","""event"",""trial"",""time""
""fullscreenenter"",""1"",""6146""
","
",,497,run_exp/static/images/task_images/land.jpg,76,,,,,,,0,,,4,,,,,,,,145259,1,9,TRUE,,,
travel,154,560528,0.0-53.0-0.0,"""event"",""trial"",""time""
""blur"",""0"",""0""
""focus"",""0"",""0""
""fullscreenenter"",""1"",""6146""
","""event"",""trial"",""time""
""blur"",""0"",""0""
","""event"",""trial"",""time""
""focus"",""0"",""0""
","""event"",""trial"",""time""
""fullscreenenter"",""1"",""6146""
","
",,,,,,,,,,,,"[{""stimulus"":""run_exp/static/images/task_images/rocket-01.jpg"",""time"":0},{""stimulus"":""run_exp/static/images/task_images/rocket-02.jpg"",""time"":1058},{""stimulus"":""run_exp/static/images/task_images/rocket-03.jpg"",""time"":2115},{""stimulus"":""run_exp/static/images/task_images/rocket-04.jpg"",""time"":3175},{""stimulus"":""run_exp/static/images/task_images/rocket-05.jpg"",""time"":4234},{""stimulus"":""run_exp/static/images/task_images/rocket-06.jpg"",""time"":5297},{""stimulus"":""run_exp/static/images/task_images/rocket-07.jpg"",""time"":6348},{""stimulus"":""run_exp/static/images/task_images/rocket-08.jpg"",""time"":7407},{""stimulus"":""run_exp/static/images/task_images/rocket-09.jpg"",""time"":8463}]",[],4,,,,,,,,,,,,,,
alien_welcome,155,565538,0.0-53.0-1.0,"""event"",""trial"",""time""
""blur"",""0"",""0""
""focus"",""0"",""0""
""fullscreenenter"",""1"",""6146""
","""event"",""trial"",""time""
""blur"",""0"",""0""
","""event"",""trial"",""time""
""focus"",""0"",""0""
","""event"",""trial"",""time""
""fullscreenenter"",""1"",""6146""
","
",,null,run_exp/static/images/task_images/aliens/old_aliens/planet/alien_planet-48.jpg,null,,,,,,,,,,,,,48,"24,15,56,67,48,4,9,77,75,52,16,69,39,62,30,13,53,71,55,17,21,14,22,6,33,59,51,49,29,10,38,19,28,76,54,63,32,27,5,80,23,45,40,73,35,36,31,47,74,66,11,42",,,,,,,,,,
land,156,566047,0.0-53.0-2.0,"""event"",""trial"",""time""
""blur"",""0"",""0""
""focus"",""0"",""0""
""fullscreenenter"",""1"",""6146""
","""event"",""trial"",""time""
""blur"",""0"",""0""
","""event"",""trial"",""time""
""focus"",""0"",""0""
","""event"",""trial"",""time""
""fullscreenenter"",""1"",""6146""
","
",,null,run_exp/static/images/task_images/land.jpg,null,,,,,,,105,,,5,,,,,,,,,,,,,,
dig,157,568072,0.0-53.0-3.0,"""event"",""trial"",""time""
""blur"",""0"",""0""
""focus"",""0"",""0""
""fullscreenenter"",""1"",""6146""
","""event"",""trial"",""time""
""blur"",""0"",""0""
","""event"",""trial"",""time""
""focus"",""0"",""0""
","""event"",""trial"",""time""
""fullscreenenter"",""1"",""6146""
","
",,,,,,,,,,,,"[{""stimulus"":""run_exp/static/images/task_images/dig.jpg"",""time"":0},{""stimulus"":""run_exp/static/images/task_images/land.jpg"",""time"":669},{""stimulus"":""run_exp/static/images/task_images/dig.jpg"",""time"":1342}]",[],5,,,,,,,,,,,,,,
harvest,158,569080,0.0-53.0-4.0,"""event"",""trial"",""time""
""blur"",""0"",""0""
""focus"",""0"",""0""
""fullscreenenter"",""1"",""6146""
","""event"",""trial"",""time""
""blur"",""0"",""0""
","""event"",""trial"",""time""
""focus"",""0"",""0""
","""event"",""trial"",""time""
""fullscreenenter"",""1"",""6146""
","
",,null,run_exp/static/images/task_images/gems/105.jpg,null,,,,,,,59,,,5,,,,,105,0.558054634,0.561904762,,,,,,,
decision,159,570129,0.0-53.0-5.0,"""event"",""trial"",""time""
""blur"",""0"",""0""
""focus"",""0"",""0""
""fullscreenenter"",""1"",""6146""
","""event"",""trial"",""time""
""blur"",""0"",""0""
","""event"",""trial"",""time""
""focus"",""0"",""0""
","""event"",""trial"",""time""
""fullscreenenter"",""1"",""6146""
","
",,1045,run_exp/static/images/task_images/land.jpg,65,,,,,,,59,,,5,,,,,,,,164389,1,0,FALSE,,,
dig,160,572106,0.0-54.0-0.0,"""event"",""trial"",""time""
""blur"",""0"",""0""
""focus"",""0"",""0""
""fullscreenenter"",""1"",""6146""
","""event"",""trial"",""time""
""blur"",""0"",""0""
","""event"",""trial"",""time""
""focus"",""0"",""0""
","""event"",""trial"",""time""
""fullscreenenter"",""1"",""6146""
","
",,,,,,,,,,,,"[{""stimulus"":""run_exp/static/images/task_images/dig.jpg"",""time"":0},{""stimulus"":""run_exp/static/images/task_images/land.jpg"",""time"":654},{""stimulus"":""run_exp/static/images/task_images/dig.jpg"",""time"":1310}]",[],5,,,,,,,,,,,,,,
harvest,161,573113,0.0-54.0-1.0,"""event"",""trial"",""time""
""blur"",""0"",""0""
""focus"",""0"",""0""
""fullscreenenter"",""1"",""6146""
","""event"",""trial"",""time""
""blur"",""0"",""0""
","""event"",""trial"",""time""
""focus"",""0"",""0""
","""event"",""trial"",""time""
""fullscreenenter"",""1"",""6146""
","
",,null,run_exp/static/images/task_images/gems/59.jpg,null,,,,,,,26,,,5,,,,,59,0.446820519,0.440677966,,,,,,,
decision,162,573794,0.0-54.0-2.0,"""event"",""trial"",""time""
""blur"",""0"",""0""
""focus"",""0"",""0""
""fullscreenenter"",""1"",""6146""
","""event"",""trial"",""time""
""blur"",""0"",""0""
","""event"",""trial"",""time""
""focus"",""0"",""0""
","""event"",""trial"",""time""
""fullscreenenter"",""1"",""6146""
","
",,678,run_exp/static/images/task_images/land.jpg,65,,,,,,,26,,,5,,,,,,,,168054,1,1,FALSE,,,
dig,163,576138,0.0-55.0-0.0,"""event"",""trial"",""time""
""blur"",""0"",""0""
""focus"",""0"",""0""
""fullscreenenter"",""1"",""6146""
","""event"",""trial"",""time""
""blur"",""0"",""0""
","""event"",""trial"",""time""
""focus"",""0"",""0""
","""event"",""trial"",""time""
""fullscreenenter"",""1"",""6146""
","
",,,,,,,,,,,,"[{""stimulus"":""run_exp/static/images/task_images/dig.jpg"",""time"":0},{""stimulus"":""run_exp/static/images/task_images/land.jpg"",""time"":780},{""stimulus"":""run_exp/static/images/task_images/dig.jpg"",""time"":1556}]",[],5,,,,,,,,,,,,,,
harvest,164,577146,0.0-55.0-1.0,"""event"",""trial"",""time""
""blur"",""0"",""0""
""focus"",""0"",""0""
""fullscreenenter"",""1"",""6146""
","""event"",""trial"",""time""
""blur"",""0"",""0""
","""event"",""trial"",""time""
""focus"",""0"",""0""
","""event"",""trial"",""time""
""fullscreenenter"",""1"",""6146""
","
",,null,run_exp/static/images/task_images/gems/26.jpg,null,,,,,,,10,,,5,,,,,26,0.380673706,0.384615385,,,,,,,
decision,165,577617,0.0-55.0-2.0,"""event"",""trial"",""time""
""blur"",""0"",""0""
""focus"",""0"",""0""
""fullscreenenter"",""1"",""6146""
","""event"",""trial"",""time""
""blur"",""0"",""0""
","""event"",""trial"",""time""
""focus"",""0"",""0""
","""event"",""trial"",""time""
""fullscreenenter"",""1"",""6146""
","
",,469,run_exp/static/images/task_images/land.jpg,65,,,,,,,10,,,5,,,,,,,,171878,1,2,FALSE,,,
dig,166,580164,0.0-56.0-0.0,"""event"",""trial"",""time""
""blur"",""0"",""0""
""focus"",""0"",""0""
""fullscreenenter"",""1"",""6146""
","""event"",""trial"",""time""
""blur"",""0"",""0""
","""event"",""trial"",""time""
""focus"",""0"",""0""
","""event"",""trial"",""time""
""fullscreenenter"",""1"",""6146""
","
",,,,,,,,,,,,"[{""stimulus"":""run_exp/static/images/task_images/dig.jpg"",""time"":1},{""stimulus"":""run_exp/static/images/task_images/land.jpg"",""time"":845},{""stimulus"":""run_exp/static/images/task_images/dig.jpg"",""time"":1693}]",[],5,,,,,,,,,,,,,,
harvest,167,581171,0.0-56.0-1.0,"""event"",""trial"",""time""
""blur"",""0"",""0""
""focus"",""0"",""0""
""fullscreenenter"",""1"",""6146""
","""event"",""trial"",""time""
""blur"",""0"",""0""
","""event"",""trial"",""time""
""focus"",""0"",""0""
","""event"",""trial"",""time""
""fullscreenenter"",""1"",""6146""
","
",,null,run_exp/static/images/task_images/gems/10.jpg,null,,,,,,,4,,,5,,,,,10,0.427872387,0.4,,,,,,,
decision,168,582316,0.0-56.0-2.0,"""event"",""trial"",""time""
""blur"",""0"",""0""
""focus"",""0"",""0""
""fullscreenenter"",""1"",""6146""
","""event"",""trial"",""time""
""blur"",""0"",""0""
","""event"",""trial"",""time""
""focus"",""0"",""0""
","""event"",""trial"",""time""
""fullscreenenter"",""1"",""6146""
","
",,1143,run_exp/static/images/task_images/land.jpg,65,,,,,,,4,,,5,,,,,,,,176577,1,3,FALSE,,,
dig,169,584197,0.0-57.0-0.0,"""event"",""trial"",""time""
""blur"",""0"",""0""
""focus"",""0"",""0""
""fullscreenenter"",""1"",""6146""
","""event"",""trial"",""time""
""blur"",""0"",""0""
","""event"",""trial"",""time""
""focus"",""0"",""0""
","""event"",""trial"",""time""
""fullscreenenter"",""1"",""6146""
","
",,,,,,,,,,,,"[{""stimulus"":""run_exp/static/images/task_images/dig.jpg"",""time"":0},{""stimulus"":""run_exp/static/images/task_images/land.jpg"",""time"":624},{""stimulus"":""run_exp/static/images/task_images/dig.jpg"",""time"":1248}]",[],5,,,,,,,,,,,,,,
harvest,170,585200,0.0-57.0-1.0,"""event"",""trial"",""time""
""blur"",""0"",""0""
""focus"",""0"",""0""
""fullscreenenter"",""1"",""6146""
","""event"",""trial"",""time""
""blur"",""0"",""0""
","""event"",""trial"",""time""
""focus"",""0"",""0""
","""event"",""trial"",""time""
""fullscreenenter"",""1"",""6146""
","
",,null,run_exp/static/images/task_images/gems/4.jpg,null,,,,,,,2,,,5,,,,,4,0.559657662,0.5,,,,,,,
decision,171,585414,0.0-57.0-2.0,"""event"",""trial"",""time""
""blur"",""0"",""0""
""focus"",""0"",""0""
""fullscreenenter"",""1"",""6146""
","""event"",""trial"",""time""
""blur"",""0"",""0""
","""event"",""trial"",""time""
""focus"",""0"",""0""
","""event"",""trial"",""time""
""fullscreenenter"",""1"",""6146""
","
",,211,run_exp/static/images/task_images/land.jpg,65,,,,,,,2,,,5,,,,,,,,179674,1,4,FALSE,,,
dig,172,588223,0.0-58.0-0.0,"""event"",""trial"",""time""
""blur"",""0"",""0""
""focus"",""0"",""0""
""fullscreenenter"",""1"",""6146""
","""event"",""trial"",""time""
""blur"",""0"",""0""
","""event"",""trial"",""time""
""focus"",""0"",""0""
","""event"",""trial"",""time""
""fullscreenenter"",""1"",""6146""
","
",,,,,,,,,,,,"[{""stimulus"":""run_exp/static/images/task_images/dig.jpg"",""time"":0},{""stimulus"":""run_exp/static/images/task_images/land.jpg"",""time"":934},{""stimulus"":""run_exp/static/images/task_images/dig.jpg"",""time"":1867}]",[],5,,,,,,,,,,,,,,
harvest,173,589231,0.0-58.0-1.0,"""event"",""trial"",""time""
""blur"",""0"",""0""
""focus"",""0"",""0""
""fullscreenenter"",""1"",""6146""
","""event"",""trial"",""time""
""blur"",""0"",""0""
","""event"",""trial"",""time""
""focus"",""0"",""0""
","""event"",""trial"",""time""
""fullscreenenter"",""1"",""6146""
","
",,null,run_exp/static/images/task_images/gems/2.jpg,null,,,,,,,1,,,5,,,,,2,0.503898126,0.5,,,,,,,
decision,174,589648,0.0-58.0-2.0,"""event"",""trial"",""time""
""blur"",""0"",""0""
""focus"",""0"",""0""
""fullscreenenter"",""1"",""6146""
","""event"",""trial"",""time""
""blur"",""0"",""0""
","""event"",""trial"",""time""
""focus"",""0"",""0""
","""event"",""trial"",""time""
""fullscreenenter"",""1"",""6146""
","
",,416,run_exp/static/images/task_images/land.jpg,65,,,,,,,1,,,5,,,,,,,,183908,1,5,FALSE,,,
dig,175,592249,0.0-59.0-0.0,"""event"",""trial"",""time""
""blur"",""0"",""0""
""focus"",""0"",""0""
""fullscreenenter"",""1"",""6146""
","""event"",""trial"",""time""
""blur"",""0"",""0""
","""event"",""trial"",""time""
""focus"",""0"",""0""
","""event"",""trial"",""time""
""fullscreenenter"",""1"",""6146""
","
",,,,,,,,,,,,"[{""stimulus"":""run_exp/static/images/task_images/dig.jpg"",""time"":1},{""stimulus"":""run_exp/static/images/task_images/land.jpg"",""time"":865},{""stimulus"":""run_exp/static/images/task_images/dig.jpg"",""time"":1729}]",[],5,,,,,,,,,,,,,,
harvest,176,593256,0.0-59.0-1.0,"""event"",""trial"",""time""
""blur"",""0"",""0""
""focus"",""0"",""0""
""fullscreenenter"",""1"",""6146""
","""event"",""trial"",""time""
""blur"",""0"",""0""
","""event"",""trial"",""time""
""focus"",""0"",""0""
","""event"",""trial"",""time""
""fullscreenenter"",""1"",""6146""
","
",,null,run_exp/static/images/task_images/gems/1.jpg,null,,,,,,,0,,,5,,,,,1,0.481471313,0,,,,,,,
decision,177,593884,0.0-59.0-2.0,"""event"",""trial"",""time""
""blur"",""0"",""0""
""focus"",""0"",""0""
""fullscreenenter"",""1"",""6146""
","""event"",""trial"",""time""
""blur"",""0"",""0""
","""event"",""trial"",""time""
""focus"",""0"",""0""
","""event"",""trial"",""time""
""fullscreenenter"",""1"",""6146""
","
",,627,run_exp/static/images/task_images/land.jpg,65,,,,,,,0,,,5,,,,,,,,188145,1,6,FALSE,,,
dig,178,596285,0.0-60.0-0.0,"""event"",""trial"",""time""
""blur"",""0"",""0""
""focus"",""0"",""0""
""fullscreenenter"",""1"",""6146""
","""event"",""trial"",""time""
""blur"",""0"",""0""
","""event"",""trial"",""time""
""focus"",""0"",""0""
","""event"",""trial"",""time""
""fullscreenenter"",""1"",""6146""
","
",,,,,,,,,,,,"[{""stimulus"":""run_exp/static/images/task_images/dig.jpg"",""time"":0},{""stimulus"":""run_exp/static/images/task_images/land.jpg"",""time"":797},{""stimulus"":""run_exp/static/images/task_images/dig.jpg"",""time"":1593}]",[],5,,,,,,,,,,,,,,
harvest,179,597289,0.0-60.0-1.0,"""event"",""trial"",""time""
""blur"",""0"",""0""
""focus"",""0"",""0""
""fullscreenenter"",""1"",""6146""
","""event"",""trial"",""time""
""blur"",""0"",""0""
","""event"",""trial"",""time""
""focus"",""0"",""0""
","""event"",""trial"",""time""
""fullscreenenter"",""1"",""6146""
","
",,null,run_exp/static/images/task_images/gems/0.jpg,null,,,,,,,0,,,5,,,,,0,0.436963336,NaN,,,,,,,
decision,180,598421,0.0-60.0-2.0,"""event"",""trial"",""time""
""blur"",""0"",""0""
""focus"",""0"",""0""
""fullscreenenter"",""1"",""6146""
","""event"",""trial"",""time""
""blur"",""0"",""0""
","""event"",""trial"",""time""
""focus"",""0"",""0""
","""event"",""trial"",""time""
""fullscreenenter"",""1"",""6146""
","
",,1126,run_exp/static/images/task_images/land.jpg,76,,,,,,,0,,,5,,,,,,,,192681,1,7,TRUE,,,
travel,181,607324,0.0-61.0-0.0,"""event"",""trial"",""time""
""blur"",""0"",""0""
""focus"",""0"",""0""
""fullscreenenter"",""1"",""6146""
","""event"",""trial"",""time""
""blur"",""0"",""0""
","""event"",""trial"",""time""
""focus"",""0"",""0""
","""event"",""trial"",""time""
""fullscreenenter"",""1"",""6146""
","
",,,,,,,,,,,,"[{""stimulus"":""run_exp/static/images/task_images/rocket-01.jpg"",""time"":0},{""stimulus"":""run_exp/static/images/task_images/rocket-02.jpg"",""time"":987},{""stimulus"":""run_exp/static/images/task_images/rocket-03.jpg"",""time"":1974},{""stimulus"":""run_exp/static/images/task_images/rocket-04.jpg"",""time"":2964},{""stimulus"":""run_exp/static/images/task_images/rocket-05.jpg"",""time"":3951},{""stimulus"":""run_exp/static/images/task_images/rocket-06.jpg"",""time"":4938},{""stimulus"":""run_exp/static/images/task_images/rocket-07.jpg"",""time"":5925},{""stimulus"":""run_exp/static/images/task_images/rocket-08.jpg"",""time"":6916},{""stimulus"":""run_exp/static/images/task_images/rocket-09.jpg"",""time"":7903}]",[],5,,,,,,,,,,,,,,
alien_welcome,182,612331,0.0-61.0-1.0,"""event"",""trial"",""time""
""blur"",""0"",""0""
""focus"",""0"",""0""
""fullscreenenter"",""1"",""6146""
","""event"",""trial"",""time""
""blur"",""0"",""0""
","""event"",""trial"",""time""
""focus"",""0"",""0""
","""event"",""trial"",""time""
""fullscreenenter"",""1"",""6146""
","
",,null,run_exp/static/images/task_images/aliens/old_aliens/planet/alien_planet-4.jpg,null,,,,,,,,,,,,,4,"24,15,56,67,48,4,9,77,75,52,16,69,39,62,30,13,53,71,55,17,21,14,22,6,33,59,51,49,29,10,38,19,28,76,54,63,32,27,5,80,23,45,40,73,35,36,31,47,74,66,11,42",,,,,,,,,,
land,183,612836,0.0-61.0-2.0,"""event"",""trial"",""time""
""blur"",""0"",""0""
""focus"",""0"",""0""
""fullscreenenter"",""1"",""6146""
","""event"",""trial"",""time""
""blur"",""0"",""0""
","""event"",""trial"",""time""
""focus"",""0"",""0""
","""event"",""trial"",""time""
""fullscreenenter"",""1"",""6146""
","
",,null,run_exp/static/images/task_images/land.jpg,null,,,,,,,104,,,6,,,,,,,,,,,,,,
dig,184,614857,0.0-61.0-3.0,"""event"",""trial"",""time""
""blur"",""0"",""0""
""focus"",""0"",""0""
""fullscreenenter"",""1"",""6146""
","""event"",""trial"",""time""
""blur"",""0"",""0""
","""event"",""trial"",""time""
""focus"",""0"",""0""
","""event"",""trial"",""time""
""fullscreenenter"",""1"",""6146""
","
",,,,,,,,,,,,"[{""stimulus"":""run_exp/static/images/task_images/dig.jpg"",""time"":0},{""stimulus"":""run_exp/static/images/task_images/land.jpg"",""time"":673},{""stimulus"":""run_exp/static/images/task_images/dig.jpg"",""time"":1345}]",[],6,,,,,,,,,,,,,,
harvest,185,615860,0.0-61.0-4.0,"""event"",""trial"",""time""
""blur"",""0"",""0""
""focus"",""0"",""0""
""fullscreenenter"",""1"",""6146""
","""event"",""trial"",""time""
""blur"",""0"",""0""
","""event"",""trial"",""time""
""focus"",""0"",""0""
","""event"",""trial"",""time""
""fullscreenenter"",""1"",""6146""
","
",,null,run_exp/static/images/task_images/gems/104.jpg,null,,,,,,,79,,,6,,,,,104,0.761366973,0.759615385,,,,,,,
decision,186,617811,0.0-61.0-5.0,"""event"",""trial"",""time""
""blur"",""0"",""0""
""focus"",""0"",""0""
""fullscreenenter"",""1"",""6146""
","""event"",""trial"",""time""
""blur"",""0"",""0""
","""event"",""trial"",""time""
""focus"",""0"",""0""
","""event"",""trial"",""time""
""fullscreenenter"",""1"",""6146""
","
",,1950,run_exp/static/images/task_images/land.jpg,65,,,,,,,79,,,6,,,,,,,,212072,1,0,FALSE,,,
dig,187,618879,0.0-62.0-0.0,"""event"",""trial"",""time""
""blur"",""0"",""0""
""focus"",""0"",""0""
""fullscreenenter"",""1"",""6146""
","""event"",""trial"",""time""
""blur"",""0"",""0""
","""event"",""trial"",""time""
""focus"",""0"",""0""
","""event"",""trial"",""time""
""fullscreenenter"",""1"",""6146""
