trial_type,trial_index,time_elapsed,internal_node_id,interactions,blur_events,focus_events,fullscreenenter_events,fullscreenexit_events,success,rt,stimulus,key_press,prompt,subject_id,participant_id,age,gender,button_pressed,next_reward,animation_sequence,responses,planet,curr_prac_trial,n_prac_rounds,alien,aliens,reward_received,decay_rate_actual,decay_rate_exp,time_in_block,block_num,prt,last_trial_on_planet,button_html,bonus,num_failures
pavlovia,0,3,0.0-0.0,"""event"",""trial"",""time""
""fullscreenenter"",""1"",""1404""
","
","
","""event"",""trial"",""time""
""fullscreenenter"",""1"",""1404""
","
",,,,,,,,,,,,,,,,,,,,,,,,,,,,
fullscreen,1,2365,0.0-1.0,"""event"",""trial"",""time""
""fullscreenenter"",""1"",""1404""
","
","
","""event"",""trial"",""time""
""fullscreenenter"",""1"",""1404""
","
",TRUE,,,,,,,,,,,,,,,,,,,,,,,,,,,
instruc_welcome,2,12098,0.0-2.0,"""event"",""trial"",""time""
""fullscreenenter"",""1"",""1404""
","
","
","""event"",""trial"",""time""
""fullscreenenter"",""1"",""1404""
","
",,null,run_exp/static/audio/clip_1_welcome.m4a,null,"<p>Howdy! In this experiment, you’ll be an explorer traveling through space to collect space treasure.</p><p>Your mission is to collect as much treasure as possible.</p><br><br><p><img src='run_exp/static/images/task_images/opening_img-01.jpg' height='300' width='auto'></p>",9220,4368,22.65,Female,,,,,,,,,,,,,,,,,,,
audio-keyboard-response,3,28697,0.0-3.0,"""event"",""trial"",""time""
""fullscreenenter"",""1"",""1404""
","
","
","""event"",""trial"",""time""
""fullscreenenter"",""1"",""1404""
","
",,null,run_exp/static/audio/clip_2_move.m4a,null,,,,,,,,,,,,,,,,,,,,,,,,
welcome_dec,4,32138,0.0-4.0,"""event"",""trial"",""time""
""fullscreenenter"",""1"",""1404""
","
","
","""event"",""trial"",""time""
""fullscreenenter"",""1"",""1404""
","
",,3438.3,"<p>Howdy! In this experiment, you’ll be an explorer traveling through space to collect space treasure.</p><p>Your mission is to collect as much treasure as possible.</p><br><br><p><img src='run_exp/static/images/task_images/opening_img-01.jpg' height='300' width='auto'></p>",,,,,,,1,,,,,,,,,,,,,,,,,,
html-keyboard-response,5,32290,0.0-5.0,"""event"",""trial"",""time""
""fullscreenenter"",""1"",""1404""
","
","
","""event"",""trial"",""time""
""fullscreenenter"",""1"",""1404""
","
",,150.1,"<p>Howdy! In this experiment, you’ll be an explorer traveling through space to collect space treasure.</p><p>Your mission is to collect as much treasure as possible.</p><br><br><p><img src='run_exp/static/images/task_images/opening_img-01.jpg' height='300' width='auto'></p><button class=""jspsych-html-btn-unchosen""><img src=""run_exp/static/images/task_images/planet-01.jpg"" height=""50""></button><button class=""jspsych-html-btn-chosen""><img src=""run_exp/static/images/task_images/planet-02.jpg"" height=""50""></button><p><b>[press the space bar to lock in your answer]<b><br></p>",32,,,,,,,,,,,,,,,,,,,,,,,,
instruc_goal,6,42358,0.0-6.0-0.0,"""event"",""trial"",""time""
""fullscreenenter"",""1"",""1404""
","
","
","""event"",""trial"",""time""
""fullscreenenter"",""1"",""1404""
","
",,null,run_exp/static/audio/clip_3_goal.m4a,null,"<p> As a space explorer, you’ll visit different planets to dig for space treasure, these pink gems.</p> <p> The more treasure you dig up, the more bonus money you’ll win! </p><br><br><p><img src='run_exp/static/images/task_images/pink_gem.jpg' height='300' width='auto'></p>",,,,,,,,,,,,,,,,,,,,,,,
instruc_goal,7,44672,0.0-6.0-1.0,"""event"",""trial"",""time""
""fullscreenenter"",""1"",""1404""
","
","
","""event"",""trial"",""time""
""fullscreenenter"",""1"",""1404""
","
",,2308,"<p> As a space explorer, you’ll visit different planets to dig for space treasure, these pink gems.</p> <p> The more treasure you dig up, the more bonus money you’ll win! </p><br><br><p><img src='run_exp/static/images/task_images/pink_gem.jpg' height='300' width='auto'></p>",,,,,,,1,,,,,,,,,,,,,,,,,,
html-keyboard-response,8,44971,0.0-6.0-2.0,"""event"",""trial"",""time""
""fullscreenenter"",""1"",""1404""
","
","
","""event"",""trial"",""time""
""fullscreenenter"",""1"",""1404""
","
",,296.5999999,"<p> As a space explorer, you’ll visit different planets to dig for space treasure, these pink gems.</p> <p> The more treasure you dig up, the more bonus money you’ll win! </p><br><br><p><img src='run_exp/static/images/task_images/pink_gem.jpg' height='300' width='auto'></p><button class=""jspsych-html-btn-unchosen""><img src=""run_exp/static/images/task_images/planet-01.jpg"" height=""50""></button><button class=""jspsych-html-btn-chosen""><img src=""run_exp/static/images/task_images/planet-02.jpg"" height=""50""></button><p><b>[press the space bar to lock in your answer]<b><br></p>",32,,,,,,,,,,,,,,,,,,,,,,,,
instruc_dig,9,60977,0.0-7.0-0.0,"""event"",""trial"",""time""
""fullscreenenter"",""1"",""1404""
","
","
","""event"",""trial"",""time""
""fullscreenenter"",""1"",""1404""
","
",,null,run_exp/static/audio/clip_4_dig.m4a,null,,,,,,,100,,,,,,,,,,,,,,,,,
instruc_dig_try,10,61354,0.0-7.0-1.0,"""event"",""trial"",""time""
""fullscreenenter"",""1"",""1404""
","
","
","""event"",""trial"",""time""
""fullscreenenter"",""1"",""1404""
","
",,375.4,"<p> When you’ve arrived at a new planet, you will dig once. </p> <p>Then, you get to decide if you want to stay on the planet and dig again or travel to a new planet and dig there.</p> <p> To stay and dig, press the letter <strong>‘A’</strong> on your keyboard. Try pressing it now! </p><p><img src='run_exp/static/images/task_images/land.jpg'  height='700' width='auto'></p>",65,"<p> When you’ve arrived at a new planet, you will dig once. </p> <p>Then, you get to decide if you want to stay on the planet and dig again or travel to a new planet and dig there.</p> <p> To stay and dig, press the letter <strong>‘A’</strong> on your keyboard. Try pressing it now! </p><p><img src='run_exp/static/images/task_images/land.jpg'  height='700' width='auto'></p>",,,,,,100,,,,,,,,,,,,,,,,,
dig_prac,11,63375,0.0-7.0-2.0,"""event"",""trial"",""time""
""fullscreenenter"",""1"",""1404""
","
","
","""event"",""trial"",""time""
""fullscreenenter"",""1"",""1404""
","
",,,,,,,,,,,,"[{""stimulus"":""run_exp/static/images/task_images/dig.jpg"",""time"":0.30000007152557373},{""stimulus"":""run_exp/static/images/task_images/land.jpg"",""time"":681.8000000715256},{""stimulus"":""run_exp/static/images/task_images/dig.jpg"",""time"":1350}]",[],,,,,,,,,,,,,,,
instruc_travel,12,99614,0.0-7.0-3.0,"""event"",""trial"",""time""
""fullscreenenter"",""1"",""1404""
","
","
","""event"",""trial"",""time""
""fullscreenenter"",""1"",""1404""
","
",,null,run_exp/static/audio/clip_5_travel.m4a,null,"<p>Every time you dig up gems, there are less gems on the planet, so the more you dig on a planet the fewer gems you’ll get with each dig.</p><p>When gems are running low, you may want to travel to a new planet. </p> <p>  Planets are very far apart in this galaxy, so it will take some time to travel between them. </p> <br><p>There are lots and lots of planets for you to visit, so you won’t be able to return to any planets you’ve seen before. </p><br><p>To leave this planet and travel to a new one, press the letter <strong>‘L’</strong> on your keyboard. Try pressing it now! </p><p><img src='run_exp/static/images/task_images/rocket-01.jpg'  height='600' width='auto'></p>",,,,,,,,,,,,,,,,,,,,,,,
instruc_travel_try,13,102503,0.0-7.0-4.0,"""event"",""trial"",""time""
""fullscreenenter"",""1"",""1404""
","
","
","""event"",""trial"",""time""
""fullscreenenter"",""1"",""1404""
","
",,2886.9,"<p>Every time you dig up gems, there are less gems on the planet, so the more you dig on a planet the fewer gems you’ll get with each dig.</p><p>When gems are running low, you may want to travel to a new planet. </p> <p>  Planets are very far apart in this galaxy, so it will take some time to travel between them. </p> <br><p>There are lots and lots of planets for you to visit, so you won’t be able to return to any planets you’ve seen before. </p><br><p>To leave this planet and travel to a new one, press the letter <strong>‘L’</strong> on your keyboard. Try pressing it now! </p><p><img src='run_exp/static/images/task_images/rocket-01.jpg'  height='600' width='auto'></p>",76,"<p>Every time you dig up gems, there are less gems on the planet, so the more you dig on a planet the fewer gems you’ll get with each dig.</p><p>When gems are running low, you may want to travel to a new planet. </p> <p>  Planets are very far apart in this galaxy, so it will take some time to travel between them. </p> <br><p>There are lots and lots of planets for you to visit, so you won’t be able to return to any planets you’ve seen before. </p><br><p>To leave this planet and travel to a new one, press the letter <strong>‘L’</strong> on your keyboard. Try pressing it now! </p><p><img src='run_exp/static/images/task_images/rocket-01.jpg'  height='600' width='auto'></p>",,,,,,,,,,,,,,,,,,,,,,,
travel_prac,14,112515,0.0-7.0-5.0,"""event"",""trial"",""time""
""fullscreenenter"",""1"",""1404""
","
","
","""event"",""trial"",""time""
""fullscreenenter"",""1"",""1404""
","
",,,,,,,,,,,,"[{""stimulus"":""run_exp/static/images/task_images/rocket-01.jpg"",""time"":0.5},{""stimulus"":""run_exp/static/images/task_images/rocket-02.jpg"",""time"":1120.7999999523163},{""stimulus"":""run_exp/static/images/task_images/rocket-03.jpg"",""time"":2233.5},{""stimulus"":""run_exp/static/images/task_images/rocket-04.jpg"",""time"":3340.7999999523163},{""stimulus"":""run_exp/static/images/task_images/rocket-05.jpg"",""time"":4452.099999904633},{""stimulus"":""run_exp/static/images/task_images/rocket-06.jpg"",""time"":5567.599999904633},{""stimulus"":""run_exp/static/images/task_images/rocket-07.jpg"",""time"":6682.599999904633},{""stimulus"":""run_exp/static/images/task_images/rocket-08.jpg"",""time"":7791.699999928474},{""stimulus"":""run_exp/static/images/task_images/rocket-09.jpg"",""time"":8892.899999976158}]",[],0,,,,,,,,,,,,,,
instruc_alien_greet,15,139697,0.0-7.0-6.0,"""event"",""trial"",""time""
""fullscreenenter"",""1"",""1404""
","
","
","""event"",""trial"",""time""
""fullscreenenter"",""1"",""1404""
","
",,null,run_exp/static/audio/clip_6_alien.m4a,null,"<p>When you arrive at a new planet, the alien who owns the treasure mine on that planet will greet you!</p><p>The better an alien takes care of their mine the easier it is to dig for gems. Some aliens take better care of their mine than others. So, you won’t get exactly the same amount of gems on each planet.</p><p>What the alien looks like does not tell you anything about how many gems there are on the planet.</p><br><p><img src=""run_exp/static/images/task_images/aliens/instructions_aliens/planet/alien_planet-1.jpg""  height=""600"" width=""auto""></p>",,,,,,,,,,,,,,,,,,,,,,,
instruc_alien_greet,16,150966,0.0-7.0-7.0,"""event"",""trial"",""time""
""fullscreenenter"",""1"",""1404""
","
","
","""event"",""trial"",""time""
""fullscreenenter"",""1"",""1404""
","
",,11267,"<p>When you arrive at a new planet, the alien who owns the treasure mine on that planet will greet you!</p><p>The better an alien takes care of their mine the easier it is to dig for gems. Some aliens take better care of their mine than others. So, you won’t get exactly the same amount of gems on each planet.</p><p>What the alien looks like does not tell you anything about how many gems there are on the planet.</p><br><p><img src=""run_exp/static/images/task_images/aliens/instructions_aliens/planet/alien_planet-1.jpg""  height=""600"" width=""auto""></p>",,,,,,,1,,,,,,,,,,,,,,,,,,
html-keyboard-response,17,152775,0.0-7.0-8.0,"""event"",""trial"",""time""
""fullscreenenter"",""1"",""1404""
","
","
","""event"",""trial"",""time""
""fullscreenenter"",""1"",""1404""
","
",,1807.4,"<p>When you arrive at a new planet, the alien who owns the treasure mine on that planet will greet you!</p><p>The better an alien takes care of their mine the easier it is to dig for gems. Some aliens take better care of their mine than others. So, you won’t get exactly the same amount of gems on each planet.</p><p>What the alien looks like does not tell you anything about how many gems there are on the planet.</p><br><p><img src=""run_exp/static/images/task_images/aliens/instructions_aliens/planet/alien_planet-1.jpg""  height=""600"" width=""auto""></p><button class=""jspsych-html-btn-unchosen""><img src=""run_exp/static/images/task_images/planet-01.jpg"" height=""50""></button><button class=""jspsych-html-btn-chosen""><img src=""run_exp/static/images/task_images/planet-02.jpg"" height=""50""></button><p><b>[press the space bar to lock in your answer]<b><br></p>",32,,,,,,,,,,,,,,,,,,,,,,,,
time_out,18,163831,0.0-8.0-0.0,"""event"",""trial"",""time""
""fullscreenenter"",""1"",""1404""
","
","
","""event"",""trial"",""time""
""fullscreenenter"",""1"",""1404""
","
",,null,run_exp/static/audio/clip_7_timeout.m4a,null,"<p>If you don't make your choice fast enough, you’ll have to wait a few seconds before you can make another one.</p><p>You can’t dig for more gems or travel to new planets. You just have to sit and wait.</p><br><p><img src='run_exp/static/images/task_images/time_out.jpg'  height='600' width='auto'></p>",,,,,,,,,,,,,,,,,,,,,,,
time_out,19,170447,0.0-8.0-1.0,"""event"",""trial"",""time""
""fullscreenenter"",""1"",""1404""
","
","
","""event"",""trial"",""time""
""fullscreenenter"",""1"",""1404""
","
",,6612,"<p>If you don't make your choice fast enough, you’ll have to wait a few seconds before you can make another one.</p><p>You can’t dig for more gems or travel to new planets. You just have to sit and wait.</p><br><p><img src='run_exp/static/images/task_images/time_out.jpg'  height='600' width='auto'></p>",,,,,,,1,,,,,,,,,,,,,,,,,,
html-keyboard-response,20,171779,0.0-8.0-2.0,"""event"",""trial"",""time""
""fullscreenenter"",""1"",""1404""
","
","
","""event"",""trial"",""time""
""fullscreenenter"",""1"",""1404""
","
",,1330.1,"<p>If you don't make your choice fast enough, you’ll have to wait a few seconds before you can make another one.</p><p>You can’t dig for more gems or travel to new planets. You just have to sit and wait.</p><br><p><img src='run_exp/static/images/task_images/time_out.jpg'  height='600' width='auto'></p><button class=""jspsych-html-btn-unchosen""><img src=""run_exp/static/images/task_images/planet-01.jpg"" height=""50""></button><button class=""jspsych-html-btn-chosen""><img src=""run_exp/static/images/task_images/planet-02.jpg"" height=""50""></button><p><b>[press the space bar to lock in your answer]<b><br></p>",32,,,,,,,,,,,,,,,,,,,,,,,,
instruc_break,21,187472,0.0-9.0-0.0,"""event"",""trial"",""time""
""fullscreenenter"",""1"",""1404""
","
","
","""event"",""trial"",""time""
""fullscreenenter"",""1"",""1404""
","
",,null,run_exp/static/audio/clip_8_break.m4a,null,"<p> After digging and traveling for a while, you’ll be able to take a break at home base. </p><p>The game will last 20 minutes no matter what.</p><p>You will visit home base every 5 minutes, so, you will visit home base three times during the game.</p><br><p><img src='run_exp/static/images/task_images/home_base.jpg' height='600' width='auto'></p>",,,,,,,,,,,,,,,,,,,,,,,
instruc_break,22,189559,0.0-9.0-1.0,"""event"",""trial"",""time""
""fullscreenenter"",""1"",""1404""
","
","
","""event"",""trial"",""time""
""fullscreenenter"",""1"",""1404""
","
",,2081.9,"<p> After digging and traveling for a while, you’ll be able to take a break at home base. </p><p>The game will last 20 minutes no matter what.</p><p>You will visit home base every 5 minutes, so, you will visit home base three times during the game.</p><br><p><img src='run_exp/static/images/task_images/home_base.jpg' height='600' width='auto'></p>",,,,,,,1,,,,,,,,,,,,,,,,,,
html-keyboard-response,23,190964,0.0-9.0-2.0,"""event"",""trial"",""time""
""fullscreenenter"",""1"",""1404""
","
","
","""event"",""trial"",""time""
""fullscreenenter"",""1"",""1404""
","
",,1403,"<p> After digging and traveling for a while, you’ll be able to take a break at home base. </p><p>The game will last 20 minutes no matter what.</p><p>You will visit home base every 5 minutes, so, you will visit home base three times during the game.</p><br><p><img src='run_exp/static/images/task_images/home_base.jpg' height='600' width='auto'></p><button class=""jspsych-html-btn-unchosen""><img src=""run_exp/static/images/task_images/planet-01.jpg"" height=""50""></button><button class=""jspsych-html-btn-chosen""><img src=""run_exp/static/images/task_images/planet-02.jpg"" height=""50""></button><p><b>[press the space bar to lock in your answer]<b><br></p>",32,,,,,,,,,,,,,,,,,,,,,,,,
instruc_prac_game,24,201112,0.0-10.0-0.0,"""event"",""trial"",""time""
""fullscreenenter"",""1"",""1404""
","
","
","""event"",""trial"",""time""
""fullscreenenter"",""1"",""1404""
","
",,null,run_exp/static/audio/clip_9_practice.m4a,null,"<p> Are you ready to play a practice game? </p> <p>In this practice game, you'll be digging up barrels of gems. But, in the real game, you'll be digging up the gems themselves. </p>",,,,,,,,,,,,,,,,,,,,,,,
html-button-response,25,202246,0.0-10.0-1.0,"""event"",""trial"",""time""
""fullscreenenter"",""1"",""1404""
","
","
","""event"",""trial"",""time""
""fullscreenenter"",""1"",""1404""
","
",,1130.6,"<p> Are you ready to play a practice game? </p> <p>In this practice game, you'll be digging up barrels of gems. But, in the real game, you'll be digging up the gems themselves. </p>",,,,,,,0,,,,,,,,,,,,,,,,,,
alien_welcome_prac,26,207269,0.0-11.0-0.0,"""event"",""trial"",""time""
""fullscreenenter"",""1"",""1404""
","
","
","""event"",""trial"",""time""
""fullscreenenter"",""1"",""1404""
","
",,null,run_exp/static/images/task_images/aliens/practice_aliens/planet/alien_planet-5.jpg,null,,,,,,,,,,,,,,,,,,,,,,,,
land_prac,27,207772,0.0-11.0-1.0,"""event"",""trial"",""time""
""fullscreenenter"",""1"",""1404""
","
","
","""event"",""trial"",""time""
""fullscreenenter"",""1"",""1404""
","
",,null,run_exp/static/images/task_images/land.jpg,null,,,,,,,104,,,0,,,,,,,,,,,,,,
dig_prac,28,209796,0.0-11.0-2.0,"""event"",""trial"",""time""
""fullscreenenter"",""1"",""1404""
","
","
","""event"",""trial"",""time""
""fullscreenenter"",""1"",""1404""
","
",,,,,,,,,,,,"[{""stimulus"":""run_exp/static/images/task_images/dig.jpg"",""time"":0.6000000238418579},{""stimulus"":""run_exp/static/images/task_images/land.jpg"",""time"":677.7999999523163},{""stimulus"":""run_exp/static/images/task_images/dig.jpg"",""time"":1351.6000000238419}]",[],,,,,,,,,,,,,,,
harvest_prac,29,210811,0.0-11.0-3.0,"""event"",""trial"",""time""
""fullscreenenter"",""1"",""1404""
","
","
","""event"",""trial"",""time""
""fullscreenenter"",""1"",""1404""
","
",,null,run_exp/static/images/task_images/barrel_text.jpg,null,,,,,,,,,,,,,,,,,,,,,,,,
decision_prac,30,210813,0.0-11.0-4.0,"""event"",""trial"",""time""
""fullscreenenter"",""1"",""1404""
","
","
","""event"",""trial"",""time""
""fullscreenenter"",""1"",""1404""
","
",,0.200000048,run_exp/static/images/task_images/land.jpg,65,,,,,,,,,,,1,,,,,,,,,,,,,
dig_prac,31,212825,0.0-12.0-0.0,"""event"",""trial"",""time""
""fullscreenenter"",""1"",""1404""
","
","
","""event"",""trial"",""time""
""fullscreenenter"",""1"",""1404""
","
",,,,,,,,,,,,"[{""stimulus"":""run_exp/static/images/task_images/dig.jpg"",""time"":0.2999999523162842},{""stimulus"":""run_exp/static/images/task_images/land.jpg"",""time"":676.7999999523163},{""stimulus"":""run_exp/static/images/task_images/dig.jpg"",""time"":1343}]",[],,,,,,,,,,,,,,,
harvest_prac,32,213831,0.0-12.0-1.0,"""event"",""trial"",""time""
""fullscreenenter"",""1"",""1404""
","
","
","""event"",""trial"",""time""
""fullscreenenter"",""1"",""1404""
","
",,null,run_exp/static/images/task_images/barrel_text.jpg,null,,,,,,,,,,,,,,,,,,,,,,,,
decision_prac,33,213932,0.0-12.0-2.0,"""event"",""trial"",""time""
""fullscreenenter"",""1"",""1404""
","
","
","""event"",""trial"",""time""
""fullscreenenter"",""1"",""1404""
","
",,100.5,run_exp/static/images/task_images/land.jpg,65,,,,,,,,,,,2,,,,,,,,,,,,,
dig_prac,34,215943,0.0-13.0-0.0,"""event"",""trial"",""time""
""fullscreenenter"",""1"",""1404""
","
","
","""event"",""trial"",""time""
""fullscreenenter"",""1"",""1404""
","
",,,,,,,,,,,,"[{""stimulus"":""run_exp/static/images/task_images/dig.jpg"",""time"":0.40000009536743164},{""stimulus"":""run_exp/static/images/task_images/land.jpg"",""time"":669.9000000953674},{""stimulus"":""run_exp/static/images/task_images/dig.jpg"",""time"":1336.4000000953674}]",[],,,,,,,,,,,,,,,
harvest_prac,35,216948,0.0-13.0-1.0,"""event"",""trial"",""time""
""fullscreenenter"",""1"",""1404""
","
","
","""event"",""trial"",""time""
""fullscreenenter"",""1"",""1404""
","
",,null,run_exp/static/images/task_images/barrel_text.jpg,null,,,,,,,,,,,,,,,,,,,,,,,,
decision_prac,36,217596,0.0-13.0-2.0,"""event"",""trial"",""time""
""fullscreenenter"",""1"",""1404""
","
","
","""event"",""trial"",""time""
""fullscreenenter"",""1"",""1404""
","
",,647.1,run_exp/static/images/task_images/land.jpg,65,,,,,,,,,,,3,,,,,,,,,,,,,
dig_prac,37,219609,0.0-14.0-0.0,"""event"",""trial"",""time""
""fullscreenenter"",""1"",""1404""
","
","
","""event"",""trial"",""time""
""fullscreenenter"",""1"",""1404""
","
",,,,,,,,,,,,"[{""stimulus"":""run_exp/static/images/task_images/dig.jpg"",""time"":0.20000004768371582},{""stimulus"":""run_exp/static/images/task_images/land.jpg"",""time"":677.7000000476837},{""stimulus"":""run_exp/static/images/task_images/dig.jpg"",""time"":1348.2000000476837}]",[],,,,,,,,,,,,,,,
harvest_prac,38,220612,0.0-14.0-1.0,"""event"",""trial"",""time""
""fullscreenenter"",""1"",""1404""
","
","
","""event"",""trial"",""time""
""fullscreenenter"",""1"",""1404""
","
",,null,run_exp/static/images/task_images/barrel_text.jpg,null,,,,,,,,,,,,,,,,,,,,,,,,
decision_prac,39,222151,0.0-14.0-2.0,"""event"",""trial"",""time""
""fullscreenenter"",""1"",""1404""
","
","
","""event"",""trial"",""time""
""fullscreenenter"",""1"",""1404""
","
",,1537.4,run_exp/static/images/task_images/land.jpg,76,,,,,,,,,,,4,,,,,,,,,,,,,
travel,40,230631,0.0-15.0-0.0,"""event"",""trial"",""time""
""fullscreenenter"",""1"",""1404""
","
","
","""event"",""trial"",""time""
""fullscreenenter"",""1"",""1404""
","
",,,,,,,,,,,,"[{""stimulus"":""run_exp/static/images/task_images/rocket-01.jpg"",""time"":0.10000002384185791},{""stimulus"":""run_exp/static/images/task_images/rocket-02.jpg"",""time"":943.9000000953674},{""stimulus"":""run_exp/static/images/task_images/rocket-03.jpg"",""time"":1894.5},{""stimulus"":""run_exp/static/images/task_images/rocket-04.jpg"",""time"":2834.5},{""stimulus"":""run_exp/static/images/task_images/rocket-05.jpg"",""time"":3772.9000000953674},{""stimulus"":""run_exp/static/images/task_images/rocket-06.jpg"",""time"":4704.300000071526},{""stimulus"":""run_exp/static/images/task_images/rocket-07.jpg"",""time"":5647.300000071526},{""stimulus"":""run_exp/static/images/task_images/rocket-08.jpg"",""time"":6589.300000071526},{""stimulus"":""run_exp/static/images/task_images/rocket-09.jpg"",""time"":7524.600000023842}]",[],0,,,,,,,,,,,,,,
alien_welcome_prac,41,235648,0.0-15.0-1.0,"""event"",""trial"",""time""
""fullscreenenter"",""1"",""1404""
","
","
","""event"",""trial"",""time""
""fullscreenenter"",""1"",""1404""
","
",,null,run_exp/static/images/task_images/aliens/practice_aliens/planet/alien_planet-4.jpg,null,,,,,,,,,,,,,,,,,,,,,,,,
land_prac,42,236162,0.0-15.0-2.0,"""event"",""trial"",""time""
""fullscreenenter"",""1"",""1404""
","
","
","""event"",""trial"",""time""
""fullscreenenter"",""1"",""1404""
","
",,null,run_exp/static/images/task_images/land.jpg,null,,,,,,,104,,,0,,,,,,,,,,,,,,
dig_prac,43,238177,0.0-15.0-3.0,"""event"",""trial"",""time""
""fullscreenenter"",""1"",""1404""
","
","
","""event"",""trial"",""time""
""fullscreenenter"",""1"",""1404""
","
",,,,,,,,,,,,"[{""stimulus"":""run_exp/static/images/task_images/dig.jpg"",""time"":0.5},{""stimulus"":""run_exp/static/images/task_images/land.jpg"",""time"":677.3999999761581},{""stimulus"":""run_exp/static/images/task_images/dig.jpg"",""time"":1342.7000000476837}]",[],,,,,,,,,,,,,,,
harvest_prac,44,239194,0.0-15.0-4.0,"""event"",""trial"",""time""
""fullscreenenter"",""1"",""1404""
","
","
","""event"",""trial"",""time""
""fullscreenenter"",""1"",""1404""
","
",,null,run_exp/static/images/task_images/barrel_text.jpg,null,,,,,,,,,,,,,,,,,,,,,,,,
decision_prac,45,240056,0.0-15.0-5.0,"""event"",""trial"",""time""
""fullscreenenter"",""1"",""1404""
","
","
","""event"",""trial"",""time""
""fullscreenenter"",""1"",""1404""
","
",,860.1999999,run_exp/static/images/task_images/land.jpg,65,,,,,,,,,,,,1,,,,,,,,,,,,
quiz_instruc,46,250481,0.0-16.0-0.0,"""event"",""trial"",""time""
""fullscreenenter"",""1"",""1404""
","
","
","""event"",""trial"",""time""
""fullscreenenter"",""1"",""1404""
","
",,10418.9,run_exp/static/audio/clip_10_quiz.m4a,,,,,,,0,,,,,,,,,,,,,,,,,,
instruc_repeat,47,293252,0.0-16.0-1.0,"""event"",""trial"",""time""
""fullscreenenter"",""1"",""1404""
","
","
","""event"",""trial"",""time""
""fullscreenenter"",""1"",""1404""
","
",,null,"<p> Are you ready to play a practice game? </p> <p>In this practice game, you'll be digging up barrels of gems. But, in the real game, you'll be digging up the gems themselves. </p>",null,"<p>In this game, your goal is to collect as many gems as you can. That’s how you will win bonus money. </p> <p>The entire game will last 20 minutes no matter how many gems you collect or how many planets you visit. </p><p>To stay on a planet and dig again, press the letter A on your keyboard. To leave for a new planet, press the letter L.</p><p>The more you dig on a planet, the fewer gems you’ll get with each dig which is why you might consider leaving for a new planet. </p><p>When you arrive at a new planet, you’ll be greeted by an alien. What the alien looks like does not tell you anything about how much treasure is on the planet. </p>",,,,,,,,,,,,,,,,,,,,,,,
instruc_repeat_continue,48,294368,0.0-16.0-2.0,"""event"",""trial"",""time""
""fullscreenenter"",""1"",""1404""
","
","
","""event"",""trial"",""time""
""fullscreenenter"",""1"",""1404""
","
",,1111.8,"<p> Are you ready to play a practice game? </p> <p>In this practice game, you'll be digging up barrels of gems. But, in the real game, you'll be digging up the gems themselves. </p>",,,,,,,0,,,,,,,,,,,,,,,,,,
quiz_q_1_ask,49,297339,0.0-16.0-3.0,"""event"",""trial"",""time""
""fullscreenenter"",""1"",""1404""
","
","
","""event"",""trial"",""time""
""fullscreenenter"",""1"",""1404""
","
",,2970.2,run_exp/static/audio/clip_11_q1_ask.m4a,,,,,,,2,,,,,,,,,,,,,,,,,,
quiz_q_1_fb_correct,50,301191,0.0-17.0-0.0,"""event"",""trial"",""time""
""fullscreenenter"",""1"",""1404""
","
","
","""event"",""trial"",""time""
""fullscreenenter"",""1"",""1404""
","
",,null,run_exp/static/audio/clip_12_q1_correct.m4a,null,<p>That’s correct. You win extra money by collecting more gems.</p>,,,,,,,,,,,,,,,,,,,,,,,
quiz_q_2_ask,51,303052,0.0-17.0-1.0,"""event"",""trial"",""time""
""fullscreenenter"",""1"",""1404""
","
","
","""event"",""trial"",""time""
""fullscreenenter"",""1"",""1404""
","
",,1859.6,run_exp/static/audio/clip_14_q2_ask.m4a,,,,,,,1,,,,,,,,,,,,,,,,,,
quiz_q_2_fb_correct,52,307051,0.0-18.0-0.0,"""event"",""trial"",""time""
""fullscreenenter"",""1"",""1404""
","
","
","""event"",""trial"",""time""
""fullscreenenter"",""1"",""1404""
","
",,null,run_exp/static/audio/clip_15_q2_correct.m4a,null,<p>That’s correct. The experiment is 20 minutes no matter what.</p>,,,,,,,,,,,,,,,,,,,,,,,
quiz_q_3_ask,53,309706,0.0-18.0-1.0,"""event"",""trial"",""time""
""fullscreenenter"",""1"",""1404""
","
","
","""event"",""trial"",""time""
""fullscreenenter"",""1"",""1404""
","
",,2651.7,run_exp/static/audio/clip_17_q3_ask.m4a,,,,,,,1,,,,,,,,,,,,,,,,,,
quiz_q_3_fb_correct,54,313690,0.0-19.0-0.0,"""event"",""trial"",""time""
""fullscreenenter"",""1"",""1404""
","
","
","""event"",""trial"",""time""
""fullscreenenter"",""1"",""1404""
","
",,null,run_exp/static/audio/clip_18_q3_correct.m4a,null,<p> That’s correct. You press the letter L to travel to a new planet.</p>,,,,,,,,,,,,,,,,,,,,,,,
quiz_q_4_ask,55,318113,0.0-19.0-1.0,"""event"",""trial"",""time""
""fullscreenenter"",""1"",""1404""
","
","
","""event"",""trial"",""time""
""fullscreenenter"",""1"",""1404""
","
",,4421.6,run_exp/static/audio/clip_20_q4_ask.m4a,,,,,,,0,,,,,,,,,,,,,,,,,,
quiz_q_4_fb_correct,56,323431,0.0-20.0-0.0,"""event"",""trial"",""time""
""fullscreenenter"",""1"",""1404""
","
","
","""event"",""trial"",""time""
""fullscreenenter"",""1"",""1404""
","
",,null,run_exp/static/audio/clip_21_q4_correct.m4a,null,<p> That’s correct. The more you dig on a planet the fewer gems you’ll get with each dig. </p>,,,,,,,,,,,,,,,,,,,,,,,
quiz_q_5_ask,57,326196,0.0-20.0-1.0,"""event"",""trial"",""time""
""fullscreenenter"",""1"",""1404""
","
","
","""event"",""trial"",""time""
""fullscreenenter"",""1"",""1404""
","
",,2763.7,run_exp/static/audio/clip_23_q5_ask.m4a,,,,,,,1,,,,,,,,,,,,,,,,,,
quiz_q_5_fb_correct,58,331212,0.0-21.0-0.0,"""event"",""trial"",""time""
""fullscreenenter"",""1"",""1404""
","
","
","""event"",""trial"",""time""
""fullscreenenter"",""1"",""1404""
","
",,null,run_exp/static/audio/clip_24_q5_correct.m4a,null,<p> That’s correct. The alien tells you nothing about how much treasure is on the planet.</p>,,,,,,,,,,,,,,,,,,,,,,,
quiz_correct,59,334671,0.0-22.0-0.0,"""event"",""trial"",""time""
""fullscreenenter"",""1"",""1404""
","
","
","""event"",""trial"",""time""
""fullscreenenter"",""1"",""1404""
","
",,null,run_exp/static/audio/clip_26_correct_quiz.m4a,null,,,,,,,,,,,,,,,,,,,,,,,,
quiz_correct_continue,60,336474,0.0-22.0-1.0,"""event"",""trial"",""time""
""fullscreenenter"",""1"",""1404""
","
","
","""event"",""trial"",""time""
""fullscreenenter"",""1"",""1404""
","
",,1801,<p>Good job! You're now ready to move on to the real game!</p>,,,,,,,0,,,,,,,,,,,,,,,,,,
audio-keyboard-response,61,346592,0.0-22.0-2.0,"""event"",""trial"",""time""
""fullscreenenter"",""1"",""1404""
","
","
","""event"",""trial"",""time""
""fullscreenenter"",""1"",""1404""
","
",,null,run_exp/static/audio/clip_28_real_game.m4a,null,,,,,,,,,,,,,,,,,,,,,,,,
instruc_begin_exp_contine,62,347272,0.0-22.0-3.0,"""event"",""trial"",""time""
""fullscreenenter"",""1"",""1404""
","
","
","""event"",""trial"",""time""
""fullscreenenter"",""1"",""1404""
","
",,679.1,"<p>Now that you know how  to dig for space treasure and travel to new planets,you can start exploring! </p><p>Do you want to go over the instructions again or get started with the real game?</p>",,,,,,,1,,,,,,1,,,,,,,,,,,,
alien_welcome,63,352285,0.0-23.0-0.0,"""event"",""trial"",""time""
""fullscreenenter"",""1"",""1404""
","
","
","""event"",""trial"",""time""
""fullscreenenter"",""1"",""1404""
","
",,null,run_exp/static/images/task_images/aliens/old_aliens/planet/alien_planet-75.jpg,null,,,,,,,,,,,,,75,"75,10,61,38,14,55,53,21,11,49,22,32,24,60,4,6,5,7,12,54,40,59,19,50,13,43,46,26,20,65,74,67,76,30,17",,,,,,,,,,
land,64,352801,0.0-23.0-1.0,"""event"",""trial"",""time""
""fullscreenenter"",""1"",""1404""
","
","
","""event"",""trial"",""time""
""fullscreenenter"",""1"",""1404""
","
",,null,run_exp/static/images/task_images/land.jpg,null,,,,,,,100,,,1,,,,,,,,,,,,,,
dig,65,354810,0.0-23.0-2.0,"""event"",""trial"",""time""
""fullscreenenter"",""1"",""1404""
","
","
","""event"",""trial"",""time""
""fullscreenenter"",""1"",""1404""
","
",,,,,,,,,,,,"[{""stimulus"":""run_exp/static/images/task_images/dig.jpg"",""time"":0.09999990463256836},{""stimulus"":""run_exp/static/images/task_images/land.jpg"",""time"":676.0999999046326},{""stimulus"":""run_exp/static/images/task_images/dig.jpg"",""time"":1337.7999999523163}]",[],1,,,,,,,,,,,,,,
harvest,66,355820,0.0-23.0-3.0,"""event"",""trial"",""time""
""fullscreenenter"",""1"",""1404""
","
","
","""event"",""trial"",""time""
""fullscreenenter"",""1"",""1404""
","
",,null,run_exp/static/images/task_images/gems/100.jpg,null,,,,,,,25,,,1,,,,,100,0.24551532,0.25,,,,,,,
decision,67,356218,0.0-23.0-4.0,"""event"",""trial"",""time""
""fullscreenenter"",""1"",""1404""
","
","
","""event"",""trial"",""time""
""fullscreenenter"",""1"",""1404""
","
",,394.6,run_exp/static/images/task_images/land.jpg,65,,,,,,,25,,,1,,,,,,,,8946,1,0,FALSE,,,
dig,68,358839,0.0-24.0-0.0,"""event"",""trial"",""time""
""fullscreenenter"",""1"",""1404""
","
","
","""event"",""trial"",""time""
""fullscreenenter"",""1"",""1404""
","
",,,,,,,,,,,,"[{""stimulus"":""run_exp/static/images/task_images/dig.jpg"",""time"":0.19999992847442627},{""stimulus"":""run_exp/static/images/task_images/land.jpg"",""time"":874.2999999523163},{""stimulus"":""run_exp/static/images/task_images/dig.jpg"",""time"":1742.3999999761581}]",[],1,,,,,,,,,,,,,,
harvest,69,359851,0.0-24.0-1.0,"""event"",""trial"",""time""
""fullscreenenter"",""1"",""1404""
","
","
","""event"",""trial"",""time""
""fullscreenenter"",""1"",""1404""
","
",,null,run_exp/static/images/task_images/gems/25.jpg,null,,,,,,,6,,,1,,,,,25,0.239000216,0.24,,,,,,,
decision,70,362503,0.0-24.0-2.0,"""event"",""trial"",""time""
""fullscreenenter"",""1"",""1404""
","
","
","""event"",""trial"",""time""
""fullscreenenter"",""1"",""1404""
","
",,2649.7,run_exp/static/images/task_images/land.jpg,76,,,,,,,6,,,1,,,,,,,,15230,1,1,TRUE,,,
travel,71,369853,0.0-25.0-0.0,"""event"",""trial"",""time""
""fullscreenenter"",""1"",""1404""
","
","
","""event"",""trial"",""time""
""fullscreenenter"",""1"",""1404""
","
",,,,,,,,,,,,"[{""stimulus"":""run_exp/static/images/task_images/rocket-01.jpg"",""time"":0.10000002384185791},{""stimulus"":""run_exp/static/images/task_images/rocket-02.jpg"",""time"":827.5},{""stimulus"":""run_exp/static/images/task_images/rocket-03.jpg"",""time"":1643.2000000476837},{""stimulus"":""run_exp/static/images/task_images/rocket-04.jpg"",""time"":2460.3000000715256},{""stimulus"":""run_exp/static/images/task_images/rocket-05.jpg"",""time"":3269.100000023842},{""stimulus"":""run_exp/static/images/task_images/rocket-06.jpg"",""time"":4092.7000000476837},{""stimulus"":""run_exp/static/images/task_images/rocket-07.jpg"",""time"":4907.900000095367},{""stimulus"":""run_exp/static/images/task_images/rocket-08.jpg"",""time"":5722.100000023842},{""stimulus"":""run_exp/static/images/task_images/rocket-09.jpg"",""time"":6542.200000047684}]",[],1,,,,,,,,,,,,,,
alien_welcome,72,374859,0.0-25.0-1.0,"""event"",""trial"",""time""
""fullscreenenter"",""1"",""1404""
","
","
","""event"",""trial"",""time""
""fullscreenenter"",""1"",""1404""
","
",,null,run_exp/static/images/task_images/aliens/old_aliens/planet/alien_planet-10.jpg,null,,,,,,,,,,,,,10,"75,10,61,38,14,55,53,21,11,49,22,32,24,60,4,6,5,7,12,54,40,59,19,50,13,43,46,26,20,65,74,67,76,30,17",,,,,,,,,,
land,73,375374,0.0-25.0-2.0,"""event"",""trial"",""time""
""fullscreenenter"",""1"",""1404""
","
","
","""event"",""trial"",""time""
""fullscreenenter"",""1"",""1404""
","
",,null,run_exp/static/images/task_images/land.jpg,null,,,,,,,94,,,2,,,,,,,,,,,,,,
dig,74,377386,0.0-25.0-3.0,"""event"",""trial"",""time""
""fullscreenenter"",""1"",""1404""
","
","
","""event"",""trial"",""time""
""fullscreenenter"",""1"",""1404""
","
",,,,,,,,,,,,"[{""stimulus"":""run_exp/static/images/task_images/dig.jpg"",""time"":0.19999992847442627},{""stimulus"":""run_exp/static/images/task_images/land.jpg"",""time"":677.8999999761581},{""stimulus"":""run_exp/static/images/task_images/dig.jpg"",""time"":1344.6999999284744}]",[],2,,,,,,,,,,,,,,
harvest,75,378395,0.0-25.0-4.0,"""event"",""trial"",""time""
""fullscreenenter"",""1"",""1404""
","
","
","""event"",""trial"",""time""
""fullscreenenter"",""1"",""1404""
","
",,null,run_exp/static/images/task_images/gems/94.jpg,null,,,,,,,28,,,2,,,,,94,0.298809828,0.29787234,,,,,,,
decision,76,379865,0.0-25.0-5.0,"""event"",""trial"",""time""
""fullscreenenter"",""1"",""1404""
","
","
","""event"",""trial"",""time""
""fullscreenenter"",""1"",""1404""
","
",,1468,run_exp/static/images/task_images/land.jpg,65,,,,,,,28,,,2,,,,,,,,32592,1,0,FALSE,,,
dig,77,381404,0.0-26.0-0.0,"""event"",""trial"",""time""
""fullscreenenter"",""1"",""1404""
","
","
","""event"",""trial"",""time""
""fullscreenenter"",""1"",""1404""
","
",,,,,,,,,,,,"[{""stimulus"":""run_exp/static/images/task_images/dig.jpg"",""time"":0.10000002384185791},{""stimulus"":""run_exp/static/images/task_images/land.jpg"",""time"":522.5},{""stimulus"":""run_exp/static/images/task_images/dig.jpg"",""time"":1022.3999999761581}]",[],2,,,,,,,,,,,,,,
harvest,78,382414,0.0-26.0-1.0,"""event"",""trial"",""time""
""fullscreenenter"",""1"",""1404""
","
","
","""event"",""trial"",""time""
""fullscreenenter"",""1"",""1404""
","
",,null,run_exp/static/images/task_images/gems/28.jpg,null,,,,,,,5,,,2,,,,,28,0.181924446,0.178571429,,,,,,,
decision,79,383219,0.0-26.0-2.0,"""event"",""trial"",""time""
""fullscreenenter"",""1"",""1404""
","
","
","""event"",""trial"",""time""
""fullscreenenter"",""1"",""1404""
","
",,810.1,run_exp/static/images/task_images/land.jpg,65,,,,,,,5,,,2,,,,,,,,35946,1,1,FALSE,,,
dig,80,385430,0.0-27.0-0.0,"""event"",""trial"",""time""
""fullscreenenter"",""1"",""1404""
","
","
","""event"",""trial"",""time""
""fullscreenenter"",""1"",""1404""
","
",,,,,,,,,,,,"[{""stimulus"":""run_exp/static/images/task_images/dig.jpg"",""time"":0.09999990463256836},{""stimulus"":""run_exp/static/images/task_images/land.jpg"",""time"":736.2999999523163},{""stimulus"":""run_exp/static/images/task_images/dig.jpg"",""time"":1475.8999999761581}]",[],2,,,,,,,,,,,,,,
harvest,81,386442,0.0-27.0-1.0,"""event"",""trial"",""time""
""fullscreenenter"",""1"",""1404""
","
","
","""event"",""trial"",""time""
""fullscreenenter"",""1"",""1404""
","
",,null,run_exp/static/images/task_images/gems/5.jpg,null,,,,,,,1,,,2,,,,,5,0.184072748,0.2,,,,,,,
decision,82,386579,0.0-27.0-2.0,"""event"",""trial"",""time""
""fullscreenenter"",""1"",""1404""
","
","
","""event"",""trial"",""time""
""fullscreenenter"",""1"",""1404""
","
",,134.8000001,run_exp/static/images/task_images/land.jpg,65,,,,,,,1,,,2,,,,,,,,39306,1,2,FALSE,,,
dig,83,389452,0.0-28.0-0.0,"""event"",""trial"",""time""
""fullscreenenter"",""1"",""1404""
","
","
","""event"",""trial"",""time""
""fullscreenenter"",""1"",""1404""
","
",,,,,,,,,,,,"[{""stimulus"":""run_exp/static/images/task_images/dig.jpg"",""time"":0.19999992847442627},{""stimulus"":""run_exp/static/images/task_images/land.jpg"",""time"":956.3999999761581},{""stimulus"":""run_exp/static/images/task_images/dig.jpg"",""time"":1914.1999999284744}]",[],2,,,,,,,,,,,,,,
harvest,84,390458,0.0-28.0-1.0,"""event"",""trial"",""time""
""fullscreenenter"",""1"",""1404""
","
","
","""event"",""trial"",""time""
""fullscreenenter"",""1"",""1404""
","
",,null,run_exp/static/images/task_images/gems/1.jpg,null,,,,,,,0,,,2,,,,,1,0.181228227,0,,,,,,,
decision,85,391991,0.0-28.0-2.0,"""event"",""trial"",""time""
""fullscreenenter"",""1"",""1404""
","
","
","""event"",""trial"",""time""
""fullscreenenter"",""1"",""1404""
","
",,1530.9,run_exp/static/images/task_images/land.jpg,76,,,,,,,0,,,2,,,,,,,,44718,1,3,TRUE,,,
travel,86,400471,0.0-29.0-0.0,"""event"",""trial"",""time""
""fullscreenenter"",""1"",""1404""
","
","
","""event"",""trial"",""time""
""fullscreenenter"",""1"",""1404""
","
",,,,,,,,,,,,"[{""stimulus"":""run_exp/static/images/task_images/rocket-01.jpg"",""time"":0.19999992847442627},{""stimulus"":""run_exp/static/images/task_images/rocket-02.jpg"",""time"":946},{""stimulus"":""run_exp/static/images/task_images/rocket-03.jpg"",""time"":1890.6999999284744},{""stimulus"":""run_exp/static/images/task_images/rocket-04.jpg"",""time"":2839.899999976158},{""stimulus"":""run_exp/static/images/task_images/rocket-05.jpg"",""time"":3774.5},{""stimulus"":""run_exp/static/images/task_images/rocket-06.jpg"",""time"":4706.699999928474},{""stimulus"":""run_exp/static/images/task_images/rocket-07.jpg"",""time"":5651.299999952316},{""stimulus"":""run_exp/static/images/task_images/rocket-08.jpg"",""time"":6588.5},{""stimulus"":""run_exp/static/images/task_images/rocket-09.jpg"",""time"":7531.299999952316}]",[],2,,,,,,,,,,,,,,
alien_welcome,87,405485,0.0-29.0-1.0,"""event"",""trial"",""time""
""fullscreenenter"",""1"",""1404""
","
","
","""event"",""trial"",""time""
""fullscreenenter"",""1"",""1404""
","
",,null,run_exp/static/images/task_images/aliens/old_aliens/planet/alien_planet-61.jpg,null,,,,,,,,,,,,,61,"75,10,61,38,14,55,53,21,11,49,22,32,24,60,4,6,5,7,12,54,40,59,19,50,13,43,46,26,20,65,74,67,76,30,17",,,,,,,,,,
land,88,406003,0.0-29.0-2.0,"""event"",""trial"",""time""
""fullscreenenter"",""1"",""1404""
","
","
","""event"",""trial"",""time""
""fullscreenenter"",""1"",""1404""
","
",,null,run_exp/static/images/task_images/land.jpg,null,,,,,,,99,,,3,,,,,,,,,,,,,,
dig,89,408014,0.0-29.0-3.0,"""event"",""trial"",""time""
""fullscreenenter"",""1"",""1404""
","
","
","""event"",""trial"",""time""
""fullscreenenter"",""1"",""1404""
","
",,,,,,,,,,,,"[{""stimulus"":""run_exp/static/images/task_images/dig.jpg"",""time"":0.40000009536743164},{""stimulus"":""run_exp/static/images/task_images/land.jpg"",""time"":684.1000000238419},{""stimulus"":""run_exp/static/images/task_images/dig.jpg"",""time"":1341.3000000715256}]",[],3,,,,,,,,,,,,,,
harvest,90,409023,0.0-29.0-4.0,"""event"",""trial"",""time""
""fullscreenenter"",""1"",""1404""
","
","
","""event"",""trial"",""time""
""fullscreenenter"",""1"",""1404""
","
",,null,run_exp/static/images/task_images/gems/99.jpg,null,,,,,,,52,,,3,,,,,99,0.521082656,0.525252525,,,,,,,
decision,91,410259,0.0-29.0-5.0,"""event"",""trial"",""time""
""fullscreenenter"",""1"",""1404""
","
","
","""event"",""trial"",""time""
""fullscreenenter"",""1"",""1404""
","
",,1233.9,run_exp/static/images/task_images/land.jpg,65,,,,,,,52,,,3,,,,,,,,62987,1,0,FALSE,,,
dig,92,412047,0.0-30.0-0.0,"""event"",""trial"",""time""
""fullscreenenter"",""1"",""1404""
","
","
","""event"",""trial"",""time""
""fullscreenenter"",""1"",""1404""
","
",,,,,,,,,,,,"[{""stimulus"":""run_exp/static/images/task_images/dig.jpg"",""time"":0.5},{""stimulus"":""run_exp/static/images/task_images/land.jpg"",""time"":605.2999999523163},{""stimulus"":""run_exp/static/images/task_images/dig.jpg"",""time"":1182.1999999284744}]",[],3,,,,,,,,,,,,,,
harvest,93,413059,0.0-30.0-1.0,"""event"",""trial"",""time""
""fullscreenenter"",""1"",""1404""
","
","
","""event"",""trial"",""time""
""fullscreenenter"",""1"",""1404""
","
",,null,run_exp/static/images/task_images/gems/52.jpg,null,,,,,,,25,,,3,,,,,52,0.488462765,0.480769231,,,,,,,
decision,94,414582,0.0-30.0-2.0,"""event"",""trial"",""time""
""fullscreenenter"",""1"",""1404""
","
","
","""event"",""trial"",""time""
""fullscreenenter"",""1"",""1404""
","
",,1521.5,run_exp/static/images/task_images/land.jpg,65,,,,,,,25,,,3,,,,,,,,67309,1,1,FALSE,,,
dig,95,416064,0.0-31.0-0.0,"""event"",""trial"",""time""
""fullscreenenter"",""1"",""1404""
","
","
","""event"",""trial"",""time""
""fullscreenenter"",""1"",""1404""
","
",,,,,,,,,,,,"[{""stimulus"":""run_exp/static/images/task_images/dig.jpg"",""time"":0.19999992847442627},{""stimulus"":""run_exp/static/images/task_images/land.jpg"",""time"":504.1999999284744},{""stimulus"":""run_exp/static/images/task_images/dig.jpg"",""time"":987}]",[],3,,,,,,,,,,,,,,
harvest,96,417067,0.0-31.0-1.0,"""event"",""trial"",""time""
""fullscreenenter"",""1"",""1404""
","
","
","""event"",""trial"",""time""
""fullscreenenter"",""1"",""1404""
","
",,null,run_exp/static/images/task_images/gems/25.jpg,null,,,,,,,13,,,3,,,,,25,0.507988665,0.52,,,,,,,
decision,97,417574,0.0-31.0-2.0,"""event"",""trial"",""time""
""fullscreenenter"",""1"",""1404""
","
","
","""event"",""trial"",""time""
""fullscreenenter"",""1"",""1404""
","
",,505.3000001,run_exp/static/images/task_images/land.jpg,65,,,,,,,13,,,3,,,,,,,,70301,1,2,FALSE,,,
dig,98,420084,0.0-32.0-0.0,"""event"",""trial"",""time""
""fullscreenenter"",""1"",""1404""
","
","
","""event"",""trial"",""time""
""fullscreenenter"",""1"",""1404""
","
",,,,,,,,,,,,"[{""stimulus"":""run_exp/static/images/task_images/dig.jpg"",""time"":0.20000004768371582},{""stimulus"":""run_exp/static/images/task_images/land.jpg"",""time"":833.9000000953674},{""stimulus"":""run_exp/static/images/task_images/dig.jpg"",""time"":1667}]",[],3,,,,,,,,,,,,,,
harvest,99,421090,0.0-32.0-1.0,"""event"",""trial"",""time""
""fullscreenenter"",""1"",""1404""
","
","
","""event"",""trial"",""time""
""fullscreenenter"",""1"",""1404""
","
",,null,run_exp/static/images/task_images/gems/13.jpg,null,,,,,,,8,,,3,,,,,13,0.622033884,0.615384615,,,,,,,
decision,100,421217,0.0-32.0-2.0,"""event"",""trial"",""time""
""fullscreenenter"",""1"",""1404""
","
","
","""event"",""trial"",""time""
""fullscreenenter"",""1"",""1404""
","
",,124.4,run_exp/static/images/task_images/land.jpg,65,,,,,,,8,,,3,,,,,,,,73945,1,3,FALSE,,,
dig,101,424104,0.0-33.0-0.0,"""event"",""trial"",""time""
""fullscreenenter"",""1"",""1404""
","
","
","""event"",""trial"",""time""
""fullscreenenter"",""1"",""1404""
","
",,,,,,,,,,,,"[{""stimulus"":""run_exp/static/images/task_images/dig.jpg"",""time"":0.7000000476837158},{""stimulus"":""run_exp/static/images/task_images/land.jpg"",""time"":972},{""stimulus"":""run_exp/static/images/task_images/dig.jpg"",""time"":1923}]",[],3,,,,,,,,,,,,,,
harvest,102,425121,0.0-33.0-1.0,"""event"",""trial"",""time""
""fullscreenenter"",""1"",""1404""
","
","
","""event"",""trial"",""time""
""fullscreenenter"",""1"",""1404""
","
",,null,run_exp/static/images/task_images/gems/8.jpg,null,,,,,,,4,,,3,,,,,8,0.516989894,0.5,,,,,,,
decision,103,425255,0.0-33.0-2.0,"""event"",""trial"",""time""
""fullscreenenter"",""1"",""1404""
","
","
","""event"",""trial"",""time""
""fullscreenenter"",""1"",""1404""
","
",,133.8000001,run_exp/static/images/task_images/land.jpg,65,,,,,,,4,,,3,,,,,,,,77983,1,4,FALSE,,,
dig,104,428136,0.0-34.0-0.0,"""event"",""trial"",""time""
""fullscreenenter"",""1"",""1404""
","
","
","""event"",""trial"",""time""
""fullscreenenter"",""1"",""1404""
","
",,,,,,,,,,,,"[{""stimulus"":""run_exp/static/images/task_images/dig.jpg"",""time"":0.10000002384185791},{""stimulus"":""run_exp/static/images/task_images/land.jpg"",""time"":965.8999999761581},{""stimulus"":""run_exp/static/images/task_images/dig.jpg"",""time"":1926.2999999523163}]",[],3,,,,,,,,,,,,,,
harvest,105,429150,0.0-34.0-1.0,"""event"",""trial"",""time""
""fullscreenenter"",""1"",""1404""
","
","
","""event"",""trial"",""time""
""fullscreenenter"",""1"",""1404""
","
",,null,run_exp/static/images/task_images/gems/4.jpg,null,,,,,,,2,,,3,,,,,4,0.597735457,0.5,,,,,,,
decision,106,430004,0.0-34.0-2.0,"""event"",""trial"",""time""
""fullscreenenter"",""1"",""1404""
","
","
","""event"",""trial"",""time""
""fullscreenenter"",""1"",""1404""
","
",,853.1,run_exp/static/images/task_images/land.jpg,76,,,,,,,2,,,3,,,,,,,,82731,1,5,TRUE,,,
travel,107,439157,0.0-35.0-0.0,"""event"",""trial"",""time""
""fullscreenenter"",""1"",""1404""
","
","
","""event"",""trial"",""time""
""fullscreenenter"",""1"",""1404""
","
",,,,,,,,,,,,"[{""stimulus"":""run_exp/static/images/task_images/rocket-01.jpg"",""time"":0},{""stimulus"":""run_exp/static/images/task_images/rocket-02.jpg"",""time"":1022.3000000715256},{""stimulus"":""run_exp/static/images/task_images/rocket-03.jpg"",""time"":2041.1000000238419},{""stimulus"":""run_exp/static/images/task_images/rocket-04.jpg"",""time"":3050.3000000715256},{""stimulus"":""run_exp/static/images/task_images/rocket-05.jpg"",""time"":4071.899999976158},{""stimulus"":""run_exp/static/images/task_images/rocket-06.jpg"",""time"":5089.700000047684},{""stimulus"":""run_exp/static/images/task_images/rocket-07.jpg"",""time"":6109.300000071526},{""stimulus"":""run_exp/static/images/task_images/rocket-08.jpg"",""time"":7112.800000071526},{""stimulus"":""run_exp/static/images/task_images/rocket-09.jpg"",""time"":8137.100000023842}]",[],3,,,,,,,,,,,,,,
alien_welcome,108,444172,0.0-35.0-1.0,"""event"",""trial"",""time""
""fullscreenenter"",""1"",""1404""
","
","
","""event"",""trial"",""time""
""fullscreenenter"",""1"",""1404""
","
",,null,run_exp/static/images/task_images/aliens/old_aliens/planet/alien_planet-38.jpg,null,,,,,,,,,,,,,38,"75,10,61,38,14,55,53,21,11,49,22,32,24,60,4,6,5,7,12,54,40,59,19,50,13,43,46,26,20,65,74,67,76,30,17",,,,,,,,,,
land,109,444686,0.0-35.0-2.0,"""event"",""trial"",""time""
""fullscreenenter"",""1"",""1404""
","
","
","""event"",""trial"",""time""
""fullscreenenter"",""1"",""1404""
","
",,null,run_exp/static/images/task_images/land.jpg,null,,,,,,,103,,,4,,,,,,,,,,,,,,
dig,110,446696,0.0-35.0-3.0,"""event"",""trial"",""time""
""fullscreenenter"",""1"",""1404""
","
","
","""event"",""trial"",""time""
""fullscreenenter"",""1"",""1404""
","
",,,,,,,,,,,,"[{""stimulus"":""run_exp/static/images/task_images/dig.jpg"",""time"":0.2999999523162842},{""stimulus"":""run_exp/static/images/task_images/land.jpg"",""time"":676.7999999523163},{""stimulus"":""run_exp/static/images/task_images/dig.jpg"",""time"":1345.5999999046326}]",[],4,,,,,,,,,,,,,,
harvest,111,447711,0.0-35.0-4.0,"""event"",""trial"",""time""
""fullscreenenter"",""1"",""1404""
","
","
","""event"",""trial"",""time""
""fullscreenenter"",""1"",""1404""
","
",,null,run_exp/static/images/task_images/gems/103.jpg,null,,,,,,,51,,,4,,,,,103,0.490671064,0.495145631,,,,,,,
decision,112,447741,0.0-35.0-5.0,"""event"",""trial"",""time""
""fullscreenenter"",""1"",""1404""
","
","
","""event"",""trial"",""time""
""fullscreenenter"",""1"",""1404""
","
",,28.19999993,run_exp/static/images/task_images/land.jpg,65,,,,,,,51,,,4,,,,,,,,100468,1,0,FALSE,,,
dig,113,450731,0.0-36.0-0.0,"""event"",""trial"",""time""
""fullscreenenter"",""1"",""1404""
","
","
","""event"",""trial"",""time""
""fullscreenenter"",""1"",""1404""
","
",,,,,,,,,,,,"[{""stimulus"":""run_exp/static/images/task_images/dig.jpg"",""time"":0.5},{""stimulus"":""run_exp/static/images/task_images/land.jpg"",""time"":992.2999999523163},{""stimulus"":""run_exp/static/images/task_images/dig.jpg"",""time"":1984.2999999523163}]",[],4,,,,,,,,,,,,,,
harvest,114,451739,0.0-36.0-1.0,"""event"",""trial"",""time""
""fullscreenenter"",""1"",""1404""
","
","
","""event"",""trial"",""time""
""fullscreenenter"",""1"",""1404""
","
",,null,run_exp/static/images/task_images/gems/51.jpg,null,,,,,,,25,,,4,,,,,51,0.485928366,0.490196078,,,,,,,
decision,115,451967,0.0-36.0-2.0,"""event"",""trial"",""time""
""fullscreenenter"",""1"",""1404""
","
","
","""event"",""trial"",""time""
""fullscreenenter"",""1"",""1404""
","
",,225.7,run_exp/static/images/task_images/land.jpg,65,,,,,,,25,,,4,,,,,,,,104694,1,1,FALSE,,,
dig,116,454749,0.0-37.0-0.0,"""event"",""trial"",""time""
""fullscreenenter"",""1"",""1404""
","
","
","""event"",""trial"",""time""
""fullscreenenter"",""1"",""1404""
","
",,,,,,,,,,,,"[{""stimulus"":""run_exp/static/images/task_images/dig.jpg"",""time"":0.3999999761581421},{""stimulus"":""run_exp/static/images/task_images/land.jpg"",""time"":932.6000000238419},{""stimulus"":""run_exp/static/images/task_images/dig.jpg"",""time"":1863.1000000238419}]",[],4,,,,,,,,,,,,,,
harvest,117,455765,0.0-37.0-1.0,"""event"",""trial"",""time""
""fullscreenenter"",""1"",""1404""
","
","
","""event"",""trial"",""time""
""fullscreenenter"",""1"",""1404""
","
",,null,run_exp/static/images/task_images/gems/25.jpg,null,,,,,,,12,,,4,,,,,25,0.486788831,0.48,,,,,,,
decision,118,455940,0.0-37.0-2.0,"""event"",""trial"",""time""
""fullscreenenter"",""1"",""1404""
","
","
","""event"",""trial"",""time""
""fullscreenenter"",""1"",""1404""
","
",,172.4,run_exp/static/images/task_images/land.jpg,65,,,,,,,12,,,4,,,,,,,,108667,1,2,FALSE,,,
dig,119,458786,0.0-38.0-0.0,"""event"",""trial"",""time""
""fullscreenenter"",""1"",""1404""
","
","
","""event"",""trial"",""time""
""fullscreenenter"",""1"",""1404""
","
",,,,,,,,,,,,"[{""stimulus"":""run_exp/static/images/task_images/dig.jpg"",""time"":0.5},{""stimulus"":""run_exp/static/images/task_images/land.jpg"",""time"":947.7999999523163},{""stimulus"":""run_exp/static/images/task_images/dig.jpg"",""time"":1898.2000000476837}]",[],4,,,,,,,,,,,,,,
harvest,120,459790,0.0-38.0-1.0,"""event"",""trial"",""time""
""fullscreenenter"",""1"",""1404""
","
","
","""event"",""trial"",""time""
""fullscreenenter"",""1"",""1404""
","
",,null,run_exp/static/images/task_images/gems/12.jpg,null,,,,,,,6,,,4,,,,,12,0.495158332,0.5,,,,,,,
decision,121,459847,0.0-38.0-2.0,"""event"",""trial"",""time""
""fullscreenenter"",""1"",""1404""
","
","
","""event"",""trial"",""time""
""fullscreenenter"",""1"",""1404""
","
",,56.0999999,run_exp/static/images/task_images/land.jpg,76,,,,,,,6,,,4,,,,,,,,112574,1,3,TRUE,,,
travel,122,469793,0.0-39.0-0.0,"""event"",""trial"",""time""
""fullscreenenter"",""1"",""1404""
","
","
","""event"",""trial"",""time""
""fullscreenenter"",""1"",""1404""
","
",,,,,,,,,,,,"[{""stimulus"":""run_exp/static/images/task_images/rocket-01.jpg"",""time"":0.19999992847442627},{""stimulus"":""run_exp/static/images/task_images/rocket-02.jpg"",""time"":1116.6000000238419},{""stimulus"":""run_exp/static/images/task_images/rocket-03.jpg"",""time"":2223},{""stimulus"":""run_exp/static/images/task_images/rocket-04.jpg"",""time"":3319.100000023842},{""stimulus"":""run_exp/static/images/task_images/rocket-05.jpg"",""time"":4431.600000023842},{""stimulus"":""run_exp/static/images/task_images/rocket-06.jpg"",""time"":5534.899999976158},{""stimulus"":""run_exp/static/images/task_images/rocket-07.jpg"",""time"":6635.100000023842},{""stimulus"":""run_exp/static/images/task_images/rocket-08.jpg"",""time"":7734},{""stimulus"":""run_exp/static/images/task_images/rocket-09.jpg"",""time"":8846.799999952316}]",[],4,,,,,,,,,,,,,,
alien_welcome,123,474800,0.0-39.0-1.0,"""event"",""trial"",""time""
""fullscreenenter"",""1"",""1404""
","
","
","""event"",""trial"",""time""
""fullscreenenter"",""1"",""1404""
","
",,null,run_exp/static/images/task_images/aliens/old_aliens/planet/alien_planet-14.jpg,null,,,,,,,,,,,,,14,"75,10,61,38,14,55,53,21,11,49,22,32,24,60,4,6,5,7,12,54,40,59,19,50,13,43,46,26,20,65,74,67,76,30,17",,,,,,,,,,
land,124,475313,0.0-39.0-2.0,"""event"",""trial"",""time""
""fullscreenenter"",""1"",""1404""
","
","
","""event"",""trial"",""time""
""fullscreenenter"",""1"",""1404""
","
",,null,run_exp/static/images/task_images/land.jpg,null,,,,,,,99,,,5,,,,,,,,,,,,,,
dig,125,477324,0.0-39.0-3.0,"""event"",""trial"",""time""
""fullscreenenter"",""1"",""1404""
","
","
","""event"",""trial"",""time""
""fullscreenenter"",""1"",""1404""
","
",,,,,,,,,,,,"[{""stimulus"":""run_exp/static/images/task_images/dig.jpg"",""time"":0.19999992847442627},{""stimulus"":""run_exp/static/images/task_images/land.jpg"",""time"":677.2999999523163},{""stimulus"":""run_exp/static/images/task_images/dig.jpg"",""time"":1350.2999999523163}]",[],5,,,,,,,,,,,,,,
harvest,126,478334,0.0-39.0-4.0,"""event"",""trial"",""time""
""fullscreenenter"",""1"",""1404""
","
","
","""event"",""trial"",""time""
""fullscreenenter"",""1"",""1404""
","
",,null,run_exp/static/images/task_images/gems/99.jpg,null,,,,,,,45,,,5,,,,,99,0.450644432,0.454545455,,,,,,,
decision,127,478390,0.0-39.0-5.0,"""event"",""trial"",""time""
""fullscreenenter"",""1"",""1404""
","
","
","""event"",""trial"",""time""
""fullscreenenter"",""1"",""1404""
","
",,54.10000002,run_exp/static/images/task_images/land.jpg,65,,,,,,,45,,,5,,,,,,,,131118,1,0,FALSE,,,
dig,128,481346,0.0-40.0-0.0,"""event"",""trial"",""time""
""fullscreenenter"",""1"",""1404""
","
","
","""event"",""trial"",""time""
""fullscreenenter"",""1"",""1404""
","
",,,,,,,,,,,,"[{""stimulus"":""run_exp/static/images/task_images/dig.jpg"",""time"":0.3999999761581421},{""stimulus"":""run_exp/static/images/task_images/land.jpg"",""time"":986},{""stimulus"":""run_exp/static/images/task_images/dig.jpg"",""time"":1977}]",[],5,,,,,,,,,,,,,,
harvest,129,482355,0.0-40.0-1.0,"""event"",""trial"",""time""
""fullscreenenter"",""1"",""1404""
","
","
","""event"",""trial"",""time""
""fullscreenenter"",""1"",""1404""
","
",,null,run_exp/static/images/task_images/gems/45.jpg,null,,,,,,,19,,,5,,,,,45,0.4228139,0.422222222,,,,,,,
decision,130,482373,0.0-40.0-2.0,"""event"",""trial"",""time""
""fullscreenenter"",""1"",""1404""
","
","
","""event"",""trial"",""time""
""fullscreenenter"",""1"",""1404""
","
",,15.60000002,run_exp/static/images/task_images/land.jpg,65,,,,,,,19,,,5,,,,,,,,135100,1,1,FALSE,,,
dig,131,485368,0.0-41.0-0.0,"""event"",""trial"",""time""
""fullscreenenter"",""1"",""1404""
","
","
","""event"",""trial"",""time""
""fullscreenenter"",""1"",""1404""
","
",,,,,,,,,,,,"[{""stimulus"":""run_exp/static/images/task_images/dig.jpg"",""time"":0.10000002384185791},{""stimulus"":""run_exp/static/images/task_images/land.jpg"",""time"":1001.1999999284744},{""stimulus"":""run_exp/static/images/task_images/dig.jpg"",""time"":2000.1000000238419}]",[],5,,,,,,,,,,,,,,
harvest,132,486372,0.0-41.0-1.0,"""event"",""trial"",""time""
""fullscreenenter"",""1"",""1404""
","
","
","""event"",""trial"",""time""
""fullscreenenter"",""1"",""1404""
","
",,null,run_exp/static/images/task_images/gems/19.jpg,null,,,,,,,10,,,5,,,,,19,0.524649114,0.526315789,,,,,,,
decision,133,486528,0.0-41.0-2.0,"""event"",""trial"",""time""
""fullscreenenter"",""1"",""1404""
","
","
","""event"",""trial"",""time""
""fullscreenenter"",""1"",""1404""
","
",,153.0999999,run_exp/static/images/task_images/land.jpg,65,,,,,,,10,,,5,,,,,,,,139255,1,2,FALSE,,,
dig,134,489387,0.0-42.0-0.0,"""event"",""trial"",""time""
""fullscreenenter"",""1"",""1404""
","
","
","""event"",""trial"",""time""
""fullscreenenter"",""1"",""1404""
","
",,,,,,,,,,,,"[{""stimulus"":""run_exp/static/images/task_images/dig.jpg"",""time"":0.3999999761581421},{""stimulus"":""run_exp/static/images/task_images/land.jpg"",""time"":958.6000000238419},{""stimulus"":""run_exp/static/images/task_images/dig.jpg"",""time"":1898.1000000238419}]",[],5,,,,,,,,,,,,,,
harvest,135,490399,0.0-42.0-1.0,"""event"",""trial"",""time""
""fullscreenenter"",""1"",""1404""
","
","
","""event"",""trial"",""time""
""fullscreenenter"",""1"",""1404""
","
",,null,run_exp/static/images/task_images/gems/10.jpg,null,,,,,,,6,,,5,,,,,10,0.552827535,0.6,,,,,,,
decision,136,491924,0.0-42.0-2.0,"""event"",""trial"",""time""
""fullscreenenter"",""1"",""1404""
","
","
","""event"",""trial"",""time""
""fullscreenenter"",""1"",""1404""
","
",,1523.1,run_exp/static/images/task_images/land.jpg,76,,,,,,,6,,,5,,,,,,,,144651,1,3,TRUE,,,
travel,137,500408,0.0-43.0-0.0,"""event"",""trial"",""time""
""fullscreenenter"",""1"",""1404""
","
","
","""event"",""trial"",""time""
""fullscreenenter"",""1"",""1404""
","
",,,,,,,,,,,,"[{""stimulus"":""run_exp/static/images/task_images/rocket-01.jpg"",""time"":0.40000009536743164},{""stimulus"":""run_exp/static/images/task_images/rocket-02.jpg"",""time"":952.5},{""stimulus"":""run_exp/static/images/task_images/rocket-03.jpg"",""time"":1886.7000000476837},{""stimulus"":""run_exp/static/images/task_images/rocket-04.jpg"",""time"":2834.3000000715256},{""stimulus"":""run_exp/static/images/task_images/rocket-05.jpg"",""time"":3770.2000000476837},{""stimulus"":""run_exp/static/images/task_images/rocket-06.jpg"",""time"":4712.900000095367},{""stimulus"":""run_exp/static/images/task_images/rocket-07.jpg"",""time"":5655.600000023842},{""stimulus"":""run_exp/static/images/task_images/rocket-08.jpg"",""time"":6601.400000095367},{""stimulus"":""run_exp/static/images/task_images/rocket-09.jpg"",""time"":7544.700000047684}]",[],5,,,,,,,,,,,,,,
alien_welcome,138,505421,0.0-43.0-1.0,"""event"",""trial"",""time""
""fullscreenenter"",""1"",""1404""
","
","
","""event"",""trial"",""time""
""fullscreenenter"",""1"",""1404""
","
",,null,run_exp/static/images/task_images/aliens/old_aliens/planet/alien_planet-55.jpg,null,,,,,,,,,,,,,55,"75,10,61,38,14,55,53,21,11,49,22,32,24,60,4,6,5,7,12,54,40,59,19,50,13,43,46,26,20,65,74,67,76,30,17",,,,,,,,,,
land,139,505927,0.0-43.0-2.0,"""event"",""trial"",""time""
""fullscreenenter"",""1"",""1404""
","
","
","""event"",""trial"",""time""
""fullscreenenter"",""1"",""1404""
","
",,null,run_exp/static/images/task_images/land.jpg,null,,,,,,,96,,,6,,,,,,,,,,,,,,
dig,140,507932,0.0-43.0-3.0,"""event"",""trial"",""time""
""fullscreenenter"",""1"",""1404""
","
","
","""event"",""trial"",""time""
""fullscreenenter"",""1"",""1404""
","
",,,,,,,,,,,,"[{""stimulus"":""run_exp/static/images/task_images/dig.jpg"",""time"":0.30000007152557373},{""stimulus"":""run_exp/static/images/task_images/land.jpg"",""time"":676.7000000476837},{""stimulus"":""run_exp/static/images/task_images/dig.jpg"",""time"":1348.2000000476837}]",[],6,,,,,,,,,,,,,,
harvest,141,508944,0.0-43.0-4.0,"""event"",""trial"",""time""
""fullscreenenter"",""1"",""1404""
","
","
","""event"",""trial"",""time""
""fullscreenenter"",""1"",""1404""
","
",,null,run_exp/static/images/task_images/gems/96.jpg,null,,,,,,,81,,,6,,,,,96,0.841545395,0.84375,,,,,,,
decision,142,508970,0.0-43.0-5.0,"""event"",""trial"",""time""
""fullscreenenter"",""1"",""1404""
","
","
","""event"",""trial"",""time""
""fullscreenenter"",""1"",""1404""
","
",,22.70000005,run_exp/static/images/task_images/land.jpg,65,,,,,,,81,,,6,,,,,,,,161697,1,0,FALSE,,,
dig,143,511950,0.0-44.0-0.0,"""event"",""trial"",""time""
""fullscreenenter"",""1"",""1404""
","
","
","""event"",""trial"",""time""
""fullscreenenter"",""1"",""1404""
","
",,,,,,,,,,,,"[{""stimulus"":""run_exp/static/images/task_images/dig.jpg"",""time"":0.10000002384185791},{""stimulus"":""run_exp/static/images/task_images/land.jpg"",""time"":996.6000000238419},{""stimulus"":""run_exp/static/images/task_images/dig.jpg"",""time"":1993.8999999761581}]",[],6,,,,,,,,,,,,,,
harvest,144,512967,0.0-44.0-1.0,"""event"",""trial"",""time""
""fullscreenenter"",""1"",""1404""
","
","
","""event"",""trial"",""time""
""fullscreenenter"",""1"",""1404""
","
",,null,run_exp/static/images/task_images/gems/81.jpg,null,,,,,,,63,,,6,,,,,81,0.78150451,0.777777778,,,,,,,
decision,145,513143,0.0-44.0-2.0,"""event"",""trial"",""time""
""fullscreenenter"",""1"",""1404""
","
","
","""event"",""trial"",""time""
""fullscreenenter"",""1"",""1404""
","
",,175.3,run_exp/static/images/task_images/land.jpg,65,,,,,,,63,,,6,,,,,,,,165870,1,1,FALSE,,,
dig,146,515981,0.0-45.0-0.0,"""event"",""trial"",""time""
""fullscreenenter"",""1"",""1404""
","
","
","""event"",""trial"",""time""
""fullscreenenter"",""1"",""1404""
","
",,,,,,,,,,,,"[{""stimulus"":""run_exp/static/images/task_images/dig.jpg"",""time"":0.3999999761581421},{""stimulus"":""run_exp/static/images/task_images/land.jpg"",""time"":955.6999999284744},{""stimulus"":""run_exp/static/images/task_images/dig.jpg"",""time"":1894.6999999284744}]",[],6,,,,,,,,,,,,,,
harvest,147,516998,0.0-45.0-1.0,"""event"",""trial"",""time""
""fullscreenenter"",""1"",""1404""
","
","
","""event"",""trial"",""time""
""fullscreenenter"",""1"",""1404""
","
",,null,run_exp/static/images/task_images/gems/63.jpg,null,,,,,,,50,,,6,,,,,63,0.796504469,0.793650794,,,,,,,
decision,148,517078,0.0-45.0-2.0,"""event"",""trial"",""time""
""fullscreenenter"",""1"",""1404""
","
","
","""event"",""trial"",""time""
""fullscreenenter"",""1"",""1404""
","
",,77.30000007,run_exp/static/images/task_images/land.jpg,65,,,,,,,50,,,6,,,,,,,,169805,1,2,FALSE,,,
dig,149,520010,0.0-46.0-0.0,"""event"",""trial"",""time""
""fullscreenenter"",""1"",""1404""
","
","
","""event"",""trial"",""time""
""fullscreenenter"",""1"",""1404""
","
",,,,,,,,,,,,"[{""stimulus"":""run_exp/static/images/task_images/dig.jpg"",""time"":0.5},{""stimulus"":""run_exp/static/images/task_images/land.jpg"",""time"":975.7999999523163},{""stimulus"":""run_exp/static/images/task_images/dig.jpg"",""time"":1956.7000000476837}]",[],6,,,,,,,,,,,,,,
harvest,150,521015,0.0-46.0-1.0,"""event"",""trial"",""time""
""fullscreenenter"",""1"",""1404""
","
","
","""event"",""trial"",""time""
""fullscreenenter"",""1"",""1404""
","
",,null,run_exp/static/images/task_images/gems/50.jpg,null,,,,,,,43,,,6,,,,,50,0.858258866,0.86,,,,,,,
decision,151,521188,0.0-46.0-2.0,"""event"",""trial"",""time""
""fullscreenenter"",""1"",""1404""
","
","
","""event"",""trial"",""time""
""fullscreenenter"",""1"",""1404""
","
",,170.9,run_exp/static/images/task_images/land.jpg,65,,,,,,,43,,,6,,,,,,,,173915,1,3,FALSE,,,
dig,152,524030,0.0-47.0-0.0,"""event"",""trial"",""time""
""fullscreenenter"",""1"",""1404""
","
","
","""event"",""trial"",""time""
""fullscreenenter"",""1"",""1404""
","
",,,,,,,,,,,,"[{""stimulus"":""run_exp/static/images/task_images/dig.jpg"",""time"":0.3999999761581421},{""stimulus"":""run_exp/static/images/task_images/land.jpg"",""time"":959.5999999046326},{""stimulus"":""run_exp/static/images/task_images/dig.jpg"",""time"":1891.5}]",[],6,,,,,,,,,,,,,,
harvest,153,525045,0.0-47.0-1.0,"""event"",""trial"",""time""
""fullscreenenter"",""1"",""1404""
","
","
","""event"",""trial"",""time""
""fullscreenenter"",""1"",""1404""
","
",,null,run_exp/static/images/task_images/gems/43.jpg,null,,,,,,,36,,,6,,,,,43,0.829217879,0.837209302,,,,,,,
decision,154,525150,0.0-47.0-2.0,"""event"",""trial"",""time""
""fullscreenenter"",""1"",""1404""
","
","
","""event"",""trial"",""time""
""fullscreenenter"",""1"",""1404""
","
",,103.5,run_exp/static/images/task_images/land.jpg,65,,,,,,,36,,,6,,,,,,,,177877,1,4,FALSE,,,
dig,155,528061,0.0-48.0-0.0,"""event"",""trial"",""time""
""fullscreenenter"",""1"",""1404""
","
","
","""event"",""trial"",""time""
""fullscreenenter"",""1"",""1404""
","
",,,,,,,,,,,,"[{""stimulus"":""run_exp/static/images/task_images/dig.jpg"",""time"":0.40000009536743164},{""stimulus"":""run_exp/static/images/task_images/land.jpg"",""time"":967.8000000715256},{""stimulus"":""run_exp/static/images/task_images/dig.jpg"",""time"":1938.7000000476837}]",[],6,,,,,,,,,,,,,,
harvest,156,529075,0.0-48.0-1.0,"""event"",""trial"",""time""
""fullscreenenter"",""1"",""1404""
","
","
","""event"",""trial"",""time""
""fullscreenenter"",""1"",""1404""
","
",,null,run_exp/static/images/task_images/gems/36.jpg,null,,,,,,,29,,,6,,,,,36,0.802586165,0.805555556,,,,,,,
decision,157,529127,0.0-48.0-2.0,"""event"",""trial"",""time""
""fullscreenenter"",""1"",""1404""
","
","
","""event"",""trial"",""time""
""fullscreenenter"",""1"",""1404""
","
",,47.0999999,run_exp/static/images/task_images/land.jpg,65,,,,,,,29,,,6,,,,,,,,181854,1,5,FALSE,,,
dig,158,532088,0.0-49.0-0.0,"""event"",""trial"",""time""
""fullscreenenter"",""1"",""1404""
","
","
","""event"",""trial"",""time""
""fullscreenenter"",""1"",""1404""
","
",,,,,,,,,,,,"[{""stimulus"":""run_exp/static/images/task_images/dig.jpg"",""time"":0.30000007152557373},{""stimulus"":""run_exp/static/images/task_images/land.jpg"",""time"":994.5},{""stimulus"":""run_exp/static/images/task_images/dig.jpg"",""time"":1971}]",[],6,,,,,,,,,,,,,,
harvest,159,533095,0.0-49.0-1.0,"""event"",""trial"",""time""
""fullscreenenter"",""1"",""1404""
","
","
","""event"",""trial"",""time""
""fullscreenenter"",""1"",""1404""
","
",,null,run_exp/static/images/task_images/gems/29.jpg,null,,,,,,,21,,,6,,,,,29,0.726446617,0.724137931,,,,,,,
decision,160,533106,0.0-49.0-2.0,"""event"",""trial"",""time""
""fullscreenenter"",""1"",""1404""
","
","
","""event"",""trial"",""time""
""fullscreenenter"",""1"",""1404""
","
",,9.100000024,run_exp/static/images/task_images/land.jpg,65,,,,,,,21,,,6,,,,,,,,185834,1,6,FALSE,,,
dig,161,536116,0.0-50.0-0.0,"""event"",""trial"",""time""
""fullscreenenter"",""1"",""1404""
","
","
","""event"",""trial"",""time""
""fullscreenenter"",""1"",""1404""
","
",,,,,,,,,,,,"[{""stimulus"":""run_exp/static/images/task_images/dig.jpg"",""time"":0.5},{""stimulus"":""run_exp/static/images/task_images/land.jpg"",""time"":1007.3000000715256},{""stimulus"":""run_exp/static/images/task_images/dig.jpg"",""time"":2000.3000000715256}]",[],6,,,,,,,,,,,,,,
harvest,162,537128,0.0-50.0-1.0,"""event"",""trial"",""time""
""fullscreenenter"",""1"",""1404""
","
","
","""event"",""trial"",""time""
""fullscreenenter"",""1"",""1404""
","
",,null,run_exp/static/images/task_images/gems/21.jpg,null,,,,,,,17,,,6,,,,,21,0.82323672,0.80952381,,,,,,,
decision,163,537184,0.0-50.0-2.0,"""event"",""trial"",""time""
""fullscreenenter"",""1"",""1404""
","
","
","""event"",""trial"",""time""
""fullscreenenter"",""1"",""1404""
","
",,54.10000002,run_exp/static/images/task_images/land.jpg,65,,,,,,,17,,,6,,,,,,,,189911,1,7,FALSE,,,
dig,164,540135,0.0-51.0-0.0,"""event"",""trial"",""time""
""fullscreenenter"",""1"",""1404""
","
","
","""event"",""trial"",""time""
""fullscreenenter"",""1"",""1404""
","
",,,,,,,,,,,,"[{""stimulus"":""run_exp/static/images/task_images/dig.jpg"",""time"":0.20000004768371582},{""stimulus"":""run_exp/static/images/task_images/land.jpg"",""time"":993.3000000715256},{""stimulus"":""run_exp/static/images/task_images/dig.jpg"",""time"":1974.5}]",[],6,,,,,,,,,,,,,,
harvest,165,541144,0.0-51.0-1.0,"""event"",""trial"",""time""
""fullscreenenter"",""1"",""1404""
","
","
","""event"",""trial"",""time""
""fullscreenenter"",""1"",""1404""
","
",,null,run_exp/static/images/task_images/gems/17.jpg,null,,,,,,,14,,,6,,,,,17,0.798361679,0.823529412,,,,,,,
decision,166,541194,0.0-51.0-2.0,"""event"",""trial"",""time""
""fullscreenenter"",""1"",""1404""
","
","
","""event"",""trial"",""time""
""fullscreenenter"",""1"",""1404""
","
",,48.10000002,run_exp/static/images/task_images/land.jpg,65,,,,,,,14,,,6,,,,,,,,193921,1,8,FALSE,,,
dig,167,544158,0.0-52.0-0.0,"""event"",""trial"",""time""
""fullscreenenter"",""1"",""1404""
","
","
","""event"",""trial"",""time""
""fullscreenenter"",""1"",""1404""
","
",,,,,,,,,,,,"[{""stimulus"":""run_exp/static/images/task_images/dig.jpg"",""time"":0.10000002384185791},{""stimulus"":""run_exp/static/images/task_images/land.jpg"",""time"":993.8999999761581},{""stimulus"":""run_exp/static/images/task_images/dig.jpg"",""time"":1972.5}]",[],6,,,,,,,,,,,,,,
harvest,168,545167,0.0-52.0-1.0,"""event"",""trial"",""time""
""fullscreenenter"",""1"",""1404""
","
","
","""event"",""trial"",""time""
""fullscreenenter"",""1"",""1404""
","
",,null,run_exp/static/images/task_images/gems/14.jpg,null,,,,,,,11,,,6,,,,,14,0.774127844,0.785714286,,,,,,,
decision,169,545287,0.0-52.0-2.0,"""event"",""trial"",""time""
""fullscreenenter"",""1"",""1404""
","
","
","""event"",""trial"",""time""
""fullscreenenter"",""1"",""1404""
","
",,119,run_exp/static/images/task_images/land.jpg,65,,,,,,,11,,,6,,,,,,,,198014,1,9,FALSE,,,
dig,170,548189,0.0-53.0-0.0,"""event"",""trial"",""time""
""fullscreenenter"",""1"",""1404""
","
","
","""event"",""trial"",""time""
""fullscreenenter"",""1"",""1404""
","
",,,,,,,,,,,,"[{""stimulus"":""run_exp/static/images/task_images/dig.jpg"",""time"":0.20000004768371582},{""stimulus"":""run_exp/static/images/task_images/land.jpg"",""time"":974.2000000476837},{""stimulus"":""run_exp/static/images/task_images/dig.jpg"",""time"":1926.8000000715256}]",[],6,,,,,,,,,,,,,,
harvest,171,549196,0.0-53.0-1.0,"""event"",""trial"",""time""
""fullscreenenter"",""1"",""1404""
","
","
","""event"",""trial"",""time""
""fullscreenenter"",""1"",""1404""
","
",,null,run_exp/static/images/task_images/gems/11.jpg,null,,,,,,,9,,,6,,,,,11,0.799622734,0.818181818,,,,,,,
decision,172,549781,0.0-53.0-2.0,"""event"",""trial"",""time""
""fullscreenenter"",""1"",""1404""
","
","
","""event"",""trial"",""time""
""fullscreenenter"",""1"",""1404""
","
",,582.5,run_exp/static/images/task_images/land.jpg,76,,,,,,,9,,,6,,,,,,,,202508,1,10,TRUE,,,
travel,173,559204,0.0-54.0-0.0,"""event"",""trial"",""time""
""fullscreenenter"",""1"",""1404""
","
","
","""event"",""trial"",""time""
""fullscreenenter"",""1"",""1404""
","
",,,,,,,,,,,,"[{""stimulus"":""run_exp/static/images/task_images/rocket-01.jpg"",""time"":0.19999992847442627},{""stimulus"":""run_exp/static/images/task_images/rocket-02.jpg"",""time"":1056.1999999284744},{""stimulus"":""run_exp/static/images/task_images/rocket-03.jpg"",""time"":2107.399999976158},{""stimulus"":""run_exp/static/images/task_images/rocket-04.jpg"",""time"":3148.6999999284744},{""stimulus"":""run_exp/static/images/task_images/rocket-05.jpg"",""time"":4192.699999928474},{""stimulus"":""run_exp/static/images/task_images/rocket-06.jpg"",""time"":5234.599999904633},{""stimulus"":""run_exp/static/images/task_images/rocket-07.jpg"",""time"":6287},{""stimulus"":""run_exp/static/images/task_images/rocket-08.jpg"",""time"":7328.899999976158},{""stimulus"":""run_exp/static/images/task_images/rocket-09.jpg"",""time"":8369.699999928474}]",[],6,,,,,,,,,,,,,,
alien_welcome,174,564220,0.0-54.0-1.0,"""event"",""trial"",""time""
""fullscreenenter"",""1"",""1404""
","
","
","""event"",""trial"",""time""
""fullscreenenter"",""1"",""1404""
","
",,null,run_exp/static/images/task_images/aliens/old_aliens/planet/alien_planet-53.jpg,null,,,,,,,,,,,,,53,"75,10,61,38,14,55,53,21,11,49,22,32,24,60,4,6,5,7,12,54,40,59,19,50,13,43,46,26,20,65,74,67,76,30,17",,,,,,,,,,
land,175,564725,0.0-54.0-2.0,"""event"",""trial"",""time""
""fullscreenenter"",""1"",""1404""
","
","
","""event"",""trial"",""time""
""fullscreenenter"",""1"",""1404""
","
",,null,run_exp/static/images/task_images/land.jpg,null,,,,,,,99,,,7,,,,,,,,,,,,,,
dig,176,566736,0.0-54.0-3.0,"""event"",""trial"",""time""
""fullscreenenter"",""1"",""1404""
","
","
","""event"",""trial"",""time""
""fullscreenenter"",""1"",""1404""
","
",,,,,,,,,,,,"[{""stimulus"":""run_exp/static/images/task_images/dig.jpg"",""time"":0.19999992847442627},{""stimulus"":""run_exp/static/images/task_images/land.jpg"",""time"":684.2999999523163},{""stimulus"":""run_exp/static/images/task_images/dig.jpg"",""time"":1338.5}]",[],7,,,,,,,,,,,,,,
harvest,177,567741,0.0-54.0-4.0,"""event"",""trial"",""time""
""fullscreenenter"",""1"",""1404""
","
","
","""event"",""trial"",""time""
""fullscreenenter"",""1"",""1404""
","
",,null,run_exp/static/images/task_images/gems/99.jpg,null,,,,,,,81,,,7,,,,,99,0.814906121,0.818181818,,,,,,,
decision,178,567744,0.0-54.0-5.0,"""event"",""trial"",""time""
""fullscreenenter"",""1"",""1404""
","
","
","""event"",""trial"",""time""
""fullscreenenter"",""1"",""1404""
","
",,1.300000072,run_exp/static/images/task_images/land.jpg,65,,,,,,,81,,,7,,,,,,,,220471,1,0,FALSE,,,
dig,179,570755,0.0-55.0-0.0,"""event"",""trial"",""time""
""fullscreenenter"",""1"",""1404""
","
","
","""event"",""trial"",""time""
""fullscreenenter"",""1"",""1404""
","
",,,,,,,,,,,,"[{""stimulus"":""run_exp/static/images/task_images/dig.jpg"",""time"":0.09999990463256836},{""stimulus"":""run_exp/static/images/task_images/land.jpg"",""time"":1004.1999999284744},{""stimulus"":""run_exp/static/images/task_images/dig.jpg"",""time"":2011.1999999284744}]",[],7,,,,,,,,,,,,,,
harvest,180,571764,0.0-55.0-1.0,"""event"",""trial"",""time""
""fullscreenenter"",""1"",""1404""
","
","
","""event"",""trial"",""time""
""fullscreenenter"",""1"",""1404""
","
",,null,run_exp/static/images/task_images/gems/81.jpg,null,,,,,,,66,,,7,,,,,81,0.815603147,0.814814815,,,,,,,
decision,181,571883,0.0-55.0-2.0,"""event"",""trial"",""time""
""fullscreenenter"",""1"",""1404""
","
","
","""event"",""trial"",""time""
""fullscreenenter"",""1"",""1404""
","
",,117.1,run_exp/static/images/task_images/land.jpg,65,,,,,,,66,,,7,,,,,,,,224610,1,1,FALSE,,,
dig,182,574783,0.0-56.0-0.0,"""event"",""trial"",""time""
""fullscreenenter"",""1"",""1404""
","
","
","""event"",""trial"",""time""
""fullscreenenter"",""1"",""1404""
","
",,,,,,,,,,,,"[{""stimulus"":""run_exp/static/images/task_images/dig.jpg"",""time"":0.3999999761581421},{""stimulus"":""run_exp/static/images/task_images/land.jpg"",""time"":975.5},{""stimulus"":""run_exp/static/images/task_images/dig.jpg"",""time"":1933.5}]",[],7,,,,,,,,,,,,,,
harvest,183,575787,0.0-56.0-1.0,"""event"",""trial"",""time""
""fullscreenenter"",""1"",""1404""
","
","
","""event"",""trial"",""time""
""fullscreenenter"",""1"",""1404""
","
",,null,run_exp/static/images/task_images/gems/66.jpg,null,,,,,,,56,,,7,,,,,66,0.850142398,0.848484848,,,,,,,
decision,184,575887,0.0-56.0-2.0,"""event"",""trial"",""time""
""fullscreenenter"",""1"",""1404""
","
","
","""event"",""trial"",""time""
""fullscreenenter"",""1"",""1404""
","
",,98.60000002,run_exp/static/images/task_images/land.jpg,65,,,,,,,56,,,7,,,,,,,,228614,1,2,FALSE,,,
dig,185,578801,0.0-57.0-0.0,"""event"",""trial"",""time""
""fullscreenenter"",""1"",""1404""
","
","
","""event"",""trial"",""time""
""fullscreenenter"",""1"",""1404""
","
",,,,,,,,,,,,"[{""stimulus"":""run_exp/static/images/task_images/dig.jpg"",""time"":0.10000002384185791},{""stimulus"":""run_exp/static/images/task_images/land.jpg"",""time"":978.5},{""stimulus"":""run_exp/static/images/task_images/dig.jpg"",""time"":1943.3999999761581}]",[],7,,,,,,,,,,,,,,
harvest,186,579805,0.0-57.0-1.0,"""event"",""trial"",""time""
""fullscreenenter"",""1"",""1404""
","
","
","""event"",""trial"",""time""
""fullscreenenter"",""1"",""1404""
","
",,null,run_exp/static/images/task_images/gems/56.jpg,null,,,,,,,46,,,7,,,,,56,0.821059234,0.821428571,,,,,,,
decision,187,579981,0.0-57.0-2.0,"""event"",""trial"",""time""
""fullscreenenter"",""1"",""1404""
","
","
","""event"",""trial"",""time""
""fullscreenenter"",""1"",""1404""
","
",,173.1,run_exp/static/images/task_images/land.jpg,65,,,,,,,46,,,7,,,,,,,,232708,1,3,FALSE,,,
dig,188,582820,0.0-58.0-0.0,"""event"",""trial"",""time""
""fullscreenenter"",""1"",""1404""
","
","
","""event"",""trial"",""time""
""fullscreenenter"",""1"",""1404""
","
",,,,,,,,,,,,"[{""stimulus"":""run_exp/static/images/task_images/dig.jpg"",""time"":0.5},{""stimulus"":""run_exp/static/images/task_images/land.jpg"",""time"":956.5},{""stimulus"":""run_exp/static/images/task_images/dig.jpg"",""time"":1894.3000000715256}]",[],7,,,,,,,,,,,,,,
harvest,189,583822,0.0-58.0-1.0,"""event"",""trial"",""time""
""fullscreenenter"",""1"",""1404""
","
","
","""event"",""trial"",""time""
""fullscreenenter"",""1"",""1404""
","
",,null,run_exp/static/images/task_images/gems/46.jpg,null,,,,,,,36,,,7,,,,,46,0.781184416,0.782608696,,,,,,,
decision,190,583938,0.0-58.0-2.0,"""event"",""trial"",""time""
""fullscreenenter"",""1"",""1404""
","
","
","""event"",""trial"",""time""
""fullscreenenter"",""1"",""1404""
","
",,113.9,run_exp/static/images/task_images/land.jpg,65,,,,,,,36,,,7,,,,,,,,236665,1,4,FALSE,,,
dig,191,586847,0.0-59.0-0.0,"""event"",""trial"",""time""
""fullscreenenter"",""1"",""1404""
","
","
","""event"",""trial"",""time""
""fullscreenenter"",""1"",""1404""
","
",,,,,,,,,,,,"[{""stimulus"":""run_exp/static/images/task_images/dig.jpg"",""time"":0.3999999761581421},{""stimulus"":""run_exp/static/images/task_images/land.jpg"",""time"":975.5},{""stimulus"":""run_exp/static/images/task_images/dig.jpg"",""time"":1939.2000000476837}]",[],7,,,,,,,,,,,,,,
harvest,192,587856,0.0-59.0-1.0,"""event"",""trial"",""time""
""fullscreenenter"",""1"",""1404""
","
","
","""event"",""trial"",""time""
""fullscreenenter"",""1"",""1404""
","
",,null,run_exp/static/images/task_images/gems/36.jpg,null,,,,,,,31,,,7,,,,,36,0.869827741,0.861111111,,,,,,,
decision,193,588024,0.0-59.0-2.0,"""event"",""trial"",""time""
""fullscreenenter"",""1"",""1404""
","
","
","""event"",""trial"",""time""
""fullscreenenter"",""1"",""1404""
","
",,165,run_exp/static/images/task_images/land.jpg,65,,,,,,,31,,,7,,,,,,,,240751,1,5,FALSE,,,
dig,194,590868,0.0-60.0-0.0,"""event"",""trial"",""time""
""fullscreenenter"",""1"",""1404""
","
","
","""event"",""trial"",""time""
""fullscreenenter"",""1"",""1404""
","
",,,,,,,,,,,,"[{""stimulus"":""run_exp/static/images/task_images/dig.jpg"",""time"":0.09999990463256836},{""stimulus"":""run_exp/static/images/task_images/land.jpg"",""time"":950.7999999523163},{""stimulus"":""run_exp/static/images/task_images/dig.jpg"",""time"":1903.6999999284744}]",[],7,,,,,,,,,,,,,,
harvest,195,591874,0.0-60.0-1.0,"""event"",""trial"",""time""
""fullscreenenter"",""1"",""1404""
","
","
","""event"",""trial"",""time""
""fullscreenenter"",""1"",""1404""
","
",,null,run_exp/static/images/task_images/gems/31.jpg,null,,,,,,,24,,,7,,,,,31,0.784612161,0.774193548,,,,,,,
decision,196,591893,0.0-60.0-2.0,"""event"",""trial"",""time""
""fullscreenenter"",""1"",""1404""
","
","
","""event"",""trial"",""time""
""fullscreenenter"",""1"",""1404""
","
",,17.39999998,run_exp/static/images/task_images/land.jpg,65,,,,,,,24,,,7,,,,,,,,244620,1,6,FALSE,,,
dig,197,594882,0.0-61.0-0.0,"""event"",""trial"",""time""
""fullscreenenter"",""1"",""1404""
","
","
","""event"",""trial"",""time""
""fullscreenenter"",""1"",""1404""
","
",,,,,,,,,,,,"[{""stimulus"":""run_exp/static/images/task_images/dig.jpg"",""time"":0.09999990463256836},{""stimulus"":""run_exp/static/images/task_images/land.jpg"",""time"":1007.6999999284744},{""stimulus"":""run_exp/static/images/task_images/dig.jpg"",""time"":2000.2999999523163}]",[],7,,,,,,,,,,,,,,
harvest,198,595884,0.0-61.0-1.0,"""event"",""trial"",""time""
""fullscreenenter"",""1"",""1404""
","
","
","""event"",""trial"",""time""
""fullscreenenter"",""1"",""1404""
","
",,null,run_exp/static/images/task_images/gems/24.jpg,null,,,,,,,20,,,7,,,,,24,0.823819281,0.833333333,,,,,,,
decision,199,595922,0.0-61.0-2.0,"""event"",""trial"",""time""
""fullscreenenter"",""1"",""1404""
","
","
","""event"",""trial"",""time""
""fullscreenenter"",""1"",""1404""
","
",,36.5,run_exp/static/images/task_images/land.jpg,65,,,,,,,20,,,7,,,,,,,,248649,1,7,FALSE,,,
dig,200,598898,0.0-62.0-0.0,"""event"",""trial"",""time""
""fullscreenenter"",""1"",""1404""
","
","
","""event"",""trial"",""time""
""fullscreenenter"",""1"",""1404""
","
",,,,,,,,,,,,"[{""stimulus"":""run_exp/static/images/task_images/dig.jpg"",""time"":0.10000002384185791},{""stimulus"":""run_exp/static/images/task_images/land.jpg"",""time"":989.7999999523163},{""stimulus"":""run_exp/static/images/task_images/dig.jpg"",""time"":1989.1000000238419}]",[],7,,,,,,,,,,,,,,
harvest,201,599905,0.0-62.0-1.0,"""event"",""trial"",""time""
""fullscreenenter"",""1"",""1404""
","
","
","""event"",""trial"",""time""
""fullscreenenter"",""1"",""1404""
","
",,null,run_exp/static/images/task_images/gems/20.jpg,null,,,,,,,16,,,7,,,,,20,0.802317906,0.8,,,,,,,
decision,202,599955,0.0-62.0-2.0,"""event"",""trial"",""time""
""fullscreenenter"",""1"",""1404""
","
","
","""event"",""trial"",""time""
""fullscreenenter"",""1"",""1404""
","
",,47.39999998,run_exp/static/images/task_images/land.jpg,65,,,,,,,16,,,7,,,,,,,,252682,1,8,FALSE,,,
dig,203,602932,0.0-63.0-0.0,"""event"",""trial"",""time""
""fullscreenenter"",""1"",""1404""
","
","
","""event"",""trial"",""time""
""fullscreenenter"",""1"",""1404""
","
",,,,,,,,,,,,"[{""stimulus"":""run_exp/static/images/task_images/dig.jpg"",""time"":0.2999999523162842},{""stimulus"":""run_exp/static/images/task_images/land.jpg"",""time"":986.3999999761581},{""stimulus"":""run_exp/static/images/task_images/dig.jpg"",""time"":1979.2000000476837}]",[],7,,,,,,,,,,,,,,
harvest,204,603936,0.0-63.0-1.0,"""event"",""trial"",""time""
""fullscreenenter"",""1"",""1404""
","
","
","""event"",""trial"",""time""
""fullscreenenter"",""1"",""1404""
","
",,null,run_exp/static/images/task_images/gems/16.jpg,null,,,,,,,12,,,7,,,,,16,0.779475176,0.75,,,,,,,
decision,205,604909,0.0-63.0-2.0,"""event"",""trial"",""time""
""fullscreenenter"",""1"",""1404""
","
","
","""event"",""trial"",""time""
""fullscreenenter"",""1"",""1404""
","
",,970.9,run_exp/static/images/task_images/land.jpg,65,,,,,,,12,,,7,,,,,,,,257636,1,9,FALSE,,,
dig,206,606943,0.0-64.0-0.0,"""event"",""trial"",""time""
""fullscreenenter"",""1"",""1404""
","
","
","""event"",""trial"",""time""
""fullscreenenter"",""1"",""1404""
","
",,,,,,,,,,,,"[{""stimulus"":""run_exp/static/images/task_images/dig.jpg"",""time"":0.30000007152557373},{""stimulus"":""run_exp/static/images/task_images/land.jpg"",""time"":678.9000000953674},{""stimulus"":""run_exp/static/images/task_images/dig.jpg"",""time"":1359.2000000476837}]",[],7,,,,,,,,,,,,,,
harvest,207,607949,0.0-64.0-1.0,"""event"",""trial"",""time""
""fullscreenenter"",""1"",""1404""
","
","
","""event"",""trial"",""time""
""fullscreenenter"",""1"",""1404""
","
",,null,run_exp/static/images/task_images/gems/12.jpg,null,,,,,,,9,,,7,,,,,12,0.763685579,0.75,,,,,,,
decision,208,608405,0.0-64.0-2.0,"""event"",""trial"",""time""
""fullscreenenter"",""1"",""1404""
","
","
","""event"",""trial"",""time""
""fullscreenenter"",""1"",""1404""
","
",,454.2,run_exp/static/images/task_images/land.jpg,76,,,,,,,9,,,7,,,,,,,,261133,1,10,TRUE,,,
travel,209,617960,0.0-65.0-0.0,"""event"",""trial"",""time""
""fullscreenenter"",""1"",""1404""
","
","
","""event"",""trial"",""time""
""fullscreenenter"",""1"",""1404""
","
",,,,,,,,,,,,"[{""stimulus"":""run_exp/static/images/task_images/rocket-01.jpg"",""time"":0.3999999761581421},{""stimulus"":""run_exp/static/images/task_images/rocket-02.jpg"",""time"":1074.1000000238419},{""stimulus"":""run_exp/static/images/task_images/rocket-03.jpg"",""time"":2122.2000000476837},{""stimulus"":""run_exp/static/images/task_images/rocket-04.jpg"",""time"":3184.2000000476837},{""stimulus"":""run_exp/static/images/task_images/rocket-05.jpg"",""time"":4243.799999952316},{""stimulus"":""run_exp/static/images/task_images/rocket-06.jpg"",""time"":5310.600000023842},{""stimulus"":""run_exp/static/images/task_images/rocket-07.jpg"",""time"":6366.899999976158},{""stimulus"":""run_exp/static/images/task_images/rocket-08.jpg"",""time"":7434.200000047684},{""stimulus"":""run_exp/static/images/task_images/rocket-09.jpg"",""time"":8485.299999952316}]",[],7,,,,,,,,,,,,,,
alien_welcome,210,622973,0.0-65.0-1.0,"""event"",""trial"",""time""
""fullscreenenter"",""1"",""1404""
","
","
","""event"",""trial"",""time""
""fullscreenenter"",""1"",""1404""
","
",,null,run_exp/static/images/task_images/aliens/old_aliens/planet/alien_planet-21.jpg,null,,,,,,,,,,,,,21,"75,10,61,38,14,55,53,21,11,49,22,32,24,60,4,6,5,7,12,54,40,59,19,50,13,43,46,26,20,65,74,67,76,30,17",,,,,,,,,,
land,211,623481,0.0-65.0-2.0,"""event"",""trial"",""time""
""fullscreenenter"",""1"",""1404""
","
","
","""event"",""trial"",""time""
""fullscreenenter"",""1"",""1404""
","
",,null,run_exp/static/images/task_images/land.jpg,null,,,,,,,95,,,8,,,,,,,,,,,,,,
dig,212,625493,0.0-65.0-3.0,"""event"",""trial"",""time""
""fullscreenenter"",""1"",""1404""
","
","
","""event"",""trial"",""time""
""fullscreenenter"",""1"",""1404""
","
",,,,,,,,,,,,"[{""stimulus"":""run_exp/static/images/task_images/dig.jpg"",""time"":0.5},{""stimulus"":""run_exp/static/images/task_images/land.jpg"",""time"":673.2999999523163},{""stimulus"":""run_exp/static/images/task_images/dig.jpg"",""time"":1337}]",[],8,,,,,,,,,,,,,,
harvest,213,626501,0.0-65.0-4.0,"""event"",""trial"",""time""
""fullscreenenter"",""1"",""1404""
","
","
","""event"",""trial"",""time""
""fullscreenenter"",""1"",""1404""
","
",,null,run_exp/static/images/task_images/gems/95.jpg,null,,,,,,,78,,,8,,,,,95,0.82534036,0.821052632,,,,,,,
decision,214,626543,0.0-65.0-5.0,"""event"",""trial"",""time""
""fullscreenenter"",""1"",""1404""
","
","
","""event"",""trial"",""time""
""fullscreenenter"",""1"",""1404""
","
",,40,run_exp/static/images/task_images/land.jpg,65,,,,,,,78,,,8,,,,,,,,279270,1,0,FALSE,,,
dig,215,629512,0.0-66.0-0.0,"""event"",""trial"",""time""
""fullscreenenter"",""1"",""1404""
","
","
","""event"",""trial"",""time""
""fullscreenenter"",""1"",""1404""
","
",,,,,,,,,,,,"[{""stimulus"":""run_exp/static/images/task_images/dig.jpg"",""time"":0.10000002384185791},{""stimulus"":""run_exp/static/images/task_images/land.jpg"",""time"":996.8999999761581},{""stimulus"":""run_exp/static/images/task_images/dig.jpg"",""time"":1978.2999999523163}]",[],8,,,,,,,,,,,,,,
harvest,216,630516,0.0-66.0-1.0,"""event"",""trial"",""time""
""fullscreenenter"",""1"",""1404""
","
","
","""event"",""trial"",""time""
""fullscreenenter"",""1"",""1404""
","
",,null,run_exp/static/images/task_images/gems/78.jpg,null,,,,,,,62,,,8,,,,,78,0.79795027,0.794871795,,,,,,,
decision,217,630670,0.0-66.0-2.0,"""event"",""trial"",""time""
""fullscreenenter"",""1"",""1404""
","
","
","""event"",""trial"",""time""
""fullscreenenter"",""1"",""1404""
","
",,150.8000001,run_exp/static/images/task_images/land.jpg,65,,,,,,,62,,,8,,,,,,,,283397,1,1,FALSE,,,
dig,218,633528,0.0-67.0-0.0,"""event"",""trial"",""time""
""fullscreenenter"",""1"",""1404""
","
","
","""event"",""trial"",""time""
""fullscreenenter"",""1"",""1404""
","
",,,,,,,,,,,,"[{""stimulus"":""run_exp/static/images/task_images/dig.jpg"",""time"":0.3999999761581421},{""stimulus"":""run_exp/static/images/task_images/land.jpg"",""time"":962.2999999523163},{""stimulus"":""run_exp/static/images/task_images/dig.jpg"",""time"":1900.0999999046326}]",[],8,,,,,,,,,,,,,,
harvest,219,634532,0.0-67.0-1.0,"""event"",""trial"",""time""
""fullscreenenter"",""1"",""1404""
","
","
","""event"",""trial"",""time""
""fullscreenenter"",""1"",""1404""
","
",,null,run_exp/static/images/task_images/gems/62.jpg,null,,,,,,,46,,,8,,,,,62,0.749895032,0.741935484,,,,,,,
decision,220,634676,0.0-67.0-2.0,"""event"",""trial"",""time""
""fullscreenenter"",""1"",""1404""
","
","
","""event"",""trial"",""time""
""fullscreenenter"",""1"",""1404""
","
",,142.0999999,run_exp/static/images/task_images/land.jpg,65,,,,,,,46,,,8,,,,,,,,287404,1,2,FALSE,,,
dig,221,637550,0.0-68.0-0.0,"""event"",""trial"",""time""
""fullscreenenter"",""1"",""1404""
","
","
","""event"",""trial"",""time""
""fullscreenenter"",""1"",""1404""
","
",,,,,,,,,,,,"[{""stimulus"":""run_exp/static/images/task_images/dig.jpg"",""time"":0.40000009536743164},{""stimulus"":""run_exp/static/images/task_images/land.jpg"",""time"":959.6000000238419},{""stimulus"":""run_exp/static/images/task_images/dig.jpg"",""time"":1907.9000000953674}]",[],8,,,,,,,,,,,,,,
harvest,222,638561,0.0-68.0-1.0,"""event"",""trial"",""time""
""fullscreenenter"",""1"",""1404""
","
","
","""event"",""trial"",""time""
""fullscreenenter"",""1"",""1404""
","
",,null,run_exp/static/images/task_images/gems/46.jpg,null,,,,,,,38,,,8,,,,,46,0.828394907,0.826086957,,,,,,,
decision,223,638579,0.0-68.0-2.0,"""event"",""trial"",""time""
""fullscreenenter"",""1"",""1404""
","
","
","""event"",""trial"",""time""
""fullscreenenter"",""1"",""1404""
","
",,16.5,run_exp/static/images/task_images/land.jpg,65,,,,,,,38,,,8,,,,,,,,291306,1,3,FALSE,,,
dig,224,641569,0.0-69.0-0.0,"""event"",""trial"",""time""
""fullscreenenter"",""1"",""1404""
","
","
","""event"",""trial"",""time""
""fullscreenenter"",""1"",""1404""
","
",,,,,,,,,,,,"[{""stimulus"":""run_exp/static/images/task_images/dig.jpg"",""time"":0.10000002384185791},{""stimulus"":""run_exp/static/images/task_images/land.jpg"",""time"":1010.7000000476837},{""stimulus"":""run_exp/static/images/task_images/dig.jpg"",""time"":1999.3000000715256}]",[],8,,,,,,,,,,,,,,
harvest,225,642583,0.0-69.0-1.0,"""event"",""trial"",""time""
""fullscreenenter"",""1"",""1404""
","
","
","""event"",""trial"",""time""
""fullscreenenter"",""1"",""1404""
","
",,null,run_exp/static/images/task_images/gems/38.jpg,null,,,,,,,32,,,8,,,,,38,0.841541394,0.842105263,,,,,,,
decision,226,642664,0.0-69.0-2.0,"""event"",""trial"",""time""
""fullscreenenter"",""1"",""1404""
","
","
","""event"",""trial"",""time""
""fullscreenenter"",""1"",""1404""
","
",,79.29999995,run_exp/static/images/task_images/land.jpg,65,,,,,,,32,,,8,,,,,,,,295392,1,4,FALSE,,,
dig,227,645595,0.0-70.0-0.0,"""event"",""trial"",""time""
""fullscreenenter"",""1"",""1404""
","
","
","""event"",""trial"",""time""
""fullscreenenter"",""1"",""1404""
","
",,,,,,,,,,,,"[{""stimulus"":""run_exp/static/images/task_images/dig.jpg"",""time"":0.10000002384185791},{""stimulus"":""run_exp/static/images/task_images/land.jpg"",""time"":976.5},{""stimulus"":""run_exp/static/images/task_images/dig.jpg"",""time"":1950.3000000715256}]",[],8,,,,,,,,,,,,,,
harvest,228,646600,0.0-70.0-1.0,"""event"",""trial"",""time""
""fullscreenenter"",""1"",""1404""
","
","
","""event"",""trial"",""time""
""fullscreenenter"",""1"",""1404""
","
",,null,run_exp/static/images/task_images/gems/32.jpg,null,,,,,,,30,,,8,,,,,32,0.937928439,0.9375,,,,,,,
decision,229,646656,0.0-70.0-2.0,"""event"",""trial"",""time""
""fullscreenenter"",""1"",""1404""
","
","
","""event"",""trial"",""time""
""fullscreenenter"",""1"",""1404""
","
",,53.20000005,run_exp/static/images/task_images/land.jpg,65,,,,,,,30,,,8,,,,,,,,299384,1,5,FALSE,,,
dig,230,649611,0.0-71.0-0.0,"""event"",""trial"",""time""
""fullscreenenter"",""1"",""1404""
","
","
","""event"",""trial"",""time""
""fullscreenenter"",""1"",""1404""
","
",,,,,,,,,,,,"[{""stimulus"":""run_exp/static/images/task_images/dig.jpg"",""time"":0.2999999523162842},{""stimulus"":""run_exp/static/images/task_images/land.jpg"",""time"":996.5},{""stimulus"":""run_exp/static/images/task_images/dig.jpg"",""time"":1969.7999999523163}]",[],8,,,,,,,,,,,,,,
harvest,231,650618,0.0-71.0-1.0,"""event"",""trial"",""time""
""fullscreenenter"",""1"",""1404""
","
","
","""event"",""trial"",""time""
""fullscreenenter"",""1"",""1404""
","
",,null,run_exp/static/images/task_images/gems/30.jpg,null,,,,,,,25,,,8,,,,,30,0.819732413,0.833333333,,,,,,,
decision,232,650624,0.0-71.0-2.0,"""event"",""trial"",""time""
""fullscreenenter"",""1"",""1404""
","
","
","""event"",""trial"",""time""
""fullscreenenter"",""1"",""1404""
","
",,3.5,run_exp/static/images/task_images/land.jpg,65,,,,,,,25,,,8,,,,,,,,303351,1,6,TRUE,,,
end_of_block_continue,233,654795,0.0-72.0-0.0,"""event"",""trial"",""time""
""fullscreenenter"",""1"",""1404""
","
","
","""event"",""trial"",""time""
""fullscreenenter"",""1"",""1404""
","
",,4167.2,run_exp/static/audio/clip_32_block_end.m4a,,,,,,,0,,,,,,,,,,,,,,,,,,
alien_welcome,234,659803,0.0-73.0-0.0,"""event"",""trial"",""time""
""fullscreenenter"",""1"",""1404""
","
","
","""event"",""trial"",""time""
""fullscreenenter"",""1"",""1404""
","
",,null,run_exp/static/images/task_images/aliens/old_aliens/planet/alien_planet-11.jpg,null,,,,,,,,,,,,,11,"75,10,61,38,14,55,53,21,11,49,22,32,24,60,4,6,5,7,12,54,40,59,19,50,13,43,46,26,20,65,74,67,76,30,17",,,,,,,,,,
land,235,660306,0.0-73.0-1.0,"""event"",""trial"",""time""
""fullscreenenter"",""1"",""1404""
","
","
","""event"",""trial"",""time""
""fullscreenenter"",""1"",""1404""
","
",,null,run_exp/static/images/task_images/land.jpg,null,,,,,,,96,,,9,,,,,,,,,,,,,,
dig,236,662316,0.0-73.0-2.0,"""event"",""trial"",""time""
""fullscreenenter"",""1"",""1404""
","
","
","""event"",""trial"",""time""
""fullscreenenter"",""1"",""1404""
","
",,,,,,,,,,,,"[{""stimulus"":""run_exp/static/images/task_images/dig.jpg"",""time"":0.20000004768371582},{""stimulus"":""run_exp/static/images/task_images/land.jpg"",""time"":679.7999999523163},{""stimulus"":""run_exp/static/images/task_images/dig.jpg"",""time"":1349.2000000476837}]",[],9,,,,,,,,,,,,,,
harvest,237,663326,0.0-73.0-3.0,"""event"",""trial"",""time""
""fullscreenenter"",""1"",""1404""
","
","
","""event"",""trial"",""time""
""fullscreenenter"",""1"",""1404""
","
",,null,run_exp/static/images/task_images/gems/96.jpg,null,,,,,,,17,,,9,,,,,96,0.177992661,0.177083333,,,,,,,
decision,238,663393,0.0-73.0-4.0,"""event"",""trial"",""time""
""fullscreenenter"",""1"",""1404""
","
","
","""event"",""trial"",""time""
""fullscreenenter"",""1"",""1404""
","
",,65.10000002,run_exp/static/images/task_images/land.jpg,65,,,,,,,17,,,9,,,,,,,,8596,2,0,FALSE,,,
dig,239,666339,0.0-74.0-0.0,"""event"",""trial"",""time""
""fullscreenenter"",""1"",""1404""
","
","
","""event"",""trial"",""time""
""fullscreenenter"",""1"",""1404""
","
",,,,,,,,,,,,"[{""stimulus"":""run_exp/static/images/task_images/dig.jpg"",""time"":0.5},{""stimulus"":""run_exp/static/images/task_images/land.jpg"",""time"":987.2000000476837},{""stimulus"":""run_exp/static/images/task_images/dig.jpg"",""time"":1967.6000000238419}]",[],9,,,,,,,,,,,,,,
harvest,240,667345,0.0-74.0-1.0,"""event"",""trial"",""time""
""fullscreenenter"",""1"",""1404""
","
","
","""event"",""trial"",""time""
""fullscreenenter"",""1"",""1404""
","
",,null,run_exp/static/images/task_images/gems/17.jpg,null,,,,,,,3,,,9,,,,,17,0.157431738,0.176470588,,,,,,,
decision,241,667360,0.0-74.0-2.0,"""event"",""trial"",""time""
""fullscreenenter"",""1"",""1404""
","
","
","""event"",""trial"",""time""
""fullscreenenter"",""1"",""1404""
","
",,12.69999993,run_exp/static/images/task_images/land.jpg,65,,,,,,,3,,,9,,,,,,,,12562,2,1,FALSE,,,
dig,242,670355,0.0-75.0-0.0,"""event"",""trial"",""time""
""fullscreenenter"",""1"",""1404""
","
","
","""event"",""trial"",""time""
""fullscreenenter"",""1"",""1404""
","
",,,,,,,,,,,,"[{""stimulus"":""run_exp/static/images/task_images/dig.jpg"",""time"":0.3999999761581421},{""stimulus"":""run_exp/static/images/task_images/land.jpg"",""time"":1008.7000000476837},{""stimulus"":""run_exp/static/images/task_images/dig.jpg"",""time"":2002}]",[],9,,,,,,,,,,,,,,
harvest,243,671360,0.0-75.0-1.0,"""event"",""trial"",""time""
""fullscreenenter"",""1"",""1404""
","
","
","""event"",""trial"",""time""
""fullscreenenter"",""1"",""1404""
","
",,null,run_exp/static/images/task_images/gems/3.jpg,null,,,,,,,1,,,9,,,,,3,0.231092601,0.333333333,,,,,,,
decision,244,671522,0.0-75.0-2.0,"""event"",""trial"",""time""
""fullscreenenter"",""1"",""1404""
","
","
","""event"",""trial"",""time""
""fullscreenenter"",""1"",""1404""
","
",,161.4,run_exp/static/images/task_images/land.jpg,65,,,,,,,1,,,9,,,,,,,,16725,2,2,FALSE,,,
dig,245,674378,0.0-76.0-0.0,"""event"",""trial"",""time""
""fullscreenenter"",""1"",""1404""
","
","
","""event"",""trial"",""time""
""fullscreenenter"",""1"",""1404""
","
",,,,,,,,,,,,"[{""stimulus"":""run_exp/static/images/task_images/dig.jpg"",""time"":0.09999990463256836},{""stimulus"":""run_exp/static/images/task_images/land.jpg"",""time"":956.2999999523163},{""stimulus"":""run_exp/static/images/task_images/dig.jpg"",""time"":1901.7999999523163}]",[],9,,,,,,,,,,,,,,
harvest,246,675394,0.0-76.0-1.0,"""event"",""trial"",""time""
""fullscreenenter"",""1"",""1404""
","
","
","""event"",""trial"",""time""
""fullscreenenter"",""1"",""1404""
","
",,null,run_exp/static/images/task_images/gems/1.jpg,null,,,,,,,0,,,9,,,,,1,0.16897645,0,,,,,,,
decision,247,675511,0.0-76.0-2.0,"""event"",""trial"",""time""
""fullscreenenter"",""1"",""1404""
","
","
","""event"",""trial"",""time""
""fullscreenenter"",""1"",""1404""
","
",,114.6,run_exp/static/images/task_images/land.jpg,65,,,,,,,0,,,9,,,,,,,,20714,2,3,FALSE,,,
dig,248,678408,0.0-77.0-0.0,"""event"",""trial"",""time""
""fullscreenenter"",""1"",""1404""
","
","
","""event"",""trial"",""time""
""fullscreenenter"",""1"",""1404""
","
",,,,,,,,,,,,"[{""stimulus"":""run_exp/static/images/task_images/dig.jpg"",""time"":0.20000004768371582},{""stimulus"":""run_exp/static/images/task_images/land.jpg"",""time"":972},{""stimulus"":""run_exp/static/images/task_images/dig.jpg"",""time"":1935.9000000953674}]",[],9,,,,,,,,,,,,,,
harvest,249,679424,0.0-77.0-1.0,"""event"",""trial"",""time""
""fullscreenenter"",""1"",""1404""
","
","
","""event"",""trial"",""time""
""fullscreenenter"",""1"",""1404""
","
",,null,run_exp/static/images/task_images/gems/0.jpg,null,,,,,,,0,,,9,,,,,0,0.263021133,NaN,,,,,,,
decision,250,679473,0.0-77.0-2.0,"""event"",""trial"",""time""
""fullscreenenter"",""1"",""1404""
","
","
","""event"",""trial"",""time""
""fullscreenenter"",""1"",""1404""
","
",,47,run_exp/static/images/task_images/land.jpg,65,,,,,,,0,,,9,,,,,,,,24676,2,4,FALSE,,,
dig,251,682432,0.0-78.0-0.0,"""event"",""trial"",""time""
""fullscreenenter"",""1"",""1404""
","
","
","""event"",""trial"",""time""
""fullscreenenter"",""1"",""1404""
","
