trial_type,trial_index,time_elapsed,internal_node_id,interactions,blur_events,focus_events,fullscreenenter_events,fullscreenexit_events,success,rt,stimulus,key_press,prompt,subject_id,participant_id,age,gender,button_pressed,next_reward,animation_sequence,responses,planet,curr_prac_trial,n_prac_rounds,alien,aliens,reward_received,decay_rate_actual,decay_rate_exp,time_in_block,block_num,prt,last_trial_on_planet,button_html,bonus,num_failures
pavlovia,0,2,0.0-0.0,"""event"",""trial"",""time""
""fullscreenenter"",""1"",""9512""
","
","
","""event"",""trial"",""time""
""fullscreenenter"",""1"",""9512""
","
",,,,,,,,,,,,,,,,,,,,,,,,,,,,
fullscreen,1,10488,0.0-1.0,"""event"",""trial"",""time""
""fullscreenenter"",""1"",""9512""
","
","
","""event"",""trial"",""time""
""fullscreenenter"",""1"",""9512""
","
",TRUE,,,,,,,,,,,,,,,,,,,,,,,,,,,
instruc_welcome,2,20553,0.0-2.0,"""event"",""trial"",""time""
""fullscreenenter"",""1"",""9512""
","
","
","""event"",""trial"",""time""
""fullscreenenter"",""1"",""9512""
","
",,null,run_exp/static/audio/clip_1_welcome.m4a,null,"<p>Howdy! In this experiment, you’ll be an explorer traveling through space to collect space treasure.</p><p>Your mission is to collect as much treasure as possible.</p><br><br><p><img src='run_exp/static/images/task_images/opening_img-01.jpg' height='300' width='auto'></p>",12689,1352,17.05,Female,,,,,,,,,,,,,,,,,,,
audio-keyboard-response,3,37133,0.0-3.0,"""event"",""trial"",""time""
""fullscreenenter"",""1"",""9512""
","
","
","""event"",""trial"",""time""
""fullscreenenter"",""1"",""9512""
","
",,null,run_exp/static/audio/clip_2_move.m4a,null,,,,,,,,,,,,,,,,,,,,,,,,
welcome_dec,4,38114,0.0-4.0,"""event"",""trial"",""time""
""fullscreenenter"",""1"",""9512""
","
","
","""event"",""trial"",""time""
""fullscreenenter"",""1"",""9512""
","
",,979.7,"<p>Howdy! In this experiment, you’ll be an explorer traveling through space to collect space treasure.</p><p>Your mission is to collect as much treasure as possible.</p><br><br><p><img src='run_exp/static/images/task_images/opening_img-01.jpg' height='300' width='auto'></p>",,,,,,,1,,,,,,,,,,,,,,,,,,
html-keyboard-response,5,38383,0.0-5.0,"""event"",""trial"",""time""
""fullscreenenter"",""1"",""9512""
","
","
","""event"",""trial"",""time""
""fullscreenenter"",""1"",""9512""
","
",,268.0999999,"<p>Howdy! In this experiment, you’ll be an explorer traveling through space to collect space treasure.</p><p>Your mission is to collect as much treasure as possible.</p><br><br><p><img src='run_exp/static/images/task_images/opening_img-01.jpg' height='300' width='auto'></p><button class=""jspsych-html-btn-unchosen""><img src=""run_exp/static/images/task_images/planet-01.jpg"" height=""50""></button><button class=""jspsych-html-btn-chosen""><img src=""run_exp/static/images/task_images/planet-02.jpg"" height=""50""></button><p><b>[press the space bar to lock in your answer]<b><br></p>",32,,,,,,,,,,,,,,,,,,,,,,,,
instruc_goal,6,48451,0.0-6.0-0.0,"""event"",""trial"",""time""
""fullscreenenter"",""1"",""9512""
","
","
","""event"",""trial"",""time""
""fullscreenenter"",""1"",""9512""
","
",,null,run_exp/static/audio/clip_3_goal.m4a,null,"<p> As a space explorer, you’ll visit different planets to dig for space treasure, these pink gems.</p> <p> The more treasure you dig up, the more bonus money you’ll win! </p><br><br><p><img src='run_exp/static/images/task_images/pink_gem.jpg' height='300' width='auto'></p>",,,,,,,,,,,,,,,,,,,,,,,
instruc_goal,7,54423,0.0-6.0-1.0,"""event"",""trial"",""time""
""fullscreenenter"",""1"",""9512""
","
","
","""event"",""trial"",""time""
""fullscreenenter"",""1"",""9512""
","
",,5970.2,"<p> As a space explorer, you’ll visit different planets to dig for space treasure, these pink gems.</p> <p> The more treasure you dig up, the more bonus money you’ll win! </p><br><br><p><img src='run_exp/static/images/task_images/pink_gem.jpg' height='300' width='auto'></p>",,,,,,,1,,,,,,,,,,,,,,,,,,
html-keyboard-response,8,54611,0.0-6.0-2.0,"""event"",""trial"",""time""
""fullscreenenter"",""1"",""9512""
","
","
","""event"",""trial"",""time""
""fullscreenenter"",""1"",""9512""
","
",,186.9000001,"<p> As a space explorer, you’ll visit different planets to dig for space treasure, these pink gems.</p> <p> The more treasure you dig up, the more bonus money you’ll win! </p><br><br><p><img src='run_exp/static/images/task_images/pink_gem.jpg' height='300' width='auto'></p><button class=""jspsych-html-btn-unchosen""><img src=""run_exp/static/images/task_images/planet-01.jpg"" height=""50""></button><button class=""jspsych-html-btn-chosen""><img src=""run_exp/static/images/task_images/planet-02.jpg"" height=""50""></button><p><b>[press the space bar to lock in your answer]<b><br></p>",32,,,,,,,,,,,,,,,,,,,,,,,,
instruc_dig,9,70611,0.0-7.0-0.0,"""event"",""trial"",""time""
""fullscreenenter"",""1"",""9512""
","
","
","""event"",""trial"",""time""
""fullscreenenter"",""1"",""9512""
","
",,null,run_exp/static/audio/clip_4_dig.m4a,null,,,,,,,100,,,,,,,,,,,,,,,,,
instruc_dig_try,10,71095,0.0-7.0-1.0,"""event"",""trial"",""time""
""fullscreenenter"",""1"",""9512""
","
","
","""event"",""trial"",""time""
""fullscreenenter"",""1"",""9512""
","
",,482.6000001,"<p> When you’ve arrived at a new planet, you will dig once. </p> <p>Then, you get to decide if you want to stay on the planet and dig again or travel to a new planet and dig there.</p> <p> To stay and dig, press the letter <strong>‘A’</strong> on your keyboard. Try pressing it now! </p><p><img src='run_exp/static/images/task_images/land.jpg'  height='700' width='auto'></p>",65,"<p> When you’ve arrived at a new planet, you will dig once. </p> <p>Then, you get to decide if you want to stay on the planet and dig again or travel to a new planet and dig there.</p> <p> To stay and dig, press the letter <strong>‘A’</strong> on your keyboard. Try pressing it now! </p><p><img src='run_exp/static/images/task_images/land.jpg'  height='700' width='auto'></p>",,,,,,100,,,,,,,,,,,,,,,,,
dig_prac,11,73111,0.0-7.0-2.0,"""event"",""trial"",""time""
""fullscreenenter"",""1"",""9512""
","
","
","""event"",""trial"",""time""
""fullscreenenter"",""1"",""9512""
","
",,,,,,,,,,,,"[{""stimulus"":""run_exp/static/images/task_images/dig.jpg"",""time"":0.2999999523162842},{""stimulus"":""run_exp/static/images/task_images/land.jpg"",""time"":669.2000000476837},{""stimulus"":""run_exp/static/images/task_images/dig.jpg"",""time"":1348.5}]",[],,,,,,,,,,,,,,,
instruc_travel,12,109351,0.0-7.0-3.0,"""event"",""trial"",""time""
""fullscreenenter"",""1"",""9512""
","
","
","""event"",""trial"",""time""
""fullscreenenter"",""1"",""9512""
","
",,null,run_exp/static/audio/clip_5_travel.m4a,null,"<p>Every time you dig up gems, there are less gems on the planet, so the more you dig on a planet the fewer gems you’ll get with each dig.</p><p>When gems are running low, you may want to travel to a new planet. </p> <p>  Planets are very far apart in this galaxy, so it will take some time to travel between them. </p> <br><p>There are lots and lots of planets for you to visit, so you won’t be able to return to any planets you’ve seen before. </p><br><p>To leave this planet and travel to a new one, press the letter <strong>‘L’</strong> on your keyboard. Try pressing it now! </p><p><img src='run_exp/static/images/task_images/rocket-01.jpg'  height='600' width='auto'></p>",,,,,,,,,,,,,,,,,,,,,,,
instruc_travel_try,13,111142,0.0-7.0-4.0,"""event"",""trial"",""time""
""fullscreenenter"",""1"",""9512""
","
","
","""event"",""trial"",""time""
""fullscreenenter"",""1"",""9512""
","
",,1789.9,"<p>Every time you dig up gems, there are less gems on the planet, so the more you dig on a planet the fewer gems you’ll get with each dig.</p><p>When gems are running low, you may want to travel to a new planet. </p> <p>  Planets are very far apart in this galaxy, so it will take some time to travel between them. </p> <br><p>There are lots and lots of planets for you to visit, so you won’t be able to return to any planets you’ve seen before. </p><br><p>To leave this planet and travel to a new one, press the letter <strong>‘L’</strong> on your keyboard. Try pressing it now! </p><p><img src='run_exp/static/images/task_images/rocket-01.jpg'  height='600' width='auto'></p>",76,"<p>Every time you dig up gems, there are less gems on the planet, so the more you dig on a planet the fewer gems you’ll get with each dig.</p><p>When gems are running low, you may want to travel to a new planet. </p> <p>  Planets are very far apart in this galaxy, so it will take some time to travel between them. </p> <br><p>There are lots and lots of planets for you to visit, so you won’t be able to return to any planets you’ve seen before. </p><br><p>To leave this planet and travel to a new one, press the letter <strong>‘L’</strong> on your keyboard. Try pressing it now! </p><p><img src='run_exp/static/images/task_images/rocket-01.jpg'  height='600' width='auto'></p>",,,,,,,,,,,,,,,,,,,,,,,
travel_prac,14,121151,0.0-7.0-5.0,"""event"",""trial"",""time""
""fullscreenenter"",""1"",""9512""
","
","
","""event"",""trial"",""time""
""fullscreenenter"",""1"",""9512""
","
",,,,,,,,,,,,"[{""stimulus"":""run_exp/static/images/task_images/rocket-01.jpg"",""time"":0.10000014305114746},{""stimulus"":""run_exp/static/images/task_images/rocket-02.jpg"",""time"":1112.7999999523163},{""stimulus"":""run_exp/static/images/task_images/rocket-03.jpg"",""time"":2227.100000143051},{""stimulus"":""run_exp/static/images/task_images/rocket-04.jpg"",""time"":3341.2000000476837},{""stimulus"":""run_exp/static/images/task_images/rocket-05.jpg"",""time"":4457.200000047684},{""stimulus"":""run_exp/static/images/task_images/rocket-06.jpg"",""time"":5569.200000047684},{""stimulus"":""run_exp/static/images/task_images/rocket-07.jpg"",""time"":6669.100000143051},{""stimulus"":""run_exp/static/images/task_images/rocket-08.jpg"",""time"":7793.100000143051},{""stimulus"":""run_exp/static/images/task_images/rocket-09.jpg"",""time"":8893.200000047684}]",[],0,,,,,,,,,,,,,,
instruc_alien_greet,15,148331,0.0-7.0-6.0,"""event"",""trial"",""time""
""fullscreenenter"",""1"",""9512""
","
","
","""event"",""trial"",""time""
""fullscreenenter"",""1"",""9512""
","
",,null,run_exp/static/audio/clip_6_alien.m4a,null,"<p>When you arrive at a new planet, the alien who owns the treasure mine on that planet will greet you!</p><p>The better an alien takes care of their mine the easier it is to dig for gems. Some aliens take better care of their mine than others. So, you won’t get exactly the same amount of gems on each planet.</p><p>What the alien looks like does not tell you anything about how many gems there are on the planet.</p><br><p><img src=""run_exp/static/images/task_images/aliens/instructions_aliens/planet/alien_planet-1.jpg""  height=""600"" width=""auto""></p>",,,,,,,,,,,,,,,,,,,,,,,
instruc_alien_greet,16,151400,0.0-7.0-7.0,"""event"",""trial"",""time""
""fullscreenenter"",""1"",""9512""
","
","
","""event"",""trial"",""time""
""fullscreenenter"",""1"",""9512""
","
",,3067.4,"<p>When you arrive at a new planet, the alien who owns the treasure mine on that planet will greet you!</p><p>The better an alien takes care of their mine the easier it is to dig for gems. Some aliens take better care of their mine than others. So, you won’t get exactly the same amount of gems on each planet.</p><p>What the alien looks like does not tell you anything about how many gems there are on the planet.</p><br><p><img src=""run_exp/static/images/task_images/aliens/instructions_aliens/planet/alien_planet-1.jpg""  height=""600"" width=""auto""></p>",,,,,,,1,,,,,,,,,,,,,,,,,,
html-keyboard-response,17,152312,0.0-7.0-8.0,"""event"",""trial"",""time""
""fullscreenenter"",""1"",""9512""
","
","
","""event"",""trial"",""time""
""fullscreenenter"",""1"",""9512""
","
",,911.1000001,"<p>When you arrive at a new planet, the alien who owns the treasure mine on that planet will greet you!</p><p>The better an alien takes care of their mine the easier it is to dig for gems. Some aliens take better care of their mine than others. So, you won’t get exactly the same amount of gems on each planet.</p><p>What the alien looks like does not tell you anything about how many gems there are on the planet.</p><br><p><img src=""run_exp/static/images/task_images/aliens/instructions_aliens/planet/alien_planet-1.jpg""  height=""600"" width=""auto""></p><button class=""jspsych-html-btn-unchosen""><img src=""run_exp/static/images/task_images/planet-01.jpg"" height=""50""></button><button class=""jspsych-html-btn-chosen""><img src=""run_exp/static/images/task_images/planet-02.jpg"" height=""50""></button><p><b>[press the space bar to lock in your answer]<b><br></p>",32,,,,,,,,,,,,,,,,,,,,,,,,
time_out,18,163391,0.0-8.0-0.0,"""event"",""trial"",""time""
""fullscreenenter"",""1"",""9512""
","
","
","""event"",""trial"",""time""
""fullscreenenter"",""1"",""9512""
","
",,null,run_exp/static/audio/clip_7_timeout.m4a,null,"<p>If you don't make your choice fast enough, you’ll have to wait a few seconds before you can make another one.</p><p>You can’t dig for more gems or travel to new planets. You just have to sit and wait.</p><br><p><img src='run_exp/static/images/task_images/time_out.jpg'  height='600' width='auto'></p>",,,,,,,,,,,,,,,,,,,,,,,
time_out,19,165689,0.0-8.0-1.0,"""event"",""trial"",""time""
""fullscreenenter"",""1"",""9512""
","
","
","""event"",""trial"",""time""
""fullscreenenter"",""1"",""9512""
","
",,2296.9,"<p>If you don't make your choice fast enough, you’ll have to wait a few seconds before you can make another one.</p><p>You can’t dig for more gems or travel to new planets. You just have to sit and wait.</p><br><p><img src='run_exp/static/images/task_images/time_out.jpg'  height='600' width='auto'></p>",,,,,,,1,,,,,,,,,,,,,,,,,,
html-keyboard-response,20,166122,0.0-8.0-2.0,"""event"",""trial"",""time""
""fullscreenenter"",""1"",""9512""
","
","
","""event"",""trial"",""time""
""fullscreenenter"",""1"",""9512""
","
",,432.3,"<p>If you don't make your choice fast enough, you’ll have to wait a few seconds before you can make another one.</p><p>You can’t dig for more gems or travel to new planets. You just have to sit and wait.</p><br><p><img src='run_exp/static/images/task_images/time_out.jpg'  height='600' width='auto'></p><button class=""jspsych-html-btn-unchosen""><img src=""run_exp/static/images/task_images/planet-01.jpg"" height=""50""></button><button class=""jspsych-html-btn-chosen""><img src=""run_exp/static/images/task_images/planet-02.jpg"" height=""50""></button><p><b>[press the space bar to lock in your answer]<b><br></p>",32,,,,,,,,,,,,,,,,,,,,,,,,
instruc_break,21,181790,0.0-9.0-0.0,"""event"",""trial"",""time""
""fullscreenenter"",""1"",""9512""
","
","
","""event"",""trial"",""time""
""fullscreenenter"",""1"",""9512""
","
",,null,run_exp/static/audio/clip_8_break.m4a,null,"<p> After digging and traveling for a while, you’ll be able to take a break at home base. </p><p>The game will last 20 minutes no matter what.</p><p>You will visit home base every 5 minutes, so, you will visit home base three times during the game.</p><br><p><img src='run_exp/static/images/task_images/home_base.jpg' height='600' width='auto'></p>",,,,,,,,,,,,,,,,,,,,,,,
instruc_break,22,183223,0.0-9.0-1.0,"""event"",""trial"",""time""
""fullscreenenter"",""1"",""9512""
","
","
","""event"",""trial"",""time""
""fullscreenenter"",""1"",""9512""
","
",,1432,"<p> After digging and traveling for a while, you’ll be able to take a break at home base. </p><p>The game will last 20 minutes no matter what.</p><p>You will visit home base every 5 minutes, so, you will visit home base three times during the game.</p><br><p><img src='run_exp/static/images/task_images/home_base.jpg' height='600' width='auto'></p>",,,,,,,1,,,,,,,,,,,,,,,,,,
html-keyboard-response,23,183676,0.0-9.0-2.0,"""event"",""trial"",""time""
""fullscreenenter"",""1"",""9512""
","
","
","""event"",""trial"",""time""
""fullscreenenter"",""1"",""9512""
","
",,451.8000002,"<p> After digging and traveling for a while, you’ll be able to take a break at home base. </p><p>The game will last 20 minutes no matter what.</p><p>You will visit home base every 5 minutes, so, you will visit home base three times during the game.</p><br><p><img src='run_exp/static/images/task_images/home_base.jpg' height='600' width='auto'></p><button class=""jspsych-html-btn-unchosen""><img src=""run_exp/static/images/task_images/planet-01.jpg"" height=""50""></button><button class=""jspsych-html-btn-chosen""><img src=""run_exp/static/images/task_images/planet-02.jpg"" height=""50""></button><p><b>[press the space bar to lock in your answer]<b><br></p>",32,,,,,,,,,,,,,,,,,,,,,,,,
instruc_prac_game,24,193791,0.0-10.0-0.0,"""event"",""trial"",""time""
""fullscreenenter"",""1"",""9512""
","
","
","""event"",""trial"",""time""
""fullscreenenter"",""1"",""9512""
","
",,null,run_exp/static/audio/clip_9_practice.m4a,null,"<p> Are you ready to play a practice game? </p> <p>In this practice game, you'll be digging up barrels of gems. But, in the real game, you'll be digging up the gems themselves. </p>",,,,,,,,,,,,,,,,,,,,,,,
html-button-response,25,196633,0.0-10.0-1.0,"""event"",""trial"",""time""
""fullscreenenter"",""1"",""9512""
","
","
","""event"",""trial"",""time""
""fullscreenenter"",""1"",""9512""
","
",,2841.3,"<p> Are you ready to play a practice game? </p> <p>In this practice game, you'll be digging up barrels of gems. But, in the real game, you'll be digging up the gems themselves. </p>",,,,,,,0,,,,,,,,,,,,,,,,,,
alien_welcome_prac,26,201639,0.0-11.0-0.0,"""event"",""trial"",""time""
""fullscreenenter"",""1"",""9512""
","
","
","""event"",""trial"",""time""
""fullscreenenter"",""1"",""9512""
","
",,null,run_exp/static/images/task_images/aliens/practice_aliens/planet/alien_planet-5.jpg,null,,,,,,,,,,,,,,,,,,,,,,,,
land_prac,27,202151,0.0-11.0-1.0,"""event"",""trial"",""time""
""fullscreenenter"",""1"",""9512""
","
","
","""event"",""trial"",""time""
""fullscreenenter"",""1"",""9512""
","
",,null,run_exp/static/images/task_images/land.jpg,null,,,,,,,99,,,0,,,,,,,,,,,,,,
dig_prac,28,204159,0.0-11.0-2.0,"""event"",""trial"",""time""
""fullscreenenter"",""1"",""9512""
","
","
","""event"",""trial"",""time""
""fullscreenenter"",""1"",""9512""
","
",,,,,,,,,,,,"[{""stimulus"":""run_exp/static/images/task_images/dig.jpg"",""time"":0.20000004768371582},{""stimulus"":""run_exp/static/images/task_images/land.jpg"",""time"":679.3999998569489},{""stimulus"":""run_exp/static/images/task_images/dig.jpg"",""time"":1345.3999998569489}]",[],,,,,,,,,,,,,,,
harvest_prac,29,205171,0.0-11.0-3.0,"""event"",""trial"",""time""
""fullscreenenter"",""1"",""9512""
","
","
","""event"",""trial"",""time""
""fullscreenenter"",""1"",""9512""
","
",,null,run_exp/static/images/task_images/barrel_text.jpg,null,,,,,,,,,,,,,,,,,,,,,,,,
decision_prac,30,207174,0.0-11.0-4.0,"""event"",""trial"",""time""
""fullscreenenter"",""1"",""9512""
","
","
","""event"",""trial"",""time""
""fullscreenenter"",""1"",""9512""
","
",,2002.2,run_exp/static/images/task_images/land.jpg,65,,,,,,,,,,,1,,,,,,,,,,,,,
dig_prac,31,209177,0.0-12.0-0.0,"""event"",""trial"",""time""
""fullscreenenter"",""1"",""9512""
","
","
","""event"",""trial"",""time""
""fullscreenenter"",""1"",""9512""
","
",,,,,,,,,,,,"[{""stimulus"":""run_exp/static/images/task_images/dig.jpg"",""time"":0.20000004768371582},{""stimulus"":""run_exp/static/images/task_images/land.jpg"",""time"":674.1000001430511},{""stimulus"":""run_exp/static/images/task_images/dig.jpg"",""time"":1336.1000001430511}]",[],,,,,,,,,,,,,,,
harvest_prac,32,210189,0.0-12.0-1.0,"""event"",""trial"",""time""
""fullscreenenter"",""1"",""9512""
","
","
","""event"",""trial"",""time""
""fullscreenenter"",""1"",""9512""
","
",,null,run_exp/static/images/task_images/barrel_text.jpg,null,,,,,,,,,,,,,,,,,,,,,,,,
decision_prac,33,210615,0.0-12.0-2.0,"""event"",""trial"",""time""
""fullscreenenter"",""1"",""9512""
","
","
","""event"",""trial"",""time""
""fullscreenenter"",""1"",""9512""
","
",,425.0999999,run_exp/static/images/task_images/land.jpg,65,,,,,,,,,,,2,,,,,,,,,,,,,
dig_prac,34,212627,0.0-13.0-0.0,"""event"",""trial"",""time""
""fullscreenenter"",""1"",""9512""
","
","
","""event"",""trial"",""time""
""fullscreenenter"",""1"",""9512""
","
",,,,,,,,,,,,"[{""stimulus"":""run_exp/static/images/task_images/dig.jpg"",""time"":0.09999990463256836},{""stimulus"":""run_exp/static/images/task_images/land.jpg"",""time"":684.0999999046326},{""stimulus"":""run_exp/static/images/task_images/dig.jpg"",""time"":1338.1999998092651}]",[],,,,,,,,,,,,,,,
harvest_prac,35,213643,0.0-13.0-1.0,"""event"",""trial"",""time""
""fullscreenenter"",""1"",""9512""
","
","
","""event"",""trial"",""time""
""fullscreenenter"",""1"",""9512""
","
",,null,run_exp/static/images/task_images/barrel_text.jpg,null,,,,,,,,,,,,,,,,,,,,,,,,
decision_prac,36,215232,0.0-13.0-2.0,"""event"",""trial"",""time""
""fullscreenenter"",""1"",""9512""
","
","
","""event"",""trial"",""time""
""fullscreenenter"",""1"",""9512""
","
",,1588.9,run_exp/static/images/task_images/land.jpg,76,,,,,,,,,,,3,,,,,,,,,,,,,
travel,37,223655,0.0-14.0-0.0,"""event"",""trial"",""time""
""fullscreenenter"",""1"",""9512""
","
","
","""event"",""trial"",""time""
""fullscreenenter"",""1"",""9512""
","
",,,,,,,,,,,,"[{""stimulus"":""run_exp/static/images/task_images/rocket-01.jpg"",""time"":0.10000014305114746},{""stimulus"":""run_exp/static/images/task_images/rocket-02.jpg"",""time"":949.1000001430511},{""stimulus"":""run_exp/static/images/task_images/rocket-03.jpg"",""time"":1869},{""stimulus"":""run_exp/static/images/task_images/rocket-04.jpg"",""time"":2814.800000190735},{""stimulus"":""run_exp/static/images/task_images/rocket-05.jpg"",""time"":3736.7000000476837},{""stimulus"":""run_exp/static/images/task_images/rocket-06.jpg"",""time"":4681.200000047684},{""stimulus"":""run_exp/static/images/task_images/rocket-07.jpg"",""time"":5604.700000047684},{""stimulus"":""run_exp/static/images/task_images/rocket-08.jpg"",""time"":6549.400000095367},{""stimulus"":""run_exp/static/images/task_images/rocket-09.jpg"",""time"":7474.800000190735}]",[],0,,,,,,,,,,,,,,
alien_welcome_prac,38,228666,0.0-14.0-1.0,"""event"",""trial"",""time""
""fullscreenenter"",""1"",""9512""
","
","
","""event"",""trial"",""time""
""fullscreenenter"",""1"",""9512""
","
",,null,run_exp/static/images/task_images/aliens/practice_aliens/planet/alien_planet-4.jpg,null,,,,,,,,,,,,,,,,,,,,,,,,
land_prac,39,229167,0.0-14.0-2.0,"""event"",""trial"",""time""
""fullscreenenter"",""1"",""9512""
","
","
","""event"",""trial"",""time""
""fullscreenenter"",""1"",""9512""
","
",,null,run_exp/static/images/task_images/land.jpg,null,,,,,,,100,,,0,,,,,,,,,,,,,,
dig_prac,40,231180,0.0-14.0-3.0,"""event"",""trial"",""time""
""fullscreenenter"",""1"",""9512""
","
","
","""event"",""trial"",""time""
""fullscreenenter"",""1"",""9512""
","
",,,,,,,,,,,,"[{""stimulus"":""run_exp/static/images/task_images/dig.jpg"",""time"":0.2999999523162842},{""stimulus"":""run_exp/static/images/task_images/land.jpg"",""time"":683.4000000953674},{""stimulus"":""run_exp/static/images/task_images/dig.jpg"",""time"":1347.7000000476837}]",[],,,,,,,,,,,,,,,
harvest_prac,41,232183,0.0-14.0-4.0,"""event"",""trial"",""time""
""fullscreenenter"",""1"",""9512""
","
","
","""event"",""trial"",""time""
""fullscreenenter"",""1"",""9512""
","
",,null,run_exp/static/images/task_images/barrel_text.jpg,null,,,,,,,,,,,,,,,,,,,,,,,,
decision_prac,42,233001,0.0-14.0-5.0,"""event"",""trial"",""time""
""fullscreenenter"",""1"",""9512""
","
","
","""event"",""trial"",""time""
""fullscreenenter"",""1"",""9512""
","
",,817.2,run_exp/static/images/task_images/land.jpg,65,,,,,,,,,,,4,,,,,,,,,,,,,
dig_prac,43,235013,0.0-15.0-0.0,"""event"",""trial"",""time""
""fullscreenenter"",""1"",""9512""
","
","
","""event"",""trial"",""time""
""fullscreenenter"",""1"",""9512""
","
",,,,,,,,,,,,"[{""stimulus"":""run_exp/static/images/task_images/dig.jpg"",""time"":0.09999990463256836},{""stimulus"":""run_exp/static/images/task_images/land.jpg"",""time"":669.5},{""stimulus"":""run_exp/static/images/task_images/dig.jpg"",""time"":1347.2999999523163}]",[],,,,,,,,,,,,,,,
harvest_prac,44,236029,0.0-15.0-1.0,"""event"",""trial"",""time""
""fullscreenenter"",""1"",""9512""
","
","
","""event"",""trial"",""time""
""fullscreenenter"",""1"",""9512""
","
",,null,run_exp/static/images/task_images/barrel_text.jpg,null,,,,,,,,,,,,,,,,,,,,,,,,
decision_prac,45,236033,0.0-15.0-2.0,"""event"",""trial"",""time""
""fullscreenenter"",""1"",""9512""
","
","
","""event"",""trial"",""time""
""fullscreenenter"",""1"",""9512""
","
",,3.299999952,run_exp/static/images/task_images/land.jpg,65,,,,,,,,,,,,1,,,,,,,,,,,,
quiz_instruc,46,240698,0.0-16.0-0.0,"""event"",""trial"",""time""
""fullscreenenter"",""1"",""9512""
","
","
","""event"",""trial"",""time""
""fullscreenenter"",""1"",""9512""
","
",,4662.8,run_exp/static/audio/clip_10_quiz.m4a,,,,,,,0,,,,,,,,,,,,,,,,,,
instruc_repeat,47,283462,0.0-16.0-1.0,"""event"",""trial"",""time""
""fullscreenenter"",""1"",""9512""
","
","
","""event"",""trial"",""time""
""fullscreenenter"",""1"",""9512""
","
",,null,"<p> Are you ready to play a practice game? </p> <p>In this practice game, you'll be digging up barrels of gems. But, in the real game, you'll be digging up the gems themselves. </p>",null,"<p>In this game, your goal is to collect as many gems as you can. That’s how you will win bonus money. </p> <p>The entire game will last 20 minutes no matter how many gems you collect or how many planets you visit. </p><p>To stay on a planet and dig again, press the letter A on your keyboard. To leave for a new planet, press the letter L.</p><p>The more you dig on a planet, the fewer gems you’ll get with each dig which is why you might consider leaving for a new planet. </p><p>When you arrive at a new planet, you’ll be greeted by an alien. What the alien looks like does not tell you anything about how much treasure is on the planet. </p>",,,,,,,,,,,,,,,,,,,,,,,
instruc_repeat_continue,48,284978,0.0-16.0-2.0,"""event"",""trial"",""time""
""fullscreenenter"",""1"",""9512""
","
","
","""event"",""trial"",""time""
""fullscreenenter"",""1"",""9512""
","
",,1514.5,"<p> Are you ready to play a practice game? </p> <p>In this practice game, you'll be digging up barrels of gems. But, in the real game, you'll be digging up the gems themselves. </p>",,,,,,,0,,,,,,,,,,,,,,,,,,
quiz_q_1_ask,49,292075,0.0-16.0-3.0,"""event"",""trial"",""time""
""fullscreenenter"",""1"",""9512""
","
","
","""event"",""trial"",""time""
""fullscreenenter"",""1"",""9512""
","
",,7096.4,run_exp/static/audio/clip_11_q1_ask.m4a,,,,,,,2,,,,,,,,,,,,,,,,,,
quiz_q_1_fb_correct,50,295923,0.0-17.0-0.0,"""event"",""trial"",""time""
""fullscreenenter"",""1"",""9512""
","
","
","""event"",""trial"",""time""
""fullscreenenter"",""1"",""9512""
","
",,null,run_exp/static/audio/clip_12_q1_correct.m4a,null,<p>That’s correct. You win extra money by collecting more gems.</p>,,,,,,,,,,,,,,,,,,,,,,,
quiz_q_2_ask,51,298894,0.0-17.0-1.0,"""event"",""trial"",""time""
""fullscreenenter"",""1"",""9512""
","
","
","""event"",""trial"",""time""
""fullscreenenter"",""1"",""9512""
","
",,2970,run_exp/static/audio/clip_14_q2_ask.m4a,,,,,,,1,,,,,,,,,,,,,,,,,,
quiz_q_2_fb_correct,52,302903,0.0-18.0-0.0,"""event"",""trial"",""time""
""fullscreenenter"",""1"",""9512""
","
","
","""event"",""trial"",""time""
""fullscreenenter"",""1"",""9512""
","
",,null,run_exp/static/audio/clip_15_q2_correct.m4a,null,<p>That’s correct. The experiment is 20 minutes no matter what.</p>,,,,,,,,,,,,,,,,,,,,,,,
quiz_q_3_ask,53,306146,0.0-18.0-1.0,"""event"",""trial"",""time""
""fullscreenenter"",""1"",""9512""
","
","
","""event"",""trial"",""time""
""fullscreenenter"",""1"",""9512""
","
",,3241.7,run_exp/static/audio/clip_17_q3_ask.m4a,,,,,,,1,,,,,,,,,,,,,,,,,,
quiz_q_3_fb_correct,54,310123,0.0-19.0-0.0,"""event"",""trial"",""time""
""fullscreenenter"",""1"",""9512""
","
","
","""event"",""trial"",""time""
""fullscreenenter"",""1"",""9512""
","
",,null,run_exp/static/audio/clip_18_q3_correct.m4a,null,<p> That’s correct. You press the letter L to travel to a new planet.</p>,,,,,,,,,,,,,,,,,,,,,,,
quiz_q_4_ask,55,313513,0.0-19.0-1.0,"""event"",""trial"",""time""
""fullscreenenter"",""1"",""9512""
","
","
","""event"",""trial"",""time""
""fullscreenenter"",""1"",""9512""
","
",,3388.9,run_exp/static/audio/clip_20_q4_ask.m4a,,,,,,,0,,,,,,,,,,,,,,,,,,
quiz_q_4_fb_correct,56,318843,0.0-20.0-0.0,"""event"",""trial"",""time""
""fullscreenenter"",""1"",""9512""
","
","
","""event"",""trial"",""time""
""fullscreenenter"",""1"",""9512""
","
",,null,run_exp/static/audio/clip_21_q4_correct.m4a,null,<p> That’s correct. The more you dig on a planet the fewer gems you’ll get with each dig. </p>,,,,,,,,,,,,,,,,,,,,,,,
quiz_q_5_ask,57,324328,0.0-20.0-1.0,"""event"",""trial"",""time""
""fullscreenenter"",""1"",""9512""
","
","
","""event"",""trial"",""time""
""fullscreenenter"",""1"",""9512""
","
",,5484.3,run_exp/static/audio/clip_23_q5_ask.m4a,,,,,,,1,,,,,,,,,,,,,,,,,,
quiz_q_5_fb_correct,58,329342,0.0-21.0-0.0,"""event"",""trial"",""time""
""fullscreenenter"",""1"",""9512""
","
","
","""event"",""trial"",""time""
""fullscreenenter"",""1"",""9512""
","
",,null,run_exp/static/audio/clip_24_q5_correct.m4a,null,<p> That’s correct. The alien tells you nothing about how much treasure is on the planet.</p>,,,,,,,,,,,,,,,,,,,,,,,
quiz_correct,59,332802,0.0-22.0-0.0,"""event"",""trial"",""time""
""fullscreenenter"",""1"",""9512""
","
","
","""event"",""trial"",""time""
""fullscreenenter"",""1"",""9512""
","
",,null,run_exp/static/audio/clip_26_correct_quiz.m4a,null,,,,,,,,,,,,,,,,,,,,,,,,
quiz_correct_continue,60,333960,0.0-22.0-1.0,"""event"",""trial"",""time""
""fullscreenenter"",""1"",""9512""
","
","
","""event"",""trial"",""time""
""fullscreenenter"",""1"",""9512""
","
",,1156.6,<p>Good job! You're now ready to move on to the real game!</p>,,,,,,,0,,,,,,,,,,,,,,,,,,
audio-keyboard-response,61,344082,0.0-22.0-2.0,"""event"",""trial"",""time""
""fullscreenenter"",""1"",""9512""
","
","
","""event"",""trial"",""time""
""fullscreenenter"",""1"",""9512""
","
",,null,run_exp/static/audio/clip_28_real_game.m4a,null,,,,,,,,,,,,,,,,,,,,,,,,
instruc_begin_exp_contine,62,345589,0.0-22.0-3.0,"""event"",""trial"",""time""
""fullscreenenter"",""1"",""9512""
","
","
","""event"",""trial"",""time""
""fullscreenenter"",""1"",""9512""
","
",,1506.2,"<p>Now that you know how  to dig for space treasure and travel to new planets,you can start exploring! </p><p>Do you want to go over the instructions again or get started with the real game?</p>",,,,,,,1,,,,,,1,,,,,,,,,,,,
alien_welcome,63,350606,0.0-23.0-0.0,"""event"",""trial"",""time""
""fullscreenenter"",""1"",""9512""
","
","
","""event"",""trial"",""time""
""fullscreenenter"",""1"",""9512""
","
",,null,run_exp/static/images/task_images/aliens/old_aliens/planet/alien_planet-70.jpg,null,,,,,,,,,,,,,70,"70,45,34,17,16,6,32,33,44,72,59,24,7,46,65,76,41,62,31,61,39,22,80,35,58,54,3,69,19,78,51,43,29,52,53,55,30,63,74,12,5,73",,,,,,,,,,
land,64,351121,0.0-23.0-1.0,"""event"",""trial"",""time""
""fullscreenenter"",""1"",""9512""
","
","
","""event"",""trial"",""time""
""fullscreenenter"",""1"",""9512""
","
",,null,run_exp/static/images/task_images/land.jpg,null,,,,,,,97,,,1,,,,,,,,,,,,,,
dig,65,353130,0.0-23.0-2.0,"""event"",""trial"",""time""
""fullscreenenter"",""1"",""9512""
","
","
","""event"",""trial"",""time""
""fullscreenenter"",""1"",""9512""
","
",,,,,,,,,,,,"[{""stimulus"":""run_exp/static/images/task_images/dig.jpg"",""time"":0.2999999523162842},{""stimulus"":""run_exp/static/images/task_images/land.jpg"",""time"":678.9000000953674},{""stimulus"":""run_exp/static/images/task_images/dig.jpg"",""time"":1342.9000000953674}]",[],1,,,,,,,,,,,,,,
harvest,66,354137,0.0-23.0-3.0,"""event"",""trial"",""time""
""fullscreenenter"",""1"",""9512""
","
","
","""event"",""trial"",""time""
""fullscreenenter"",""1"",""9512""
","
",,null,run_exp/static/images/task_images/gems/97.jpg,null,,,,,,,22,,,1,,,,,97,0.221902682,0.226804124,,,,,,,
decision,67,355691,0.0-23.0-4.0,"""event"",""trial"",""time""
""fullscreenenter"",""1"",""9512""
","
","
","""event"",""trial"",""time""
""fullscreenenter"",""1"",""9512""
","
",,1553,run_exp/static/images/task_images/land.jpg,65,,,,,,,22,,,1,,,,,,,,10102,1,0,FALSE,,,
dig,68,357153,0.0-24.0-0.0,"""event"",""trial"",""time""
""fullscreenenter"",""1"",""9512""
","
","
","""event"",""trial"",""time""
""fullscreenenter"",""1"",""9512""
","
",,,,,,,,,,,,"[{""stimulus"":""run_exp/static/images/task_images/dig.jpg"",""time"":0.09999990463256836},{""stimulus"":""run_exp/static/images/task_images/land.jpg"",""time"":486.5},{""stimulus"":""run_exp/static/images/task_images/dig.jpg"",""time"":971.0999999046326}]",[],1,,,,,,,,,,,,,,
harvest,69,358169,0.0-24.0-1.0,"""event"",""trial"",""time""
""fullscreenenter"",""1"",""9512""
","
","
","""event"",""trial"",""time""
""fullscreenenter"",""1"",""9512""
","
",,null,run_exp/static/images/task_images/gems/22.jpg,null,,,,,,,5,,,1,,,,,22,0.219058801,0.227272727,,,,,,,
decision,70,358342,0.0-24.0-2.0,"""event"",""trial"",""time""
""fullscreenenter"",""1"",""9512""
","
","
","""event"",""trial"",""time""
""fullscreenenter"",""1"",""9512""
","
",,172.2,run_exp/static/images/task_images/land.jpg,76,,,,,,,5,,,1,,,,,,,,12752,1,1,TRUE,,,
travel,71,368179,0.0-25.0-0.0,"""event"",""trial"",""time""
""fullscreenenter"",""1"",""9512""
","
","
","""event"",""trial"",""time""
""fullscreenenter"",""1"",""9512""
","
",,,,,,,,,,,,"[{""stimulus"":""run_exp/static/images/task_images/rocket-01.jpg"",""time"":0.20000004768371582},{""stimulus"":""run_exp/static/images/task_images/rocket-02.jpg"",""time"":1092.5999999046326},{""stimulus"":""run_exp/static/images/task_images/rocket-03.jpg"",""time"":2195.2999999523163},{""stimulus"":""run_exp/static/images/task_images/rocket-04.jpg"",""time"":3277.2999999523163},{""stimulus"":""run_exp/static/images/task_images/rocket-05.jpg"",""time"":4377.700000047684},{""stimulus"":""run_exp/static/images/task_images/rocket-06.jpg"",""time"":5460},{""stimulus"":""run_exp/static/images/task_images/rocket-07.jpg"",""time"":6558.200000047684},{""stimulus"":""run_exp/static/images/task_images/rocket-08.jpg"",""time"":7639.700000047684},{""stimulus"":""run_exp/static/images/task_images/rocket-09.jpg"",""time"":8737}]",[],1,,,,,,,,,,,,,,
alien_welcome,72,373192,0.0-25.0-1.0,"""event"",""trial"",""time""
""fullscreenenter"",""1"",""9512""
","
","
","""event"",""trial"",""time""
""fullscreenenter"",""1"",""9512""
","
",,null,run_exp/static/images/task_images/aliens/old_aliens/planet/alien_planet-45.jpg,null,,,,,,,,,,,,,45,"70,45,34,17,16,6,32,33,44,72,59,24,7,46,65,76,41,62,31,61,39,22,80,35,58,54,3,69,19,78,51,43,29,52,53,55,30,63,74,12,5,73",,,,,,,,,,
land,73,373703,0.0-25.0-2.0,"""event"",""trial"",""time""
""fullscreenenter"",""1"",""9512""
","
","
","""event"",""trial"",""time""
""fullscreenenter"",""1"",""9512""
","
",,null,run_exp/static/images/task_images/land.jpg,null,,,,,,,105,,,2,,,,,,,,,,,,,,
dig,74,375714,0.0-25.0-3.0,"""event"",""trial"",""time""
""fullscreenenter"",""1"",""9512""
","
","
","""event"",""trial"",""time""
""fullscreenenter"",""1"",""9512""
","
",,,,,,,,,,,,"[{""stimulus"":""run_exp/static/images/task_images/dig.jpg"",""time"":0.20000004768371582},{""stimulus"":""run_exp/static/images/task_images/land.jpg"",""time"":679.4000000953674},{""stimulus"":""run_exp/static/images/task_images/dig.jpg"",""time"":1340.5}]",[],2,,,,,,,,,,,,,,
harvest,75,376720,0.0-25.0-4.0,"""event"",""trial"",""time""
""fullscreenenter"",""1"",""9512""
","
","
","""event"",""trial"",""time""
""fullscreenenter"",""1"",""9512""
","
",,null,run_exp/static/images/task_images/gems/105.jpg,null,,,,,,,19,,,2,,,,,105,0.182338306,0.180952381,,,,,,,
decision,76,377975,0.0-25.0-5.0,"""event"",""trial"",""time""
""fullscreenenter"",""1"",""9512""
","
","
","""event"",""trial"",""time""
""fullscreenenter"",""1"",""9512""
","
",,1253.9,run_exp/static/images/task_images/land.jpg,65,,,,,,,19,,,2,,,,,,,,32385,1,0,FALSE,,,
dig,77,379739,0.0-26.0-0.0,"""event"",""trial"",""time""
""fullscreenenter"",""1"",""9512""
","
","
","""event"",""trial"",""time""
""fullscreenenter"",""1"",""9512""
","
",,,,,,,,,,,,"[{""stimulus"":""run_exp/static/images/task_images/dig.jpg"",""time"":0.09999990463256836},{""stimulus"":""run_exp/static/images/task_images/land.jpg"",""time"":595.2999999523163},{""stimulus"":""run_exp/static/images/task_images/dig.jpg"",""time"":1165.2999999523163}]",[],2,,,,,,,,,,,,,,
harvest,78,380753,0.0-26.0-1.0,"""event"",""trial"",""time""
""fullscreenenter"",""1"",""9512""
","
","
","""event"",""trial"",""time""
""fullscreenenter"",""1"",""9512""
","
",,null,run_exp/static/images/task_images/gems/19.jpg,null,,,,,,,3,,,2,,,,,19,0.153277868,0.157894737,,,,,,,
decision,79,381900,0.0-26.0-2.0,"""event"",""trial"",""time""
""fullscreenenter"",""1"",""9512""
","
","
","""event"",""trial"",""time""
""fullscreenenter"",""1"",""9512""
","
",,1146.4,run_exp/static/images/task_images/land.jpg,65,,,,,,,3,,,2,,,,,,,,36310,1,1,FALSE,,,
dig,80,383763,0.0-27.0-0.0,"""event"",""trial"",""time""
""fullscreenenter"",""1"",""9512""
","
","
","""event"",""trial"",""time""
""fullscreenenter"",""1"",""9512""
","
",,,,,,,,,,,,"[{""stimulus"":""run_exp/static/images/task_images/dig.jpg"",""time"":0.09999990463256836},{""stimulus"":""run_exp/static/images/task_images/land.jpg"",""time"":620.2999999523163},{""stimulus"":""run_exp/static/images/task_images/dig.jpg"",""time"":1235.2000000476837}]",[],2,,,,,,,,,,,,,,
harvest,81,384770,0.0-27.0-1.0,"""event"",""trial"",""time""
""fullscreenenter"",""1"",""9512""
","
","
","""event"",""trial"",""time""
""fullscreenenter"",""1"",""9512""
","
",,null,run_exp/static/images/task_images/gems/3.jpg,null,,,,,,,0,,,2,,,,,3,0.153513373,0,,,,,,,
decision,82,386008,0.0-27.0-2.0,"""event"",""trial"",""time""
""fullscreenenter"",""1"",""9512""
","
","
","""event"",""trial"",""time""
""fullscreenenter"",""1"",""9512""
","
",,1237.5,run_exp/static/images/task_images/land.jpg,76,,,,,,,0,,,2,,,,,,,,40418,1,2,TRUE,,,
travel,83,394781,0.0-28.0-0.0,"""event"",""trial"",""time""
""fullscreenenter"",""1"",""9512""
","
","
","""event"",""trial"",""time""
""fullscreenenter"",""1"",""9512""
","
",,,,,,,,,,,,"[{""stimulus"":""run_exp/static/images/task_images/rocket-01.jpg"",""time"":0.10000014305114746},{""stimulus"":""run_exp/static/images/task_images/rocket-02.jpg"",""time"":973.7000000476837},{""stimulus"":""run_exp/static/images/task_images/rocket-03.jpg"",""time"":1961.2999999523163},{""stimulus"":""run_exp/static/images/task_images/rocket-04.jpg"",""time"":2921.4000000953674},{""stimulus"":""run_exp/static/images/task_images/rocket-05.jpg"",""time"":3907.9000000953674},{""stimulus"":""run_exp/static/images/task_images/rocket-06.jpg"",""time"":4877.400000095367},{""stimulus"":""run_exp/static/images/task_images/rocket-07.jpg"",""time"":5853.299999952316},{""stimulus"":""run_exp/static/images/task_images/rocket-08.jpg"",""time"":6823.600000143051},{""stimulus"":""run_exp/static/images/task_images/rocket-09.jpg"",""time"":7796.200000047684}]",[],2,,,,,,,,,,,,,,
alien_welcome,84,399794,0.0-28.0-1.0,"""event"",""trial"",""time""
""fullscreenenter"",""1"",""9512""
","
","
","""event"",""trial"",""time""
""fullscreenenter"",""1"",""9512""
","
",,null,run_exp/static/images/task_images/aliens/old_aliens/planet/alien_planet-34.jpg,null,,,,,,,,,,,,,34,"70,45,34,17,16,6,32,33,44,72,59,24,7,46,65,76,41,62,31,61,39,22,80,35,58,54,3,69,19,78,51,43,29,52,53,55,30,63,74,12,5,73",,,,,,,,,,
land,85,400302,0.0-28.0-2.0,"""event"",""trial"",""time""
""fullscreenenter"",""1"",""9512""
","
","
","""event"",""trial"",""time""
""fullscreenenter"",""1"",""9512""
","
",,null,run_exp/static/images/task_images/land.jpg,null,,,,,,,96,,,3,,,,,,,,,,,,,,
dig,86,402309,0.0-28.0-3.0,"""event"",""trial"",""time""
""fullscreenenter"",""1"",""9512""
","
","
","""event"",""trial"",""time""
""fullscreenenter"",""1"",""9512""
","
",,,,,,,,,,,,"[{""stimulus"":""run_exp/static/images/task_images/dig.jpg"",""time"":0.2999999523162842},{""stimulus"":""run_exp/static/images/task_images/land.jpg"",""time"":681.1000001430511},{""stimulus"":""run_exp/static/images/task_images/dig.jpg"",""time"":1345.5}]",[],3,,,,,,,,,,,,,,
harvest,87,403315,0.0-28.0-4.0,"""event"",""trial"",""time""
""fullscreenenter"",""1"",""9512""
","
","
","""event"",""trial"",""time""
""fullscreenenter"",""1"",""9512""
","
",,null,run_exp/static/images/task_images/gems/96.jpg,null,,,,,,,53,,,3,,,,,96,0.547748871,0.552083333,,,,,,,
decision,88,403908,0.0-28.0-5.0,"""event"",""trial"",""time""
""fullscreenenter"",""1"",""9512""
","
","
","""event"",""trial"",""time""
""fullscreenenter"",""1"",""9512""
","
",,593.1000001,run_exp/static/images/task_images/land.jpg,65,,,,,,,53,,,3,,,,,,,,58318,1,0,FALSE,,,
dig,89,406324,0.0-29.0-0.0,"""event"",""trial"",""time""
""fullscreenenter"",""1"",""9512""
","
","
","""event"",""trial"",""time""
""fullscreenenter"",""1"",""9512""
","
",,,,,,,,,,,,"[{""stimulus"":""run_exp/static/images/task_images/dig.jpg"",""time"":0.09999990463256836},{""stimulus"":""run_exp/static/images/task_images/land.jpg"",""time"":819},{""stimulus"":""run_exp/static/images/task_images/dig.jpg"",""time"":1617.5999999046326}]",[],3,,,,,,,,,,,,,,
harvest,90,407334,0.0-29.0-1.0,"""event"",""trial"",""time""
""fullscreenenter"",""1"",""9512""
","
","
","""event"",""trial"",""time""
""fullscreenenter"",""1"",""9512""
","
",,null,run_exp/static/images/task_images/gems/53.jpg,null,,,,,,,27,,,3,,,,,53,0.513746549,0.509433962,,,,,,,
decision,91,407829,0.0-29.0-2.0,"""event"",""trial"",""time""
""fullscreenenter"",""1"",""9512""
","
","
","""event"",""trial"",""time""
""fullscreenenter"",""1"",""9512""
","
",,493.5,run_exp/static/images/task_images/land.jpg,65,,,,,,,27,,,3,,,,,,,,62239,1,1,FALSE,,,
dig,92,410342,0.0-30.0-0.0,"""event"",""trial"",""time""
""fullscreenenter"",""1"",""9512""
","
","
","""event"",""trial"",""time""
""fullscreenenter"",""1"",""9512""
","
",,,,,,,,,,,,"[{""stimulus"":""run_exp/static/images/task_images/dig.jpg"",""time"":0.10000014305114746},{""stimulus"":""run_exp/static/images/task_images/land.jpg"",""time"":836.6000001430511},{""stimulus"":""run_exp/static/images/task_images/dig.jpg"",""time"":1678.9000000953674}]",[],3,,,,,,,,,,,,,,
harvest,93,411352,0.0-30.0-1.0,"""event"",""trial"",""time""
""fullscreenenter"",""1"",""9512""
","
","
","""event"",""trial"",""time""
""fullscreenenter"",""1"",""9512""
","
",,null,run_exp/static/images/task_images/gems/27.jpg,null,,,,,,,16,,,3,,,,,27,0.593518554,0.592592593,,,,,,,
decision,94,411802,0.0-30.0-2.0,"""event"",""trial"",""time""
""fullscreenenter"",""1"",""9512""
","
","
","""event"",""trial"",""time""
""fullscreenenter"",""1"",""9512""
","
",,449.5,run_exp/static/images/task_images/land.jpg,65,,,,,,,16,,,3,,,,,,,,66212,1,2,FALSE,,,
dig,95,414355,0.0-31.0-0.0,"""event"",""trial"",""time""
""fullscreenenter"",""1"",""9512""
","
","
","""event"",""trial"",""time""
""fullscreenenter"",""1"",""9512""
","
",,,,,,,,,,,,"[{""stimulus"":""run_exp/static/images/task_images/dig.jpg"",""time"":0},{""stimulus"":""run_exp/static/images/task_images/land.jpg"",""time"":850.9000000953674},{""stimulus"":""run_exp/static/images/task_images/dig.jpg"",""time"":1704.5}]",[],3,,,,,,,,,,,,,,
harvest,96,415370,0.0-31.0-1.0,"""event"",""trial"",""time""
""fullscreenenter"",""1"",""9512""
","
","
","""event"",""trial"",""time""
""fullscreenenter"",""1"",""9512""
","
",,null,run_exp/static/images/task_images/gems/16.jpg,null,,,,,,,9,,,3,,,,,16,0.538123937,0.5625,,,,,,,
decision,97,415864,0.0-31.0-2.0,"""event"",""trial"",""time""
""fullscreenenter"",""1"",""9512""
","
","
","""event"",""trial"",""time""
""fullscreenenter"",""1"",""9512""
","
",,493.4000001,run_exp/static/images/task_images/land.jpg,65,,,,,,,9,,,3,,,,,,,,70274,1,3,FALSE,,,
dig,98,418372,0.0-32.0-0.0,"""event"",""trial"",""time""
""fullscreenenter"",""1"",""9512""
","
","
","""event"",""trial"",""time""
""fullscreenenter"",""1"",""9512""
","
",,,,,,,,,,,,"[{""stimulus"":""run_exp/static/images/task_images/dig.jpg"",""time"":0.10000014305114746},{""stimulus"":""run_exp/static/images/task_images/land.jpg"",""time"":836.5},{""stimulus"":""run_exp/static/images/task_images/dig.jpg"",""time"":1675.1000001430511}]",[],3,,,,,,,,,,,,,,
harvest,99,419386,0.0-32.0-1.0,"""event"",""trial"",""time""
""fullscreenenter"",""1"",""9512""
","
","
","""event"",""trial"",""time""
""fullscreenenter"",""1"",""9512""
","
",,null,run_exp/static/images/task_images/gems/9.jpg,null,,,,,,,5,,,3,,,,,9,0.510046395,0.555555556,,,,,,,
decision,100,419923,0.0-32.0-2.0,"""event"",""trial"",""time""
""fullscreenenter"",""1"",""9512""
","
","
","""event"",""trial"",""time""
""fullscreenenter"",""1"",""9512""
","
",,536.3000002,run_exp/static/images/task_images/land.jpg,76,,,,,,,5,,,3,,,,,,,,74333,1,4,TRUE,,,
travel,101,429391,0.0-33.0-0.0,"""event"",""trial"",""time""
""fullscreenenter"",""1"",""9512""
","
","
","""event"",""trial"",""time""
""fullscreenenter"",""1"",""9512""
","
",,,,,,,,,,,,"[{""stimulus"":""run_exp/static/images/task_images/rocket-01.jpg"",""time"":0.09999990463256836},{""stimulus"":""run_exp/static/images/task_images/rocket-02.jpg"",""time"":1056.2999999523163},{""stimulus"":""run_exp/static/images/task_images/rocket-03.jpg"",""time"":2107.699999809265},{""stimulus"":""run_exp/static/images/task_images/rocket-04.jpg"",""time"":3158.0999999046326},{""stimulus"":""run_exp/static/images/task_images/rocket-05.jpg"",""time"":4209.199999809265},{""stimulus"":""run_exp/static/images/task_images/rocket-06.jpg"",""time"":5259.599999904633},{""stimulus"":""run_exp/static/images/task_images/rocket-07.jpg"",""time"":6309},{""stimulus"":""run_exp/static/images/task_images/rocket-08.jpg"",""time"":7361.099999904633},{""stimulus"":""run_exp/static/images/task_images/rocket-09.jpg"",""time"":8413}]",[],3,,,,,,,,,,,,,,
alien_welcome,102,434406,0.0-33.0-1.0,"""event"",""trial"",""time""
""fullscreenenter"",""1"",""9512""
","
","
","""event"",""trial"",""time""
""fullscreenenter"",""1"",""9512""
","
",,null,run_exp/static/images/task_images/aliens/old_aliens/planet/alien_planet-17.jpg,null,,,,,,,,,,,,,17,"70,45,34,17,16,6,32,33,44,72,59,24,7,46,65,76,41,62,31,61,39,22,80,35,58,54,3,69,19,78,51,43,29,52,53,55,30,63,74,12,5,73",,,,,,,,,,
land,103,434918,0.0-33.0-2.0,"""event"",""trial"",""time""
""fullscreenenter"",""1"",""9512""
","
","
","""event"",""trial"",""time""
""fullscreenenter"",""1"",""9512""
","
",,null,run_exp/static/images/task_images/land.jpg,null,,,,,,,95,,,4,,,,,,,,,,,,,,
dig,104,436929,0.0-33.0-3.0,"""event"",""trial"",""time""
""fullscreenenter"",""1"",""9512""
","
","
","""event"",""trial"",""time""
""fullscreenenter"",""1"",""9512""
","
",,,,,,,,,,,,"[{""stimulus"":""run_exp/static/images/task_images/dig.jpg"",""time"":0.09999990463256836},{""stimulus"":""run_exp/static/images/task_images/land.jpg"",""time"":682.2000000476837},{""stimulus"":""run_exp/static/images/task_images/dig.jpg"",""time"":1338}]",[],4,,,,,,,,,,,,,,
harvest,105,437935,0.0-33.0-4.0,"""event"",""trial"",""time""
""fullscreenenter"",""1"",""9512""
","
","
","""event"",""trial"",""time""
""fullscreenenter"",""1"",""9512""
","
",,null,run_exp/static/images/task_images/gems/95.jpg,null,,,,,,,46,,,4,,,,,95,0.481631124,0.484210526,,,,,,,
decision,106,438297,0.0-33.0-5.0,"""event"",""trial"",""time""
""fullscreenenter"",""1"",""9512""
","
","
","""event"",""trial"",""time""
""fullscreenenter"",""1"",""9512""
","
",,360.5999999,run_exp/static/images/task_images/land.jpg,65,,,,,,,46,,,4,,,,,,,,92707,1,0,FALSE,,,
dig,107,440936,0.0-34.0-0.0,"""event"",""trial"",""time""
""fullscreenenter"",""1"",""9512""
","
","
","""event"",""trial"",""time""
""fullscreenenter"",""1"",""9512""
","
",,,,,,,,,,,,"[{""stimulus"":""run_exp/static/images/task_images/dig.jpg"",""time"":0.09999990463256836},{""stimulus"":""run_exp/static/images/task_images/land.jpg"",""time"":889.7999999523163},{""stimulus"":""run_exp/static/images/task_images/dig.jpg"",""time"":1760.2000000476837}]",[],4,,,,,,,,,,,,,,
harvest,108,441953,0.0-34.0-1.0,"""event"",""trial"",""time""
""fullscreenenter"",""1"",""9512""
","
","
","""event"",""trial"",""time""
""fullscreenenter"",""1"",""9512""
","
",,null,run_exp/static/images/task_images/gems/46.jpg,null,,,,,,,26,,,4,,,,,46,0.569893572,0.565217391,,,,,,,
decision,109,442481,0.0-34.0-2.0,"""event"",""trial"",""time""
""fullscreenenter"",""1"",""9512""
","
","
","""event"",""trial"",""time""
""fullscreenenter"",""1"",""9512""
","
",,527.1999998,run_exp/static/images/task_images/land.jpg,65,,,,,,,26,,,4,,,,,,,,96891,1,1,FALSE,,,
dig,110,444969,0.0-35.0-0.0,"""event"",""trial"",""time""
""fullscreenenter"",""1"",""9512""
","
","
","""event"",""trial"",""time""
""fullscreenenter"",""1"",""9512""
","
",,,,,,,,,,,,"[{""stimulus"":""run_exp/static/images/task_images/dig.jpg"",""time"":0},{""stimulus"":""run_exp/static/images/task_images/land.jpg"",""time"":824.7999999523163},{""stimulus"":""run_exp/static/images/task_images/dig.jpg"",""time"":1658.7999999523163}]",[],4,,,,,,,,,,,,,,
harvest,111,445984,0.0-35.0-1.0,"""event"",""trial"",""time""
""fullscreenenter"",""1"",""9512""
","
","
","""event"",""trial"",""time""
""fullscreenenter"",""1"",""9512""
","
",,null,run_exp/static/images/task_images/gems/26.jpg,null,,,,,,,15,,,4,,,,,26,0.58442103,0.576923077,,,,,,,
decision,112,446347,0.0-35.0-2.0,"""event"",""trial"",""time""
""fullscreenenter"",""1"",""9512""
","
","
","""event"",""trial"",""time""
""fullscreenenter"",""1"",""9512""
","
",,361.4000001,run_exp/static/images/task_images/land.jpg,65,,,,,,,15,,,4,,,,,,,,100757,1,2,FALSE,,,
dig,113,449000,0.0-36.0-0.0,"""event"",""trial"",""time""
""fullscreenenter"",""1"",""9512""
","
","
","""event"",""trial"",""time""
""fullscreenenter"",""1"",""9512""
","
",,,,,,,,,,,,"[{""stimulus"":""run_exp/static/images/task_images/dig.jpg"",""time"":0.10000014305114746},{""stimulus"":""run_exp/static/images/task_images/land.jpg"",""time"":889.7000000476837},{""stimulus"":""run_exp/static/images/task_images/dig.jpg"",""time"":1770.2000000476837}]",[],4,,,,,,,,,,,,,,
harvest,114,450002,0.0-36.0-1.0,"""event"",""trial"",""time""
""fullscreenenter"",""1"",""9512""
","
","
","""event"",""trial"",""time""
""fullscreenenter"",""1"",""9512""
","
",,null,run_exp/static/images/task_images/gems/15.jpg,null,,,,,,,7,,,4,,,,,15,0.492235846,0.466666667,,,,,,,
decision,115,450494,0.0-36.0-2.0,"""event"",""trial"",""time""
""fullscreenenter"",""1"",""9512""
","
","
","""event"",""trial"",""time""
""fullscreenenter"",""1"",""9512""
","
",,491.5,run_exp/static/images/task_images/land.jpg,65,,,,,,,7,,,4,,,,,,,,104904,1,3,FALSE,,,
dig,116,453006,0.0-37.0-0.0,"""event"",""trial"",""time""
""fullscreenenter"",""1"",""9512""
","
","
","""event"",""trial"",""time""
""fullscreenenter"",""1"",""9512""
","
",,,,,,,,,,,,"[{""stimulus"":""run_exp/static/images/task_images/dig.jpg"",""time"":0.10000014305114746},{""stimulus"":""run_exp/static/images/task_images/land.jpg"",""time"":842.5},{""stimulus"":""run_exp/static/images/task_images/dig.jpg"",""time"":1678}]",[],4,,,,,,,,,,,,,,
harvest,117,454020,0.0-37.0-1.0,"""event"",""trial"",""time""
""fullscreenenter"",""1"",""9512""
","
","
","""event"",""trial"",""time""
""fullscreenenter"",""1"",""9512""
","
",,null,run_exp/static/images/task_images/gems/7.jpg,null,,,,,,,3,,,4,,,,,7,0.438831311,0.428571429,,,,,,,
decision,118,454679,0.0-37.0-2.0,"""event"",""trial"",""time""
""fullscreenenter"",""1"",""9512""
","
","
","""event"",""trial"",""time""
""fullscreenenter"",""1"",""9512""
","
",,658.2,run_exp/static/images/task_images/land.jpg,76,,,,,,,3,,,4,,,,,,,,109089,1,4,TRUE,,,
travel,119,464028,0.0-38.0-0.0,"""event"",""trial"",""time""
""fullscreenenter"",""1"",""9512""
","
","
","""event"",""trial"",""time""
""fullscreenenter"",""1"",""9512""
","
",,,,,,,,,,,,"[{""stimulus"":""run_exp/static/images/task_images/rocket-01.jpg"",""time"":0.09999990463256836},{""stimulus"":""run_exp/static/images/task_images/rocket-02.jpg"",""time"":1047.2000000476837},{""stimulus"":""run_exp/static/images/task_images/rocket-03.jpg"",""time"":2083.5999999046326},{""stimulus"":""run_exp/static/images/task_images/rocket-04.jpg"",""time"":3119.4000000953674},{""stimulus"":""run_exp/static/images/task_images/rocket-05.jpg"",""time"":4153.900000095367},{""stimulus"":""run_exp/static/images/task_images/rocket-06.jpg"",""time"":5188.799999952316},{""stimulus"":""run_exp/static/images/task_images/rocket-07.jpg"",""time"":6223.700000047684},{""stimulus"":""run_exp/static/images/task_images/rocket-08.jpg"",""time"":7274.400000095367},{""stimulus"":""run_exp/static/images/task_images/rocket-09.jpg"",""time"":8297.200000047684}]",[],4,,,,,,,,,,,,,,
alien_welcome,120,469042,0.0-38.0-1.0,"""event"",""trial"",""time""
""fullscreenenter"",""1"",""9512""
","
","
","""event"",""trial"",""time""
""fullscreenenter"",""1"",""9512""
","
",,null,run_exp/static/images/task_images/aliens/old_aliens/planet/alien_planet-16.jpg,null,,,,,,,,,,,,,16,"70,45,34,17,16,6,32,33,44,72,59,24,7,46,65,76,41,62,31,61,39,22,80,35,58,54,3,69,19,78,51,43,29,52,53,55,30,63,74,12,5,73",,,,,,,,,,
land,121,469551,0.0-38.0-2.0,"""event"",""trial"",""time""
""fullscreenenter"",""1"",""9512""
","
","
","""event"",""trial"",""time""
""fullscreenenter"",""1"",""9512""
","
",,null,run_exp/static/images/task_images/land.jpg,null,,,,,,,97,,,5,,,,,,,,,,,,,,
dig,122,471564,0.0-38.0-3.0,"""event"",""trial"",""time""
""fullscreenenter"",""1"",""9512""
","
","
","""event"",""trial"",""time""
""fullscreenenter"",""1"",""9512""
","
",,,,,,,,,,,,"[{""stimulus"":""run_exp/static/images/task_images/dig.jpg"",""time"":0.10000014305114746},{""stimulus"":""run_exp/static/images/task_images/land.jpg"",""time"":682.1000001430511},{""stimulus"":""run_exp/static/images/task_images/dig.jpg"",""time"":1345.7000000476837}]",[],5,,,,,,,,,,,,,,
harvest,123,472567,0.0-38.0-4.0,"""event"",""trial"",""time""
""fullscreenenter"",""1"",""9512""
","
","
","""event"",""trial"",""time""
""fullscreenenter"",""1"",""9512""
","
",,null,run_exp/static/images/task_images/gems/97.jpg,null,,,,,,,46,,,5,,,,,97,0.474343969,0.474226804,,,,,,,
decision,124,473010,0.0-38.0-5.0,"""event"",""trial"",""time""
""fullscreenenter"",""1"",""9512""
","
","
","""event"",""trial"",""time""
""fullscreenenter"",""1"",""9512""
","
",,441.8,run_exp/static/images/task_images/land.jpg,65,,,,,,,46,,,5,,,,,,,,127420,1,0,FALSE,,,
dig,125,475572,0.0-39.0-0.0,"""event"",""trial"",""time""
""fullscreenenter"",""1"",""9512""
","
","
","""event"",""trial"",""time""
""fullscreenenter"",""1"",""9512""
","
",,,,,,,,,,,,"[{""stimulus"":""run_exp/static/images/task_images/dig.jpg"",""time"":0.09999990463256836},{""stimulus"":""run_exp/static/images/task_images/land.jpg"",""time"":860.2999999523163},{""stimulus"":""run_exp/static/images/task_images/dig.jpg"",""time"":1712.7999999523163}]",[],5,,,,,,,,,,,,,,
harvest,126,476578,0.0-39.0-1.0,"""event"",""trial"",""time""
""fullscreenenter"",""1"",""9512""
","
","
","""event"",""trial"",""time""
""fullscreenenter"",""1"",""9512""
","
",,null,run_exp/static/images/task_images/gems/46.jpg,null,,,,,,,23,,,5,,,,,46,0.501118722,0.5,,,,,,,
decision,127,477199,0.0-39.0-2.0,"""event"",""trial"",""time""
""fullscreenenter"",""1"",""9512""
","
","
","""event"",""trial"",""time""
""fullscreenenter"",""1"",""9512""
","
",,620.3,run_exp/static/images/task_images/land.jpg,65,,,,,,,23,,,5,,,,,,,,131609,1,1,FALSE,,,
dig,128,479588,0.0-40.0-0.0,"""event"",""trial"",""time""
""fullscreenenter"",""1"",""9512""
","
","
","""event"",""trial"",""time""
""fullscreenenter"",""1"",""9512""
","
",,,,,,,,,,,,"[{""stimulus"":""run_exp/static/images/task_images/dig.jpg"",""time"":0.10000014305114746},{""stimulus"":""run_exp/static/images/task_images/land.jpg"",""time"":794.9000000953674},{""stimulus"":""run_exp/static/images/task_images/dig.jpg"",""time"":1596.2000000476837}]",[],5,,,,,,,,,,,,,,
harvest,129,480602,0.0-40.0-1.0,"""event"",""trial"",""time""
""fullscreenenter"",""1"",""9512""
","
","
","""event"",""trial"",""time""
""fullscreenenter"",""1"",""9512""
","
",,null,run_exp/static/images/task_images/gems/23.jpg,null,,,,,,,11,,,5,,,,,23,0.479093455,0.47826087,,,,,,,
decision,130,481185,0.0-40.0-2.0,"""event"",""trial"",""time""
""fullscreenenter"",""1"",""9512""
","
","
","""event"",""trial"",""time""
""fullscreenenter"",""1"",""9512""
","
",,582,run_exp/static/images/task_images/land.jpg,76,,,,,,,11,,,5,,,,,,,,135595,1,2,TRUE,,,
travel,131,490607,0.0-41.0-0.0,"""event"",""trial"",""time""
""fullscreenenter"",""1"",""9512""
","
","
","""event"",""trial"",""time""
""fullscreenenter"",""1"",""9512""
","
",,,,,,,,,,,,"[{""stimulus"":""run_exp/static/images/task_images/rocket-01.jpg"",""time"":0.09999990463256836},{""stimulus"":""run_exp/static/images/task_images/rocket-02.jpg"",""time"":1059.6999998092651},{""stimulus"":""run_exp/static/images/task_images/rocket-03.jpg"",""time"":2095.0999999046326},{""stimulus"":""run_exp/static/images/task_images/rocket-04.jpg"",""time"":3145.2999999523163},{""stimulus"":""run_exp/static/images/task_images/rocket-05.jpg"",""time"":4195.799999952316},{""stimulus"":""run_exp/static/images/task_images/rocket-06.jpg"",""time"":5245.699999809265},{""stimulus"":""run_exp/static/images/task_images/rocket-07.jpg"",""time"":6279.399999856949},{""stimulus"":""run_exp/static/images/task_images/rocket-08.jpg"",""time"":7331},{""stimulus"":""run_exp/static/images/task_images/rocket-09.jpg"",""time"":8381.699999809265}]",[],5,,,,,,,,,,,,,,
alien_welcome,132,495608,0.0-41.0-1.0,"""event"",""trial"",""time""
""fullscreenenter"",""1"",""9512""
","
","
","""event"",""trial"",""time""
""fullscreenenter"",""1"",""9512""
","
",,null,run_exp/static/images/task_images/aliens/old_aliens/planet/alien_planet-6.jpg,null,,,,,,,,,,,,,6,"70,45,34,17,16,6,32,33,44,72,59,24,7,46,65,76,41,62,31,61,39,22,80,35,58,54,3,69,19,78,51,43,29,52,53,55,30,63,74,12,5,73",,,,,,,,,,
land,133,496119,0.0-41.0-2.0,"""event"",""trial"",""time""
""fullscreenenter"",""1"",""9512""
","
","
","""event"",""trial"",""time""
""fullscreenenter"",""1"",""9512""
","
",,null,run_exp/static/images/task_images/land.jpg,null,,,,,,,98,,,6,,,,,,,,,,,,,,
dig,134,498128,0.0-41.0-3.0,"""event"",""trial"",""time""
""fullscreenenter"",""1"",""9512""
","
","
","""event"",""trial"",""time""
""fullscreenenter"",""1"",""9512""
","
",,,,,,,,,,,,"[{""stimulus"":""run_exp/static/images/task_images/dig.jpg"",""time"":0.20000004768371582},{""stimulus"":""run_exp/static/images/task_images/land.jpg"",""time"":682.4000000953674},{""stimulus"":""run_exp/static/images/task_images/dig.jpg"",""time"":1344.7000000476837}]",[],6,,,,,,,,,,,,,,
harvest,135,499136,0.0-41.0-4.0,"""event"",""trial"",""time""
""fullscreenenter"",""1"",""9512""
","
","
","""event"",""trial"",""time""
""fullscreenenter"",""1"",""9512""
","
",,null,run_exp/static/images/task_images/gems/98.jpg,null,,,,,,,72,,,6,,,,,98,0.735140153,0.734693878,,,,,,,
decision,136,499622,0.0-41.0-5.0,"""event"",""trial"",""time""
""fullscreenenter"",""1"",""9512""
","
","
","""event"",""trial"",""time""
""fullscreenenter"",""1"",""9512""
","
",,484.7,run_exp/static/images/task_images/land.jpg,65,,,,,,,72,,,6,,,,,,,,154032,1,0,FALSE,,,
dig,137,502138,0.0-42.0-0.0,"""event"",""trial"",""time""
""fullscreenenter"",""1"",""9512""
","
","
","""event"",""trial"",""time""
""fullscreenenter"",""1"",""9512""
","
",,,,,,,,,,,,"[{""stimulus"":""run_exp/static/images/task_images/dig.jpg"",""time"":0.20000004768371582},{""stimulus"":""run_exp/static/images/task_images/land.jpg"",""time"":847.4000000953674},{""stimulus"":""run_exp/static/images/task_images/dig.jpg"",""time"":1685}]",[],6,,,,,,,,,,,,,,
harvest,138,503152,0.0-42.0-1.0,"""event"",""trial"",""time""
""fullscreenenter"",""1"",""9512""
","
","
","""event"",""trial"",""time""
""fullscreenenter"",""1"",""9512""
","
",,null,run_exp/static/images/task_images/gems/72.jpg,null,,,,,,,63,,,6,,,,,72,0.873240956,0.875,,,,,,,
decision,139,503633,0.0-42.0-2.0,"""event"",""trial"",""time""
""fullscreenenter"",""1"",""9512""
","
","
","""event"",""trial"",""time""
""fullscreenenter"",""1"",""9512""
","
",,480.4000001,run_exp/static/images/task_images/land.jpg,65,,,,,,,63,,,6,,,,,,,,158043,1,1,FALSE,,,
dig,140,506154,0.0-43.0-0.0,"""event"",""trial"",""time""
""fullscreenenter"",""1"",""9512""
","
","
","""event"",""trial"",""time""
""fullscreenenter"",""1"",""9512""
","
",,,,,,,,,,,,"[{""stimulus"":""run_exp/static/images/task_images/dig.jpg"",""time"":0.20000004768371582},{""stimulus"":""run_exp/static/images/task_images/land.jpg"",""time"":854.4000000953674},{""stimulus"":""run_exp/static/images/task_images/dig.jpg"",""time"":1691.6000001430511}]",[],6,,,,,,,,,,,,,,
harvest,141,507170,0.0-43.0-1.0,"""event"",""trial"",""time""
""fullscreenenter"",""1"",""9512""
","
","
","""event"",""trial"",""time""
""fullscreenenter"",""1"",""9512""
","
",,null,run_exp/static/images/task_images/gems/63.jpg,null,,,,,,,49,,,6,,,,,63,0.771863872,0.777777778,,,,,,,
decision,142,507817,0.0-43.0-2.0,"""event"",""trial"",""time""
""fullscreenenter"",""1"",""9512""
","
","
","""event"",""trial"",""time""
""fullscreenenter"",""1"",""9512""
","
",,645.9000001,run_exp/static/images/task_images/land.jpg,65,,,,,,,49,,,6,,,,,,,,162227,1,2,FALSE,,,
dig,143,510172,0.0-44.0-0.0,"""event"",""trial"",""time""
""fullscreenenter"",""1"",""9512""
","
","
","""event"",""trial"",""time""
""fullscreenenter"",""1"",""9512""
","
",,,,,,,,,,,,"[{""stimulus"":""run_exp/static/images/task_images/dig.jpg"",""time"":0.09999990463256836},{""stimulus"":""run_exp/static/images/task_images/land.jpg"",""time"":794},{""stimulus"":""run_exp/static/images/task_images/dig.jpg"",""time"":1576}]",[],6,,,,,,,,,,,,,,
harvest,144,511188,0.0-44.0-1.0,"""event"",""trial"",""time""
""fullscreenenter"",""1"",""9512""
","
","
","""event"",""trial"",""time""
""fullscreenenter"",""1"",""9512""
","
",,null,run_exp/static/images/task_images/gems/49.jpg,null,,,,,,,39,,,6,,,,,49,0.796011099,0.795918367,,,,,,,
decision,145,511819,0.0-44.0-2.0,"""event"",""trial"",""time""
""fullscreenenter"",""1"",""9512""
","
","
","""event"",""trial"",""time""
""fullscreenenter"",""1"",""9512""
","
",,630.0999999,run_exp/static/images/task_images/land.jpg,65,,,,,,,39,,,6,,,,,,,,166229,1,3,FALSE,,,
dig,146,514204,0.0-45.0-0.0,"""event"",""trial"",""time""
""fullscreenenter"",""1"",""9512""
","
","
","""event"",""trial"",""time""
""fullscreenenter"",""1"",""9512""
","
",,,,,,,,,,,,"[{""stimulus"":""run_exp/static/images/task_images/dig.jpg"",""time"":0.09999990463256836},{""stimulus"":""run_exp/static/images/task_images/land.jpg"",""time"":789.7999999523163},{""stimulus"":""run_exp/static/images/task_images/dig.jpg"",""time"":1593.2999999523163}]",[],6,,,,,,,,,,,,,,
harvest,147,515218,0.0-45.0-1.0,"""event"",""trial"",""time""
""fullscreenenter"",""1"",""9512""
","
","
","""event"",""trial"",""time""
""fullscreenenter"",""1"",""9512""
","
",,null,run_exp/static/images/task_images/gems/39.jpg,null,,,,,,,32,,,6,,,,,39,0.816801874,0.820512821,,,,,,,
decision,148,515928,0.0-45.0-2.0,"""event"",""trial"",""time""
""fullscreenenter"",""1"",""9512""
","
","
","""event"",""trial"",""time""
""fullscreenenter"",""1"",""9512""
","
",,709.0999999,run_exp/static/images/task_images/land.jpg,65,,,,,,,32,,,6,,,,,,,,170338,1,4,FALSE,,,
dig,149,518226,0.0-46.0-0.0,"""event"",""trial"",""time""
""fullscreenenter"",""1"",""9512""
","
","
","""event"",""trial"",""time""
""fullscreenenter"",""1"",""9512""
","
",,,,,,,,,,,,"[{""stimulus"":""run_exp/static/images/task_images/dig.jpg"",""time"":0.10000014305114746},{""stimulus"":""run_exp/static/images/task_images/land.jpg"",""time"":767.2000000476837},{""stimulus"":""run_exp/static/images/task_images/dig.jpg"",""time"":1534.6000001430511}]",[],6,,,,,,,,,,,,,,
harvest,150,519233,0.0-46.0-1.0,"""event"",""trial"",""time""
""fullscreenenter"",""1"",""9512""
","
","
","""event"",""trial"",""time""
""fullscreenenter"",""1"",""9512""
","
",,null,run_exp/static/images/task_images/gems/32.jpg,null,,,,,,,25,,,6,,,,,32,0.790371972,0.78125,,,,,,,
decision,151,519904,0.0-46.0-2.0,"""event"",""trial"",""time""
""fullscreenenter"",""1"",""9512""
","
","
","""event"",""trial"",""time""
""fullscreenenter"",""1"",""9512""
","
",,669.3999999,run_exp/static/images/task_images/land.jpg,65,,,,,,,25,,,6,,,,,,,,174314,1,5,FALSE,,,
dig,152,522242,0.0-47.0-0.0,"""event"",""trial"",""time""
""fullscreenenter"",""1"",""9512""
","
","
","""event"",""trial"",""time""
""fullscreenenter"",""1"",""9512""
","
",,,,,,,,,,,,"[{""stimulus"":""run_exp/static/images/task_images/dig.jpg"",""time"":0.10000014305114746},{""stimulus"":""run_exp/static/images/task_images/land.jpg"",""time"":790.5},{""stimulus"":""run_exp/static/images/task_images/dig.jpg"",""time"":1561.3000001907349}]",[],6,,,,,,,,,,,,,,
harvest,153,523250,0.0-47.0-1.0,"""event"",""trial"",""time""
""fullscreenenter"",""1"",""9512""
","
","
","""event"",""trial"",""time""
""fullscreenenter"",""1"",""9512""
","
",,null,run_exp/static/images/task_images/gems/25.jpg,null,,,,,,,20,,,6,,,,,25,0.802781462,0.8,,,,,,,
decision,154,523696,0.0-47.0-2.0,"""event"",""trial"",""time""
""fullscreenenter"",""1"",""9512""
","
","
","""event"",""trial"",""time""
""fullscreenenter"",""1"",""9512""
","
",,445.3,run_exp/static/images/task_images/land.jpg,65,,,,,,,20,,,6,,,,,,,,178106,1,6,FALSE,,,
dig,155,526256,0.0-48.0-0.0,"""event"",""trial"",""time""
""fullscreenenter"",""1"",""9512""
","
","
","""event"",""trial"",""time""
""fullscreenenter"",""1"",""9512""
","
",,,,,,,,,,,,"[{""stimulus"":""run_exp/static/images/task_images/dig.jpg"",""time"":0.09999990463256836},{""stimulus"":""run_exp/static/images/task_images/land.jpg"",""time"":856.5},{""stimulus"":""run_exp/static/images/task_images/dig.jpg"",""time"":1710.5999999046326}]",[],6,,,,,,,,,,,,,,
harvest,156,527265,0.0-48.0-1.0,"""event"",""trial"",""time""
""fullscreenenter"",""1"",""9512""
","
","
","""event"",""trial"",""time""
""fullscreenenter"",""1"",""9512""
","
",,null,run_exp/static/images/task_images/gems/20.jpg,null,,,,,,,16,,,6,,,,,20,0.799881711,0.8,,,,,,,
decision,157,527858,0.0-48.0-2.0,"""event"",""trial"",""time""
""fullscreenenter"",""1"",""9512""
","
","
","""event"",""trial"",""time""
""fullscreenenter"",""1"",""9512""
","
",,592.4000001,run_exp/static/images/task_images/land.jpg,65,,,,,,,16,,,6,,,,,,,,182268,1,7,FALSE,,,
dig,158,530274,0.0-49.0-0.0,"""event"",""trial"",""time""
""fullscreenenter"",""1"",""9512""
","
","
","""event"",""trial"",""time""
""fullscreenenter"",""1"",""9512""
","
",,,,,,,,,,,,"[{""stimulus"":""run_exp/static/images/task_images/dig.jpg"",""time"":0.10000014305114746},{""stimulus"":""run_exp/static/images/task_images/land.jpg"",""time"":816.6000001430511},{""stimulus"":""run_exp/static/images/task_images/dig.jpg"",""time"":1617.7999999523163}]",[],6,,,,,,,,,,,,,,
harvest,159,531282,0.0-49.0-1.0,"""event"",""trial"",""time""
""fullscreenenter"",""1"",""9512""
","
","
","""event"",""trial"",""time""
""fullscreenenter"",""1"",""9512""
","
",,null,run_exp/static/images/task_images/gems/16.jpg,null,,,,,,,13,,,6,,,,,16,0.840002648,0.8125,,,,,,,
decision,160,531742,0.0-49.0-2.0,"""event"",""trial"",""time""
""fullscreenenter"",""1"",""9512""
","
","
","""event"",""trial"",""time""
""fullscreenenter"",""1"",""9512""
","
",,459.0999999,run_exp/static/images/task_images/land.jpg,76,,,,,,,13,,,6,,,,,,,,186152,1,8,TRUE,,,
travel,161,541290,0.0-50.0-0.0,"""event"",""trial"",""time""
""fullscreenenter"",""1"",""9512""
","
","
","""event"",""trial"",""time""
""fullscreenenter"",""1"",""9512""
","
",,,,,,,,,,,,"[{""stimulus"":""run_exp/static/images/task_images/rocket-01.jpg"",""time"":0.10000014305114746},{""stimulus"":""run_exp/static/images/task_images/rocket-02.jpg"",""time"":1067.8000001907349},{""stimulus"":""run_exp/static/images/task_images/rocket-03.jpg"",""time"":2135},{""stimulus"":""run_exp/static/images/task_images/rocket-04.jpg"",""time"":3186.5},{""stimulus"":""run_exp/static/images/task_images/rocket-05.jpg"",""time"":4251.900000095367},{""stimulus"":""run_exp/static/images/task_images/rocket-06.jpg"",""time"":5303.800000190735},{""stimulus"":""run_exp/static/images/task_images/rocket-07.jpg"",""time"":6370.400000095367},{""stimulus"":""run_exp/static/images/task_images/rocket-08.jpg"",""time"":7435.300000190735},{""stimulus"":""run_exp/static/images/task_images/rocket-09.jpg"",""time"":8486.900000095367}]",[],6,,,,,,,,,,,,,,
alien_welcome,162,546301,0.0-50.0-1.0,"""event"",""trial"",""time""
""fullscreenenter"",""1"",""9512""
","
","
","""event"",""trial"",""time""
""fullscreenenter"",""1"",""9512""
","
",,null,run_exp/static/images/task_images/aliens/old_aliens/planet/alien_planet-32.jpg,null,,,,,,,,,,,,,32,"70,45,34,17,16,6,32,33,44,72,59,24,7,46,65,76,41,62,31,61,39,22,80,35,58,54,3,69,19,78,51,43,29,52,53,55,30,63,74,12,5,73",,,,,,,,,,
land,163,546814,0.0-50.0-2.0,"""event"",""trial"",""time""
""fullscreenenter"",""1"",""9512""
","
","
","""event"",""trial"",""time""
""fullscreenenter"",""1"",""9512""
","
",,null,run_exp/static/images/task_images/land.jpg,null,,,,,,,92,,,7,,,,,,,,,,,,,,
dig,164,548828,0.0-50.0-3.0,"""event"",""trial"",""time""
""fullscreenenter"",""1"",""9512""
","
","
","""event"",""trial"",""time""
""fullscreenenter"",""1"",""9512""
","
",,,,,,,,,,,,"[{""stimulus"":""run_exp/static/images/task_images/dig.jpg"",""time"":0.09999990463256836},{""stimulus"":""run_exp/static/images/task_images/land.jpg"",""time"":670.1999998092651},{""stimulus"":""run_exp/static/images/task_images/dig.jpg"",""time"":1348.5}]",[],7,,,,,,,,,,,,,,
harvest,165,549834,0.0-50.0-4.0,"""event"",""trial"",""time""
""fullscreenenter"",""1"",""9512""
","
","
","""event"",""trial"",""time""
""fullscreenenter"",""1"",""9512""
","
",,null,run_exp/static/images/task_images/gems/92.jpg,null,,,,,,,68,,,7,,,,,92,0.734840871,0.739130435,,,,,,,
decision,166,550178,0.0-50.0-5.0,"""event"",""trial"",""time""
""fullscreenenter"",""1"",""9512""
","
","
","""event"",""trial"",""time""
""fullscreenenter"",""1"",""9512""
","
",,343.4000001,run_exp/static/images/task_images/land.jpg,65,,,,,,,68,,,7,,,,,,,,204588,1,0,FALSE,,,
dig,167,552849,0.0-51.0-0.0,"""event"",""trial"",""time""
""fullscreenenter"",""1"",""9512""
","
","
","""event"",""trial"",""time""
""fullscreenenter"",""1"",""9512""
","
",,,,,,,,,,,,"[{""stimulus"":""run_exp/static/images/task_images/dig.jpg"",""time"":0.19999980926513672},{""stimulus"":""run_exp/static/images/task_images/land.jpg"",""time"":892.5},{""stimulus"":""run_exp/static/images/task_images/dig.jpg"",""time"":1773.0999999046326}]",[],7,,,,,,,,,,,,,,
harvest,168,553851,0.0-51.0-1.0,"""event"",""trial"",""time""
""fullscreenenter"",""1"",""9512""
","
","
","""event"",""trial"",""time""
""fullscreenenter"",""1"",""9512""
","
",,null,run_exp/static/images/task_images/gems/68.jpg,null,,,,,,,50,,,7,,,,,68,0.741633176,0.735294118,,,,,,,
decision,169,554284,0.0-51.0-2.0,"""event"",""trial"",""time""
""fullscreenenter"",""1"",""9512""
","
","
","""event"",""trial"",""time""
""fullscreenenter"",""1"",""9512""
","
",,432.8999999,run_exp/static/images/task_images/land.jpg,65,,,,,,,50,,,7,,,,,,,,208694,1,1,FALSE,,,
dig,170,556855,0.0-52.0-0.0,"""event"",""trial"",""time""
""fullscreenenter"",""1"",""9512""
","
","
","""event"",""trial"",""time""
""fullscreenenter"",""1"",""9512""
","
",,,,,,,,,,,,"[{""stimulus"":""run_exp/static/images/task_images/dig.jpg"",""time"":0.10000014305114746},{""stimulus"":""run_exp/static/images/task_images/land.jpg"",""time"":868.9000000953674},{""stimulus"":""run_exp/static/images/task_images/dig.jpg"",""time"":1717.8000001907349}]",[],7,,,,,,,,,,,,,,
harvest,171,557868,0.0-52.0-1.0,"""event"",""trial"",""time""
""fullscreenenter"",""1"",""9512""
","
","
","""event"",""trial"",""time""
""fullscreenenter"",""1"",""9512""
","
",,null,run_exp/static/images/task_images/gems/50.jpg,null,,,,,,,39,,,7,,,,,50,0.77138439,0.78,,,,,,,
decision,172,558309,0.0-52.0-2.0,"""event"",""trial"",""time""
""fullscreenenter"",""1"",""9512""
","
","
","""event"",""trial"",""time""
""fullscreenenter"",""1"",""9512""
","
",,440,run_exp/static/images/task_images/land.jpg,65,,,,,,,39,,,7,,,,,,,,212719,1,2,FALSE,,,
dig,173,560887,0.0-53.0-0.0,"""event"",""trial"",""time""
""fullscreenenter"",""1"",""9512""
","
","
","""event"",""trial"",""time""
""fullscreenenter"",""1"",""9512""
","
",,,,,,,,,,,,"[{""stimulus"":""run_exp/static/images/task_images/dig.jpg"",""time"":0.09999990463256836},{""stimulus"":""run_exp/static/images/task_images/land.jpg"",""time"":861.2000000476837},{""stimulus"":""run_exp/static/images/task_images/dig.jpg"",""time"":1711.7000000476837}]",[],7,,,,,,,,,,,,,,
harvest,174,561888,0.0-53.0-1.0,"""event"",""trial"",""time""
""fullscreenenter"",""1"",""9512""
","
","
","""event"",""trial"",""time""
""fullscreenenter"",""1"",""9512""
","
",,null,run_exp/static/images/task_images/gems/39.jpg,null,,,,,,,34,,,7,,,,,39,0.882146211,0.871794872,,,,,,,
decision,175,562420,0.0-53.0-2.0,"""event"",""trial"",""time""
""fullscreenenter"",""1"",""9512""
","
","
","""event"",""trial"",""time""
""fullscreenenter"",""1"",""9512""
","
",,530.5,run_exp/static/images/task_images/land.jpg,65,,,,,,,34,,,7,,,,,,,,216830,1,3,FALSE,,,
dig,176,564905,0.0-54.0-0.0,"""event"",""trial"",""time""
""fullscreenenter"",""1"",""9512""
","
","
","""event"",""trial"",""time""
""fullscreenenter"",""1"",""9512""
","
",,,,,,,,,,,,"[{""stimulus"":""run_exp/static/images/task_images/dig.jpg"",""time"":0.09999990463256836},{""stimulus"":""run_exp/static/images/task_images/land.jpg"",""time"":824.2999999523163},{""stimulus"":""run_exp/static/images/task_images/dig.jpg"",""time"":1655.5999999046326}]",[],7,,,,,,,,,,,,,,
harvest,177,565917,0.0-54.0-1.0,"""event"",""trial"",""time""
""fullscreenenter"",""1"",""9512""
","
","
","""event"",""trial"",""time""
""fullscreenenter"",""1"",""9512""
","
",,null,run_exp/static/images/task_images/gems/34.jpg,null,,,,,,,30,,,7,,,,,34,0.869149862,0.882352941,,,,,,,
decision,178,566575,0.0-54.0-2.0,"""event"",""trial"",""time""
""fullscreenenter"",""1"",""9512""
","
","
","""event"",""trial"",""time""
""fullscreenenter"",""1"",""9512""
","
",,656.6000001,run_exp/static/images/task_images/land.jpg,65,,,,,,,30,,,7,,,,,,,,220985,1,4,FALSE,,,
dig,179,568921,0.0-55.0-0.0,"""event"",""trial"",""time""
""fullscreenenter"",""1"",""9512""
","
","
","""event"",""trial"",""time""
""fullscreenenter"",""1"",""9512""
","
",,,,,,,,,,,,"[{""stimulus"":""run_exp/static/images/task_images/dig.jpg"",""time"":0.09999990463256836},{""stimulus"":""run_exp/static/images/task_images/land.jpg"",""time"":786.7999999523163},{""stimulus"":""run_exp/static/images/task_images/dig.jpg"",""time"":1569.0999999046326}]",[],7,,,,,,,,,,,,,,
harvest,180,569935,0.0-55.0-1.0,"""event"",""trial"",""time""
""fullscreenenter"",""1"",""9512""
","
","
","""event"",""trial"",""time""
""fullscreenenter"",""1"",""9512""
","
",,null,run_exp/static/images/task_images/gems/30.jpg,null,,,,,,,27,,,7,,,,,30,0.890081046,0.9,,,,,,,
decision,181,570422,0.0-55.0-2.0,"""event"",""trial"",""time""
""fullscreenenter"",""1"",""9512""
","
","
","""event"",""trial"",""time""
""fullscreenenter"",""1"",""9512""
","
",,486.3999999,run_exp/static/images/task_images/land.jpg,65,,,,,,,27,,,7,,,,,,,,224832,1,5,FALSE,,,
dig,182,572936,0.0-56.0-0.0,"""event"",""trial"",""time""
""fullscreenenter"",""1"",""9512""
","
","
","""event"",""trial"",""time""
""fullscreenenter"",""1"",""9512""
","
",,,,,,,,,,,,"[{""stimulus"":""run_exp/static/images/task_images/dig.jpg"",""time"":0.10000014305114746},{""stimulus"":""run_exp/static/images/task_images/land.jpg"",""time"":847},{""stimulus"":""run_exp/static/images/task_images/dig.jpg"",""time"":1686.6000001430511}]",[],7,,,,,,,,,,,,,,
harvest,183,573951,0.0-56.0-1.0,"""event"",""trial"",""time""
""fullscreenenter"",""1"",""9512""
","
","
","""event"",""trial"",""time""
""fullscreenenter"",""1"",""9512""
","
",,null,run_exp/static/images/task_images/gems/27.jpg,null,,,,,,,23,,,7,,,,,27,0.843626438,0.851851852,,,,,,,
decision,184,574643,0.0-56.0-2.0,"""event"",""trial"",""time""
""fullscreenenter"",""1"",""9512""
","
","
","""event"",""trial"",""time""
""fullscreenenter"",""1"",""9512""
","
",,691.7,run_exp/static/images/task_images/land.jpg,65,,,,,,,23,,,7,,,,,,,,229053,1,6,FALSE,,,
dig,185,576955,0.0-57.0-0.0,"""event"",""trial"",""time""
""fullscreenenter"",""1"",""9512""
","
","
","""event"",""trial"",""time""
""fullscreenenter"",""1"",""9512""
","
",,,,,,,,,,,,"[{""stimulus"":""run_exp/static/images/task_images/dig.jpg"",""time"":0.09999990463256836},{""stimulus"":""run_exp/static/images/task_images/land.jpg"",""time"":783.5999999046326},{""stimulus"":""run_exp/static/images/task_images/dig.jpg"",""time"":1551.6999998092651}]",[],7,,,,,,,,,,,,,,
harvest,186,577966,0.0-57.0-1.0,"""event"",""trial"",""time""
""fullscreenenter"",""1"",""9512""
","
","
","""event"",""trial"",""time""
""fullscreenenter"",""1"",""9512""
","
",,null,run_exp/static/images/task_images/gems/23.jpg,null,,,,,,,19,,,7,,,,,23,0.825205944,0.826086957,,,,,,,
decision,187,578354,0.0-57.0-2.0,"""event"",""trial"",""time""
""fullscreenenter"",""1"",""9512""
","
","
","""event"",""trial"",""time""
""fullscreenenter"",""1"",""9512""
","
",,386.8,run_exp/static/images/task_images/land.jpg,76,,,,,,,19,,,7,,,,,,,,232764,1,7,TRUE,,,
travel,188,587970,0.0-58.0-0.0,"""event"",""trial"",""time""
""fullscreenenter"",""1"",""9512""
","
","
","""event"",""trial"",""time""
""fullscreenenter"",""1"",""9512""
","
",,,,,,,,,,,,"[{""stimulus"":""run_exp/static/images/task_images/rocket-01.jpg"",""time"":0.10000014305114746},{""stimulus"":""run_exp/static/images/task_images/rocket-02.jpg"",""time"":1073},{""stimulus"":""run_exp/static/images/task_images/rocket-03.jpg"",""time"":2139.100000143051},{""stimulus"":""run_exp/static/images/task_images/rocket-04.jpg"",""time"":3207.2000000476837},{""stimulus"":""run_exp/static/images/task_images/rocket-05.jpg"",""time"":4274},{""stimulus"":""run_exp/static/images/task_images/rocket-06.jpg"",""time"":5340.600000143051},{""stimulus"":""run_exp/static/images/task_images/rocket-07.jpg"",""time"":6420.299999952316},{""stimulus"":""run_exp/static/images/task_images/rocket-08.jpg"",""time"":7491.400000095367},{""stimulus"":""run_exp/static/images/task_images/rocket-09.jpg"",""time"":8556.400000095367}]",[],7,,,,,,,,,,,,,,
alien_welcome,189,592982,0.0-58.0-1.0,"""event"",""trial"",""time""
""fullscreenenter"",""1"",""9512""
","
","
","""event"",""trial"",""time""
""fullscreenenter"",""1"",""9512""
","
",,null,run_exp/static/images/task_images/aliens/old_aliens/planet/alien_planet-33.jpg,null,,,,,,,,,,,,,33,"70,45,34,17,16,6,32,33,44,72,59,24,7,46,65,76,41,62,31,61,39,22,80,35,58,54,3,69,19,78,51,43,29,52,53,55,30,63,74,12,5,73",,,,,,,,,,
land,190,593484,0.0-58.0-2.0,"""event"",""trial"",""time""
""fullscreenenter"",""1"",""9512""
","
","
","""event"",""trial"",""time""
""fullscreenenter"",""1"",""9512""
","
",,null,run_exp/static/images/task_images/land.jpg,null,,,,,,,112,,,8,,,,,,,,,,,,,,
dig,191,595495,0.0-58.0-3.0,"""event"",""trial"",""time""
""fullscreenenter"",""1"",""9512""
","
","
","""event"",""trial"",""time""
""fullscreenenter"",""1"",""9512""
","
",,,,,,,,,,,,"[{""stimulus"":""run_exp/static/images/task_images/dig.jpg"",""time"":0.20000004768371582},{""stimulus"":""run_exp/static/images/task_images/land.jpg"",""time"":682.2000000476837},{""stimulus"":""run_exp/static/images/task_images/dig.jpg"",""time"":1344.7000000476837}]",[],8,,,,,,,,,,,,,,
harvest,192,596502,0.0-58.0-4.0,"""event"",""trial"",""time""
""fullscreenenter"",""1"",""9512""
","
","
","""event"",""trial"",""time""
""fullscreenenter"",""1"",""9512""
","
",,null,run_exp/static/images/task_images/gems/112.jpg,null,,,,,,,85,,,8,,,,,112,0.75838944,0.758928571,,,,,,,
decision,193,597015,0.0-58.0-5.0,"""event"",""trial"",""time""
""fullscreenenter"",""1"",""9512""
","
","
","""event"",""trial"",""time""
""fullscreenenter"",""1"",""9512""
","
",,512.3999999,run_exp/static/images/task_images/land.jpg,65,,,,,,,85,,,8,,,,,,,,251426,1,0,FALSE,,,
dig,194,599519,0.0-59.0-0.0,"""event"",""trial"",""time""
""fullscreenenter"",""1"",""9512""
","
","
","""event"",""trial"",""time""
""fullscreenenter"",""1"",""9512""
","
",,,,,,,,,,,,"[{""stimulus"":""run_exp/static/images/task_images/dig.jpg"",""time"":0.20000004768371582},{""stimulus"":""run_exp/static/images/task_images/land.jpg"",""time"":830.1000001430511},{""stimulus"":""run_exp/static/images/task_images/dig.jpg"",""time"":1659.4000000953674}]",[],8,,,,,,,,,,,,,,
harvest,195,600536,0.0-59.0-1.0,"""event"",""trial"",""time""
""fullscreenenter"",""1"",""9512""
","
","
","""event"",""trial"",""time""
""fullscreenenter"",""1"",""9512""
","
",,null,run_exp/static/images/task_images/gems/85.jpg,null,,,,,,,73,,,8,,,,,85,0.864106953,0.858823529,,,,,,,
decision,196,601120,0.0-59.0-2.0,"""event"",""trial"",""time""
""fullscreenenter"",""1"",""9512""
","
","
","""event"",""trial"",""time""
""fullscreenenter"",""1"",""9512""
","
",,583.5,run_exp/static/images/task_images/land.jpg,65,,,,,,,73,,,8,,,,,,,,255530,1,1,FALSE,,,
dig,197,603539,0.0-60.0-0.0,"""event"",""trial"",""time""
""fullscreenenter"",""1"",""9512""
","
","
","""event"",""trial"",""time""
""fullscreenenter"",""1"",""9512""
","
",,,,,,,,,,,,"[{""stimulus"":""run_exp/static/images/task_images/dig.jpg"",""time"":0.10000014305114746},{""stimulus"":""run_exp/static/images/task_images/land.jpg"",""time"":807.2999999523163},{""stimulus"":""run_exp/static/images/task_images/dig.jpg"",""time"":1620.2999999523163}]",[],8,,,,,,,,,,,,,,
harvest,198,604550,0.0-60.0-1.0,"""event"",""trial"",""time""
""fullscreenenter"",""1"",""9512""
","
","
","""event"",""trial"",""time""
""fullscreenenter"",""1"",""9512""
","
",,null,run_exp/static/images/task_images/gems/73.jpg,null,,,,,,,60,,,8,,,,,73,0.820543598,0.821917808,,,,,,,
decision,199,605227,0.0-60.0-2.0,"""event"",""trial"",""time""
""fullscreenenter"",""1"",""9512""
","
","
","""event"",""trial"",""time""
""fullscreenenter"",""1"",""9512""
","
",,675.5,run_exp/static/images/task_images/land.jpg,65,,,,,,,60,,,8,,,,,,,,259637,1,2,FALSE,,,
dig,200,607556,0.0-61.0-0.0,"""event"",""trial"",""time""
""fullscreenenter"",""1"",""9512""
","
","
","""event"",""trial"",""time""
""fullscreenenter"",""1"",""9512""
","
",,,,,,,,,,,,"[{""stimulus"":""run_exp/static/images/task_images/dig.jpg"",""time"":0.09999990463256836},{""stimulus"":""run_exp/static/images/task_images/land.jpg"",""time"":784.9000000953674},{""stimulus"":""run_exp/static/images/task_images/dig.jpg"",""time"":1554.9000000953674}]",[],8,,,,,,,,,,,,,,
harvest,201,608568,0.0-61.0-1.0,"""event"",""trial"",""time""
""fullscreenenter"",""1"",""9512""
","
","
","""event"",""trial"",""time""
""fullscreenenter"",""1"",""9512""
","
",,null,run_exp/static/images/task_images/gems/60.jpg,null,,,,,,,48,,,8,,,,,60,0.804649508,0.8,,,,,,,
decision,202,609034,0.0-61.0-2.0,"""event"",""trial"",""time""
""fullscreenenter"",""1"",""9512""
","
","
","""event"",""trial"",""time""
""fullscreenenter"",""1"",""9512""
","
",,464.8,run_exp/static/images/task_images/land.jpg,65,,,,,,,48,,,8,,,,,,,,263444,1,3,FALSE,,,
dig,203,611588,0.0-62.0-0.0,"""event"",""trial"",""time""
""fullscreenenter"",""1"",""9512""
","
","
","""event"",""trial"",""time""
""fullscreenenter"",""1"",""9512""
","
",,,,,,,,,,,,"[{""stimulus"":""run_exp/static/images/task_images/dig.jpg"",""time"":0.20000004768371582},{""stimulus"":""run_exp/static/images/task_images/land.jpg"",""time"":852.7999999523163},{""stimulus"":""run_exp/static/images/task_images/dig.jpg"",""time"":1705.6000001430511}]",[],8,,,,,,,,,,,,,,
harvest,204,612599,0.0-62.0-1.0,"""event"",""trial"",""time""
""fullscreenenter"",""1"",""9512""
","
","
","""event"",""trial"",""time""
""fullscreenenter"",""1"",""9512""
","
",,null,run_exp/static/images/task_images/gems/48.jpg,null,,,,,,,39,,,8,,,,,48,0.803464465,0.8125,,,,,,,
decision,205,613202,0.0-62.0-2.0,"""event"",""trial"",""time""
""fullscreenenter"",""1"",""9512""
","
","
","""event"",""trial"",""time""
""fullscreenenter"",""1"",""9512""
","
",,601.6000001,run_exp/static/images/task_images/land.jpg,65,,,,,,,39,,,8,,,,,,,,267612,1,4,FALSE,,,
dig,206,615606,0.0-63.0-0.0,"""event"",""trial"",""time""
""fullscreenenter"",""1"",""9512""
","
","
","""event"",""trial"",""time""
""fullscreenenter"",""1"",""9512""
","
",,,,,,,,,,,,"[{""stimulus"":""run_exp/static/images/task_images/dig.jpg"",""time"":0.09999990463256836},{""stimulus"":""run_exp/static/images/task_images/land.jpg"",""time"":809.5},{""stimulus"":""run_exp/static/images/task_images/dig.jpg"",""time"":1605.3999998569489}]",[],8,,,,,,,,,,,,,,
harvest,207,616612,0.0-63.0-1.0,"""event"",""trial"",""time""
""fullscreenenter"",""1"",""9512""
","
","
","""event"",""trial"",""time""
""fullscreenenter"",""1"",""9512""
","
",,null,run_exp/static/images/task_images/gems/39.jpg,null,,,,,,,29,,,8,,,,,39,0.746996412,0.743589744,,,,,,,
decision,208,617111,0.0-63.0-2.0,"""event"",""trial"",""time""
""fullscreenenter"",""1"",""9512""
","
","
","""event"",""trial"",""time""
""fullscreenenter"",""1"",""9512""
","
",,498.0999999,run_exp/static/images/task_images/land.jpg,65,,,,,,,29,,,8,,,,,,,,271521,1,5,FALSE,,,
dig,209,619620,0.0-64.0-0.0,"""event"",""trial"",""time""
""fullscreenenter"",""1"",""9512""
","
","
","""event"",""trial"",""time""
""fullscreenenter"",""1"",""9512""
","
",,,,,,,,,,,,"[{""stimulus"":""run_exp/static/images/task_images/dig.jpg"",""time"":0},{""stimulus"":""run_exp/static/images/task_images/land.jpg"",""time"":834},{""stimulus"":""run_exp/static/images/task_images/dig.jpg"",""time"":1676}]",[],8,,,,,,,,,,,,,,
harvest,210,620634,0.0-64.0-1.0,"""event"",""trial"",""time""
""fullscreenenter"",""1"",""9512""
","
","
","""event"",""trial"",""time""
""fullscreenenter"",""1"",""9512""
","
",,null,run_exp/static/images/task_images/gems/29.jpg,null,,,,,,,25,,,8,,,,,29,0.849135294,0.862068966,,,,,,,
decision,211,621133,0.0-64.0-2.0,"""event"",""trial"",""time""
""fullscreenenter"",""1"",""9512""
","
","
","""event"",""trial"",""time""
""fullscreenenter"",""1"",""9512""
","
",,497.9000001,run_exp/static/images/task_images/land.jpg,76,,,,,,,25,,,8,,,,,,,,275543,1,6,TRUE,,,
travel,212,630642,0.0-65.0-0.0,"""event"",""trial"",""time""
""fullscreenenter"",""1"",""9512""
","
","
","""event"",""trial"",""time""
""fullscreenenter"",""1"",""9512""
","
",,,,,,,,,,,,"[{""stimulus"":""run_exp/static/images/task_images/rocket-01.jpg"",""time"":0},{""stimulus"":""run_exp/static/images/task_images/rocket-02.jpg"",""time"":1060.5},{""stimulus"":""run_exp/static/images/task_images/rocket-03.jpg"",""time"":2125.5},{""stimulus"":""run_exp/static/images/task_images/rocket-04.jpg"",""time"":3178.2000000476837},{""stimulus"":""run_exp/static/images/task_images/rocket-05.jpg"",""time"":4229.400000095367},{""stimulus"":""run_exp/static/images/task_images/rocket-06.jpg"",""time"":5280},{""stimulus"":""run_exp/static/images/task_images/rocket-07.jpg"",""time"":6330.600000143051},{""stimulus"":""run_exp/static/images/task_images/rocket-08.jpg"",""time"":7395.100000143051},{""stimulus"":""run_exp/static/images/task_images/rocket-09.jpg"",""time"":8446.100000143051}]",[],8,,,,,,,,,,,,,,
alien_welcome,213,635646,0.0-65.0-1.0,"""event"",""trial"",""time""
""fullscreenenter"",""1"",""9512""
","
","
","""event"",""trial"",""time""
""fullscreenenter"",""1"",""9512""
","
",,null,run_exp/static/images/task_images/aliens/old_aliens/planet/alien_planet-44.jpg,null,,,,,,,,,,,,,44,"70,45,34,17,16,6,32,33,44,72,59,24,7,46,65,76,41,62,31,61,39,22,80,35,58,54,3,69,19,78,51,43,29,52,53,55,30,63,74,12,5,73",,,,,,,,,,
land,214,636150,0.0-65.0-2.0,"""event"",""trial"",""time""
""fullscreenenter"",""1"",""9512""
","
","
","""event"",""trial"",""time""
""fullscreenenter"",""1"",""9512""
","
",,null,run_exp/static/images/task_images/land.jpg,null,,,,,,,111,,,9,,,,,,,,,,,,,,
dig,215,638161,0.0-65.0-3.0,"""event"",""trial"",""time""
""fullscreenenter"",""1"",""9512""
","
","
","""event"",""trial"",""time""
""fullscreenenter"",""1"",""9512""
","
",,,,,,,,,,,,"[{""stimulus"":""run_exp/static/images/task_images/dig.jpg"",""time"":0.20000004768371582},{""stimulus"":""run_exp/static/images/task_images/land.jpg"",""time"":667.6000001430511},{""stimulus"":""run_exp/static/images/task_images/dig.jpg"",""time"":1346.7999999523163}]",[],9,,,,,,,,,,,,,,
harvest,216,639168,0.0-65.0-4.0,"""event"",""trial"",""time""
""fullscreenenter"",""1"",""9512""
","
","
","""event"",""trial"",""time""
""fullscreenenter"",""1"",""9512""
","
",,null,run_exp/static/images/task_images/gems/111.jpg,null,,,,,,,26,,,9,,,,,111,0.230319155,0.234234234,,,,,,,
decision,217,640064,0.0-65.0-5.0,"""event"",""trial"",""time""
""fullscreenenter"",""1"",""9512""
","
","
","""event"",""trial"",""time""
""fullscreenenter"",""1"",""9512""
","
",,895.5,run_exp/static/images/task_images/land.jpg,65,,,,,,,26,,,9,,,,,,,,294474,1,0,FALSE,,,
dig,218,642178,0.0-66.0-0.0,"""event"",""trial"",""time""
""fullscreenenter"",""1"",""9512""
","
","
","""event"",""trial"",""time""
""fullscreenenter"",""1"",""9512""
","
",,,,,,,,,,,,"[{""stimulus"":""run_exp/static/images/task_images/dig.jpg"",""time"":0.09999990463256836},{""stimulus"":""run_exp/static/images/task_images/land.jpg"",""time"":716.7999999523163},{""stimulus"":""run_exp/static/images/task_images/dig.jpg"",""time"":1405.7000000476837}]",[],9,,,,,,,,,,,,,,
harvest,219,643183,0.0-66.0-1.0,"""event"",""trial"",""time""
""fullscreenenter"",""1"",""9512""
","
","
","""event"",""trial"",""time""
""fullscreenenter"",""1"",""9512""
","
",,null,run_exp/static/images/task_images/gems/26.jpg,null,,,,,,,7,,,9,,,,,26,0.26628088,0.269230769,,,,,,,
decision,220,643788,0.0-66.0-2.0,"""event"",""trial"",""time""
""fullscreenenter"",""1"",""9512""
","
","
","""event"",""trial"",""time""
""fullscreenenter"",""1"",""9512""
","
",,604.1000001,run_exp/static/images/task_images/land.jpg,76,,,,,,,7,,,9,,,,,,,,298198,1,1,TRUE,,,
travel,221,653194,0.0-67.0-0.0,"""event"",""trial"",""time""
""fullscreenenter"",""1"",""9512""
","
","
","""event"",""trial"",""time""
""fullscreenenter"",""1"",""9512""
","
",,,,,,,,,,,,"[{""stimulus"":""run_exp/static/images/task_images/rocket-01.jpg"",""time"":0.09999990463256836},{""stimulus"":""run_exp/static/images/task_images/rocket-02.jpg"",""time"":1056.2999999523163},{""stimulus"":""run_exp/static/images/task_images/rocket-03.jpg"",""time"":2091.5999999046326},{""stimulus"":""run_exp/static/images/task_images/rocket-04.jpg"",""time"":3142.5999999046326},{""stimulus"":""run_exp/static/images/task_images/rocket-05.jpg"",""time"":4176.299999952316},{""stimulus"":""run_exp/static/images/task_images/rocket-06.jpg"",""time"":5227.599999904633},{""stimulus"":""run_exp/static/images/task_images/rocket-07.jpg"",""time"":6260.099999904633},{""stimulus"":""run_exp/static/images/task_images/rocket-08.jpg"",""time"":7313.899999856949},{""stimulus"":""run_exp/static/images/task_images/rocket-09.jpg"",""time"":8346.299999952316}]",[],9,,,,,,,,,,,,,,
alien_welcome,222,658204,0.0-67.0-1.0,"""event"",""trial"",""time""
""fullscreenenter"",""1"",""9512""
","
","
","""event"",""trial"",""time""
""fullscreenenter"",""1"",""9512""
","
",,null,run_exp/static/images/task_images/aliens/old_aliens/planet/alien_planet-72.jpg,null,,,,,,,,,,,,,72,"70,45,34,17,16,6,32,33,44,72,59,24,7,46,65,76,41,62,31,61,39,22,80,35,58,54,3,69,19,78,51,43,29,52,53,55,30,63,74,12,5,73",,,,,,,,,,
land,223,658718,0.0-67.0-2.0,"""event"",""trial"",""time""
""fullscreenenter"",""1"",""9512""
","
","
","""event"",""trial"",""time""
""fullscreenenter"",""1"",""9512""
","
",,null,run_exp/static/images/task_images/land.jpg,null,,,,,,,95,,,10,,,,,,,,,,,,,,
dig,224,660725,0.0-67.0-3.0,"""event"",""trial"",""time""
""fullscreenenter"",""1"",""9512""
","
","
","""event"",""trial"",""time""
""fullscreenenter"",""1"",""9512""
","
",,,,,,,,,,,,"[{""stimulus"":""run_exp/static/images/task_images/dig.jpg"",""time"":0.2999999523162842},{""stimulus"":""run_exp/static/images/task_images/land.jpg"",""time"":682.7999999523163},{""stimulus"":""run_exp/static/images/task_images/dig.jpg"",""time"":1345}]",[],10,,,,,,,,,,,,,,
harvest,225,661736,0.0-67.0-4.0,"""event"",""trial"",""time""
""fullscreenenter"",""1"",""9512""
","
","
","""event"",""trial"",""time""
""fullscreenenter"",""1"",""9512""
","
",,null,run_exp/static/images/task_images/gems/95.jpg,null,,,,,,,23,,,10,,,,,95,0.239353472,0.242105263,,,,,,,
decision,226,662196,0.0-67.0-5.0,"""event"",""trial"",""time""
""fullscreenenter"",""1"",""9512""
","
","
","""event"",""trial"",""time""
""fullscreenenter"",""1"",""9512""
","
",,459.3999999,run_exp/static/images/task_images/land.jpg,65,,,,,,,23,,,10,,,,,,,,316606,1,0,TRUE,,,
end_of_block_continue,227,665474,0.0-68.0-0.0,"""event"",""trial"",""time""
""fullscreenenter"",""1"",""9512""
","
","
","""event"",""trial"",""time""
""fullscreenenter"",""1"",""9512""
","
",,3276.2,run_exp/static/audio/clip_32_block_end.m4a,,,,,,,0,,,,,,,,,,,,,,,,,,
alien_welcome,228,670486,0.0-69.0-0.0,"""event"",""trial"",""time""
""fullscreenenter"",""1"",""9512""
","
","
","""event"",""trial"",""time""
""fullscreenenter"",""1"",""9512""
","
",,null,run_exp/static/images/task_images/aliens/old_aliens/planet/alien_planet-59.jpg,null,,,,,,,,,,,,,59,"70,45,34,17,16,6,32,33,44,72,59,24,7,46,65,76,41,62,31,61,39,22,80,35,58,54,3,69,19,78,51,43,29,52,53,55,30,63,74,12,5,73",,,,,,,,,,
land,229,671002,0.0-69.0-1.0,"""event"",""trial"",""time""
""fullscreenenter"",""1"",""9512""
","
","
","""event"",""trial"",""time""
""fullscreenenter"",""1"",""9512""
","
",,null,run_exp/static/images/task_images/land.jpg,null,,,,,,,97,,,11,,,,,,,,,,,,,,
dig,230,673012,0.0-69.0-2.0,"""event"",""trial"",""time""
""fullscreenenter"",""1"",""9512""
","
","
","""event"",""trial"",""time""
""fullscreenenter"",""1"",""9512""
","
",,,,,,,,,,,,"[{""stimulus"":""run_exp/static/images/task_images/dig.jpg"",""time"":0.3000001907348633},{""stimulus"":""run_exp/static/images/task_images/land.jpg"",""time"":682.3000001907349},{""stimulus"":""run_exp/static/images/task_images/dig.jpg"",""time"":1349.2000000476837}]",[],11,,,,,,,,,,,,,,
harvest,231,674018,0.0-69.0-3.0,"""event"",""trial"",""time""
""fullscreenenter"",""1"",""9512""
","
","
","""event"",""trial"",""time""
""fullscreenenter"",""1"",""9512""
","
",,null,run_exp/static/images/task_images/gems/97.jpg,null,,,,,,,20,,,11,,,,,97,0.205110611,0.206185567,,,,,,,
decision,232,674527,0.0-69.0-4.0,"""event"",""trial"",""time""
""fullscreenenter"",""1"",""9512""
","
","
","""event"",""trial"",""time""
""fullscreenenter"",""1"",""9512""
","
",,508.2,run_exp/static/images/task_images/land.jpg,65,,,,,,,20,,,11,,,,,,,,9051,2,0,FALSE,,,
dig,233,677022,0.0-70.0-0.0,"""event"",""trial"",""time""
""fullscreenenter"",""1"",""9512""
","
","
","""event"",""trial"",""time""
""fullscreenenter"",""1"",""9512""
","
",,,,,,,,,,,,"[{""stimulus"":""run_exp/static/images/task_images/dig.jpg"",""time"":0.09999990463256836},{""stimulus"":""run_exp/static/images/task_images/land.jpg"",""time"":844},{""stimulus"":""run_exp/static/images/task_images/dig.jpg"",""time"":1663.5999999046326}]",[],11,,,,,,,,,,,,,,
harvest,234,678036,0.0-70.0-1.0,"""event"",""trial"",""time""
""fullscreenenter"",""1"",""9512""
","
","
","""event"",""trial"",""time""
""fullscreenenter"",""1"",""9512""
","
",,null,run_exp/static/images/task_images/gems/20.jpg,null,,,,,,,4,,,11,,,,,20,0.222456124,0.2,,,,,,,
decision,235,678420,0.0-70.0-2.0,"""event"",""trial"",""time""
""fullscreenenter"",""1"",""9512""
","
","
","""event"",""trial"",""time""
""fullscreenenter"",""1"",""9512""
","
",,382.8,run_exp/static/images/task_images/land.jpg,76,,,,,,,4,,,11,,,,,,,,12944,2,1,TRUE,,,
travel,236,688036,0.0-71.0-0.0,"""event"",""trial"",""time""
""fullscreenenter"",""1"",""9512""
","
","
","""event"",""trial"",""time""
""fullscreenenter"",""1"",""9512""
","
",,,,,,,,,,,,"[{""stimulus"":""run_exp/static/images/task_images/rocket-01.jpg"",""time"":0.20000004768371582},{""stimulus"":""run_exp/static/images/task_images/rocket-02.jpg"",""time"":1071.7999999523163},{""stimulus"":""run_exp/static/images/task_images/rocket-03.jpg"",""time"":2140.9000000953674},{""stimulus"":""run_exp/static/images/task_images/rocket-04.jpg"",""time"":3209},{""stimulus"":""run_exp/static/images/task_images/rocket-05.jpg"",""time"":4274.799999952316},{""stimulus"":""run_exp/static/images/task_images/rocket-06.jpg"",""time"":5341.400000095367},{""stimulus"":""run_exp/static/images/task_images/rocket-07.jpg"",""time"":6409.600000143051},{""stimulus"":""run_exp/static/images/task_images/rocket-08.jpg"",""time"":7477.5},{""stimulus"":""run_exp/static/images/task_images/rocket-09.jpg"",""time"":8545.100000143051}]",[],11,,,,,,,,,,,,,,
alien_welcome,237,693048,0.0-71.0-1.0,"""event"",""trial"",""time""
""fullscreenenter"",""1"",""9512""
","
","
","""event"",""trial"",""time""
""fullscreenenter"",""1"",""9512""
","
",,null,run_exp/static/images/task_images/aliens/old_aliens/planet/alien_planet-24.jpg,null,,,,,,,,,,,,,24,"70,45,34,17,16,6,32,33,44,72,59,24,7,46,65,76,41,62,31,61,39,22,80,35,58,54,3,69,19,78,51,43,29,52,53,55,30,63,74,12,5,73",,,,,,,,,,
land,238,693553,0.0-71.0-2.0,"""event"",""trial"",""time""
""fullscreenenter"",""1"",""9512""
","
","
","""event"",""trial"",""time""
""fullscreenenter"",""1"",""9512""
","
",,null,run_exp/static/images/task_images/land.jpg,null,,,,,,,99,,,12,,,,,,,,,,,,,,
dig,239,695561,0.0-71.0-3.0,"""event"",""trial"",""time""
""fullscreenenter"",""1"",""9512""
","
","
","""event"",""trial"",""time""
""fullscreenenter"",""1"",""9512""
","
",,,,,,,,,,,,"[{""stimulus"":""run_exp/static/images/task_images/dig.jpg"",""time"":0.20000004768371582},{""stimulus"":""run_exp/static/images/task_images/land.jpg"",""time"":680.2000000476837},{""stimulus"":""run_exp/static/images/task_images/dig.jpg"",""time"":1343.1000001430511}]",[],12,,,,,,,,,,,,,,
harvest,240,696568,0.0-71.0-4.0,"""event"",""trial"",""time""
""fullscreenenter"",""1"",""9512""
","
","
","""event"",""trial"",""time""
""fullscreenenter"",""1"",""9512""
","
",,null,run_exp/static/images/task_images/gems/99.jpg,null,,,,,,,15,,,12,,,,,99,0.151980446,0.151515152,,,,,,,
decision,241,696993,0.0-71.0-5.0,"""event"",""trial"",""time""
""fullscreenenter"",""1"",""9512""
","
","
","""event"",""trial"",""time""
""fullscreenenter"",""1"",""9512""
","
",,423.7,run_exp/static/images/task_images/land.jpg,65,,,,,,,15,,,12,,,,,,,,31517,2,0,FALSE,,,
dig,242,699570,0.0-72.0-0.0,"""event"",""trial"",""time""
""fullscreenenter"",""1"",""9512""
","
","
","""event"",""trial"",""time""
""fullscreenenter"",""1"",""9512""
","
",,,,,,,,,,,,"[{""stimulus"":""run_exp/static/images/task_images/dig.jpg"",""time"":0.09999990463256836},{""stimulus"":""run_exp/static/images/task_images/land.jpg"",""time"":860.6999998092651},{""stimulus"":""run_exp/static/images/task_images/dig.jpg"",""time"":1727.7999999523163}]",[],12,,,,,,,,,,,,,,
harvest,243,700581,0.0-72.0-1.0,"""event"",""trial"",""time""
""fullscreenenter"",""1"",""9512""
","
","
","""event"",""trial"",""time""
""fullscreenenter"",""1"",""9512""
","
",,null,run_exp/static/images/task_images/gems/15.jpg,null,,,,,,,3,,,12,,,,,15,0.218938903,0.2,,,,,,,
decision,244,700888,0.0-72.0-2.0,"""event"",""trial"",""time""
""fullscreenenter"",""1"",""9512""
","
","
","""event"",""trial"",""time""
""fullscreenenter"",""1"",""9512""
","
",,305.6000001,run_exp/static/images/task_images/land.jpg,76,,,,,,,3,,,12,,,,,,,,35412,2,1,TRUE,,,
