trial_type,trial_index,time_elapsed,internal_node_id,interactions,blur_events,focus_events,fullscreenenter_events,fullscreenexit_events,success,rt,stimulus,key_press,prompt,subject_id,participant_id,age,gender,button_pressed,next_reward,animation_sequence,responses,planet,curr_prac_trial,n_prac_rounds,alien,aliens,reward_received,decay_rate_actual,decay_rate_exp,time_in_block,block_num,prt,last_trial_on_planet,button_html,bonus,num_failures
pavlovia,0,2,0.0-0.0,"""event"",""trial"",""time""
""fullscreenenter"",""1"",""2261""
","
","
","""event"",""trial"",""time""
""fullscreenenter"",""1"",""2261""
","
",,,,,,,,,,,,,,,,,,,,,,,,,,,,
fullscreen,1,3253,0.0-1.0,"""event"",""trial"",""time""
""fullscreenenter"",""1"",""2261""
","
","
","""event"",""trial"",""time""
""fullscreenenter"",""1"",""2261""
","
",TRUE,,,,,,,,,,,,,,,,,,,,,,,,,,,
instruc_welcome,2,12976,0.0-2.0,"""event"",""trial"",""time""
""fullscreenenter"",""1"",""2261""
","
","
","""event"",""trial"",""time""
""fullscreenenter"",""1"",""2261""
","
",,null,run_exp/static/audio/clip_1_welcome.m4a,null,"<p>Howdy! In this experiment, you’ll be an explorer traveling through space to collect space treasure.</p><p>Your mission is to collect as much treasure as possible.</p><br><br><p><img src='run_exp/static/images/task_images/opening_img-01.jpg' height='300' width='auto'></p>",9873,4550,22.17,Male,,,,,,,,,,,,,,,,,,,
audio-keyboard-response,3,29556,0.0-3.0,"""event"",""trial"",""time""
""fullscreenenter"",""1"",""2261""
","
","
","""event"",""trial"",""time""
""fullscreenenter"",""1"",""2261""
","
",,null,run_exp/static/audio/clip_2_move.m4a,null,,,,,,,,,,,,,,,,,,,,,,,,
welcome_dec,4,33945,0.0-4.0,"""event"",""trial"",""time""
""fullscreenenter"",""1"",""2261""
","
","
","""event"",""trial"",""time""
""fullscreenenter"",""1"",""2261""
","
",,4388.6,"<p>Howdy! In this experiment, you’ll be an explorer traveling through space to collect space treasure.</p><p>Your mission is to collect as much treasure as possible.</p><br><br><p><img src='run_exp/static/images/task_images/opening_img-01.jpg' height='300' width='auto'></p>",,,,,,,1,,,,,,,,,,,,,,,,,,
html-keyboard-response,5,35880,0.0-5.0,"""event"",""trial"",""time""
""fullscreenenter"",""1"",""2261""
","
","
","""event"",""trial"",""time""
""fullscreenenter"",""1"",""2261""
","
",,1934.2,"<p>Howdy! In this experiment, you’ll be an explorer traveling through space to collect space treasure.</p><p>Your mission is to collect as much treasure as possible.</p><br><br><p><img src='run_exp/static/images/task_images/opening_img-01.jpg' height='300' width='auto'></p><button class=""jspsych-html-btn-unchosen""><img src=""run_exp/static/images/task_images/planet-01.jpg"" height=""50""></button><button class=""jspsych-html-btn-chosen""><img src=""run_exp/static/images/task_images/planet-02.jpg"" height=""50""></button><p><b>[press the space bar to lock in your answer]<b><br></p>",32,,,,,,,,,,,,,,,,,,,,,,,,
instruc_goal,6,45936,0.0-6.0-0.0,"""event"",""trial"",""time""
""fullscreenenter"",""1"",""2261""
","
","
","""event"",""trial"",""time""
""fullscreenenter"",""1"",""2261""
","
",,null,run_exp/static/audio/clip_3_goal.m4a,null,"<p> As a space explorer, you’ll visit different planets to dig for space treasure, these pink gems.</p> <p> The more treasure you dig up, the more bonus money you’ll win! </p><br><br><p><img src='run_exp/static/images/task_images/pink_gem.jpg' height='300' width='auto'></p>",,,,,,,,,,,,,,,,,,,,,,,
instruc_goal,7,48823,0.0-6.0-1.0,"""event"",""trial"",""time""
""fullscreenenter"",""1"",""2261""
","
","
","""event"",""trial"",""time""
""fullscreenenter"",""1"",""2261""
","
",,2886.5,"<p> As a space explorer, you’ll visit different planets to dig for space treasure, these pink gems.</p> <p> The more treasure you dig up, the more bonus money you’ll win! </p><br><br><p><img src='run_exp/static/images/task_images/pink_gem.jpg' height='300' width='auto'></p>",,,,,,,1,,,,,,,,,,,,,,,,,,
html-keyboard-response,8,49106,0.0-6.0-2.0,"""event"",""trial"",""time""
""fullscreenenter"",""1"",""2261""
","
","
","""event"",""trial"",""time""
""fullscreenenter"",""1"",""2261""
","
",,282.1,"<p> As a space explorer, you’ll visit different planets to dig for space treasure, these pink gems.</p> <p> The more treasure you dig up, the more bonus money you’ll win! </p><br><br><p><img src='run_exp/static/images/task_images/pink_gem.jpg' height='300' width='auto'></p><button class=""jspsych-html-btn-unchosen""><img src=""run_exp/static/images/task_images/planet-01.jpg"" height=""50""></button><button class=""jspsych-html-btn-chosen""><img src=""run_exp/static/images/task_images/planet-02.jpg"" height=""50""></button><p><b>[press the space bar to lock in your answer]<b><br></p>",32,,,,,,,,,,,,,,,,,,,,,,,,
instruc_dig,9,65096,0.0-7.0-0.0,"""event"",""trial"",""time""
""fullscreenenter"",""1"",""2261""
","
","
","""event"",""trial"",""time""
""fullscreenenter"",""1"",""2261""
","
",,null,run_exp/static/audio/clip_4_dig.m4a,null,,,,,,,100,,,,,,,,,,,,,,,,,
instruc_dig_try,10,65747,0.0-7.0-1.0,"""event"",""trial"",""time""
""fullscreenenter"",""1"",""2261""
","
","
","""event"",""trial"",""time""
""fullscreenenter"",""1"",""2261""
","
",,650.2,"<p> When you’ve arrived at a new planet, you will dig once. </p> <p>Then, you get to decide if you want to stay on the planet and dig again or travel to a new planet and dig there.</p> <p> To stay and dig, press the letter <strong>‘A’</strong> on your keyboard. Try pressing it now! </p><p><img src='run_exp/static/images/task_images/land.jpg'  height='700' width='auto'></p>",65,"<p> When you’ve arrived at a new planet, you will dig once. </p> <p>Then, you get to decide if you want to stay on the planet and dig again or travel to a new planet and dig there.</p> <p> To stay and dig, press the letter <strong>‘A’</strong> on your keyboard. Try pressing it now! </p><p><img src='run_exp/static/images/task_images/land.jpg'  height='700' width='auto'></p>",,,,,,100,,,,,,,,,,,,,,,,,
dig_prac,11,67764,0.0-7.0-2.0,"""event"",""trial"",""time""
""fullscreenenter"",""1"",""2261""
","
","
","""event"",""trial"",""time""
""fullscreenenter"",""1"",""2261""
","
",,,,,,,,,,,,"[{""stimulus"":""run_exp/static/images/task_images/dig.jpg"",""time"":0},{""stimulus"":""run_exp/static/images/task_images/land.jpg"",""time"":681.5999999977648},{""stimulus"":""run_exp/static/images/task_images/dig.jpg"",""time"":1340}]",[],,,,,,,,,,,,,,,
instruc_travel,12,103997,0.0-7.0-3.0,"""event"",""trial"",""time""
""fullscreenenter"",""1"",""2261""
","
","
","""event"",""trial"",""time""
""fullscreenenter"",""1"",""2261""
","
",,null,run_exp/static/audio/clip_5_travel.m4a,null,"<p>Every time you dig up gems, there are less gems on the planet, so the more you dig on a planet the fewer gems you’ll get with each dig.</p><p>When gems are running low, you may want to travel to a new planet. </p> <p>  Planets are very far apart in this galaxy, so it will take some time to travel between them. </p> <br><p>There are lots and lots of planets for you to visit, so you won’t be able to return to any planets you’ve seen before. </p><br><p>To leave this planet and travel to a new one, press the letter <strong>‘L’</strong> on your keyboard. Try pressing it now! </p><p><img src='run_exp/static/images/task_images/rocket-01.jpg'  height='600' width='auto'></p>",,,,,,,,,,,,,,,,,,,,,,,
instruc_travel_try,13,105141,0.0-7.0-4.0,"""event"",""trial"",""time""
""fullscreenenter"",""1"",""2261""
","
","
","""event"",""trial"",""time""
""fullscreenenter"",""1"",""2261""
","
",,1144.3,"<p>Every time you dig up gems, there are less gems on the planet, so the more you dig on a planet the fewer gems you’ll get with each dig.</p><p>When gems are running low, you may want to travel to a new planet. </p> <p>  Planets are very far apart in this galaxy, so it will take some time to travel between them. </p> <br><p>There are lots and lots of planets for you to visit, so you won’t be able to return to any planets you’ve seen before. </p><br><p>To leave this planet and travel to a new one, press the letter <strong>‘L’</strong> on your keyboard. Try pressing it now! </p><p><img src='run_exp/static/images/task_images/rocket-01.jpg'  height='600' width='auto'></p>",76,"<p>Every time you dig up gems, there are less gems on the planet, so the more you dig on a planet the fewer gems you’ll get with each dig.</p><p>When gems are running low, you may want to travel to a new planet. </p> <p>  Planets are very far apart in this galaxy, so it will take some time to travel between them. </p> <br><p>There are lots and lots of planets for you to visit, so you won’t be able to return to any planets you’ve seen before. </p><br><p>To leave this planet and travel to a new one, press the letter <strong>‘L’</strong> on your keyboard. Try pressing it now! </p><p><img src='run_exp/static/images/task_images/rocket-01.jpg'  height='600' width='auto'></p>",,,,,,,,,,,,,,,,,,,,,,,
travel_prac,14,115150,0.0-7.0-5.0,"""event"",""trial"",""time""
""fullscreenenter"",""1"",""2261""
","
","
","""event"",""trial"",""time""
""fullscreenenter"",""1"",""2261""
","
",,,,,,,,,,,,"[{""stimulus"":""run_exp/static/images/task_images/rocket-01.jpg"",""time"":0.19999999925494194},{""stimulus"":""run_exp/static/images/task_images/rocket-02.jpg"",""time"":1118.300000000745},{""stimulus"":""run_exp/static/images/task_images/rocket-03.jpg"",""time"":2225.300000000745},{""stimulus"":""run_exp/static/images/task_images/rocket-04.jpg"",""time"":3347.199999999255},{""stimulus"":""run_exp/static/images/task_images/rocket-05.jpg"",""time"":4456},{""stimulus"":""run_exp/static/images/task_images/rocket-06.jpg"",""time"":5565.800000000745},{""stimulus"":""run_exp/static/images/task_images/rocket-07.jpg"",""time"":6675.89999999851},{""stimulus"":""run_exp/static/images/task_images/rocket-08.jpg"",""time"":7787.5},{""stimulus"":""run_exp/static/images/task_images/rocket-09.jpg"",""time"":8901.89999999851}]",[],0,,,,,,,,,,,,,,
instruc_alien_greet,15,142328,0.0-7.0-6.0,"""event"",""trial"",""time""
""fullscreenenter"",""1"",""2261""
","
","
","""event"",""trial"",""time""
""fullscreenenter"",""1"",""2261""
","
",,null,run_exp/static/audio/clip_6_alien.m4a,null,"<p>When you arrive at a new planet, the alien who owns the treasure mine on that planet will greet you!</p><p>The better an alien takes care of their mine the easier it is to dig for gems. Some aliens take better care of their mine than others. So, you won’t get exactly the same amount of gems on each planet.</p><p>What the alien looks like does not tell you anything about how many gems there are on the planet.</p><br><p><img src=""run_exp/static/images/task_images/aliens/instructions_aliens/planet/alien_planet-1.jpg""  height=""600"" width=""auto""></p>",,,,,,,,,,,,,,,,,,,,,,,
instruc_alien_greet,16,144489,0.0-7.0-7.0,"""event"",""trial"",""time""
""fullscreenenter"",""1"",""2261""
","
","
","""event"",""trial"",""time""
""fullscreenenter"",""1"",""2261""
","
",,2160.5,"<p>When you arrive at a new planet, the alien who owns the treasure mine on that planet will greet you!</p><p>The better an alien takes care of their mine the easier it is to dig for gems. Some aliens take better care of their mine than others. So, you won’t get exactly the same amount of gems on each planet.</p><p>What the alien looks like does not tell you anything about how many gems there are on the planet.</p><br><p><img src=""run_exp/static/images/task_images/aliens/instructions_aliens/planet/alien_planet-1.jpg""  height=""600"" width=""auto""></p>",,,,,,,1,,,,,,,,,,,,,,,,,,
html-keyboard-response,17,144956,0.0-7.0-8.0,"""event"",""trial"",""time""
""fullscreenenter"",""1"",""2261""
","
","
","""event"",""trial"",""time""
""fullscreenenter"",""1"",""2261""
","
",,466.1,"<p>When you arrive at a new planet, the alien who owns the treasure mine on that planet will greet you!</p><p>The better an alien takes care of their mine the easier it is to dig for gems. Some aliens take better care of their mine than others. So, you won’t get exactly the same amount of gems on each planet.</p><p>What the alien looks like does not tell you anything about how many gems there are on the planet.</p><br><p><img src=""run_exp/static/images/task_images/aliens/instructions_aliens/planet/alien_planet-1.jpg""  height=""600"" width=""auto""></p><button class=""jspsych-html-btn-unchosen""><img src=""run_exp/static/images/task_images/planet-01.jpg"" height=""50""></button><button class=""jspsych-html-btn-chosen""><img src=""run_exp/static/images/task_images/planet-02.jpg"" height=""50""></button><p><b>[press the space bar to lock in your answer]<b><br></p>",32,,,,,,,,,,,,,,,,,,,,,,,,
time_out,18,156028,0.0-8.0-0.0,"""event"",""trial"",""time""
""fullscreenenter"",""1"",""2261""
","
","
","""event"",""trial"",""time""
""fullscreenenter"",""1"",""2261""
","
",,null,run_exp/static/audio/clip_7_timeout.m4a,null,"<p>If you don't make your choice fast enough, you’ll have to wait a few seconds before you can make another one.</p><p>You can’t dig for more gems or travel to new planets. You just have to sit and wait.</p><br><p><img src='run_exp/static/images/task_images/time_out.jpg'  height='600' width='auto'></p>",,,,,,,,,,,,,,,,,,,,,,,
time_out,19,156940,0.0-8.0-1.0,"""event"",""trial"",""time""
""fullscreenenter"",""1"",""2261""
","
","
","""event"",""trial"",""time""
""fullscreenenter"",""1"",""2261""
","
",,911.2,"<p>If you don't make your choice fast enough, you’ll have to wait a few seconds before you can make another one.</p><p>You can’t dig for more gems or travel to new planets. You just have to sit and wait.</p><br><p><img src='run_exp/static/images/task_images/time_out.jpg'  height='600' width='auto'></p>",,,,,,,1,,,,,,,,,,,,,,,,,,
html-keyboard-response,20,157253,0.0-8.0-2.0,"""event"",""trial"",""time""
""fullscreenenter"",""1"",""2261""
","
","
","""event"",""trial"",""time""
""fullscreenenter"",""1"",""2261""
","
",,313.2,"<p>If you don't make your choice fast enough, you’ll have to wait a few seconds before you can make another one.</p><p>You can’t dig for more gems or travel to new planets. You just have to sit and wait.</p><br><p><img src='run_exp/static/images/task_images/time_out.jpg'  height='600' width='auto'></p><button class=""jspsych-html-btn-unchosen""><img src=""run_exp/static/images/task_images/planet-01.jpg"" height=""50""></button><button class=""jspsych-html-btn-chosen""><img src=""run_exp/static/images/task_images/planet-02.jpg"" height=""50""></button><p><b>[press the space bar to lock in your answer]<b><br></p>",32,,,,,,,,,,,,,,,,,,,,,,,,
instruc_break,21,172907,0.0-9.0-0.0,"""event"",""trial"",""time""
""fullscreenenter"",""1"",""2261""
","
","
","""event"",""trial"",""time""
""fullscreenenter"",""1"",""2261""
","
",,null,run_exp/static/audio/clip_8_break.m4a,null,"<p> After digging and traveling for a while, you’ll be able to take a break at home base. </p><p>The game will last 20 minutes no matter what.</p><p>You will visit home base every 5 minutes, so, you will visit home base three times during the game.</p><br><p><img src='run_exp/static/images/task_images/home_base.jpg' height='600' width='auto'></p>",,,,,,,,,,,,,,,,,,,,,,,
instruc_break,22,173795,0.0-9.0-1.0,"""event"",""trial"",""time""
""fullscreenenter"",""1"",""2261""
","
","
","""event"",""trial"",""time""
""fullscreenenter"",""1"",""2261""
","
",,886.6,"<p> After digging and traveling for a while, you’ll be able to take a break at home base. </p><p>The game will last 20 minutes no matter what.</p><p>You will visit home base every 5 minutes, so, you will visit home base three times during the game.</p><br><p><img src='run_exp/static/images/task_images/home_base.jpg' height='600' width='auto'></p>",,,,,,,1,,,,,,,,,,,,,,,,,,
html-keyboard-response,23,173972,0.0-9.0-2.0,"""event"",""trial"",""time""
""fullscreenenter"",""1"",""2261""
","
","
","""event"",""trial"",""time""
""fullscreenenter"",""1"",""2261""
","
",,176.9,"<p> After digging and traveling for a while, you’ll be able to take a break at home base. </p><p>The game will last 20 minutes no matter what.</p><p>You will visit home base every 5 minutes, so, you will visit home base three times during the game.</p><br><p><img src='run_exp/static/images/task_images/home_base.jpg' height='600' width='auto'></p><button class=""jspsych-html-btn-unchosen""><img src=""run_exp/static/images/task_images/planet-01.jpg"" height=""50""></button><button class=""jspsych-html-btn-chosen""><img src=""run_exp/static/images/task_images/planet-02.jpg"" height=""50""></button><p><b>[press the space bar to lock in your answer]<b><br></p>",32,,,,,,,,,,,,,,,,,,,,,,,,
instruc_prac_game,24,184088,0.0-10.0-0.0,"""event"",""trial"",""time""
""fullscreenenter"",""1"",""2261""
","
","
","""event"",""trial"",""time""
""fullscreenenter"",""1"",""2261""
","
",,null,run_exp/static/audio/clip_9_practice.m4a,null,"<p> Are you ready to play a practice game? </p> <p>In this practice game, you'll be digging up barrels of gems. But, in the real game, you'll be digging up the gems themselves. </p>",,,,,,,,,,,,,,,,,,,,,,,
html-button-response,25,185214,0.0-10.0-1.0,"""event"",""trial"",""time""
""fullscreenenter"",""1"",""2261""
","
","
","""event"",""trial"",""time""
""fullscreenenter"",""1"",""2261""
","
",,1125.3,"<p> Are you ready to play a practice game? </p> <p>In this practice game, you'll be digging up barrels of gems. But, in the real game, you'll be digging up the gems themselves. </p>",,,,,,,0,,,,,,,,,,,,,,,,,,
alien_welcome_prac,26,190224,0.0-11.0-0.0,"""event"",""trial"",""time""
""fullscreenenter"",""1"",""2261""
","
","
","""event"",""trial"",""time""
""fullscreenenter"",""1"",""2261""
","
",,null,run_exp/static/images/task_images/aliens/practice_aliens/planet/alien_planet-5.jpg,null,,,,,,,,,,,,,,,,,,,,,,,,
land_prac,27,190725,0.0-11.0-1.0,"""event"",""trial"",""time""
""fullscreenenter"",""1"",""2261""
","
","
","""event"",""trial"",""time""
""fullscreenenter"",""1"",""2261""
","
",,null,run_exp/static/images/task_images/land.jpg,null,,,,,,,102,,,0,,,,,,,,,,,,,,
dig_prac,28,192740,0.0-11.0-2.0,"""event"",""trial"",""time""
""fullscreenenter"",""1"",""2261""
","
","
","""event"",""trial"",""time""
""fullscreenenter"",""1"",""2261""
","
",,,,,,,,,,,,"[{""stimulus"":""run_exp/static/images/task_images/dig.jpg"",""time"":0.09999999776482582},{""stimulus"":""run_exp/static/images/task_images/land.jpg"",""time"":678.0999999977648},{""stimulus"":""run_exp/static/images/task_images/dig.jpg"",""time"":1336.3999999985099}]",[],,,,,,,,,,,,,,,
harvest_prac,29,193743,0.0-11.0-3.0,"""event"",""trial"",""time""
""fullscreenenter"",""1"",""2261""
","
","
","""event"",""trial"",""time""
""fullscreenenter"",""1"",""2261""
","
",,null,run_exp/static/images/task_images/barrel_text.jpg,null,,,,,,,,,,,,,,,,,,,,,,,,
decision_prac,30,195474,0.0-11.0-4.0,"""event"",""trial"",""time""
""fullscreenenter"",""1"",""2261""
","
","
","""event"",""trial"",""time""
""fullscreenenter"",""1"",""2261""
","
",,1730.6,run_exp/static/images/task_images/land.jpg,65,,,,,,,,,,,1,,,,,,,,,,,,,
dig_prac,31,197481,0.0-12.0-0.0,"""event"",""trial"",""time""
""fullscreenenter"",""1"",""2261""
","
","
","""event"",""trial"",""time""
""fullscreenenter"",""1"",""2261""
","
",,,,,,,,,,,,"[{""stimulus"":""run_exp/static/images/task_images/dig.jpg"",""time"":0.09999999776482582},{""stimulus"":""run_exp/static/images/task_images/land.jpg"",""time"":678.2999999970198},{""stimulus"":""run_exp/static/images/task_images/dig.jpg"",""time"":1336}]",[],,,,,,,,,,,,,,,
harvest_prac,32,198482,0.0-12.0-1.0,"""event"",""trial"",""time""
""fullscreenenter"",""1"",""2261""
","
","
","""event"",""trial"",""time""
""fullscreenenter"",""1"",""2261""
","
",,null,run_exp/static/images/task_images/barrel_text.jpg,null,,,,,,,,,,,,,,,,,,,,,,,,
decision_prac,33,198761,0.0-12.0-2.0,"""event"",""trial"",""time""
""fullscreenenter"",""1"",""2261""
","
","
","""event"",""trial"",""time""
""fullscreenenter"",""1"",""2261""
","
",,278.4,run_exp/static/images/task_images/land.jpg,65,,,,,,,,,,,2,,,,,,,,,,,,,
dig_prac,34,200764,0.0-13.0-0.0,"""event"",""trial"",""time""
""fullscreenenter"",""1"",""2261""
","
","
","""event"",""trial"",""time""
""fullscreenenter"",""1"",""2261""
","
",,,,,,,,,,,,"[{""stimulus"":""run_exp/static/images/task_images/dig.jpg"",""time"":0},{""stimulus"":""run_exp/static/images/task_images/land.jpg"",""time"":676.3999999985099},{""stimulus"":""run_exp/static/images/task_images/dig.jpg"",""time"":1345.199999999255}]",[],,,,,,,,,,,,,,,
harvest_prac,35,201767,0.0-13.0-1.0,"""event"",""trial"",""time""
""fullscreenenter"",""1"",""2261""
","
","
","""event"",""trial"",""time""
""fullscreenenter"",""1"",""2261""
","
",,null,run_exp/static/images/task_images/barrel_text.jpg,null,,,,,,,,,,,,,,,,,,,,,,,,
decision_prac,36,202228,0.0-13.0-2.0,"""event"",""trial"",""time""
""fullscreenenter"",""1"",""2261""
","
","
","""event"",""trial"",""time""
""fullscreenenter"",""1"",""2261""
","
",,461.1,run_exp/static/images/task_images/land.jpg,65,,,,,,,,,,,3,,,,,,,,,,,,,
dig_prac,37,204242,0.0-14.0-0.0,"""event"",""trial"",""time""
""fullscreenenter"",""1"",""2261""
","
","
","""event"",""trial"",""time""
""fullscreenenter"",""1"",""2261""
","
",,,,,,,,,,,,"[{""stimulus"":""run_exp/static/images/task_images/dig.jpg"",""time"":0.10000000149011612},{""stimulus"":""run_exp/static/images/task_images/land.jpg"",""time"":681.8000000007451},{""stimulus"":""run_exp/static/images/task_images/dig.jpg"",""time"":1338.800000000745}]",[],,,,,,,,,,,,,,,
harvest_prac,38,205243,0.0-14.0-1.0,"""event"",""trial"",""time""
""fullscreenenter"",""1"",""2261""
","
","
","""event"",""trial"",""time""
""fullscreenenter"",""1"",""2261""
","
",,null,run_exp/static/images/task_images/barrel_text.jpg,null,,,,,,,,,,,,,,,,,,,,,,,,
decision_prac,39,205801,0.0-14.0-2.0,"""event"",""trial"",""time""
""fullscreenenter"",""1"",""2261""
","
","
","""event"",""trial"",""time""
""fullscreenenter"",""1"",""2261""
","
",,557.1,run_exp/static/images/task_images/land.jpg,65,,,,,,,,,,,4,,,,,,,,,,,,,
dig_prac,40,207804,0.0-15.0-0.0,"""event"",""trial"",""time""
""fullscreenenter"",""1"",""2261""
","
","
","""event"",""trial"",""time""
""fullscreenenter"",""1"",""2261""
","
",,,,,,,,,,,,"[{""stimulus"":""run_exp/static/images/task_images/dig.jpg"",""time"":0.09999999776482582},{""stimulus"":""run_exp/static/images/task_images/land.jpg"",""time"":671.1999999992549},{""stimulus"":""run_exp/static/images/task_images/dig.jpg"",""time"":1335.2999999970198}]",[],,,,,,,,,,,,,,,
harvest_prac,41,208805,0.0-15.0-1.0,"""event"",""trial"",""time""
""fullscreenenter"",""1"",""2261""
","
","
","""event"",""trial"",""time""
""fullscreenenter"",""1"",""2261""
","
",,null,run_exp/static/images/task_images/barrel_text.jpg,null,,,,,,,,,,,,,,,,,,,,,,,,
decision_prac,42,209125,0.0-15.0-2.0,"""event"",""trial"",""time""
""fullscreenenter"",""1"",""2261""
","
","
","""event"",""trial"",""time""
""fullscreenenter"",""1"",""2261""
","
",,320.2,run_exp/static/images/task_images/land.jpg,65,,,,,,,,,,,,1,,,,,,,,,,,,
quiz_instruc,43,220782,0.0-16.0-0.0,"""event"",""trial"",""time""
""fullscreenenter"",""1"",""2261""
","
","
","""event"",""trial"",""time""
""fullscreenenter"",""1"",""2261""
","
",,11655.6,run_exp/static/audio/clip_10_quiz.m4a,,,,,,,0,,,,,,,,,,,,,,,,,,
instruc_repeat,44,263549,0.0-16.0-1.0,"""event"",""trial"",""time""
""fullscreenenter"",""1"",""2261""
","
","
","""event"",""trial"",""time""
""fullscreenenter"",""1"",""2261""
","
",,null,"<p> Are you ready to play a practice game? </p> <p>In this practice game, you'll be digging up barrels of gems. But, in the real game, you'll be digging up the gems themselves. </p>",null,"<p>In this game, your goal is to collect as many gems as you can. That’s how you will win bonus money. </p> <p>The entire game will last 20 minutes no matter how many gems you collect or how many planets you visit. </p><p>To stay on a planet and dig again, press the letter A on your keyboard. To leave for a new planet, press the letter L.</p><p>The more you dig on a planet, the fewer gems you’ll get with each dig which is why you might consider leaving for a new planet. </p><p>When you arrive at a new planet, you’ll be greeted by an alien. What the alien looks like does not tell you anything about how much treasure is on the planet. </p>",,,,,,,,,,,,,,,,,,,,,,,
instruc_repeat_continue,45,264982,0.0-16.0-2.0,"""event"",""trial"",""time""
""fullscreenenter"",""1"",""2261""
","
","
","""event"",""trial"",""time""
""fullscreenenter"",""1"",""2261""
","
",,1432.6,"<p> Are you ready to play a practice game? </p> <p>In this practice game, you'll be digging up barrels of gems. But, in the real game, you'll be digging up the gems themselves. </p>",,,,,,,0,,,,,,,,,,,,,,,,,,
quiz_q_1_ask,46,271515,0.0-16.0-3.0,"""event"",""trial"",""time""
""fullscreenenter"",""1"",""2261""
","
","
","""event"",""trial"",""time""
""fullscreenenter"",""1"",""2261""
","
",,6532.6,run_exp/static/audio/clip_11_q1_ask.m4a,,,,,,,0,,,,,,,,,,,,,,,,,,
quiz_q_1_fb_incorrect,47,274969,0.0-17.0-0.0,"""event"",""trial"",""time""
""fullscreenenter"",""1"",""2261""
","
","
","""event"",""trial"",""time""
""fullscreenenter"",""1"",""2261""
","
",,null,run_exp/static/audio/clip_13_q1_incorrect.m4a,null,<p>That’s incorrect. You win extra money by collecting more gems.</p>,,,,,,,,,,,,,,,,,,,,,,,
quiz_q_2_ask,48,278207,0.0-17.0-1.0,"""event"",""trial"",""time""
""fullscreenenter"",""1"",""2261""
","
","
","""event"",""trial"",""time""
""fullscreenenter"",""1"",""2261""
","
",,3237.7,run_exp/static/audio/clip_14_q2_ask.m4a,,,,,,,1,,,,,,,,,,,,,,,,,,
quiz_q_2_fb_correct,49,282189,0.0-18.0-0.0,"""event"",""trial"",""time""
""fullscreenenter"",""1"",""2261""
","
","
","""event"",""trial"",""time""
""fullscreenenter"",""1"",""2261""
","
",,null,run_exp/static/audio/clip_15_q2_correct.m4a,null,<p>That’s correct. The experiment is 20 minutes no matter what.</p>,,,,,,,,,,,,,,,,,,,,,,,
quiz_q_3_ask,50,284627,0.0-18.0-1.0,"""event"",""trial"",""time""
""fullscreenenter"",""1"",""2261""
","
","
","""event"",""trial"",""time""
""fullscreenenter"",""1"",""2261""
","
",,2436.6,run_exp/static/audio/clip_17_q3_ask.m4a,,,,,,,1,,,,,,,,,,,,,,,,,,
quiz_q_3_fb_correct,51,288609,0.0-19.0-0.0,"""event"",""trial"",""time""
""fullscreenenter"",""1"",""2261""
","
","
","""event"",""trial"",""time""
""fullscreenenter"",""1"",""2261""
","
",,null,run_exp/static/audio/clip_18_q3_correct.m4a,null,<p> That’s correct. You press the letter L to travel to a new planet.</p>,,,,,,,,,,,,,,,,,,,,,,,
quiz_q_4_ask,52,291044,0.0-19.0-1.0,"""event"",""trial"",""time""
""fullscreenenter"",""1"",""2261""
","
","
","""event"",""trial"",""time""
""fullscreenenter"",""1"",""2261""
","
",,2433.9,run_exp/static/audio/clip_20_q4_ask.m4a,,,,,,,0,,,,,,,,,,,,,,,,,,
quiz_q_4_fb_correct,53,296370,0.0-20.0-0.0,"""event"",""trial"",""time""
""fullscreenenter"",""1"",""2261""
","
","
","""event"",""trial"",""time""
""fullscreenenter"",""1"",""2261""
","
",,null,run_exp/static/audio/clip_21_q4_correct.m4a,null,<p> That’s correct. The more you dig on a planet the fewer gems you’ll get with each dig. </p>,,,,,,,,,,,,,,,,,,,,,,,
quiz_q_5_ask,54,298263,0.0-20.0-1.0,"""event"",""trial"",""time""
""fullscreenenter"",""1"",""2261""
","
","
","""event"",""trial"",""time""
""fullscreenenter"",""1"",""2261""
","
",,1891.9,run_exp/static/audio/clip_23_q5_ask.m4a,,,,,,,1,,,,,,,,,,,,,,,,,,
quiz_q_5_fb_correct,55,303270,0.0-21.0-0.0,"""event"",""trial"",""time""
""fullscreenenter"",""1"",""2261""
","
","
","""event"",""trial"",""time""
""fullscreenenter"",""1"",""2261""
","
",,null,run_exp/static/audio/clip_24_q5_correct.m4a,null,<p> That’s correct. The alien tells you nothing about how much treasure is on the planet.</p>,,,,,,,,,,,,,,,,,,,,,,,
quiz_incorrect,56,308810,0.0-22.0-0.0,"""event"",""trial"",""time""
""fullscreenenter"",""1"",""2261""
","
","
","""event"",""trial"",""time""
""fullscreenenter"",""1"",""2261""
","
",,null,run_exp/static/audio/clip_27_incorrect_quiz.m4a,null,,,,,,,,,,,,,,,,,,,,,,,,
quiz_incorrect_continue,57,309853,0.0-22.0-1.0,"""event"",""trial"",""time""
""fullscreenenter"",""1"",""2261""
","
","
","""event"",""trial"",""time""
""fullscreenenter"",""1"",""2261""
","
",,1043.1,"<p>Oops, you missed some questions.</p><p>Now that you’ve heard the correct answers. Try the quiz again!</p>",,,,,,,0,,,,,,,,,,,,,,,,,,
quiz_q_1_ask,58,311531,0.0-22.0-2.0,"""event"",""trial"",""time""
""fullscreenenter"",""1"",""2261""
","
","
","""event"",""trial"",""time""
""fullscreenenter"",""1"",""2261""
","
",,1677.1,run_exp/static/audio/clip_11_q1_ask.m4a,,,,,,,2,,,,,,,,,,,,,,,,,,
quiz_q_1_fb_correct,59,315370,0.0-23.0-0.0,"""event"",""trial"",""time""
""fullscreenenter"",""1"",""2261""
","
","
","""event"",""trial"",""time""
""fullscreenenter"",""1"",""2261""
","
",,null,run_exp/static/audio/clip_12_q1_correct.m4a,null,<p>That’s correct. You win extra money by collecting more gems.</p>,,,,,,,,,,,,,,,,,,,,,,,
quiz_q_2_ask,60,316403,0.0-23.0-1.0,"""event"",""trial"",""time""
""fullscreenenter"",""1"",""2261""
","
","
","""event"",""trial"",""time""
""fullscreenenter"",""1"",""2261""
","
",,1032.8,run_exp/static/audio/clip_14_q2_ask.m4a,,,,,,,1,,,,,,,,,,,,,,,,,,
quiz_q_2_fb_correct,61,320370,0.0-24.0-0.0,"""event"",""trial"",""time""
""fullscreenenter"",""1"",""2261""
","
","
","""event"",""trial"",""time""
""fullscreenenter"",""1"",""2261""
","
",,null,run_exp/static/audio/clip_15_q2_correct.m4a,null,<p>That’s correct. The experiment is 20 minutes no matter what.</p>,,,,,,,,,,,,,,,,,,,,,,,
quiz_q_3_ask,62,321522,0.0-24.0-1.0,"""event"",""trial"",""time""
""fullscreenenter"",""1"",""2261""
","
","
","""event"",""trial"",""time""
""fullscreenenter"",""1"",""2261""
","
",,1151.2,run_exp/static/audio/clip_17_q3_ask.m4a,,,,,,,1,,,,,,,,,,,,,,,,,,
quiz_q_3_fb_correct,63,325490,0.0-25.0-0.0,"""event"",""trial"",""time""
""fullscreenenter"",""1"",""2261""
","
","
","""event"",""trial"",""time""
""fullscreenenter"",""1"",""2261""
","
",,null,run_exp/static/audio/clip_18_q3_correct.m4a,null,<p> That’s correct. You press the letter L to travel to a new planet.</p>,,,,,,,,,,,,,,,,,,,,,,,
quiz_q_4_ask,64,327440,0.0-25.0-1.0,"""event"",""trial"",""time""
""fullscreenenter"",""1"",""2261""
","
","
","""event"",""trial"",""time""
""fullscreenenter"",""1"",""2261""
","
",,1949.7,run_exp/static/audio/clip_20_q4_ask.m4a,,,,,,,0,,,,,,,,,,,,,,,,,,
quiz_q_4_fb_correct,65,332750,0.0-26.0-0.0,"""event"",""trial"",""time""
""fullscreenenter"",""1"",""2261""
","
","
","""event"",""trial"",""time""
""fullscreenenter"",""1"",""2261""
","
",,null,run_exp/static/audio/clip_21_q4_correct.m4a,null,<p> That’s correct. The more you dig on a planet the fewer gems you’ll get with each dig. </p>,,,,,,,,,,,,,,,,,,,,,,,
quiz_q_5_ask,66,334267,0.0-26.0-1.0,"""event"",""trial"",""time""
""fullscreenenter"",""1"",""2261""
","
","
","""event"",""trial"",""time""
""fullscreenenter"",""1"",""2261""
","
",,1516.7,run_exp/static/audio/clip_23_q5_ask.m4a,,,,,,,1,,,,,,,,,,,,,,,,,,
quiz_q_5_fb_correct,67,339270,0.0-27.0-0.0,"""event"",""trial"",""time""
""fullscreenenter"",""1"",""2261""
","
","
","""event"",""trial"",""time""
""fullscreenenter"",""1"",""2261""
","
",,null,run_exp/static/audio/clip_24_q5_correct.m4a,null,<p> That’s correct. The alien tells you nothing about how much treasure is on the planet.</p>,,,,,,,,,,,,,,,,,,,,,,,
quiz_correct,68,342730,0.0-28.0-0.0,"""event"",""trial"",""time""
""fullscreenenter"",""1"",""2261""
","
","
","""event"",""trial"",""time""
""fullscreenenter"",""1"",""2261""
","
",,null,run_exp/static/audio/clip_26_correct_quiz.m4a,null,,,,,,,,,,,,,,,,,,,,,,,,
quiz_correct_continue,69,343559,0.0-28.0-1.0,"""event"",""trial"",""time""
""fullscreenenter"",""1"",""2261""
","
","
","""event"",""trial"",""time""
""fullscreenenter"",""1"",""2261""
","
",,828.1,<p>Good job! You're now ready to move on to the real game!</p>,,,,,,,0,,,,,,,,,,,,,,,,,,
audio-keyboard-response,70,353671,0.0-28.0-2.0,"""event"",""trial"",""time""
""fullscreenenter"",""1"",""2261""
","
","
","""event"",""trial"",""time""
""fullscreenenter"",""1"",""2261""
","
",,null,run_exp/static/audio/clip_28_real_game.m4a,null,,,,,,,,,,,,,,,,,,,,,,,,
instruc_begin_exp_contine,71,354263,0.0-28.0-3.0,"""event"",""trial"",""time""
""fullscreenenter"",""1"",""2261""
","
","
","""event"",""trial"",""time""
""fullscreenenter"",""1"",""2261""
","
",,591.2,"<p>Now that you know how  to dig for space treasure and travel to new planets,you can start exploring! </p><p>Do you want to go over the instructions again or get started with the real game?</p>",,,,,,,1,,,,,,1,,,,,,,,,,,,
alien_welcome,72,359264,0.0-29.0-0.0,"""event"",""trial"",""time""
""fullscreenenter"",""1"",""2261""
","
","
","""event"",""trial"",""time""
""fullscreenenter"",""1"",""2261""
","
",,null,run_exp/static/images/task_images/aliens/old_aliens/planet/alien_planet-53.jpg,null,,,,,,,,,,,,,53,"53,13,76,48,35,11,28,63,61,77,22,74,3,46,15,1,58,80,59,71,25,6,57,69,4,68,40,45,33,54,5,78,32,67,65,10,21,34,2,38",,,,,,,,,,
land,73,359780,0.0-29.0-1.0,"""event"",""trial"",""time""
""fullscreenenter"",""1"",""2261""
","
","
","""event"",""trial"",""time""
""fullscreenenter"",""1"",""2261""
","
",,null,run_exp/static/images/task_images/land.jpg,null,,,,,,,99,,,1,,,,,,,,,,,,,,
dig,74,361782,0.0-29.0-2.0,"""event"",""trial"",""time""
""fullscreenenter"",""1"",""2261""
","
","
","""event"",""trial"",""time""
""fullscreenenter"",""1"",""2261""
","
",,,,,,,,,,,,"[{""stimulus"":""run_exp/static/images/task_images/dig.jpg"",""time"":0.10000000149011612},{""stimulus"":""run_exp/static/images/task_images/land.jpg"",""time"":672.5},{""stimulus"":""run_exp/static/images/task_images/dig.jpg"",""time"":1343.6000000014901}]",[],1,,,,,,,,,,,,,,
harvest,75,362783,0.0-29.0-3.0,"""event"",""trial"",""time""
""fullscreenenter"",""1"",""2261""
","
","
","""event"",""trial"",""time""
""fullscreenenter"",""1"",""2261""
","
",,null,run_exp/static/images/task_images/gems/99.jpg,null,,,,,,,22,,,1,,,,,99,0.226616719,0.222222222,,,,,,,
decision,76,363139,0.0-29.0-4.0,"""event"",""trial"",""time""
""fullscreenenter"",""1"",""2261""
","
","
","""event"",""trial"",""time""
""fullscreenenter"",""1"",""2261""
","
",,354.8,run_exp/static/images/task_images/land.jpg,65,,,,,,,22,,,1,,,,,,,,8876,1,0,FALSE,,,
dig,77,365785,0.0-30.0-0.0,"""event"",""trial"",""time""
""fullscreenenter"",""1"",""2261""
","
","
","""event"",""trial"",""time""
""fullscreenenter"",""1"",""2261""
","
",,,,,,,,,,,,"[{""stimulus"":""run_exp/static/images/task_images/dig.jpg"",""time"":0.10000000149011612},{""stimulus"":""run_exp/static/images/task_images/land.jpg"",""time"":891},{""stimulus"":""run_exp/static/images/task_images/dig.jpg"",""time"":1765.800000000745}]",[],1,,,,,,,,,,,,,,
harvest,78,366786,0.0-30.0-1.0,"""event"",""trial"",""time""
""fullscreenenter"",""1"",""2261""
","
","
","""event"",""trial"",""time""
""fullscreenenter"",""1"",""2261""
","
",,null,run_exp/static/images/task_images/gems/22.jpg,null,,,,,,,3,,,1,,,,,22,0.134556318,0.136363636,,,,,,,
decision,79,366872,0.0-30.0-2.0,"""event"",""trial"",""time""
""fullscreenenter"",""1"",""2261""
","
","
","""event"",""trial"",""time""
""fullscreenenter"",""1"",""2261""
","
",,85.1,run_exp/static/images/task_images/land.jpg,76,,,,,,,3,,,1,,,,,,,,12609,1,1,TRUE,,,
travel,80,376784,0.0-31.0-0.0,"""event"",""trial"",""time""
""fullscreenenter"",""1"",""2261""
","
","
","""event"",""trial"",""time""
""fullscreenenter"",""1"",""2261""
","
",,,,,,,,,,,,"[{""stimulus"":""run_exp/static/images/task_images/rocket-01.jpg"",""time"":0},{""stimulus"":""run_exp/static/images/task_images/rocket-02.jpg"",""time"":1116.199999999255},{""stimulus"":""run_exp/static/images/task_images/rocket-03.jpg"",""time"":2211.800000000745},{""stimulus"":""run_exp/static/images/task_images/rocket-04.jpg"",""time"":3318.199999999255},{""stimulus"":""run_exp/static/images/task_images/rocket-05.jpg"",""time"":4409},{""stimulus"":""run_exp/static/images/task_images/rocket-06.jpg"",""time"":5505.800000000745},{""stimulus"":""run_exp/static/images/task_images/rocket-07.jpg"",""time"":6612.39999999851},{""stimulus"":""run_exp/static/images/task_images/rocket-08.jpg"",""time"":7708.199999999255},{""stimulus"":""run_exp/static/images/task_images/rocket-09.jpg"",""time"":8816.39999999851}]",[],1,,,,,,,,,,,,,,
alien_welcome,81,381791,0.0-31.0-1.0,"""event"",""trial"",""time""
""fullscreenenter"",""1"",""2261""
","
","
","""event"",""trial"",""time""
""fullscreenenter"",""1"",""2261""
","
",,null,run_exp/static/images/task_images/aliens/old_aliens/planet/alien_planet-13.jpg,null,,,,,,,,,,,,,13,"53,13,76,48,35,11,28,63,61,77,22,74,3,46,15,1,58,80,59,71,25,6,57,69,4,68,40,45,33,54,5,78,32,67,65,10,21,34,2,38",,,,,,,,,,
land,82,382292,0.0-31.0-2.0,"""event"",""trial"",""time""
""fullscreenenter"",""1"",""2261""
","
","
","""event"",""trial"",""time""
""fullscreenenter"",""1"",""2261""
","
",,null,run_exp/static/images/task_images/land.jpg,null,,,,,,,100,,,2,,,,,,,,,,,,,,
dig,83,384295,0.0-31.0-3.0,"""event"",""trial"",""time""
""fullscreenenter"",""1"",""2261""
","
","
","""event"",""trial"",""time""
""fullscreenenter"",""1"",""2261""
","
",,,,,,,,,,,,"[{""stimulus"":""run_exp/static/images/task_images/dig.jpg"",""time"":0.10000000149011612},{""stimulus"":""run_exp/static/images/task_images/land.jpg"",""time"":668.6000000014901},{""stimulus"":""run_exp/static/images/task_images/dig.jpg"",""time"":1336}]",[],2,,,,,,,,,,,,,,
harvest,84,385296,0.0-31.0-4.0,"""event"",""trial"",""time""
""fullscreenenter"",""1"",""2261""
","
","
","""event"",""trial"",""time""
""fullscreenenter"",""1"",""2261""
","
",,null,run_exp/static/images/task_images/gems/100.jpg,null,,,,,,,25,,,2,,,,,100,0.246710446,0.25,,,,,,,
decision,85,385625,0.0-31.0-5.0,"""event"",""trial"",""time""
""fullscreenenter"",""1"",""2261""
","
","
","""event"",""trial"",""time""
""fullscreenenter"",""1"",""2261""
","
",,328.5,run_exp/static/images/task_images/land.jpg,65,,,,,,,25,,,2,,,,,,,,31362,1,0,FALSE,,,
dig,86,388303,0.0-32.0-0.0,"""event"",""trial"",""time""
""fullscreenenter"",""1"",""2261""
","
","
","""event"",""trial"",""time""
""fullscreenenter"",""1"",""2261""
","
",,,,,,,,,,,,"[{""stimulus"":""run_exp/static/images/task_images/dig.jpg"",""time"":0},{""stimulus"":""run_exp/static/images/task_images/land.jpg"",""time"":891.1999999992549},{""stimulus"":""run_exp/static/images/task_images/dig.jpg"",""time"":1783.4000000022352}]",[],2,,,,,,,,,,,,,,
harvest,87,389310,0.0-32.0-1.0,"""event"",""trial"",""time""
""fullscreenenter"",""1"",""2261""
","
","
","""event"",""trial"",""time""
""fullscreenenter"",""1"",""2261""
","
",,null,run_exp/static/images/task_images/gems/25.jpg,null,,,,,,,4,,,2,,,,,25,0.154504225,0.16,,,,,,,
decision,88,389691,0.0-32.0-2.0,"""event"",""trial"",""time""
""fullscreenenter"",""1"",""2261""
","
","
","""event"",""trial"",""time""
""fullscreenenter"",""1"",""2261""
","
",,381.1,run_exp/static/images/task_images/land.jpg,65,,,,,,,4,,,2,,,,,,,,35428,1,1,FALSE,,,
dig,89,392309,0.0-33.0-0.0,"""event"",""trial"",""time""
""fullscreenenter"",""1"",""2261""
","
","
","""event"",""trial"",""time""
""fullscreenenter"",""1"",""2261""
","
",,,,,,,,,,,,"[{""stimulus"":""run_exp/static/images/task_images/dig.jpg"",""time"":0},{""stimulus"":""run_exp/static/images/task_images/land.jpg"",""time"":882.0999999977648},{""stimulus"":""run_exp/static/images/task_images/dig.jpg"",""time"":1746.3999999985099}]",[],2,,,,,,,,,,,,,,
harvest,90,393310,0.0-33.0-1.0,"""event"",""trial"",""time""
""fullscreenenter"",""1"",""2261""
","
","
","""event"",""trial"",""time""
""fullscreenenter"",""1"",""2261""
","
",,null,run_exp/static/images/task_images/gems/4.jpg,null,,,,,,,1,,,2,,,,,4,0.265656925,0.25,,,,,,,
decision,91,393368,0.0-33.0-2.0,"""event"",""trial"",""time""
""fullscreenenter"",""1"",""2261""
","
","
","""event"",""trial"",""time""
""fullscreenenter"",""1"",""2261""
","
",,57.6,run_exp/static/images/task_images/land.jpg,76,,,,,,,1,,,2,,,,,,,,39105,1,2,TRUE,,,
travel,92,403320,0.0-34.0-0.0,"""event"",""trial"",""time""
""fullscreenenter"",""1"",""2261""
","
","
","""event"",""trial"",""time""
""fullscreenenter"",""1"",""2261""
","
",,,,,,,,,,,,"[{""stimulus"":""run_exp/static/images/task_images/rocket-01.jpg"",""time"":0.10000000149011612},{""stimulus"":""run_exp/static/images/task_images/rocket-02.jpg"",""time"":1114.6000000014901},{""stimulus"":""run_exp/static/images/task_images/rocket-03.jpg"",""time"":2211.60000000149},{""stimulus"":""run_exp/static/images/task_images/rocket-04.jpg"",""time"":3317.10000000149},{""stimulus"":""run_exp/static/images/task_images/rocket-05.jpg"",""time"":4428.70000000298},{""stimulus"":""run_exp/static/images/task_images/rocket-06.jpg"",""time"":5527.400000002235},{""stimulus"":""run_exp/static/images/task_images/rocket-07.jpg"",""time"":6626.70000000298},{""stimulus"":""run_exp/static/images/task_images/rocket-08.jpg"",""time"":7736.60000000149},{""stimulus"":""run_exp/static/images/task_images/rocket-09.jpg"",""time"":8844.60000000149}]",[],2,,,,,,,,,,,,,,
alien_welcome,93,408328,0.0-34.0-1.0,"""event"",""trial"",""time""
""fullscreenenter"",""1"",""2261""
","
","
","""event"",""trial"",""time""
""fullscreenenter"",""1"",""2261""
","
",,null,run_exp/static/images/task_images/aliens/old_aliens/planet/alien_planet-76.jpg,null,,,,,,,,,,,,,76,"53,13,76,48,35,11,28,63,61,77,22,74,3,46,15,1,58,80,59,71,25,6,57,69,4,68,40,45,33,54,5,78,32,67,65,10,21,34,2,38",,,,,,,,,,
land,94,408829,0.0-34.0-2.0,"""event"",""trial"",""time""
""fullscreenenter"",""1"",""2261""
","
","
","""event"",""trial"",""time""
""fullscreenenter"",""1"",""2261""
","
",,null,run_exp/static/images/task_images/land.jpg,null,,,,,,,99,,,3,,,,,,,,,,,,,,
dig,95,410843,0.0-34.0-3.0,"""event"",""trial"",""time""
""fullscreenenter"",""1"",""2261""
","
","
","""event"",""trial"",""time""
""fullscreenenter"",""1"",""2261""
","
",,,,,,,,,,,,"[{""stimulus"":""run_exp/static/images/task_images/dig.jpg"",""time"":0.10000000149011612},{""stimulus"":""run_exp/static/images/task_images/land.jpg"",""time"":668.3000000007451},{""stimulus"":""run_exp/static/images/task_images/dig.jpg"",""time"":1340.300000000745}]",[],3,,,,,,,,,,,,,,
harvest,96,411843,0.0-34.0-4.0,"""event"",""trial"",""time""
""fullscreenenter"",""1"",""2261""
","
","
","""event"",""trial"",""time""
""fullscreenenter"",""1"",""2261""
","
",,null,run_exp/static/images/task_images/gems/99.jpg,null,,,,,,,58,,,3,,,,,99,0.589791383,0.585858586,,,,,,,
decision,97,411946,0.0-34.0-5.0,"""event"",""trial"",""time""
""fullscreenenter"",""1"",""2261""
","
","
","""event"",""trial"",""time""
""fullscreenenter"",""1"",""2261""
","
",,101.8,run_exp/static/images/task_images/land.jpg,65,,,,,,,58,,,3,,,,,,,,57683,1,0,FALSE,,,
dig,98,414846,0.0-35.0-0.0,"""event"",""trial"",""time""
""fullscreenenter"",""1"",""2261""
","
","
","""event"",""trial"",""time""
""fullscreenenter"",""1"",""2261""
","
",,,,,,,,,,,,"[{""stimulus"":""run_exp/static/images/task_images/dig.jpg"",""time"":0.09999999776482582},{""stimulus"":""run_exp/static/images/task_images/land.jpg"",""time"":973.2999999970198},{""stimulus"":""run_exp/static/images/task_images/dig.jpg"",""time"":1942.5999999977648}]",[],3,,,,,,,,,,,,,,
harvest,99,415860,0.0-35.0-1.0,"""event"",""trial"",""time""
""fullscreenenter"",""1"",""2261""
","
","
","""event"",""trial"",""time""
""fullscreenenter"",""1"",""2261""
","
",,null,run_exp/static/images/task_images/gems/58.jpg,null,,,,,,,28,,,3,,,,,58,0.479101651,0.482758621,,,,,,,
decision,100,416283,0.0-35.0-2.0,"""event"",""trial"",""time""
""fullscreenenter"",""1"",""2261""
","
","
","""event"",""trial"",""time""
""fullscreenenter"",""1"",""2261""
","
",,422.7,run_exp/static/images/task_images/land.jpg,65,,,,,,,28,,,3,,,,,,,,62020,1,1,FALSE,,,
dig,101,418861,0.0-36.0-0.0,"""event"",""trial"",""time""
""fullscreenenter"",""1"",""2261""
","
","
","""event"",""trial"",""time""
""fullscreenenter"",""1"",""2261""
","
",,,,,,,,,,,,"[{""stimulus"":""run_exp/static/images/task_images/dig.jpg"",""time"":0.09999999776482582},{""stimulus"":""run_exp/static/images/task_images/land.jpg"",""time"":861.6999999992549},{""stimulus"":""run_exp/static/images/task_images/dig.jpg"",""time"":1731.300000000745}]",[],3,,,,,,,,,,,,,,
harvest,102,419862,0.0-36.0-1.0,"""event"",""trial"",""time""
""fullscreenenter"",""1"",""2261""
","
","
","""event"",""trial"",""time""
""fullscreenenter"",""1"",""2261""
","
",,null,run_exp/static/images/task_images/gems/28.jpg,null,,,,,,,13,,,3,,,,,28,0.464855034,0.464285714,,,,,,,
decision,103,420227,0.0-36.0-2.0,"""event"",""trial"",""time""
""fullscreenenter"",""1"",""2261""
","
","
","""event"",""trial"",""time""
""fullscreenenter"",""1"",""2261""
","
",,364.5,run_exp/static/images/task_images/land.jpg,65,,,,,,,13,,,3,,,,,,,,65964,1,2,FALSE,,,
dig,104,422876,0.0-37.0-0.0,"""event"",""trial"",""time""
""fullscreenenter"",""1"",""2261""
","
","
","""event"",""trial"",""time""
""fullscreenenter"",""1"",""2261""
","
",,,,,,,,,,,,"[{""stimulus"":""run_exp/static/images/task_images/dig.jpg"",""time"":0.10000000149011612},{""stimulus"":""run_exp/static/images/task_images/land.jpg"",""time"":893.1000000014901},{""stimulus"":""run_exp/static/images/task_images/dig.jpg"",""time"":1756.699999999255}]",[],3,,,,,,,,,,,,,,
harvest,105,423879,0.0-37.0-1.0,"""event"",""trial"",""time""
""fullscreenenter"",""1"",""2261""
","
","
","""event"",""trial"",""time""
""fullscreenenter"",""1"",""2261""
","
",,null,run_exp/static/images/task_images/gems/13.jpg,null,,,,,,,7,,,3,,,,,13,0.534327513,0.538461538,,,,,,,
decision,106,423889,0.0-37.0-2.0,"""event"",""trial"",""time""
""fullscreenenter"",""1"",""2261""
","
","
","""event"",""trial"",""time""
""fullscreenenter"",""1"",""2261""
","
",,9.199999999,run_exp/static/images/task_images/land.jpg,76,,,,,,,7,,,3,,,,,,,,69626,1,3,TRUE,,,
travel,107,433892,0.0-38.0-0.0,"""event"",""trial"",""time""
""fullscreenenter"",""1"",""2261""
","
","
","""event"",""trial"",""time""
""fullscreenenter"",""1"",""2261""
","
",,,,,,,,,,,,"[{""stimulus"":""run_exp/static/images/task_images/rocket-01.jpg"",""time"":0.10000000149011612},{""stimulus"":""run_exp/static/images/task_images/rocket-02.jpg"",""time"":1115.7000000029802},{""stimulus"":""run_exp/static/images/task_images/rocket-03.jpg"",""time"":2225.800000000745},{""stimulus"":""run_exp/static/images/task_images/rocket-04.jpg"",""time"":3335},{""stimulus"":""run_exp/static/images/task_images/rocket-05.jpg"",""time"":4448},{""stimulus"":""run_exp/static/images/task_images/rocket-06.jpg"",""time"":5558.60000000149},{""stimulus"":""run_exp/static/images/task_images/rocket-07.jpg"",""time"":6673.5},{""stimulus"":""run_exp/static/images/task_images/rocket-08.jpg"",""time"":7782.5},{""stimulus"":""run_exp/static/images/task_images/rocket-09.jpg"",""time"":8891.400000002235}]",[],3,,,,,,,,,,,,,,
alien_welcome,108,438906,0.0-38.0-1.0,"""event"",""trial"",""time""
""fullscreenenter"",""1"",""2261""
","
","
","""event"",""trial"",""time""
""fullscreenenter"",""1"",""2261""
","
",,null,run_exp/static/images/task_images/aliens/old_aliens/planet/alien_planet-48.jpg,null,,,,,,,,,,,,,48,"53,13,76,48,35,11,28,63,61,77,22,74,3,46,15,1,58,80,59,71,25,6,57,69,4,68,40,45,33,54,5,78,32,67,65,10,21,34,2,38",,,,,,,,,,
land,109,439421,0.0-38.0-2.0,"""event"",""trial"",""time""
""fullscreenenter"",""1"",""2261""
","
","
","""event"",""trial"",""time""
""fullscreenenter"",""1"",""2261""
","
",,null,run_exp/static/images/task_images/land.jpg,null,,,,,,,100,,,4,,,,,,,,,,,,,,
dig,110,441425,0.0-38.0-3.0,"""event"",""trial"",""time""
""fullscreenenter"",""1"",""2261""
","
","
","""event"",""trial"",""time""
""fullscreenenter"",""1"",""2261""
","
",,,,,,,,,,,,"[{""stimulus"":""run_exp/static/images/task_images/dig.jpg"",""time"":0.09999999776482582},{""stimulus"":""run_exp/static/images/task_images/land.jpg"",""time"":671.5},{""stimulus"":""run_exp/static/images/task_images/dig.jpg"",""time"":1346.699999999255}]",[],4,,,,,,,,,,,,,,
harvest,111,442426,0.0-38.0-4.0,"""event"",""trial"",""time""
""fullscreenenter"",""1"",""2261""
","
","
","""event"",""trial"",""time""
""fullscreenenter"",""1"",""2261""
","
",,null,run_exp/static/images/task_images/gems/100.jpg,null,,,,,,,46,,,4,,,,,100,0.455192226,0.46,,,,,,,
decision,112,442564,0.0-38.0-5.0,"""event"",""trial"",""time""
""fullscreenenter"",""1"",""2261""
","
","
","""event"",""trial"",""time""
""fullscreenenter"",""1"",""2261""
","
",,137.3,run_exp/static/images/task_images/land.jpg,65,,,,,,,46,,,4,,,,,,,,88301,1,0,FALSE,,,
dig,113,445429,0.0-39.0-0.0,"""event"",""trial"",""time""
""fullscreenenter"",""1"",""2261""
","
","
","""event"",""trial"",""time""
""fullscreenenter"",""1"",""2261""
","
",,,,,,,,,,,,"[{""stimulus"":""run_exp/static/images/task_images/dig.jpg"",""time"":0},{""stimulus"":""run_exp/static/images/task_images/land.jpg"",""time"":967.3999999985099},{""stimulus"":""run_exp/static/images/task_images/dig.jpg"",""time"":1918}]",[],4,,,,,,,,,,,,,,
harvest,114,446438,0.0-39.0-1.0,"""event"",""trial"",""time""
""fullscreenenter"",""1"",""2261""
","
","
","""event"",""trial"",""time""
""fullscreenenter"",""1"",""2261""
","
",,null,run_exp/static/images/task_images/gems/46.jpg,null,,,,,,,20,,,4,,,,,46,0.42780306,0.434782609,,,,,,,
decision,115,446535,0.0-39.0-2.0,"""event"",""trial"",""time""
""fullscreenenter"",""1"",""2261""
","
","
","""event"",""trial"",""time""
""fullscreenenter"",""1"",""2261""
","
",,96.6,run_exp/static/images/task_images/land.jpg,65,,,,,,,20,,,4,,,,,,,,92272,1,1,FALSE,,,
dig,116,449451,0.0-40.0-0.0,"""event"",""trial"",""time""
""fullscreenenter"",""1"",""2261""
","
","
","""event"",""trial"",""time""
""fullscreenenter"",""1"",""2261""
","
",,,,,,,,,,,,"[{""stimulus"":""run_exp/static/images/task_images/dig.jpg"",""time"":0},{""stimulus"":""run_exp/static/images/task_images/land.jpg"",""time"":980.3000000007451},{""stimulus"":""run_exp/static/images/task_images/dig.jpg"",""time"":1947.2000000029802}]",[],4,,,,,,,,,,,,,,
harvest,117,450452,0.0-40.0-1.0,"""event"",""trial"",""time""
""fullscreenenter"",""1"",""2261""
","
","
","""event"",""trial"",""time""
""fullscreenenter"",""1"",""2261""
","
",,null,run_exp/static/images/task_images/gems/20.jpg,null,,,,,,,10,,,4,,,,,20,0.518629242,0.5,,,,,,,
decision,118,450838,0.0-40.0-2.0,"""event"",""trial"",""time""
""fullscreenenter"",""1"",""2261""
","
","
","""event"",""trial"",""time""
""fullscreenenter"",""1"",""2261""
","
",,384.6,run_exp/static/images/task_images/land.jpg,76,,,,,,,10,,,4,,,,,,,,96575,1,2,TRUE,,,
travel,119,460466,0.0-41.0-0.0,"""event"",""trial"",""time""
""fullscreenenter"",""1"",""2261""
","
","
","""event"",""trial"",""time""
""fullscreenenter"",""1"",""2261""
","
",,,,,,,,,,,,"[{""stimulus"":""run_exp/static/images/task_images/rocket-01.jpg"",""time"":0.10000000149011612},{""stimulus"":""run_exp/static/images/task_images/rocket-02.jpg"",""time"":1082},{""stimulus"":""run_exp/static/images/task_images/rocket-03.jpg"",""time"":2146.199999999255},{""stimulus"":""run_exp/static/images/task_images/rocket-04.jpg"",""time"":3209},{""stimulus"":""run_exp/static/images/task_images/rocket-05.jpg"",""time"":4286.800000000745},{""stimulus"":""run_exp/static/images/task_images/rocket-06.jpg"",""time"":5351.300000000745},{""stimulus"":""run_exp/static/images/task_images/rocket-07.jpg"",""time"":6410.5},{""stimulus"":""run_exp/static/images/task_images/rocket-08.jpg"",""time"":7485.10000000149},{""stimulus"":""run_exp/static/images/task_images/rocket-09.jpg"",""time"":8548.10000000149}]",[],4,,,,,,,,,,,,,,
alien_welcome,120,465470,0.0-41.0-1.0,"""event"",""trial"",""time""
""fullscreenenter"",""1"",""2261""
","
","
","""event"",""trial"",""time""
""fullscreenenter"",""1"",""2261""
","
",,null,run_exp/static/images/task_images/aliens/old_aliens/planet/alien_planet-35.jpg,null,,,,,,,,,,,,,35,"53,13,76,48,35,11,28,63,61,77,22,74,3,46,15,1,58,80,59,71,25,6,57,69,4,68,40,45,33,54,5,78,32,67,65,10,21,34,2,38",,,,,,,,,,
land,121,465985,0.0-41.0-2.0,"""event"",""trial"",""time""
""fullscreenenter"",""1"",""2261""
","
","
","""event"",""trial"",""time""
""fullscreenenter"",""1"",""2261""
","
",,null,run_exp/static/images/task_images/land.jpg,null,,,,,,,97,,,5,,,,,,,,,,,,,,
dig,122,468001,0.0-41.0-3.0,"""event"",""trial"",""time""
""fullscreenenter"",""1"",""2261""
","
","
","""event"",""trial"",""time""
""fullscreenenter"",""1"",""2261""
","
",,,,,,,,,,,,"[{""stimulus"":""run_exp/static/images/task_images/dig.jpg"",""time"":0.09999999776482582},{""stimulus"":""run_exp/static/images/task_images/land.jpg"",""time"":671.6999999992549},{""stimulus"":""run_exp/static/images/task_images/dig.jpg"",""time"":1340.8999999985099}]",[],5,,,,,,,,,,,,,,
harvest,123,469016,0.0-41.0-4.0,"""event"",""trial"",""time""
""fullscreenenter"",""1"",""2261""
","
","
","""event"",""trial"",""time""
""fullscreenenter"",""1"",""2261""
","
",,null,run_exp/static/images/task_images/gems/97.jpg,null,,,,,,,47,,,5,,,,,97,0.482876531,0.484536082,,,,,,,
decision,124,469076,0.0-41.0-5.0,"""event"",""trial"",""time""
""fullscreenenter"",""1"",""2261""
","
","
","""event"",""trial"",""time""
""fullscreenenter"",""1"",""2261""
","
",,60,run_exp/static/images/task_images/land.jpg,65,,,,,,,47,,,5,,,,,,,,114813,1,0,FALSE,,,
dig,125,472027,0.0-42.0-0.0,"""event"",""trial"",""time""
""fullscreenenter"",""1"",""2261""
","
","
","""event"",""trial"",""time""
""fullscreenenter"",""1"",""2261""
","
",,,,,,,,,,,,"[{""stimulus"":""run_exp/static/images/task_images/dig.jpg"",""time"":0},{""stimulus"":""run_exp/static/images/task_images/land.jpg"",""time"":988.1999999992549},{""stimulus"":""run_exp/static/images/task_images/dig.jpg"",""time"":1968.6000000014901}]",[],5,,,,,,,,,,,,,,
harvest,126,473029,0.0-42.0-1.0,"""event"",""trial"",""time""
""fullscreenenter"",""1"",""2261""
","
","
","""event"",""trial"",""time""
""fullscreenenter"",""1"",""2261""
","
",,null,run_exp/static/images/task_images/gems/47.jpg,null,,,,,,,21,,,5,,,,,47,0.438997705,0.446808511,,,,,,,
decision,127,473041,0.0-42.0-2.0,"""event"",""trial"",""time""
""fullscreenenter"",""1"",""2261""
","
","
","""event"",""trial"",""time""
""fullscreenenter"",""1"",""2261""
","
",,11.4,run_exp/static/images/task_images/land.jpg,65,,,,,,,21,,,5,,,,,,,,118778,1,1,FALSE,,,
dig,128,476044,0.0-43.0-0.0,"""event"",""trial"",""time""
""fullscreenenter"",""1"",""2261""
","
","
","""event"",""trial"",""time""
""fullscreenenter"",""1"",""2261""
","
",,,,,,,,,,,,"[{""stimulus"":""run_exp/static/images/task_images/dig.jpg"",""time"":0},{""stimulus"":""run_exp/static/images/task_images/land.jpg"",""time"":1005.1000000014901},{""stimulus"":""run_exp/static/images/task_images/dig.jpg"",""time"":2005.5}]",[],5,,,,,,,,,,,,,,
harvest,129,477047,0.0-43.0-1.0,"""event"",""trial"",""time""
""fullscreenenter"",""1"",""2261""
","
","
","""event"",""trial"",""time""
""fullscreenenter"",""1"",""2261""
","
",,null,run_exp/static/images/task_images/gems/21.jpg,null,,,,,,,11,,,5,,,,,21,0.541096335,0.523809524,,,,,,,
decision,130,477177,0.0-43.0-2.0,"""event"",""trial"",""time""
""fullscreenenter"",""1"",""2261""
","
","
","""event"",""trial"",""time""
""fullscreenenter"",""1"",""2261""
","
",,129.5,run_exp/static/images/task_images/land.jpg,65,,,,,,,11,,,5,,,,,,,,122914,1,2,FALSE,,,
dig,131,480056,0.0-44.0-0.0,"""event"",""trial"",""time""
""fullscreenenter"",""1"",""2261""
","
","
","""event"",""trial"",""time""
""fullscreenenter"",""1"",""2261""
","
",,,,,,,,,,,,"[{""stimulus"":""run_exp/static/images/task_images/dig.jpg"",""time"":0.09999999776482582},{""stimulus"":""run_exp/static/images/task_images/land.jpg"",""time"":958.8999999985099},{""stimulus"":""run_exp/static/images/task_images/dig.jpg"",""time"":1926.5}]",[],5,,,,,,,,,,,,,,
harvest,132,481070,0.0-44.0-1.0,"""event"",""trial"",""time""
""fullscreenenter"",""1"",""2261""
","
","
","""event"",""trial"",""time""
""fullscreenenter"",""1"",""2261""
","
",,null,run_exp/static/images/task_images/gems/11.jpg,null,,,,,,,6,,,5,,,,,11,0.549231424,0.545454545,,,,,,,
decision,133,481074,0.0-44.0-2.0,"""event"",""trial"",""time""
""fullscreenenter"",""1"",""2261""
","
","
","""event"",""trial"",""time""
""fullscreenenter"",""1"",""2261""
","
",,3,run_exp/static/images/task_images/land.jpg,76,,,,,,,6,,,5,,,,,,,,126811,1,3,TRUE,,,
travel,134,491074,0.0-45.0-0.0,"""event"",""trial"",""time""
""fullscreenenter"",""1"",""2261""
","
","
","""event"",""trial"",""time""
""fullscreenenter"",""1"",""2261""
","
",,,,,,,,,,,,"[{""stimulus"":""run_exp/static/images/task_images/rocket-01.jpg"",""time"":0.10000000149011612},{""stimulus"":""run_exp/static/images/task_images/rocket-02.jpg"",""time"":1115.300000000745},{""stimulus"":""run_exp/static/images/task_images/rocket-03.jpg"",""time"":2222.699999999255},{""stimulus"":""run_exp/static/images/task_images/rocket-04.jpg"",""time"":3332.10000000149},{""stimulus"":""run_exp/static/images/task_images/rocket-05.jpg"",""time"":4455.800000000745},{""stimulus"":""run_exp/static/images/task_images/rocket-06.jpg"",""time"":5557.5},{""stimulus"":""run_exp/static/images/task_images/rocket-07.jpg"",""time"":6674.60000000149},{""stimulus"":""run_exp/static/images/task_images/rocket-08.jpg"",""time"":7780.89999999851},{""stimulus"":""run_exp/static/images/task_images/rocket-09.jpg"",""time"":8890.89999999851}]",[],5,,,,,,,,,,,,,,
alien_welcome,135,496079,0.0-45.0-1.0,"""event"",""trial"",""time""
""fullscreenenter"",""1"",""2261""
","
","
","""event"",""trial"",""time""
""fullscreenenter"",""1"",""2261""
","
",,null,run_exp/static/images/task_images/aliens/old_aliens/planet/alien_planet-11.jpg,null,,,,,,,,,,,,,11,"53,13,76,48,35,11,28,63,61,77,22,74,3,46,15,1,58,80,59,71,25,6,57,69,4,68,40,45,33,54,5,78,32,67,65,10,21,34,2,38",,,,,,,,,,
land,136,496582,0.0-45.0-2.0,"""event"",""trial"",""time""
""fullscreenenter"",""1"",""2261""
","
","
","""event"",""trial"",""time""
""fullscreenenter"",""1"",""2261""
","
",,null,run_exp/static/images/task_images/land.jpg,null,,,,,,,102,,,6,,,,,,,,,,,,,,
dig,137,498598,0.0-45.0-3.0,"""event"",""trial"",""time""
""fullscreenenter"",""1"",""2261""
","
","
","""event"",""trial"",""time""
""fullscreenenter"",""1"",""2261""
","
",,,,,,,,,,,,"[{""stimulus"":""run_exp/static/images/task_images/dig.jpg"",""time"":0.20000000298023224},{""stimulus"":""run_exp/static/images/task_images/land.jpg"",""time"":672.9000000022352},{""stimulus"":""run_exp/static/images/task_images/dig.jpg"",""time"":1342.1000000014901}]",[],6,,,,,,,,,,,,,,
harvest,138,499609,0.0-45.0-4.0,"""event"",""trial"",""time""
""fullscreenenter"",""1"",""2261""
","
","
","""event"",""trial"",""time""
""fullscreenenter"",""1"",""2261""
","
",,null,run_exp/static/images/task_images/gems/102.jpg,null,,,,,,,77,,,6,,,,,102,0.751196362,0.754901961,,,,,,,
decision,139,499648,0.0-45.0-5.0,"""event"",""trial"",""time""
""fullscreenenter"",""1"",""2261""
","
","
","""event"",""trial"",""time""
""fullscreenenter"",""1"",""2261""
","
",,38.1,run_exp/static/images/task_images/land.jpg,65,,,,,,,77,,,6,,,,,,,,145385,1,0,FALSE,,,
dig,140,502625,0.0-46.0-0.0,"""event"",""trial"",""time""
""fullscreenenter"",""1"",""2261""
","
","
","""event"",""trial"",""time""
""fullscreenenter"",""1"",""2261""
","
",,,,,,,,,,,,"[{""stimulus"":""run_exp/static/images/task_images/dig.jpg"",""time"":0},{""stimulus"":""run_exp/static/images/task_images/land.jpg"",""time"":992},{""stimulus"":""run_exp/static/images/task_images/dig.jpg"",""time"":1975.3999999985099}]",[],6,,,,,,,,,,,,,,
harvest,141,503640,0.0-46.0-1.0,"""event"",""trial"",""time""
""fullscreenenter"",""1"",""2261""
","
","
","""event"",""trial"",""time""
""fullscreenenter"",""1"",""2261""
","
",,null,run_exp/static/images/task_images/gems/77.jpg,null,,,,,,,63,,,6,,,,,77,0.8229092,0.818181818,,,,,,,
decision,142,503770,0.0-46.0-2.0,"""event"",""trial"",""time""
""fullscreenenter"",""1"",""2261""
","
","
","""event"",""trial"",""time""
""fullscreenenter"",""1"",""2261""
","
",,129.6,run_exp/static/images/task_images/land.jpg,65,,,,,,,63,,,6,,,,,,,,149507,1,1,FALSE,,,
dig,143,506642,0.0-47.0-0.0,"""event"",""trial"",""time""
""fullscreenenter"",""1"",""2261""
","
","
","""event"",""trial"",""time""
""fullscreenenter"",""1"",""2261""
","
",,,,,,,,,,,,"[{""stimulus"":""run_exp/static/images/task_images/dig.jpg"",""time"":0},{""stimulus"":""run_exp/static/images/task_images/land.jpg"",""time"":964.6000000014901},{""stimulus"":""run_exp/static/images/task_images/dig.jpg"",""time"":1916.6000000014901}]",[],6,,,,,,,,,,,,,,
harvest,144,507644,0.0-47.0-1.0,"""event"",""trial"",""time""
""fullscreenenter"",""1"",""2261""
","
","
","""event"",""trial"",""time""
""fullscreenenter"",""1"",""2261""
","
",,null,run_exp/static/images/task_images/gems/63.jpg,null,,,,,,,46,,,6,,,,,63,0.737139865,0.73015873,,,,,,,
decision,145,507811,0.0-47.0-2.0,"""event"",""trial"",""time""
""fullscreenenter"",""1"",""2261""
","
","
","""event"",""trial"",""time""
""fullscreenenter"",""1"",""2261""
","
",,166.4,run_exp/static/images/task_images/land.jpg,65,,,,,,,46,,,6,,,,,,,,153548,1,2,FALSE,,,
dig,146,510654,0.0-48.0-0.0,"""event"",""trial"",""time""
""fullscreenenter"",""1"",""2261""
","
","
","""event"",""trial"",""time""
""fullscreenenter"",""1"",""2261""
","
",,,,,,,,,,,,"[{""stimulus"":""run_exp/static/images/task_images/dig.jpg"",""time"":0},{""stimulus"":""run_exp/static/images/task_images/land.jpg"",""time"":954},{""stimulus"":""run_exp/static/images/task_images/dig.jpg"",""time"":1900.800000000745}]",[],6,,,,,,,,,,,,,,
harvest,147,511664,0.0-48.0-1.0,"""event"",""trial"",""time""
""fullscreenenter"",""1"",""2261""
","
","
","""event"",""trial"",""time""
""fullscreenenter"",""1"",""2261""
","
",,null,run_exp/static/images/task_images/gems/46.jpg,null,,,,,,,36,,,6,,,,,46,0.787300037,0.782608696,,,,,,,
decision,148,511777,0.0-48.0-2.0,"""event"",""trial"",""time""
""fullscreenenter"",""1"",""2261""
","
","
","""event"",""trial"",""time""
""fullscreenenter"",""1"",""2261""
","
",,112.9,run_exp/static/images/task_images/land.jpg,65,,,,,,,36,,,6,,,,,,,,157514,1,3,FALSE,,,
dig,149,514672,0.0-49.0-0.0,"""event"",""trial"",""time""
""fullscreenenter"",""1"",""2261""
","
","
","""event"",""trial"",""time""
""fullscreenenter"",""1"",""2261""
","
",,,,,,,,,,,,"[{""stimulus"":""run_exp/static/images/task_images/dig.jpg"",""time"":0.19999999925494194},{""stimulus"":""run_exp/static/images/task_images/land.jpg"",""time"":971.8000000007451},{""stimulus"":""run_exp/static/images/task_images/dig.jpg"",""time"":1926.4000000022352}]",[],6,,,,,,,,,,,,,,
harvest,150,515674,0.0-49.0-1.0,"""event"",""trial"",""time""
""fullscreenenter"",""1"",""2261""
","
","
","""event"",""trial"",""time""
""fullscreenenter"",""1"",""2261""
","
",,null,run_exp/static/images/task_images/gems/36.jpg,null,,,,,,,30,,,6,,,,,36,0.845271728,0.833333333,,,,,,,
decision,151,515821,0.0-49.0-2.0,"""event"",""trial"",""time""
""fullscreenenter"",""1"",""2261""
","
","
","""event"",""trial"",""time""
""fullscreenenter"",""1"",""2261""
","
",,147.4,run_exp/static/images/task_images/land.jpg,65,,,,,,,30,,,6,,,,,,,,161558,1,4,FALSE,,,
dig,152,518682,0.0-50.0-0.0,"""event"",""trial"",""time""
""fullscreenenter"",""1"",""2261""
","
","
","""event"",""trial"",""time""
""fullscreenenter"",""1"",""2261""
","
",,,,,,,,,,,,"[{""stimulus"":""run_exp/static/images/task_images/dig.jpg"",""time"":0},{""stimulus"":""run_exp/static/images/task_images/land.jpg"",""time"":957.3000000007451},{""stimulus"":""run_exp/static/images/task_images/dig.jpg"",""time"":1909.199999999255}]",[],6,,,,,,,,,,,,,,
harvest,153,519697,0.0-50.0-1.0,"""event"",""trial"",""time""
""fullscreenenter"",""1"",""2261""
","
","
","""event"",""trial"",""time""
""fullscreenenter"",""1"",""2261""
","
",,null,run_exp/static/images/task_images/gems/30.jpg,null,,,,,,,25,,,6,,,,,30,0.843745071,0.833333333,,,,,,,
decision,154,519765,0.0-50.0-2.0,"""event"",""trial"",""time""
""fullscreenenter"",""1"",""2261""
","
","
","""event"",""trial"",""time""
""fullscreenenter"",""1"",""2261""
","
",,67.2,run_exp/static/images/task_images/land.jpg,65,,,,,,,25,,,6,,,,,,,,165502,1,5,FALSE,,,
dig,155,522699,0.0-51.0-0.0,"""event"",""trial"",""time""
""fullscreenenter"",""1"",""2261""
","
","
","""event"",""trial"",""time""
""fullscreenenter"",""1"",""2261""
","
",,,,,,,,,,,,"[{""stimulus"":""run_exp/static/images/task_images/dig.jpg"",""time"":0.10000000149011612},{""stimulus"":""run_exp/static/images/task_images/land.jpg"",""time"":979.8000000007451},{""stimulus"":""run_exp/static/images/task_images/dig.jpg"",""time"":1967.800000000745}]",[],6,,,,,,,,,,,,,,
harvest,156,523713,0.0-51.0-1.0,"""event"",""trial"",""time""
""fullscreenenter"",""1"",""2261""
","
","
","""event"",""trial"",""time""
""fullscreenenter"",""1"",""2261""
","
",,null,run_exp/static/images/task_images/gems/25.jpg,null,,,,,,,21,,,6,,,,,25,0.826173816,0.84,,,,,,,
decision,157,523746,0.0-51.0-2.0,"""event"",""trial"",""time""
""fullscreenenter"",""1"",""2261""
","
","
","""event"",""trial"",""time""
""fullscreenenter"",""1"",""2261""
","
",,33,run_exp/static/images/task_images/land.jpg,65,,,,,,,21,,,6,,,,,,,,169483,1,6,FALSE,,,
dig,158,526717,0.0-52.0-0.0,"""event"",""trial"",""time""
""fullscreenenter"",""1"",""2261""
","
","
","""event"",""trial"",""time""
""fullscreenenter"",""1"",""2261""
","
",,,,,,,,,,,,"[{""stimulus"":""run_exp/static/images/task_images/dig.jpg"",""time"":0.09999999776482582},{""stimulus"":""run_exp/static/images/task_images/land.jpg"",""time"":997.1999999992549},{""stimulus"":""run_exp/static/images/task_images/dig.jpg"",""time"":1982.3999999985099}]",[],6,,,,,,,,,,,,,,
harvest,159,527732,0.0-52.0-1.0,"""event"",""trial"",""time""
""fullscreenenter"",""1"",""2261""
","
","
","""event"",""trial"",""time""
""fullscreenenter"",""1"",""2261""
","
",,null,run_exp/static/images/task_images/gems/21.jpg,null,,,,,,,17,,,6,,,,,21,0.801232092,0.80952381,,,,,,,
decision,160,527864,0.0-52.0-2.0,"""event"",""trial"",""time""
""fullscreenenter"",""1"",""2261""
","
","
","""event"",""trial"",""time""
""fullscreenenter"",""1"",""2261""
","
",,131.5,run_exp/static/images/task_images/land.jpg,65,,,,,,,17,,,6,,,,,,,,173601,1,7,FALSE,,,
dig,161,530748,0.0-53.0-0.0,"""event"",""trial"",""time""
""fullscreenenter"",""1"",""2261""
","
","
","""event"",""trial"",""time""
""fullscreenenter"",""1"",""2261""
","
",,,,,,,,,,,,"[{""stimulus"":""run_exp/static/images/task_images/dig.jpg"",""time"":0},{""stimulus"":""run_exp/static/images/task_images/land.jpg"",""time"":960.3000000007451},{""stimulus"":""run_exp/static/images/task_images/dig.jpg"",""time"":1927.699999999255}]",[],6,,,,,,,,,,,,,,
harvest,162,531764,0.0-53.0-1.0,"""event"",""trial"",""time""
""fullscreenenter"",""1"",""2261""
","
","
","""event"",""trial"",""time""
""fullscreenenter"",""1"",""2261""
","
",,null,run_exp/static/images/task_images/gems/17.jpg,null,,,,,,,14,,,6,,,,,17,0.822486399,0.823529412,,,,,,,
decision,163,531887,0.0-53.0-2.0,"""event"",""trial"",""time""
""fullscreenenter"",""1"",""2261""
","
","
","""event"",""trial"",""time""
""fullscreenenter"",""1"",""2261""
","
",,122.4,run_exp/static/images/task_images/land.jpg,76,,,,,,,14,,,6,,,,,,,,177624,1,8,TRUE,,,
travel,164,541768,0.0-54.0-0.0,"""event"",""trial"",""time""
""fullscreenenter"",""1"",""2261""
","
","
","""event"",""trial"",""time""
""fullscreenenter"",""1"",""2261""
","
",,,,,,,,,,,,"[{""stimulus"":""run_exp/static/images/task_images/rocket-01.jpg"",""time"":0},{""stimulus"":""run_exp/static/images/task_images/rocket-02.jpg"",""time"":1109},{""stimulus"":""run_exp/static/images/task_images/rocket-03.jpg"",""time"":2202.5},{""stimulus"":""run_exp/static/images/task_images/rocket-04.jpg"",""time"":3294},{""stimulus"":""run_exp/static/images/task_images/rocket-05.jpg"",""time"":4401.60000000149},{""stimulus"":""run_exp/static/images/task_images/rocket-06.jpg"",""time"":5497.300000000745},{""stimulus"":""run_exp/static/images/task_images/rocket-07.jpg"",""time"":6590.60000000149},{""stimulus"":""run_exp/static/images/task_images/rocket-08.jpg"",""time"":7683.10000000149},{""stimulus"":""run_exp/static/images/task_images/rocket-09.jpg"",""time"":8785.800000000745}]",[],6,,,,,,,,,,,,,,
alien_welcome,165,546774,0.0-54.0-1.0,"""event"",""trial"",""time""
""fullscreenenter"",""1"",""2261""
","
","
","""event"",""trial"",""time""
""fullscreenenter"",""1"",""2261""
","
",,null,run_exp/static/images/task_images/aliens/old_aliens/planet/alien_planet-28.jpg,null,,,,,,,,,,,,,28,"53,13,76,48,35,11,28,63,61,77,22,74,3,46,15,1,58,80,59,71,25,6,57,69,4,68,40,45,33,54,5,78,32,67,65,10,21,34,2,38",,,,,,,,,,
land,166,547286,0.0-54.0-2.0,"""event"",""trial"",""time""
""fullscreenenter"",""1"",""2261""
","
","
","""event"",""trial"",""time""
""fullscreenenter"",""1"",""2261""
","
",,null,run_exp/static/images/task_images/land.jpg,null,,,,,,,98,,,7,,,,,,,,,,,,,,
dig,167,549292,0.0-54.0-3.0,"""event"",""trial"",""time""
""fullscreenenter"",""1"",""2261""
","
","
","""event"",""trial"",""time""
""fullscreenenter"",""1"",""2261""
","
",,,,,,,,,,,,"[{""stimulus"":""run_exp/static/images/task_images/dig.jpg"",""time"":0.19999999925494194},{""stimulus"":""run_exp/static/images/task_images/land.jpg"",""time"":675.7999999970198},{""stimulus"":""run_exp/static/images/task_images/dig.jpg"",""time"":1336.699999999255}]",[],7,,,,,,,,,,,,,,
harvest,168,550296,0.0-54.0-4.0,"""event"",""trial"",""time""
""fullscreenenter"",""1"",""2261""
","
","
","""event"",""trial"",""time""
""fullscreenenter"",""1"",""2261""
","
",,null,run_exp/static/images/task_images/gems/98.jpg,null,,,,,,,86,,,7,,,,,98,0.881293963,0.87755102,,,,,,,
decision,169,550466,0.0-54.0-5.0,"""event"",""trial"",""time""
""fullscreenenter"",""1"",""2261""
","
","
","""event"",""trial"",""time""
""fullscreenenter"",""1"",""2261""
","
",,169.1,run_exp/static/images/task_images/land.jpg,65,,,,,,,86,,,7,,,,,,,,196203,1,0,FALSE,,,
dig,170,553308,0.0-55.0-0.0,"""event"",""trial"",""time""
""fullscreenenter"",""1"",""2261""
","
","
","""event"",""trial"",""time""
""fullscreenenter"",""1"",""2261""
","
",,,,,,,,,,,,"[{""stimulus"":""run_exp/static/images/task_images/dig.jpg"",""time"":0.09999999776482582},{""stimulus"":""run_exp/static/images/task_images/land.jpg"",""time"":956.8999999985099},{""stimulus"":""run_exp/static/images/task_images/dig.jpg"",""time"":1891.2999999970198}]",[],7,,,,,,,,,,,,,,
harvest,171,554310,0.0-55.0-1.0,"""event"",""trial"",""time""
""fullscreenenter"",""1"",""2261""
","
","
","""event"",""trial"",""time""
""fullscreenenter"",""1"",""2261""
","
",,null,run_exp/static/images/task_images/gems/86.jpg,null,,,,,,,69,,,7,,,,,86,0.798664411,0.802325581,,,,,,,
decision,172,554393,0.0-55.0-2.0,"""event"",""trial"",""time""
""fullscreenenter"",""1"",""2261""
","
","
","""event"",""trial"",""time""
""fullscreenenter"",""1"",""2261""
","
",,82.6,run_exp/static/images/task_images/land.jpg,65,,,,,,,69,,,7,,,,,,,,200130,1,1,FALSE,,,
dig,173,557318,0.0-56.0-0.0,"""event"",""trial"",""time""
""fullscreenenter"",""1"",""2261""
","
","
","""event"",""trial"",""time""
""fullscreenenter"",""1"",""2261""
","
",,,,,,,,,,,,"[{""stimulus"":""run_exp/static/images/task_images/dig.jpg"",""time"":0.09999999776482582},{""stimulus"":""run_exp/static/images/task_images/land.jpg"",""time"":977},{""stimulus"":""run_exp/static/images/task_images/dig.jpg"",""time"":1950.0999999977648}]",[],7,,,,,,,,,,,,,,
harvest,174,558331,0.0-56.0-1.0,"""event"",""trial"",""time""
""fullscreenenter"",""1"",""2261""
","
","
","""event"",""trial"",""time""
""fullscreenenter"",""1"",""2261""
","
",,null,run_exp/static/images/task_images/gems/69.jpg,null,,,,,,,52,,,7,,,,,69,0.756879192,0.753623188,,,,,,,
decision,175,558459,0.0-56.0-2.0,"""event"",""trial"",""time""
""fullscreenenter"",""1"",""2261""
","
","
","""event"",""trial"",""time""
""fullscreenenter"",""1"",""2261""
","
",,127.2,run_exp/static/images/task_images/land.jpg,65,,,,,,,52,,,7,,,,,,,,204196,1,2,FALSE,,,
dig,176,561345,0.0-57.0-0.0,"""event"",""trial"",""time""
""fullscreenenter"",""1"",""2261""
","
","
","""event"",""trial"",""time""
""fullscreenenter"",""1"",""2261""
","
",,,,,,,,,,,,"[{""stimulus"":""run_exp/static/images/task_images/dig.jpg"",""time"":0.10000000149011612},{""stimulus"":""run_exp/static/images/task_images/land.jpg"",""time"":960},{""stimulus"":""run_exp/static/images/task_images/dig.jpg"",""time"":1930.1000000014901}]",[],7,,,,,,,,,,,,,,
harvest,177,562347,0.0-57.0-1.0,"""event"",""trial"",""time""
""fullscreenenter"",""1"",""2261""
","
","
","""event"",""trial"",""time""
""fullscreenenter"",""1"",""2261""
","
",,null,run_exp/static/images/task_images/gems/52.jpg,null,,,,,,,43,,,7,,,,,52,0.824591325,0.826923077,,,,,,,
decision,178,562498,0.0-57.0-2.0,"""event"",""trial"",""time""
""fullscreenenter"",""1"",""2261""
","
","
","""event"",""trial"",""time""
""fullscreenenter"",""1"",""2261""
","
",,150.3,run_exp/static/images/task_images/land.jpg,65,,,,,,,43,,,7,,,,,,,,208235,1,3,FALSE,,,
dig,179,565347,0.0-58.0-0.0,"""event"",""trial"",""time""
""fullscreenenter"",""1"",""2261""
","
","
","""event"",""trial"",""time""
""fullscreenenter"",""1"",""2261""
","
",,,,,,,,,,,,"[{""stimulus"":""run_exp/static/images/task_images/dig.jpg"",""time"":0},{""stimulus"":""run_exp/static/images/task_images/land.jpg"",""time"":954.3999999985099},{""stimulus"":""run_exp/static/images/task_images/dig.jpg"",""time"":1911.699999999255}]",[],7,,,,,,,,,,,,,,
harvest,180,566360,0.0-58.0-1.0,"""event"",""trial"",""time""
""fullscreenenter"",""1"",""2261""
","
","
","""event"",""trial"",""time""
""fullscreenenter"",""1"",""2261""
","
",,null,run_exp/static/images/task_images/gems/43.jpg,null,,,,,,,34,,,7,,,,,43,0.79746409,0.790697674,,,,,,,
decision,181,566476,0.0-58.0-2.0,"""event"",""trial"",""time""
""fullscreenenter"",""1"",""2261""
","
","
","""event"",""trial"",""time""
""fullscreenenter"",""1"",""2261""
","
",,115.5,run_exp/static/images/task_images/land.jpg,65,,,,,,,34,,,7,,,,,,,,212213,1,4,FALSE,,,
dig,182,569372,0.0-59.0-0.0,"""event"",""trial"",""time""
""fullscreenenter"",""1"",""2261""
","
","
","""event"",""trial"",""time""
""fullscreenenter"",""1"",""2261""
","
",,,,,,,,,,,,"[{""stimulus"":""run_exp/static/images/task_images/dig.jpg"",""time"":0.09999999776482582},{""stimulus"":""run_exp/static/images/task_images/land.jpg"",""time"":974.5999999977648},{""stimulus"":""run_exp/static/images/task_images/dig.jpg"",""time"":1928}]",[],7,,,,,,,,,,,,,,
harvest,183,570374,0.0-59.0-1.0,"""event"",""trial"",""time""
""fullscreenenter"",""1"",""2261""
","
","
","""event"",""trial"",""time""
""fullscreenenter"",""1"",""2261""
","
",,null,run_exp/static/images/task_images/gems/34.jpg,null,,,,,,,27,,,7,,,,,34,0.803234182,0.794117647,,,,,,,
decision,184,570379,0.0-59.0-2.0,"""event"",""trial"",""time""
""fullscreenenter"",""1"",""2261""
","
","
","""event"",""trial"",""time""
""fullscreenenter"",""1"",""2261""
","
",,4,run_exp/static/images/task_images/land.jpg,65,,,,,,,27,,,7,,,,,,,,216116,1,5,FALSE,,,
dig,185,573389,0.0-60.0-0.0,"""event"",""trial"",""time""
""fullscreenenter"",""1"",""2261""
","
","
","""event"",""trial"",""time""
""fullscreenenter"",""1"",""2261""
","
",,,,,,,,,,,,"[{""stimulus"":""run_exp/static/images/task_images/dig.jpg"",""time"":0.09999999776482582},{""stimulus"":""run_exp/static/images/task_images/land.jpg"",""time"":1013.3999999985099},{""stimulus"":""run_exp/static/images/task_images/dig.jpg"",""time"":1997.7999999970198}]",[],7,,,,,,,,,,,,,,
harvest,186,574390,0.0-60.0-1.0,"""event"",""trial"",""time""
""fullscreenenter"",""1"",""2261""
","
","
","""event"",""trial"",""time""
""fullscreenenter"",""1"",""2261""
","
",,null,run_exp/static/images/task_images/gems/27.jpg,null,,,,,,,23,,,7,,,,,27,0.859501211,0.851851852,,,,,,,
decision,187,574452,0.0-60.0-2.0,"""event"",""trial"",""time""
""fullscreenenter"",""1"",""2261""
","
","
","""event"",""trial"",""time""
""fullscreenenter"",""1"",""2261""
","
",,61.3,run_exp/static/images/task_images/land.jpg,65,,,,,,,23,,,7,,,,,,,,220189,1,6,FALSE,,,
dig,188,577405,0.0-61.0-0.0,"""event"",""trial"",""time""
""fullscreenenter"",""1"",""2261""
","
","
","""event"",""trial"",""time""
""fullscreenenter"",""1"",""2261""
","
",,,,,,,,,,,,"[{""stimulus"":""run_exp/static/images/task_images/dig.jpg"",""time"":0.10000000149011612},{""stimulus"":""run_exp/static/images/task_images/land.jpg"",""time"":985.3999999985099},{""stimulus"":""run_exp/static/images/task_images/dig.jpg"",""time"":1972.5}]",[],7,,,,,,,,,,,,,,
harvest,189,578407,0.0-61.0-1.0,"""event"",""trial"",""time""
""fullscreenenter"",""1"",""2261""
","
","
","""event"",""trial"",""time""
""fullscreenenter"",""1"",""2261""
","
",,null,run_exp/static/images/task_images/gems/23.jpg,null,,,,,,,20,,,7,,,,,23,0.88344791,0.869565217,,,,,,,
decision,190,578503,0.0-61.0-2.0,"""event"",""trial"",""time""
""fullscreenenter"",""1"",""2261""
","
","
","""event"",""trial"",""time""
""fullscreenenter"",""1"",""2261""
","
",,95.2,run_exp/static/images/task_images/land.jpg,65,,,,,,,20,,,7,,,,,,,,224240,1,7,FALSE,,,
dig,191,581420,0.0-62.0-0.0,"""event"",""trial"",""time""
""fullscreenenter"",""1"",""2261""
","
","
","""event"",""trial"",""time""
""fullscreenenter"",""1"",""2261""
","
",,,,,,,,,,,,"[{""stimulus"":""run_exp/static/images/task_images/dig.jpg"",""time"":0},{""stimulus"":""run_exp/static/images/task_images/land.jpg"",""time"":983.9000000022352},{""stimulus"":""run_exp/static/images/task_images/dig.jpg"",""time"":1952.5}]",[],7,,,,,,,,,,,,,,
harvest,192,582435,0.0-62.0-1.0,"""event"",""trial"",""time""
""fullscreenenter"",""1"",""2261""
","
","
","""event"",""trial"",""time""
""fullscreenenter"",""1"",""2261""
","
",,null,run_exp/static/images/task_images/gems/20.jpg,null,,,,,,,15,,,7,,,,,20,0.762750181,0.75,,,,,,,
decision,193,582562,0.0-62.0-2.0,"""event"",""trial"",""time""
""fullscreenenter"",""1"",""2261""
","
","
","""event"",""trial"",""time""
""fullscreenenter"",""1"",""2261""
","
",,126.2,run_exp/static/images/task_images/land.jpg,76,,,,,,,15,,,7,,,,,,,,228299,1,8,TRUE,,,
travel,194,592439,0.0-63.0-0.0,"""event"",""trial"",""time""
""fullscreenenter"",""1"",""2261""
","
","
","""event"",""trial"",""time""
""fullscreenenter"",""1"",""2261""
","
",,,,,,,,,,,,"[{""stimulus"":""run_exp/static/images/task_images/rocket-01.jpg"",""time"":0},{""stimulus"":""run_exp/static/images/task_images/rocket-02.jpg"",""time"":1110.6000000014901},{""stimulus"":""run_exp/static/images/task_images/rocket-03.jpg"",""time"":2204.5},{""stimulus"":""run_exp/static/images/task_images/rocket-04.jpg"",""time"":3296.800000000745},{""stimulus"":""run_exp/static/images/task_images/rocket-05.jpg"",""time"":4391.60000000149},{""stimulus"":""run_exp/static/images/task_images/rocket-06.jpg"",""time"":5485.60000000149},{""stimulus"":""run_exp/static/images/task_images/rocket-07.jpg"",""time"":6595.60000000149},{""stimulus"":""run_exp/static/images/task_images/rocket-08.jpg"",""time"":7683.70000000298},{""stimulus"":""run_exp/static/images/task_images/rocket-09.jpg"",""time"":8781.70000000298}]",[],7,,,,,,,,,,,,,,
alien_welcome,195,597447,0.0-63.0-1.0,"""event"",""trial"",""time""
""fullscreenenter"",""1"",""2261""
","
","
","""event"",""trial"",""time""
""fullscreenenter"",""1"",""2261""
","
",,null,run_exp/static/images/task_images/aliens/old_aliens/planet/alien_planet-63.jpg,null,,,,,,,,,,,,,63,"53,13,76,48,35,11,28,63,61,77,22,74,3,46,15,1,58,80,59,71,25,6,57,69,4,68,40,45,33,54,5,78,32,67,65,10,21,34,2,38",,,,,,,,,,
land,196,597951,0.0-63.0-2.0,"""event"",""trial"",""time""
""fullscreenenter"",""1"",""2261""
","
","
","""event"",""trial"",""time""
""fullscreenenter"",""1"",""2261""
","
",,null,run_exp/static/images/task_images/land.jpg,null,,,,,,,106,,,8,,,,,,,,,,,,,,
dig,197,599961,0.0-63.0-3.0,"""event"",""trial"",""time""
""fullscreenenter"",""1"",""2261""
","
","
","""event"",""trial"",""time""
""fullscreenenter"",""1"",""2261""
","
",,,,,,,,,,,,"[{""stimulus"":""run_exp/static/images/task_images/dig.jpg"",""time"":0.19999999925494194},{""stimulus"":""run_exp/static/images/task_images/land.jpg"",""time"":668.1000000014901},{""stimulus"":""run_exp/static/images/task_images/dig.jpg"",""time"":1335.6000000014901}]",[],8,,,,,,,,,,,,,,
harvest,198,600964,0.0-63.0-4.0,"""event"",""trial"",""time""
""fullscreenenter"",""1"",""2261""
","
","
","""event"",""trial"",""time""
""fullscreenenter"",""1"",""2261""
","
",,null,run_exp/static/images/task_images/gems/106.jpg,null,,,,,,,75,,,8,,,,,106,0.705244371,0.70754717,,,,,,,
decision,199,601020,0.0-63.0-5.0,"""event"",""trial"",""time""
""fullscreenenter"",""1"",""2261""
","
","
","""event"",""trial"",""time""
""fullscreenenter"",""1"",""2261""
","
",,56.4,run_exp/static/images/task_images/land.jpg,65,,,,,,,75,,,8,,,,,,,,246757,1,0,FALSE,,,
dig,200,603970,0.0-64.0-0.0,"""event"",""trial"",""time""
""fullscreenenter"",""1"",""2261""
","
","
","""event"",""trial"",""time""
""fullscreenenter"",""1"",""2261""
","
",,,,,,,,,,,,"[{""stimulus"":""run_exp/static/images/task_images/dig.jpg"",""time"":0},{""stimulus"":""run_exp/static/images/task_images/land.jpg"",""time"":992.8999999985099},{""stimulus"":""run_exp/static/images/task_images/dig.jpg"",""time"":1966.5}]",[],8,,,,,,,,,,,,,,
harvest,201,604985,0.0-64.0-1.0,"""event"",""trial"",""time""
""fullscreenenter"",""1"",""2261""
","
","
","""event"",""trial"",""time""
""fullscreenenter"",""1"",""2261""
","
",,null,run_exp/static/images/task_images/gems/75.jpg,null,,,,,,,59,,,8,,,,,75,0.788083249,0.786666667,,,,,,,
decision,202,605145,0.0-64.0-2.0,"""event"",""trial"",""time""
""fullscreenenter"",""1"",""2261""
","
","
","""event"",""trial"",""time""
""fullscreenenter"",""1"",""2261""
","
",,160,run_exp/static/images/task_images/land.jpg,65,,,,,,,59,,,8,,,,,,,,250883,1,1,FALSE,,,
dig,203,607987,0.0-65.0-0.0,"""event"",""trial"",""time""
""fullscreenenter"",""1"",""2261""
","
","
","""event"",""trial"",""time""
""fullscreenenter"",""1"",""2261""
","
",,,,,,,,,,,,"[{""stimulus"":""run_exp/static/images/task_images/dig.jpg"",""time"":0},{""stimulus"":""run_exp/static/images/task_images/land.jpg"",""time"":948.7999999970198},{""stimulus"":""run_exp/static/images/task_images/dig.jpg"",""time"":1899}]",[],8,,,,,,,,,,,,,,
harvest,204,609000,0.0-65.0-1.0,"""event"",""trial"",""time""
""fullscreenenter"",""1"",""2261""
","
","
","""event"",""trial"",""time""
""fullscreenenter"",""1"",""2261""
","
",,null,run_exp/static/images/task_images/gems/59.jpg,null,,,,,,,48,,,8,,,,,59,0.818259886,0.813559322,,,,,,,
decision,205,609136,0.0-65.0-2.0,"""event"",""trial"",""time""
""fullscreenenter"",""1"",""2261""
","
","
","""event"",""trial"",""time""
""fullscreenenter"",""1"",""2261""
","
",,135.6,run_exp/static/images/task_images/land.jpg,65,,,,,,,48,,,8,,,,,,,,254873,1,2,FALSE,,,
dig,206,612001,0.0-66.0-0.0,"""event"",""trial"",""time""
""fullscreenenter"",""1"",""2261""
","
","
","""event"",""trial"",""time""
""fullscreenenter"",""1"",""2261""
","
",,,,,,,,,,,,"[{""stimulus"":""run_exp/static/images/task_images/dig.jpg"",""time"":0},{""stimulus"":""run_exp/static/images/task_images/land.jpg"",""time"":958.1999999992549},{""stimulus"":""run_exp/static/images/task_images/dig.jpg"",""time"":1915.5}]",[],8,,,,,,,,,,,,,,
harvest,207,613015,0.0-66.0-1.0,"""event"",""trial"",""time""
""fullscreenenter"",""1"",""2261""
","
","
","""event"",""trial"",""time""
""fullscreenenter"",""1"",""2261""
","
",,null,run_exp/static/images/task_images/gems/48.jpg,null,,,,,,,43,,,8,,,,,48,0.888547522,0.895833333,,,,,,,
decision,208,613158,0.0-66.0-2.0,"""event"",""trial"",""time""
""fullscreenenter"",""1"",""2261""
","
","
","""event"",""trial"",""time""
""fullscreenenter"",""1"",""2261""
","
",,142.1,run_exp/static/images/task_images/land.jpg,65,,,,,,,43,,,8,,,,,,,,258895,1,3,FALSE,,,
dig,209,616025,0.0-67.0-0.0,"""event"",""trial"",""time""
""fullscreenenter"",""1"",""2261""
","
","
","""event"",""trial"",""time""
""fullscreenenter"",""1"",""2261""
","
",,,,,,,,,,,,"[{""stimulus"":""run_exp/static/images/task_images/dig.jpg"",""time"":0},{""stimulus"":""run_exp/static/images/task_images/land.jpg"",""time"":955.2999999970198},{""stimulus"":""run_exp/static/images/task_images/dig.jpg"",""time"":1907.5999999977648}]",[],8,,,,,,,,,,,,,,
harvest,210,617028,0.0-67.0-1.0,"""event"",""trial"",""time""
""fullscreenenter"",""1"",""2261""
","
","
","""event"",""trial"",""time""
""fullscreenenter"",""1"",""2261""
","
",,null,run_exp/static/images/task_images/gems/43.jpg,null,,,,,,,28,,,8,,,,,43,0.641337442,0.651162791,,,,,,,
decision,211,617054,0.0-67.0-2.0,"""event"",""trial"",""time""
""fullscreenenter"",""1"",""2261""
","
","
","""event"",""trial"",""time""
""fullscreenenter"",""1"",""2261""
","
",,24.8,run_exp/static/images/task_images/land.jpg,65,,,,,,,28,,,8,,,,,,,,262791,1,4,FALSE,,,
dig,212,620032,0.0-68.0-0.0,"""event"",""trial"",""time""
""fullscreenenter"",""1"",""2261""
","
","
","""event"",""trial"",""time""
""fullscreenenter"",""1"",""2261""
","
",,,,,,,,,,,,"[{""stimulus"":""run_exp/static/images/task_images/dig.jpg"",""time"":0.10000000149011612},{""stimulus"":""run_exp/static/images/task_images/land.jpg"",""time"":1005.5},{""stimulus"":""run_exp/static/images/task_images/dig.jpg"",""time"":1990.5}]",[],8,,,,,,,,,,,,,,
harvest,213,621046,0.0-68.0-1.0,"""event"",""trial"",""time""
""fullscreenenter"",""1"",""2261""
","
","
","""event"",""trial"",""time""
""fullscreenenter"",""1"",""2261""
","
",,null,run_exp/static/images/task_images/gems/28.jpg,null,,,,,,,24,,,8,,,,,28,0.84366234,0.857142857,,,,,,,
decision,214,621109,0.0-68.0-2.0,"""event"",""trial"",""time""
""fullscreenenter"",""1"",""2261""
","
","
","""event"",""trial"",""time""
""fullscreenenter"",""1"",""2261""
","
",,62.2,run_exp/static/images/task_images/land.jpg,65,,,,,,,24,,,8,,,,,,,,266846,1,5,FALSE,,,
dig,215,624058,0.0-69.0-0.0,"""event"",""trial"",""time""
""fullscreenenter"",""1"",""2261""
","
","
","""event"",""trial"",""time""
""fullscreenenter"",""1"",""2261""
","
",,,,,,,,,,,,"[{""stimulus"":""run_exp/static/images/task_images/dig.jpg"",""time"":0.10000000149011612},{""stimulus"":""run_exp/static/images/task_images/land.jpg"",""time"":990.8999999985099},{""stimulus"":""run_exp/static/images/task_images/dig.jpg"",""time"":1961.300000000745}]",[],8,,,,,,,,,,,,,,
harvest,216,625073,0.0-69.0-1.0,"""event"",""trial"",""time""
""fullscreenenter"",""1"",""2261""
","
","
","""event"",""trial"",""time""
""fullscreenenter"",""1"",""2261""
","
",,null,run_exp/static/images/task_images/gems/24.jpg,null,,,,,,,20,,,8,,,,,24,0.824648724,0.833333333,,,,,,,
decision,217,625206,0.0-69.0-2.0,"""event"",""trial"",""time""
""fullscreenenter"",""1"",""2261""
","
","
","""event"",""trial"",""time""
""fullscreenenter"",""1"",""2261""
","
",,132.4,run_exp/static/images/task_images/land.jpg,65,,,,,,,20,,,8,,,,,,,,270943,1,6,FALSE,,,
dig,218,628078,0.0-70.0-0.0,"""event"",""trial"",""time""
""fullscreenenter"",""1"",""2261""
","
","
","""event"",""trial"",""time""
""fullscreenenter"",""1"",""2261""
","
",,,,,,,,,,,,"[{""stimulus"":""run_exp/static/images/task_images/dig.jpg"",""time"":0.10000000149011612},{""stimulus"":""run_exp/static/images/task_images/land.jpg"",""time"":959.6999999992549},{""stimulus"":""run_exp/static/images/task_images/dig.jpg"",""time"":1920.300000000745}]",[],8,,,,,,,,,,,,,,
harvest,219,629080,0.0-70.0-1.0,"""event"",""trial"",""time""
""fullscreenenter"",""1"",""2261""
","
","
","""event"",""trial"",""time""
""fullscreenenter"",""1"",""2261""
","
",,null,run_exp/static/images/task_images/gems/20.jpg,null,,,,,,,15,,,8,,,,,20,0.749583473,0.75,,,,,,,
decision,220,629106,0.0-70.0-2.0,"""event"",""trial"",""time""
""fullscreenenter"",""1"",""2261""
","
","
","""event"",""trial"",""time""
""fullscreenenter"",""1"",""2261""
","
",,25.3,run_exp/static/images/task_images/land.jpg,65,,,,,,,15,,,8,,,,,,,,274843,1,7,FALSE,,,
dig,221,632086,0.0-71.0-0.0,"""event"",""trial"",""time""
""fullscreenenter"",""1"",""2261""
","
","
","""event"",""trial"",""time""
""fullscreenenter"",""1"",""2261""
","
",,,,,,,,,,,,"[{""stimulus"":""run_exp/static/images/task_images/dig.jpg"",""time"":0.19999999925494194},{""stimulus"":""run_exp/static/images/task_images/land.jpg"",""time"":1006.8999999985099},{""stimulus"":""run_exp/static/images/task_images/dig.jpg"",""time"":1994.699999999255}]",[],8,,,,,,,,,,,,,,
harvest,222,633094,0.0-71.0-1.0,"""event"",""trial"",""time""
""fullscreenenter"",""1"",""2261""
","
","
","""event"",""trial"",""time""
""fullscreenenter"",""1"",""2261""
","
",,null,run_exp/static/images/task_images/gems/15.jpg,null,,,,,,,14,,,8,,,,,15,0.920120232,0.933333333,,,,,,,
decision,223,633265,0.0-71.0-2.0,"""event"",""trial"",""time""
""fullscreenenter"",""1"",""2261""
","
","
","""event"",""trial"",""time""
""fullscreenenter"",""1"",""2261""
","
",,170.7,run_exp/static/images/task_images/land.jpg,76,,,,,,,14,,,8,,,,,,,,279002,1,8,TRUE,,,
travel,224,643096,0.0-72.0-0.0,"""event"",""trial"",""time""
""fullscreenenter"",""1"",""2261""
","
","
","""event"",""trial"",""time""
""fullscreenenter"",""1"",""2261""
","
",,,,,,,,,,,,"[{""stimulus"":""run_exp/static/images/task_images/rocket-01.jpg"",""time"":0.09999999776482582},{""stimulus"":""run_exp/static/images/task_images/rocket-02.jpg"",""time"":1107.300000000745},{""stimulus"":""run_exp/static/images/task_images/rocket-03.jpg"",""time"":2189.5},{""stimulus"":""run_exp/static/images/task_images/rocket-04.jpg"",""time"":3290.39999999851},{""stimulus"":""run_exp/static/images/task_images/rocket-05.jpg"",""time"":4373.89999999851},{""stimulus"":""run_exp/static/images/task_images/rocket-06.jpg"",""time"":5471.699999999255},{""stimulus"":""run_exp/static/images/task_images/rocket-07.jpg"",""time"":6567.599999997765},{""stimulus"":""run_exp/static/images/task_images/rocket-08.jpg"",""time"":7657.39999999851},{""stimulus"":""run_exp/static/images/task_images/rocket-09.jpg"",""time"":8752.5}]",[],8,,,,,,,,,,,,,,
alien_welcome,225,648101,0.0-72.0-1.0,"""event"",""trial"",""time""
""fullscreenenter"",""1"",""2261""
","
","
","""event"",""trial"",""time""
""fullscreenenter"",""1"",""2261""
","
",,null,run_exp/static/images/task_images/aliens/old_aliens/planet/alien_planet-61.jpg,null,,,,,,,,,,,,,61,"53,13,76,48,35,11,28,63,61,77,22,74,3,46,15,1,58,80,59,71,25,6,57,69,4,68,40,45,33,54,5,78,32,67,65,10,21,34,2,38",,,,,,,,,,
land,226,648617,0.0-72.0-2.0,"""event"",""trial"",""time""
""fullscreenenter"",""1"",""2261""
","
","
","""event"",""trial"",""time""
""fullscreenenter"",""1"",""2261""
","
",,null,run_exp/static/images/task_images/land.jpg,null,,,,,,,98,,,9,,,,,,,,,,,,,,
dig,227,650619,0.0-72.0-3.0,"""event"",""trial"",""time""
""fullscreenenter"",""1"",""2261""
","
","
","""event"",""trial"",""time""
""fullscreenenter"",""1"",""2261""
","
",,,,,,,,,,,,"[{""stimulus"":""run_exp/static/images/task_images/dig.jpg"",""time"":0.09999999776482582},{""stimulus"":""run_exp/static/images/task_images/land.jpg"",""time"":672.0999999977648},{""stimulus"":""run_exp/static/images/task_images/dig.jpg"",""time"":1343.5999999977648}]",[],9,,,,,,,,,,,,,,
harvest,228,651620,0.0-72.0-4.0,"""event"",""trial"",""time""
""fullscreenenter"",""1"",""2261""
","
","
","""event"",""trial"",""time""
""fullscreenenter"",""1"",""2261""
","
",,null,run_exp/static/images/task_images/gems/98.jpg,null,,,,,,,18,,,9,,,,,98,0.178650873,0.183673469,,,,,,,
decision,229,651765,0.0-72.0-5.0,"""event"",""trial"",""time""
""fullscreenenter"",""1"",""2261""
","
","
","""event"",""trial"",""time""
""fullscreenenter"",""1"",""2261""
","
",,144.2,run_exp/static/images/task_images/land.jpg,65,,,,,,,18,,,9,,,,,,,,297502,1,0,FALSE,,,
dig,230,654623,0.0-73.0-0.0,"""event"",""trial"",""time""
""fullscreenenter"",""1"",""2261""
","
","
","""event"",""trial"",""time""
""fullscreenenter"",""1"",""2261""
","
",,,,,,,,,,,,"[{""stimulus"":""run_exp/static/images/task_images/dig.jpg"",""time"":0.09999999776482582},{""stimulus"":""run_exp/static/images/task_images/land.jpg"",""time"":962.6999999992549},{""stimulus"":""run_exp/static/images/task_images/dig.jpg"",""time"":1918.699999999255}]",[],9,,,,,,,,,,,,,,
harvest,231,655624,0.0-73.0-1.0,"""event"",""trial"",""time""
""fullscreenenter"",""1"",""2261""
","
","
","""event"",""trial"",""time""
""fullscreenenter"",""1"",""2261""
","
",,null,run_exp/static/images/task_images/gems/18.jpg,null,,,,,,,4,,,9,,,,,18,0.217512676,0.222222222,,,,,,,
decision,232,655741,0.0-73.0-2.0,"""event"",""trial"",""time""
""fullscreenenter"",""1"",""2261""
","
","
","""event"",""trial"",""time""
""fullscreenenter"",""1"",""2261""
","
",,116.2,run_exp/static/images/task_images/land.jpg,76,,,,,,,4,,,9,,,,,,,,301478,1,1,TRUE,,,
end_of_block_continue,233,659078,0.0-74.0-0.0,"""event"",""trial"",""time""
""fullscreenenter"",""1"",""2261""
","
","
","""event"",""trial"",""time""
""fullscreenenter"",""1"",""2261""
","
",,3335.4,run_exp/static/audio/clip_32_block_end.m4a,,,,,,,0,,,,,,,,,,,,,,,,,,
alien_welcome,234,664090,0.0-75.0-0.0,"""event"",""trial"",""time""
""fullscreenenter"",""1"",""2261""
","
","
","""event"",""trial"",""time""
""fullscreenenter"",""1"",""2261""
","
",,null,run_exp/static/images/task_images/aliens/old_aliens/planet/alien_planet-77.jpg,null,,,,,,,,,,,,,77,"53,13,76,48,35,11,28,63,61,77,22,74,3,46,15,1,58,80,59,71,25,6,57,69,4,68,40,45,33,54,5,78,32,67,65,10,21,34,2,38",,,,,,,,,,
land,235,664591,0.0-75.0-1.0,"""event"",""trial"",""time""
""fullscreenenter"",""1"",""2261""
","
","
","""event"",""trial"",""time""
""fullscreenenter"",""1"",""2261""
","
",,null,run_exp/static/images/task_images/land.jpg,null,,,,,,,86,,,10,,,,,,,,,,,,,,
dig,236,666598,0.0-75.0-2.0,"""event"",""trial"",""time""
""fullscreenenter"",""1"",""2261""
","
","
","""event"",""trial"",""time""
""fullscreenenter"",""1"",""2261""
","
",,,,,,,,,,,,"[{""stimulus"":""run_exp/static/images/task_images/dig.jpg"",""time"":0.19999999925494194},{""stimulus"":""run_exp/static/images/task_images/land.jpg"",""time"":675.5},{""stimulus"":""run_exp/static/images/task_images/dig.jpg"",""time"":1336.5}]",[],10,,,,,,,,,,,,,,
harvest,237,667612,0.0-75.0-3.0,"""event"",""trial"",""time""
""fullscreenenter"",""1"",""2261""
","
","
","""event"",""trial"",""time""
""fullscreenenter"",""1"",""2261""
","
",,null,run_exp/static/images/task_images/gems/86.jpg,null,,,,,,,9,,,10,,,,,86,0.108881867,0.104651163,,,,,,,
decision,238,667686,0.0-75.0-4.0,"""event"",""trial"",""time""
""fullscreenenter"",""1"",""2261""
","
","
","""event"",""trial"",""time""
""fullscreenenter"",""1"",""2261""
","
",,73.2,run_exp/static/images/task_images/land.jpg,65,,,,,,,9,,,10,,,,,,,,8608,2,0,FALSE,,,
dig,239,670625,0.0-76.0-0.0,"""event"",""trial"",""time""
""fullscreenenter"",""1"",""2261""
","
","
","""event"",""trial"",""time""
""fullscreenenter"",""1"",""2261""
","
",,,,,,,,,,,,"[{""stimulus"":""run_exp/static/images/task_images/dig.jpg"",""time"":0},{""stimulus"":""run_exp/static/images/task_images/land.jpg"",""time"":980.2000000029802},{""stimulus"":""run_exp/static/images/task_images/dig.jpg"",""time"":1952.2000000029802}]",[],10,,,,,,,,,,,,,,
harvest,240,671629,0.0-76.0-1.0,"""event"",""trial"",""time""
""fullscreenenter"",""1"",""2261""
","
","
","""event"",""trial"",""time""
""fullscreenenter"",""1"",""2261""
","
",,null,run_exp/static/images/task_images/gems/9.jpg,null,,,,,,,2,,,10,,,,,9,0.180150108,0.222222222,,,,,,,
decision,241,671708,0.0-76.0-2.0,"""event"",""trial"",""time""
""fullscreenenter"",""1"",""2261""
","
","
","""event"",""trial"",""time""
""fullscreenenter"",""1"",""2261""
","
",,78.3,run_exp/static/images/task_images/land.jpg,76,,,,,,,2,,,10,,,,,,,,12630,2,1,TRUE,,,
travel,242,681630,0.0-77.0-0.0,"""event"",""trial"",""time""
""fullscreenenter"",""1"",""2261""
","
","
","""event"",""trial"",""time""
""fullscreenenter"",""1"",""2261""
","
",,,,,,,,,,,,"[{""stimulus"":""run_exp/static/images/task_images/rocket-01.jpg"",""time"":0},{""stimulus"":""run_exp/static/images/task_images/rocket-02.jpg"",""time"":1111},{""stimulus"":""run_exp/static/images/task_images/rocket-03.jpg"",""time"":2207.5},{""stimulus"":""run_exp/static/images/task_images/rocket-04.jpg"",""time"":3322.199999999255},{""stimulus"":""run_exp/static/images/task_images/rocket-05.jpg"",""time"":4419.5},{""stimulus"":""run_exp/static/images/task_images/rocket-06.jpg"",""time"":5520.29999999702},{""stimulus"":""run_exp/static/images/task_images/rocket-07.jpg"",""time"":6614.89999999851},{""stimulus"":""run_exp/static/images/task_images/rocket-08.jpg"",""time"":7724.199999999255},{""stimulus"":""run_exp/static/images/task_images/rocket-09.jpg"",""time"":8822.099999997765}]",[],10,,,,,,,,,,,,,,
alien_welcome,243,686645,0.0-77.0-1.0,"""event"",""trial"",""time""
""fullscreenenter"",""1"",""2261""
","
","
","""event"",""trial"",""time""
""fullscreenenter"",""1"",""2261""
","
",,null,run_exp/static/images/task_images/aliens/old_aliens/planet/alien_planet-22.jpg,null,,,,,,,,,,,,,22,"53,13,76,48,35,11,28,63,61,77,22,74,3,46,15,1,58,80,59,71,25,6,57,69,4,68,40,45,33,54,5,78,32,67,65,10,21,34,2,38",,,,,,,,,,
land,244,687161,0.0-77.0-2.0,"""event"",""trial"",""time""
""fullscreenenter"",""1"",""2261""
","
","
","""event"",""trial"",""time""
""fullscreenenter"",""1"",""2261""
","
",,null,run_exp/static/images/task_images/land.jpg,null,,,,,,,100,,,11,,,,,,,,,,,,,,
dig,245,689166,0.0-77.0-3.0,"""event"",""trial"",""time""
""fullscreenenter"",""1"",""2261""
","
","
","""event"",""trial"",""time""
""fullscreenenter"",""1"",""2261""
","
",,,,,,,,,,,,"[{""stimulus"":""run_exp/static/images/task_images/dig.jpg"",""time"":0.09999999776482582},{""stimulus"":""run_exp/static/images/task_images/land.jpg"",""time"":670.5},{""stimulus"":""run_exp/static/images/task_images/dig.jpg"",""time"":1340.800000000745}]",[],11,,,,,,,,,,,,,,
harvest,246,690172,0.0-77.0-4.0,"""event"",""trial"",""time""
""fullscreenenter"",""1"",""2261""
","
","
","""event"",""trial"",""time""
""fullscreenenter"",""1"",""2261""
","
",,null,run_exp/static/images/task_images/gems/100.jpg,null,,,,,,,20,,,11,,,,,100,0.195824095,0.2,,,,,,,
decision,247,690342,0.0-77.0-5.0,"""event"",""trial"",""time""
""fullscreenenter"",""1"",""2261""
","
","
","""event"",""trial"",""time""
""fullscreenenter"",""1"",""2261""
","
",,169,run_exp/static/images/task_images/land.jpg,65,,,,,,,20,,,11,,,,,,,,31264,2,0,FALSE,,,
dig,248,693175,0.0-78.0-0.0,"""event"",""trial"",""time""
""fullscreenenter"",""1"",""2261""
","
","
","""event"",""trial"",""time""
""fullscreenenter"",""1"",""2261""
","
",,,,,,,,,,,,"[{""stimulus"":""run_exp/static/images/task_images/dig.jpg"",""time"":0.09999999776482582},{""stimulus"":""run_exp/static/images/task_images/land.jpg"",""time"":950.0999999977648},{""stimulus"":""run_exp/static/images/task_images/dig.jpg"",""time"":1890.3999999985099}]",[],11,,,,,,,,,,,,,,
harvest,249,694188,0.0-78.0-1.0,"""event"",""trial"",""time""
""fullscreenenter"",""1"",""2261""
","
","
","""event"",""trial"",""time""
""fullscreenenter"",""1"",""2261""
","
",,null,run_exp/static/images/task_images/gems/20.jpg,null,,,,,,,5,,,11,,,,,20,0.259345163,0.25,,,,,,,
decision,250,694657,0.0-78.0-2.0,"""event"",""trial"",""time""
""fullscreenenter"",""1"",""2261""
","
","
","""event"",""trial"",""time""
""fullscreenenter"",""1"",""2261""
","
",,468.1,run_exp/static/images/task_images/land.jpg,76,,,,,,,5,,,11,,,,,,,,35579,2,1,TRUE,,,
travel,251,704193,0.0-79.0-0.0,"""event"",""trial"",""time""
""fullscreenenter"",""1"",""2261""
","
","
","""event"",""trial"",""time""
""fullscreenenter"",""1"",""2261""
","
