trial_type,trial_index,time_elapsed,internal_node_id,interactions,blur_events,focus_events,fullscreenenter_events,fullscreenexit_events,success,rt,stimulus,key_press,prompt,subject_id,participant_id,age,gender,button_pressed,next_reward,animation_sequence,responses,planet,curr_prac_trial,n_prac_rounds,alien,aliens,reward_received,decay_rate_actual,decay_rate_exp,time_in_block,block_num,prt,last_trial_on_planet,button_html,bonus,num_failures
pavlovia,0,4,0.0-0.0,"""event"",""trial"",""time""
""fullscreenenter"",""1"",""1542""
","
","
","""event"",""trial"",""time""
""fullscreenenter"",""1"",""1542""
","
",,,,,,,,,,,,,,,,,,,,,,,,,,,,
fullscreen,1,2531,0.0-1.0,"""event"",""trial"",""time""
""fullscreenenter"",""1"",""1542""
","
","
","""event"",""trial"",""time""
""fullscreenenter"",""1"",""1542""
","
",TRUE,,,,,,,,,,,,,,,,,,,,,,,,,,,
instruc_welcome,2,12284,0.0-2.0,"""event"",""trial"",""time""
""fullscreenenter"",""1"",""1542""
","
","
","""event"",""trial"",""time""
""fullscreenenter"",""1"",""1542""
","
",,null,run_exp/static/audio/clip_1_welcome.m4a,null,"<p>Howdy! In this experiment, you’ll be an explorer traveling through space to collect space treasure.</p><p>Your mission is to collect as much treasure as possible.</p><br><br><p><img src='run_exp/static/images/task_images/opening_img-01.jpg' height='300' width='auto'></p>",9296,3596,15.28,Female,,,,,,,,,,,,,,,,,,,
audio-keyboard-response,3,28885,0.0-3.0,"""event"",""trial"",""time""
""fullscreenenter"",""1"",""1542""
","
","
","""event"",""trial"",""time""
""fullscreenenter"",""1"",""1542""
","
",,null,run_exp/static/audio/clip_2_move.m4a,null,,,,,,,,,,,,,,,,,,,,,,,,
welcome_dec,4,33787,0.0-4.0,"""event"",""trial"",""time""
""fullscreenenter"",""1"",""1542""
","
","
","""event"",""trial"",""time""
""fullscreenenter"",""1"",""1542""
","
",,4900.5,"<p>Howdy! In this experiment, you’ll be an explorer traveling through space to collect space treasure.</p><p>Your mission is to collect as much treasure as possible.</p><br><br><p><img src='run_exp/static/images/task_images/opening_img-01.jpg' height='300' width='auto'></p>",,,,,,,1,,,,,,,,,,,,,,,,,,
html-keyboard-response,5,35860,0.0-5.0,"""event"",""trial"",""time""
""fullscreenenter"",""1"",""1542""
""fullscreenexit"",""6"",""44183""
""blur"",""6"",""45525""
","""event"",""trial"",""time""
""blur"",""6"",""45525""
","
","""event"",""trial"",""time""
""fullscreenenter"",""1"",""1542""
","""event"",""trial"",""time""
""fullscreenexit"",""6"",""44183""
",,2070.3,"<p>Howdy! In this experiment, you’ll be an explorer traveling through space to collect space treasure.</p><p>Your mission is to collect as much treasure as possible.</p><br><br><p><img src='run_exp/static/images/task_images/opening_img-01.jpg' height='300' width='auto'></p><button class=""jspsych-html-btn-unchosen""><img src=""run_exp/static/images/task_images/planet-01.jpg"" height=""50""></button><button class=""jspsych-html-btn-chosen""><img src=""run_exp/static/images/task_images/planet-02.jpg"" height=""50""></button><p><b>[press the space bar to lock in your answer]<b><br></p>",32,,,,,,,,,,,,,,,,,,,,,,,,
instruc_goal,6,45943,0.0-6.0-0.0,"""event"",""trial"",""time""
""fullscreenenter"",""1"",""1542""
""fullscreenexit"",""6"",""44183""
""blur"",""6"",""45525""
""focus"",""7"",""57473""
","""event"",""trial"",""time""
""blur"",""6"",""45525""
","""event"",""trial"",""time""
""focus"",""7"",""57473""
","""event"",""trial"",""time""
""fullscreenenter"",""1"",""1542""
","""event"",""trial"",""time""
""fullscreenexit"",""6"",""44183""
",,null,run_exp/static/audio/clip_3_goal.m4a,null,"<p> As a space explorer, you’ll visit different planets to dig for space treasure, these pink gems.</p> <p> The more treasure you dig up, the more bonus money you’ll win! </p><br><br><p><img src='run_exp/static/images/task_images/pink_gem.jpg' height='300' width='auto'></p>",,,,,,,,,,,,,,,,,,,,,,,
instruc_goal,7,58419,0.0-6.0-1.0,"""event"",""trial"",""time""
""fullscreenenter"",""1"",""1542""
""fullscreenexit"",""6"",""44183""
""blur"",""6"",""45525""
""focus"",""7"",""57473""
","""event"",""trial"",""time""
""blur"",""6"",""45525""
","""event"",""trial"",""time""
""focus"",""7"",""57473""
","""event"",""trial"",""time""
""fullscreenenter"",""1"",""1542""
","""event"",""trial"",""time""
""fullscreenexit"",""6"",""44183""
",,12473.5,"<p> As a space explorer, you’ll visit different planets to dig for space treasure, these pink gems.</p> <p> The more treasure you dig up, the more bonus money you’ll win! </p><br><br><p><img src='run_exp/static/images/task_images/pink_gem.jpg' height='300' width='auto'></p>",,,,,,,1,,,,,,,,,,,,,,,,,,
html-keyboard-response,8,59954,0.0-6.0-2.0,"""event"",""trial"",""time""
""fullscreenenter"",""1"",""1542""
""fullscreenexit"",""6"",""44183""
""blur"",""6"",""45525""
""focus"",""7"",""57473""
","""event"",""trial"",""time""
""blur"",""6"",""45525""
","""event"",""trial"",""time""
""focus"",""7"",""57473""
","""event"",""trial"",""time""
""fullscreenenter"",""1"",""1542""
","""event"",""trial"",""time""
""fullscreenexit"",""6"",""44183""
",,1533.9,"<p> As a space explorer, you’ll visit different planets to dig for space treasure, these pink gems.</p> <p> The more treasure you dig up, the more bonus money you’ll win! </p><br><br><p><img src='run_exp/static/images/task_images/pink_gem.jpg' height='300' width='auto'></p><button class=""jspsych-html-btn-unchosen""><img src=""run_exp/static/images/task_images/planet-01.jpg"" height=""50""></button><button class=""jspsych-html-btn-chosen""><img src=""run_exp/static/images/task_images/planet-02.jpg"" height=""50""></button><p><b>[press the space bar to lock in your answer]<b><br></p>",32,,,,,,,,,,,,,,,,,,,,,,,,
instruc_dig,9,75953,0.0-7.0-0.0,"""event"",""trial"",""time""
""fullscreenenter"",""1"",""1542""
""fullscreenexit"",""6"",""44183""
""blur"",""6"",""45525""
""focus"",""7"",""57473""
","""event"",""trial"",""time""
""blur"",""6"",""45525""
","""event"",""trial"",""time""
""focus"",""7"",""57473""
","""event"",""trial"",""time""
""fullscreenenter"",""1"",""1542""
","""event"",""trial"",""time""
""fullscreenexit"",""6"",""44183""
",,null,run_exp/static/audio/clip_4_dig.m4a,null,,,,,,,100,,,,,,,,,,,,,,,,,
instruc_dig_try,10,76026,0.0-7.0-1.0,"""event"",""trial"",""time""
""fullscreenenter"",""1"",""1542""
""fullscreenexit"",""6"",""44183""
""blur"",""6"",""45525""
""focus"",""7"",""57473""
","""event"",""trial"",""time""
""blur"",""6"",""45525""
","""event"",""trial"",""time""
""focus"",""7"",""57473""
","""event"",""trial"",""time""
""fullscreenenter"",""1"",""1542""
","""event"",""trial"",""time""
""fullscreenexit"",""6"",""44183""
",,69.79999971,"<p> When you’ve arrived at a new planet, you will dig once. </p> <p>Then, you get to decide if you want to stay on the planet and dig again or travel to a new planet and dig there.</p> <p> To stay and dig, press the letter <strong>‘A’</strong> on your keyboard. Try pressing it now! </p><p><img src='run_exp/static/images/task_images/land.jpg'  height='700' width='auto'></p>",65,"<p> When you’ve arrived at a new planet, you will dig once. </p> <p>Then, you get to decide if you want to stay on the planet and dig again or travel to a new planet and dig there.</p> <p> To stay and dig, press the letter <strong>‘A’</strong> on your keyboard. Try pressing it now! </p><p><img src='run_exp/static/images/task_images/land.jpg'  height='700' width='auto'></p>",,,,,,100,,,,,,,,,,,,,,,,,
dig_prac,11,78037,0.0-7.0-2.0,"""event"",""trial"",""time""
""fullscreenenter"",""1"",""1542""
""fullscreenexit"",""6"",""44183""
""blur"",""6"",""45525""
""focus"",""7"",""57473""
","""event"",""trial"",""time""
""blur"",""6"",""45525""
","""event"",""trial"",""time""
""focus"",""7"",""57473""
","""event"",""trial"",""time""
""fullscreenenter"",""1"",""1542""
","""event"",""trial"",""time""
""fullscreenexit"",""6"",""44183""
",,,,,,,,,,,,"[{""stimulus"":""run_exp/static/images/task_images/dig.jpg"",""time"":0.40000009536743164},{""stimulus"":""run_exp/static/images/task_images/land.jpg"",""time"":669},{""stimulus"":""run_exp/static/images/task_images/dig.jpg"",""time"":1336.5}]",[],,,,,,,,,,,,,,,
instruc_travel,12,114293,0.0-7.0-3.0,"""event"",""trial"",""time""
""fullscreenenter"",""1"",""1542""
""fullscreenexit"",""6"",""44183""
""blur"",""6"",""45525""
""focus"",""7"",""57473""
","""event"",""trial"",""time""
""blur"",""6"",""45525""
","""event"",""trial"",""time""
""focus"",""7"",""57473""
","""event"",""trial"",""time""
""fullscreenenter"",""1"",""1542""
","""event"",""trial"",""time""
""fullscreenexit"",""6"",""44183""
",,null,run_exp/static/audio/clip_5_travel.m4a,null,"<p>Every time you dig up gems, there are less gems on the planet, so the more you dig on a planet the fewer gems you’ll get with each dig.</p><p>When gems are running low, you may want to travel to a new planet. </p> <p>  Planets are very far apart in this galaxy, so it will take some time to travel between them. </p> <br><p>There are lots and lots of planets for you to visit, so you won’t be able to return to any planets you’ve seen before. </p><br><p>To leave this planet and travel to a new one, press the letter <strong>‘L’</strong> on your keyboard. Try pressing it now! </p><p><img src='run_exp/static/images/task_images/rocket-01.jpg'  height='600' width='auto'></p>",,,,,,,,,,,,,,,,,,,,,,,
instruc_travel_try,13,115258,0.0-7.0-4.0,"""event"",""trial"",""time""
""fullscreenenter"",""1"",""1542""
""fullscreenexit"",""6"",""44183""
""blur"",""6"",""45525""
""focus"",""7"",""57473""
","""event"",""trial"",""time""
""blur"",""6"",""45525""
","""event"",""trial"",""time""
""focus"",""7"",""57473""
","""event"",""trial"",""time""
""fullscreenenter"",""1"",""1542""
","""event"",""trial"",""time""
""fullscreenexit"",""6"",""44183""
",,962,"<p>Every time you dig up gems, there are less gems on the planet, so the more you dig on a planet the fewer gems you’ll get with each dig.</p><p>When gems are running low, you may want to travel to a new planet. </p> <p>  Planets are very far apart in this galaxy, so it will take some time to travel between them. </p> <br><p>There are lots and lots of planets for you to visit, so you won’t be able to return to any planets you’ve seen before. </p><br><p>To leave this planet and travel to a new one, press the letter <strong>‘L’</strong> on your keyboard. Try pressing it now! </p><p><img src='run_exp/static/images/task_images/rocket-01.jpg'  height='600' width='auto'></p>",76,"<p>Every time you dig up gems, there are less gems on the planet, so the more you dig on a planet the fewer gems you’ll get with each dig.</p><p>When gems are running low, you may want to travel to a new planet. </p> <p>  Planets are very far apart in this galaxy, so it will take some time to travel between them. </p> <br><p>There are lots and lots of planets for you to visit, so you won’t be able to return to any planets you’ve seen before. </p><br><p>To leave this planet and travel to a new one, press the letter <strong>‘L’</strong> on your keyboard. Try pressing it now! </p><p><img src='run_exp/static/images/task_images/rocket-01.jpg'  height='600' width='auto'></p>",,,,,,,,,,,,,,,,,,,,,,,
travel_prac,14,125260,0.0-7.0-5.0,"""event"",""trial"",""time""
""fullscreenenter"",""1"",""1542""
""fullscreenexit"",""6"",""44183""
""blur"",""6"",""45525""
""focus"",""7"",""57473""
","""event"",""trial"",""time""
""blur"",""6"",""45525""
","""event"",""trial"",""time""
""focus"",""7"",""57473""
","""event"",""trial"",""time""
""fullscreenenter"",""1"",""1542""
","""event"",""trial"",""time""
""fullscreenexit"",""6"",""44183""
",,,,,,,,,,,,"[{""stimulus"":""run_exp/static/images/task_images/rocket-01.jpg"",""time"":0.3000001907348633},{""stimulus"":""run_exp/static/images/task_images/rocket-02.jpg"",""time"":1113.4000000953674},{""stimulus"":""run_exp/static/images/task_images/rocket-03.jpg"",""time"":2224.2000002861023},{""stimulus"":""run_exp/static/images/task_images/rocket-04.jpg"",""time"":3336},{""stimulus"":""run_exp/static/images/task_images/rocket-05.jpg"",""time"":4446.900000095367},{""stimulus"":""run_exp/static/images/task_images/rocket-06.jpg"",""time"":5557.300000190735},{""stimulus"":""run_exp/static/images/task_images/rocket-07.jpg"",""time"":6668.900000095367},{""stimulus"":""run_exp/static/images/task_images/rocket-08.jpg"",""time"":7779.800000190735},{""stimulus"":""run_exp/static/images/task_images/rocket-09.jpg"",""time"":8890.10000038147}]",[],0,,,,,,,,,,,,,,
instruc_alien_greet,15,152463,0.0-7.0-6.0,"""event"",""trial"",""time""
""fullscreenenter"",""1"",""1542""
""fullscreenexit"",""6"",""44183""
""blur"",""6"",""45525""
""focus"",""7"",""57473""
","""event"",""trial"",""time""
""blur"",""6"",""45525""
","""event"",""trial"",""time""
""focus"",""7"",""57473""
","""event"",""trial"",""time""
""fullscreenenter"",""1"",""1542""
","""event"",""trial"",""time""
""fullscreenexit"",""6"",""44183""
",,null,run_exp/static/audio/clip_6_alien.m4a,null,"<p>When you arrive at a new planet, the alien who owns the treasure mine on that planet will greet you!</p><p>The better an alien takes care of their mine the easier it is to dig for gems. Some aliens take better care of their mine than others. So, you won’t get exactly the same amount of gems on each planet.</p><p>What the alien looks like does not tell you anything about how many gems there are on the planet.</p><br><p><img src=""run_exp/static/images/task_images/aliens/instructions_aliens/planet/alien_planet-1.jpg""  height=""600"" width=""auto""></p>",,,,,,,,,,,,,,,,,,,,,,,
instruc_alien_greet,16,154178,0.0-7.0-7.0,"""event"",""trial"",""time""
""fullscreenenter"",""1"",""1542""
""fullscreenexit"",""6"",""44183""
""blur"",""6"",""45525""
""focus"",""7"",""57473""
","""event"",""trial"",""time""
""blur"",""6"",""45525""
","""event"",""trial"",""time""
""focus"",""7"",""57473""
","""event"",""trial"",""time""
""fullscreenenter"",""1"",""1542""
","""event"",""trial"",""time""
""fullscreenexit"",""6"",""44183""
",,1712.6,"<p>When you arrive at a new planet, the alien who owns the treasure mine on that planet will greet you!</p><p>The better an alien takes care of their mine the easier it is to dig for gems. Some aliens take better care of their mine than others. So, you won’t get exactly the same amount of gems on each planet.</p><p>What the alien looks like does not tell you anything about how many gems there are on the planet.</p><br><p><img src=""run_exp/static/images/task_images/aliens/instructions_aliens/planet/alien_planet-1.jpg""  height=""600"" width=""auto""></p>",,,,,,,1,,,,,,,,,,,,,,,,,,
html-keyboard-response,17,155098,0.0-7.0-8.0,"""event"",""trial"",""time""
""fullscreenenter"",""1"",""1542""
""fullscreenexit"",""6"",""44183""
""blur"",""6"",""45525""
""focus"",""7"",""57473""
","""event"",""trial"",""time""
""blur"",""6"",""45525""
","""event"",""trial"",""time""
""focus"",""7"",""57473""
","""event"",""trial"",""time""
""fullscreenenter"",""1"",""1542""
","""event"",""trial"",""time""
""fullscreenexit"",""6"",""44183""
",,918.5,"<p>When you arrive at a new planet, the alien who owns the treasure mine on that planet will greet you!</p><p>The better an alien takes care of their mine the easier it is to dig for gems. Some aliens take better care of their mine than others. So, you won’t get exactly the same amount of gems on each planet.</p><p>What the alien looks like does not tell you anything about how many gems there are on the planet.</p><br><p><img src=""run_exp/static/images/task_images/aliens/instructions_aliens/planet/alien_planet-1.jpg""  height=""600"" width=""auto""></p><button class=""jspsych-html-btn-unchosen""><img src=""run_exp/static/images/task_images/planet-01.jpg"" height=""50""></button><button class=""jspsych-html-btn-chosen""><img src=""run_exp/static/images/task_images/planet-02.jpg"" height=""50""></button><p><b>[press the space bar to lock in your answer]<b><br></p>",32,,,,,,,,,,,,,,,,,,,,,,,,
time_out,18,166202,0.0-8.0-0.0,"""event"",""trial"",""time""
""fullscreenenter"",""1"",""1542""
""fullscreenexit"",""6"",""44183""
""blur"",""6"",""45525""
""focus"",""7"",""57473""
","""event"",""trial"",""time""
""blur"",""6"",""45525""
","""event"",""trial"",""time""
""focus"",""7"",""57473""
","""event"",""trial"",""time""
""fullscreenenter"",""1"",""1542""
","""event"",""trial"",""time""
""fullscreenexit"",""6"",""44183""
",,null,run_exp/static/audio/clip_7_timeout.m4a,null,"<p>If you don't make your choice fast enough, you’ll have to wait a few seconds before you can make another one.</p><p>You can’t dig for more gems or travel to new planets. You just have to sit and wait.</p><br><p><img src='run_exp/static/images/task_images/time_out.jpg'  height='600' width='auto'></p>",,,,,,,,,,,,,,,,,,,,,,,
time_out,19,167378,0.0-8.0-1.0,"""event"",""trial"",""time""
""fullscreenenter"",""1"",""1542""
""fullscreenexit"",""6"",""44183""
""blur"",""6"",""45525""
""focus"",""7"",""57473""
","""event"",""trial"",""time""
""blur"",""6"",""45525""
","""event"",""trial"",""time""
""focus"",""7"",""57473""
","""event"",""trial"",""time""
""fullscreenenter"",""1"",""1542""
","""event"",""trial"",""time""
""fullscreenexit"",""6"",""44183""
",,1171.9,"<p>If you don't make your choice fast enough, you’ll have to wait a few seconds before you can make another one.</p><p>You can’t dig for more gems or travel to new planets. You just have to sit and wait.</p><br><p><img src='run_exp/static/images/task_images/time_out.jpg'  height='600' width='auto'></p>",,,,,,,1,,,,,,,,,,,,,,,,,,
html-keyboard-response,20,168178,0.0-8.0-2.0,"""event"",""trial"",""time""
""fullscreenenter"",""1"",""1542""
""fullscreenexit"",""6"",""44183""
""blur"",""6"",""45525""
""focus"",""7"",""57473""
","""event"",""trial"",""time""
""blur"",""6"",""45525""
","""event"",""trial"",""time""
""focus"",""7"",""57473""
","""event"",""trial"",""time""
""fullscreenenter"",""1"",""1542""
","""event"",""trial"",""time""
""fullscreenexit"",""6"",""44183""
",,798.5,"<p>If you don't make your choice fast enough, you’ll have to wait a few seconds before you can make another one.</p><p>You can’t dig for more gems or travel to new planets. You just have to sit and wait.</p><br><p><img src='run_exp/static/images/task_images/time_out.jpg'  height='600' width='auto'></p><button class=""jspsych-html-btn-unchosen""><img src=""run_exp/static/images/task_images/planet-01.jpg"" height=""50""></button><button class=""jspsych-html-btn-chosen""><img src=""run_exp/static/images/task_images/planet-02.jpg"" height=""50""></button><p><b>[press the space bar to lock in your answer]<b><br></p>",32,,,,,,,,,,,,,,,,,,,,,,,,
instruc_break,21,183862,0.0-9.0-0.0,"""event"",""trial"",""time""
""fullscreenenter"",""1"",""1542""
""fullscreenexit"",""6"",""44183""
""blur"",""6"",""45525""
""focus"",""7"",""57473""
","""event"",""trial"",""time""
""blur"",""6"",""45525""
","""event"",""trial"",""time""
""focus"",""7"",""57473""
","""event"",""trial"",""time""
""fullscreenenter"",""1"",""1542""
","""event"",""trial"",""time""
""fullscreenexit"",""6"",""44183""
",,null,run_exp/static/audio/clip_8_break.m4a,null,"<p> After digging and traveling for a while, you’ll be able to take a break at home base. </p><p>The game will last 20 minutes no matter what.</p><p>You will visit home base every 5 minutes, so, you will visit home base three times during the game.</p><br><p><img src='run_exp/static/images/task_images/home_base.jpg' height='600' width='auto'></p>",,,,,,,,,,,,,,,,,,,,,,,
instruc_break,22,184865,0.0-9.0-1.0,"""event"",""trial"",""time""
""fullscreenenter"",""1"",""1542""
""fullscreenexit"",""6"",""44183""
""blur"",""6"",""45525""
""focus"",""7"",""57473""
","""event"",""trial"",""time""
""blur"",""6"",""45525""
","""event"",""trial"",""time""
""focus"",""7"",""57473""
","""event"",""trial"",""time""
""fullscreenenter"",""1"",""1542""
","""event"",""trial"",""time""
""fullscreenexit"",""6"",""44183""
",,999.5999999,"<p> After digging and traveling for a while, you’ll be able to take a break at home base. </p><p>The game will last 20 minutes no matter what.</p><p>You will visit home base every 5 minutes, so, you will visit home base three times during the game.</p><br><p><img src='run_exp/static/images/task_images/home_base.jpg' height='600' width='auto'></p>",,,,,,,1,,,,,,,,,,,,,,,,,,
html-keyboard-response,23,185361,0.0-9.0-2.0,"""event"",""trial"",""time""
""fullscreenenter"",""1"",""1542""
""fullscreenexit"",""6"",""44183""
""blur"",""6"",""45525""
""focus"",""7"",""57473""
","""event"",""trial"",""time""
""blur"",""6"",""45525""
","""event"",""trial"",""time""
""focus"",""7"",""57473""
","""event"",""trial"",""time""
""fullscreenenter"",""1"",""1542""
","""event"",""trial"",""time""
""fullscreenexit"",""6"",""44183""
",,494.5999999,"<p> After digging and traveling for a while, you’ll be able to take a break at home base. </p><p>The game will last 20 minutes no matter what.</p><p>You will visit home base every 5 minutes, so, you will visit home base three times during the game.</p><br><p><img src='run_exp/static/images/task_images/home_base.jpg' height='600' width='auto'></p><button class=""jspsych-html-btn-unchosen""><img src=""run_exp/static/images/task_images/planet-01.jpg"" height=""50""></button><button class=""jspsych-html-btn-chosen""><img src=""run_exp/static/images/task_images/planet-02.jpg"" height=""50""></button><p><b>[press the space bar to lock in your answer]<b><br></p>",32,,,,,,,,,,,,,,,,,,,,,,,,
instruc_prac_game,24,195502,0.0-10.0-0.0,"""event"",""trial"",""time""
""fullscreenenter"",""1"",""1542""
""fullscreenexit"",""6"",""44183""
""blur"",""6"",""45525""
""focus"",""7"",""57473""
","""event"",""trial"",""time""
""blur"",""6"",""45525""
","""event"",""trial"",""time""
""focus"",""7"",""57473""
","""event"",""trial"",""time""
""fullscreenenter"",""1"",""1542""
","""event"",""trial"",""time""
""fullscreenexit"",""6"",""44183""
",,null,run_exp/static/audio/clip_9_practice.m4a,null,"<p> Are you ready to play a practice game? </p> <p>In this practice game, you'll be digging up barrels of gems. But, in the real game, you'll be digging up the gems themselves. </p>",,,,,,,,,,,,,,,,,,,,,,,
html-button-response,25,196601,0.0-10.0-1.0,"""event"",""trial"",""time""
""fullscreenenter"",""1"",""1542""
""fullscreenexit"",""6"",""44183""
""blur"",""6"",""45525""
""focus"",""7"",""57473""
","""event"",""trial"",""time""
""blur"",""6"",""45525""
","""event"",""trial"",""time""
""focus"",""7"",""57473""
","""event"",""trial"",""time""
""fullscreenenter"",""1"",""1542""
","""event"",""trial"",""time""
""fullscreenexit"",""6"",""44183""
",,1097.1,"<p> Are you ready to play a practice game? </p> <p>In this practice game, you'll be digging up barrels of gems. But, in the real game, you'll be digging up the gems themselves. </p>",,,,,,,0,,,,,,,,,,,,,,,,,,
alien_welcome_prac,26,201605,0.0-11.0-0.0,"""event"",""trial"",""time""
""fullscreenenter"",""1"",""1542""
""fullscreenexit"",""6"",""44183""
""blur"",""6"",""45525""
""focus"",""7"",""57473""
","""event"",""trial"",""time""
""blur"",""6"",""45525""
","""event"",""trial"",""time""
""focus"",""7"",""57473""
","""event"",""trial"",""time""
""fullscreenenter"",""1"",""1542""
","""event"",""trial"",""time""
""fullscreenexit"",""6"",""44183""
",,null,run_exp/static/images/task_images/aliens/practice_aliens/planet/alien_planet-5.jpg,null,,,,,,,,,,,,,,,,,,,,,,,,
land_prac,27,202113,0.0-11.0-1.0,"""event"",""trial"",""time""
""fullscreenenter"",""1"",""1542""
""fullscreenexit"",""6"",""44183""
""blur"",""6"",""45525""
""focus"",""7"",""57473""
","""event"",""trial"",""time""
""blur"",""6"",""45525""
","""event"",""trial"",""time""
""focus"",""7"",""57473""
","""event"",""trial"",""time""
""fullscreenenter"",""1"",""1542""
","""event"",""trial"",""time""
""fullscreenexit"",""6"",""44183""
",,null,run_exp/static/images/task_images/land.jpg,null,,,,,,,97,,,0,,,,,,,,,,,,,,
dig_prac,28,204118,0.0-11.0-2.0,"""event"",""trial"",""time""
""fullscreenenter"",""1"",""1542""
""fullscreenexit"",""6"",""44183""
""blur"",""6"",""45525""
""focus"",""7"",""57473""
","""event"",""trial"",""time""
""blur"",""6"",""45525""
","""event"",""trial"",""time""
""focus"",""7"",""57473""
","""event"",""trial"",""time""
""fullscreenenter"",""1"",""1542""
","""event"",""trial"",""time""
""fullscreenexit"",""6"",""44183""
",,,,,,,,,,,,"[{""stimulus"":""run_exp/static/images/task_images/dig.jpg"",""time"":0.40000009536743164},{""stimulus"":""run_exp/static/images/task_images/land.jpg"",""time"":670},{""stimulus"":""run_exp/static/images/task_images/dig.jpg"",""time"":1337.1999998092651}]",[],,,,,,,,,,,,,,,
harvest_prac,29,205120,0.0-11.0-3.0,"""event"",""trial"",""time""
""fullscreenenter"",""1"",""1542""
""fullscreenexit"",""6"",""44183""
""blur"",""6"",""45525""
""focus"",""7"",""57473""
","""event"",""trial"",""time""
""blur"",""6"",""45525""
","""event"",""trial"",""time""
""focus"",""7"",""57473""
","""event"",""trial"",""time""
""fullscreenenter"",""1"",""1542""
","""event"",""trial"",""time""
""fullscreenexit"",""6"",""44183""
",,null,run_exp/static/images/task_images/barrel_text.jpg,null,,,,,,,,,,,,,,,,,,,,,,,,
decision_prac,30,206433,0.0-11.0-4.0,"""event"",""trial"",""time""
""fullscreenenter"",""1"",""1542""
""fullscreenexit"",""6"",""44183""
""blur"",""6"",""45525""
""focus"",""7"",""57473""
","""event"",""trial"",""time""
""blur"",""6"",""45525""
","""event"",""trial"",""time""
""focus"",""7"",""57473""
","""event"",""trial"",""time""
""fullscreenenter"",""1"",""1542""
","""event"",""trial"",""time""
""fullscreenexit"",""6"",""44183""
",,1310.5,run_exp/static/images/task_images/land.jpg,65,,,,,,,,,,,1,,,,,,,,,,,,,
dig_prac,31,208440,0.0-12.0-0.0,"""event"",""trial"",""time""
""fullscreenenter"",""1"",""1542""
""fullscreenexit"",""6"",""44183""
""blur"",""6"",""45525""
""focus"",""7"",""57473""
","""event"",""trial"",""time""
""blur"",""6"",""45525""
","""event"",""trial"",""time""
""focus"",""7"",""57473""
","""event"",""trial"",""time""
""fullscreenenter"",""1"",""1542""
","""event"",""trial"",""time""
""fullscreenexit"",""6"",""44183""
",,,,,,,,,,,,"[{""stimulus"":""run_exp/static/images/task_images/dig.jpg"",""time"":0.19999980926513672},{""stimulus"":""run_exp/static/images/task_images/land.jpg"",""time"":669.5},{""stimulus"":""run_exp/static/images/task_images/dig.jpg"",""time"":1336.5999999046326}]",[],,,,,,,,,,,,,,,
harvest_prac,32,209443,0.0-12.0-1.0,"""event"",""trial"",""time""
""fullscreenenter"",""1"",""1542""
""fullscreenexit"",""6"",""44183""
""blur"",""6"",""45525""
""focus"",""7"",""57473""
","""event"",""trial"",""time""
""blur"",""6"",""45525""
","""event"",""trial"",""time""
""focus"",""7"",""57473""
","""event"",""trial"",""time""
""fullscreenenter"",""1"",""1542""
","""event"",""trial"",""time""
""fullscreenexit"",""6"",""44183""
",,null,run_exp/static/images/task_images/barrel_text.jpg,null,,,,,,,,,,,,,,,,,,,,,,,,
decision_prac,33,209649,0.0-12.0-2.0,"""event"",""trial"",""time""
""fullscreenenter"",""1"",""1542""
""fullscreenexit"",""6"",""44183""
""blur"",""6"",""45525""
""focus"",""7"",""57473""
","""event"",""trial"",""time""
""blur"",""6"",""45525""
","""event"",""trial"",""time""
""focus"",""7"",""57473""
","""event"",""trial"",""time""
""fullscreenenter"",""1"",""1542""
","""event"",""trial"",""time""
""fullscreenexit"",""6"",""44183""
",,204.3000002,run_exp/static/images/task_images/land.jpg,65,,,,,,,,,,,2,,,,,,,,,,,,,
dig_prac,34,211656,0.0-13.0-0.0,"""event"",""trial"",""time""
""fullscreenenter"",""1"",""1542""
""fullscreenexit"",""6"",""44183""
""blur"",""6"",""45525""
""focus"",""7"",""57473""
","""event"",""trial"",""time""
""blur"",""6"",""45525""
","""event"",""trial"",""time""
""focus"",""7"",""57473""
","""event"",""trial"",""time""
""fullscreenenter"",""1"",""1542""
","""event"",""trial"",""time""
""fullscreenexit"",""6"",""44183""
",,,,,,,,,,,,"[{""stimulus"":""run_exp/static/images/task_images/dig.jpg"",""time"":0.20000028610229492},{""stimulus"":""run_exp/static/images/task_images/land.jpg"",""time"":669.3000001907349},{""stimulus"":""run_exp/static/images/task_images/dig.jpg"",""time"":1336.4000000953674}]",[],,,,,,,,,,,,,,,
harvest_prac,35,212662,0.0-13.0-1.0,"""event"",""trial"",""time""
""fullscreenenter"",""1"",""1542""
""fullscreenexit"",""6"",""44183""
""blur"",""6"",""45525""
""focus"",""7"",""57473""
","""event"",""trial"",""time""
""blur"",""6"",""45525""
","""event"",""trial"",""time""
""focus"",""7"",""57473""
","""event"",""trial"",""time""
""fullscreenenter"",""1"",""1542""
","""event"",""trial"",""time""
""fullscreenexit"",""6"",""44183""
",,null,run_exp/static/images/task_images/barrel_text.jpg,null,,,,,,,,,,,,,,,,,,,,,,,,
decision_prac,36,212928,0.0-13.0-2.0,"""event"",""trial"",""time""
""fullscreenenter"",""1"",""1542""
""fullscreenexit"",""6"",""44183""
""blur"",""6"",""45525""
""focus"",""7"",""57473""
","""event"",""trial"",""time""
""blur"",""6"",""45525""
","""event"",""trial"",""time""
""focus"",""7"",""57473""
","""event"",""trial"",""time""
""fullscreenenter"",""1"",""1542""
","""event"",""trial"",""time""
""fullscreenexit"",""6"",""44183""
",,264.1999998,run_exp/static/images/task_images/land.jpg,65,,,,,,,,,,,3,,,,,,,,,,,,,
dig_prac,37,214935,0.0-14.0-0.0,"""event"",""trial"",""time""
""fullscreenenter"",""1"",""1542""
""fullscreenexit"",""6"",""44183""
""blur"",""6"",""45525""
""focus"",""7"",""57473""
","""event"",""trial"",""time""
""blur"",""6"",""45525""
","""event"",""trial"",""time""
""focus"",""7"",""57473""
","""event"",""trial"",""time""
""fullscreenenter"",""1"",""1542""
","""event"",""trial"",""time""
""fullscreenexit"",""6"",""44183""
",,,,,,,,,,,,"[{""stimulus"":""run_exp/static/images/task_images/dig.jpg"",""time"":0.3000001907348633},{""stimulus"":""run_exp/static/images/task_images/land.jpg"",""time"":670},{""stimulus"":""run_exp/static/images/task_images/dig.jpg"",""time"":1336.9000000953674}]",[],,,,,,,,,,,,,,,
harvest_prac,38,215937,0.0-14.0-1.0,"""event"",""trial"",""time""
""fullscreenenter"",""1"",""1542""
""fullscreenexit"",""6"",""44183""
""blur"",""6"",""45525""
""focus"",""7"",""57473""
","""event"",""trial"",""time""
""blur"",""6"",""45525""
","""event"",""trial"",""time""
""focus"",""7"",""57473""
","""event"",""trial"",""time""
""fullscreenenter"",""1"",""1542""
","""event"",""trial"",""time""
""fullscreenexit"",""6"",""44183""
",,null,run_exp/static/images/task_images/barrel_text.jpg,null,,,,,,,,,,,,,,,,,,,,,,,,
decision_prac,39,217096,0.0-14.0-2.0,"""event"",""trial"",""time""
""fullscreenenter"",""1"",""1542""
""fullscreenexit"",""6"",""44183""
""blur"",""6"",""45525""
""focus"",""7"",""57473""
","""event"",""trial"",""time""
""blur"",""6"",""45525""
","""event"",""trial"",""time""
""focus"",""7"",""57473""
","""event"",""trial"",""time""
""fullscreenenter"",""1"",""1542""
","""event"",""trial"",""time""
""fullscreenexit"",""6"",""44183""
",,1157.7,run_exp/static/images/task_images/land.jpg,65,,,,,,,,,,,4,,,,,,,,,,,,,
dig_prac,40,219104,0.0-15.0-0.0,"""event"",""trial"",""time""
""fullscreenenter"",""1"",""1542""
""fullscreenexit"",""6"",""44183""
""blur"",""6"",""45525""
""focus"",""7"",""57473""
","""event"",""trial"",""time""
""blur"",""6"",""45525""
","""event"",""trial"",""time""
""focus"",""7"",""57473""
","""event"",""trial"",""time""
""fullscreenenter"",""1"",""1542""
","""event"",""trial"",""time""
""fullscreenexit"",""6"",""44183""
",,,,,,,,,,,,"[{""stimulus"":""run_exp/static/images/task_images/dig.jpg"",""time"":0.2999997138977051},{""stimulus"":""run_exp/static/images/task_images/land.jpg"",""time"":669.0999999046326},{""stimulus"":""run_exp/static/images/task_images/dig.jpg"",""time"":1336.0999999046326}]",[],,,,,,,,,,,,,,,
harvest_prac,41,220107,0.0-15.0-1.0,"""event"",""trial"",""time""
""fullscreenenter"",""1"",""1542""
""fullscreenexit"",""6"",""44183""
""blur"",""6"",""45525""
""focus"",""7"",""57473""
","""event"",""trial"",""time""
""blur"",""6"",""45525""
","""event"",""trial"",""time""
""focus"",""7"",""57473""
","""event"",""trial"",""time""
""fullscreenenter"",""1"",""1542""
","""event"",""trial"",""time""
""fullscreenexit"",""6"",""44183""
",,null,run_exp/static/images/task_images/barrel_text.jpg,null,,,,,,,,,,,,,,,,,,,,,,,,
decision_prac,42,220584,0.0-15.0-2.0,"""event"",""trial"",""time""
""fullscreenenter"",""1"",""1542""
""fullscreenexit"",""6"",""44183""
""blur"",""6"",""45525""
""focus"",""7"",""57473""
","""event"",""trial"",""time""
""blur"",""6"",""45525""
","""event"",""trial"",""time""
""focus"",""7"",""57473""
","""event"",""trial"",""time""
""fullscreenenter"",""1"",""1542""
","""event"",""trial"",""time""
""fullscreenexit"",""6"",""44183""
",,475.5999999,run_exp/static/images/task_images/land.jpg,76,,,,,,,,,,,,1,,,,,,,,,,,,
quiz_instruc,43,224969,0.0-16.0-0.0,"""event"",""trial"",""time""
""fullscreenenter"",""1"",""1542""
""fullscreenexit"",""6"",""44183""
""blur"",""6"",""45525""
""focus"",""7"",""57473""
""blur"",""44"",""244275""
""focus"",""44"",""265722""
","""event"",""trial"",""time""
""blur"",""6"",""45525""
""blur"",""44"",""244275""
","""event"",""trial"",""time""
""focus"",""7"",""57473""
""focus"",""44"",""265722""
","""event"",""trial"",""time""
""fullscreenenter"",""1"",""1542""
","""event"",""trial"",""time""
""fullscreenexit"",""6"",""44183""
",,4380.2,run_exp/static/audio/clip_10_quiz.m4a,,,,,,,0,,,,,,,,,,,,,,,,,,
instruc_repeat,44,267741,0.0-16.0-1.0,"""event"",""trial"",""time""
""fullscreenenter"",""1"",""1542""
""fullscreenexit"",""6"",""44183""
""blur"",""6"",""45525""
""focus"",""7"",""57473""
""blur"",""44"",""244275""
""focus"",""44"",""265722""
","""event"",""trial"",""time""
""blur"",""6"",""45525""
""blur"",""44"",""244275""
","""event"",""trial"",""time""
""focus"",""7"",""57473""
""focus"",""44"",""265722""
","""event"",""trial"",""time""
""fullscreenenter"",""1"",""1542""
","""event"",""trial"",""time""
""fullscreenexit"",""6"",""44183""
",,null,"<p> Are you ready to play a practice game? </p> <p>In this practice game, you'll be digging up barrels of gems. But, in the real game, you'll be digging up the gems themselves. </p>",null,"<p>In this game, your goal is to collect as many gems as you can. That’s how you will win bonus money. </p> <p>The entire game will last 20 minutes no matter how many gems you collect or how many planets you visit. </p><p>To stay on a planet and dig again, press the letter A on your keyboard. To leave for a new planet, press the letter L.</p><p>The more you dig on a planet, the fewer gems you’ll get with each dig which is why you might consider leaving for a new planet. </p><p>When you arrive at a new planet, you’ll be greeted by an alien. What the alien looks like does not tell you anything about how much treasure is on the planet. </p>",,,,,,,,,,,,,,,,,,,,,,,
instruc_repeat_continue,45,268976,0.0-16.0-2.0,"""event"",""trial"",""time""
""fullscreenenter"",""1"",""1542""
""fullscreenexit"",""6"",""44183""
""blur"",""6"",""45525""
""focus"",""7"",""57473""
""blur"",""44"",""244275""
""focus"",""44"",""265722""
","""event"",""trial"",""time""
""blur"",""6"",""45525""
""blur"",""44"",""244275""
","""event"",""trial"",""time""
""focus"",""7"",""57473""
""focus"",""44"",""265722""
","""event"",""trial"",""time""
""fullscreenenter"",""1"",""1542""
","""event"",""trial"",""time""
""fullscreenexit"",""6"",""44183""
",,1233.4,"<p> Are you ready to play a practice game? </p> <p>In this practice game, you'll be digging up barrels of gems. But, in the real game, you'll be digging up the gems themselves. </p>",,,,,,,0,,,,,,,,,,,,,,,,,,
quiz_q_1_ask,46,271816,0.0-16.0-3.0,"""event"",""trial"",""time""
""fullscreenenter"",""1"",""1542""
""fullscreenexit"",""6"",""44183""
""blur"",""6"",""45525""
""focus"",""7"",""57473""
""blur"",""44"",""244275""
""focus"",""44"",""265722""
","""event"",""trial"",""time""
""blur"",""6"",""45525""
""blur"",""44"",""244275""
","""event"",""trial"",""time""
""focus"",""7"",""57473""
""focus"",""44"",""265722""
","""event"",""trial"",""time""
""fullscreenenter"",""1"",""1542""
","""event"",""trial"",""time""
""fullscreenexit"",""6"",""44183""
",,2839,run_exp/static/audio/clip_11_q1_ask.m4a,,,,,,,2,,,,,,,,,,,,,,,,,,
quiz_q_1_fb_correct,47,275661,0.0-17.0-0.0,"""event"",""trial"",""time""
""fullscreenenter"",""1"",""1542""
""fullscreenexit"",""6"",""44183""
""blur"",""6"",""45525""
""focus"",""7"",""57473""
""blur"",""44"",""244275""
""focus"",""44"",""265722""
","""event"",""trial"",""time""
""blur"",""6"",""45525""
""blur"",""44"",""244275""
","""event"",""trial"",""time""
""focus"",""7"",""57473""
""focus"",""44"",""265722""
","""event"",""trial"",""time""
""fullscreenenter"",""1"",""1542""
","""event"",""trial"",""time""
""fullscreenexit"",""6"",""44183""
",,null,run_exp/static/audio/clip_12_q1_correct.m4a,null,<p>That’s correct. You win extra money by collecting more gems.</p>,,,,,,,,,,,,,,,,,,,,,,,
quiz_q_2_ask,48,277808,0.0-17.0-1.0,"""event"",""trial"",""time""
""fullscreenenter"",""1"",""1542""
""fullscreenexit"",""6"",""44183""
""blur"",""6"",""45525""
""focus"",""7"",""57473""
""blur"",""44"",""244275""
""focus"",""44"",""265722""
","""event"",""trial"",""time""
""blur"",""6"",""45525""
""blur"",""44"",""244275""
","""event"",""trial"",""time""
""focus"",""7"",""57473""
""focus"",""44"",""265722""
","""event"",""trial"",""time""
""fullscreenenter"",""1"",""1542""
","""event"",""trial"",""time""
""fullscreenexit"",""6"",""44183""
",,2145.4,run_exp/static/audio/clip_14_q2_ask.m4a,,,,,,,1,,,,,,,,,,,,,,,,,,
quiz_q_2_fb_correct,49,281820,0.0-18.0-0.0,"""event"",""trial"",""time""
""fullscreenenter"",""1"",""1542""
""fullscreenexit"",""6"",""44183""
""blur"",""6"",""45525""
""focus"",""7"",""57473""
""blur"",""44"",""244275""
""focus"",""44"",""265722""
","""event"",""trial"",""time""
""blur"",""6"",""45525""
""blur"",""44"",""244275""
","""event"",""trial"",""time""
""focus"",""7"",""57473""
""focus"",""44"",""265722""
","""event"",""trial"",""time""
""fullscreenenter"",""1"",""1542""
","""event"",""trial"",""time""
""fullscreenexit"",""6"",""44183""
",,null,run_exp/static/audio/clip_15_q2_correct.m4a,null,<p>That’s correct. The experiment is 20 minutes no matter what.</p>,,,,,,,,,,,,,,,,,,,,,,,
quiz_q_3_ask,50,283720,0.0-18.0-1.0,"""event"",""trial"",""time""
""fullscreenenter"",""1"",""1542""
""fullscreenexit"",""6"",""44183""
""blur"",""6"",""45525""
""focus"",""7"",""57473""
""blur"",""44"",""244275""
""focus"",""44"",""265722""
","""event"",""trial"",""time""
""blur"",""6"",""45525""
""blur"",""44"",""244275""
","""event"",""trial"",""time""
""focus"",""7"",""57473""
""focus"",""44"",""265722""
","""event"",""trial"",""time""
""fullscreenenter"",""1"",""1542""
","""event"",""trial"",""time""
""fullscreenexit"",""6"",""44183""
",,1897.6,run_exp/static/audio/clip_17_q3_ask.m4a,,,,,,,1,,,,,,,,,,,,,,,,,,
quiz_q_3_fb_correct,51,287701,0.0-19.0-0.0,"""event"",""trial"",""time""
""fullscreenenter"",""1"",""1542""
""fullscreenexit"",""6"",""44183""
""blur"",""6"",""45525""
""focus"",""7"",""57473""
""blur"",""44"",""244275""
""focus"",""44"",""265722""
","""event"",""trial"",""time""
""blur"",""6"",""45525""
""blur"",""44"",""244275""
","""event"",""trial"",""time""
""focus"",""7"",""57473""
""focus"",""44"",""265722""
","""event"",""trial"",""time""
""fullscreenenter"",""1"",""1542""
","""event"",""trial"",""time""
""fullscreenexit"",""6"",""44183""
",,null,run_exp/static/audio/clip_18_q3_correct.m4a,null,<p> That’s correct. You press the letter L to travel to a new planet.</p>,,,,,,,,,,,,,,,,,,,,,,,
quiz_q_4_ask,52,290072,0.0-19.0-1.0,"""event"",""trial"",""time""
""fullscreenenter"",""1"",""1542""
""fullscreenexit"",""6"",""44183""
""blur"",""6"",""45525""
""focus"",""7"",""57473""
""blur"",""44"",""244275""
""focus"",""44"",""265722""
","""event"",""trial"",""time""
""blur"",""6"",""45525""
""blur"",""44"",""244275""
","""event"",""trial"",""time""
""focus"",""7"",""57473""
""focus"",""44"",""265722""
","""event"",""trial"",""time""
""fullscreenenter"",""1"",""1542""
","""event"",""trial"",""time""
""fullscreenexit"",""6"",""44183""
",,2369.5,run_exp/static/audio/clip_20_q4_ask.m4a,,,,,,,0,,,,,,,,,,,,,,,,,,
quiz_q_4_fb_correct,53,295401,0.0-20.0-0.0,"""event"",""trial"",""time""
""fullscreenenter"",""1"",""1542""
""fullscreenexit"",""6"",""44183""
""blur"",""6"",""45525""
""focus"",""7"",""57473""
""blur"",""44"",""244275""
""focus"",""44"",""265722""
","""event"",""trial"",""time""
""blur"",""6"",""45525""
""blur"",""44"",""244275""
","""event"",""trial"",""time""
""focus"",""7"",""57473""
""focus"",""44"",""265722""
","""event"",""trial"",""time""
""fullscreenenter"",""1"",""1542""
","""event"",""trial"",""time""
""fullscreenexit"",""6"",""44183""
",,null,run_exp/static/audio/clip_21_q4_correct.m4a,null,<p> That’s correct. The more you dig on a planet the fewer gems you’ll get with each dig. </p>,,,,,,,,,,,,,,,,,,,,,,,
quiz_q_5_ask,54,297416,0.0-20.0-1.0,"""event"",""trial"",""time""
""fullscreenenter"",""1"",""1542""
""fullscreenexit"",""6"",""44183""
""blur"",""6"",""45525""
""focus"",""7"",""57473""
""blur"",""44"",""244275""
""focus"",""44"",""265722""
","""event"",""trial"",""time""
""blur"",""6"",""45525""
""blur"",""44"",""244275""
","""event"",""trial"",""time""
""focus"",""7"",""57473""
""focus"",""44"",""265722""
","""event"",""trial"",""time""
""fullscreenenter"",""1"",""1542""
","""event"",""trial"",""time""
""fullscreenexit"",""6"",""44183""
",,2012.2,run_exp/static/audio/clip_23_q5_ask.m4a,,,,,,,1,,,,,,,,,,,,,,,,,,
quiz_q_5_fb_correct,55,302420,0.0-21.0-0.0,"""event"",""trial"",""time""
""fullscreenenter"",""1"",""1542""
""fullscreenexit"",""6"",""44183""
""blur"",""6"",""45525""
""focus"",""7"",""57473""
""blur"",""44"",""244275""
""focus"",""44"",""265722""
","""event"",""trial"",""time""
""blur"",""6"",""45525""
""blur"",""44"",""244275""
","""event"",""trial"",""time""
""focus"",""7"",""57473""
""focus"",""44"",""265722""
","""event"",""trial"",""time""
""fullscreenenter"",""1"",""1542""
","""event"",""trial"",""time""
""fullscreenexit"",""6"",""44183""
",,null,run_exp/static/audio/clip_24_q5_correct.m4a,null,<p> That’s correct. The alien tells you nothing about how much treasure is on the planet.</p>,,,,,,,,,,,,,,,,,,,,,,,
quiz_correct,56,305900,0.0-22.0-0.0,"""event"",""trial"",""time""
""fullscreenenter"",""1"",""1542""
""fullscreenexit"",""6"",""44183""
""blur"",""6"",""45525""
""focus"",""7"",""57473""
""blur"",""44"",""244275""
""focus"",""44"",""265722""
","""event"",""trial"",""time""
""blur"",""6"",""45525""
""blur"",""44"",""244275""
","""event"",""trial"",""time""
""focus"",""7"",""57473""
""focus"",""44"",""265722""
","""event"",""trial"",""time""
""fullscreenenter"",""1"",""1542""
","""event"",""trial"",""time""
""fullscreenexit"",""6"",""44183""
",,null,run_exp/static/audio/clip_26_correct_quiz.m4a,null,,,,,,,,,,,,,,,,,,,,,,,,
quiz_correct_continue,57,307151,0.0-22.0-1.0,"""event"",""trial"",""time""
""fullscreenenter"",""1"",""1542""
""fullscreenexit"",""6"",""44183""
""blur"",""6"",""45525""
""focus"",""7"",""57473""
""blur"",""44"",""244275""
""focus"",""44"",""265722""
","""event"",""trial"",""time""
""blur"",""6"",""45525""
""blur"",""44"",""244275""
","""event"",""trial"",""time""
""focus"",""7"",""57473""
""focus"",""44"",""265722""
","""event"",""trial"",""time""
""fullscreenenter"",""1"",""1542""
","""event"",""trial"",""time""
""fullscreenexit"",""6"",""44183""
",,1249.8,<p>Good job! You're now ready to move on to the real game!</p>,,,,,,,0,,,,,,,,,,,,,,,,,,
audio-keyboard-response,58,317281,0.0-22.0-2.0,"""event"",""trial"",""time""
""fullscreenenter"",""1"",""1542""
""fullscreenexit"",""6"",""44183""
""blur"",""6"",""45525""
""focus"",""7"",""57473""
""blur"",""44"",""244275""
""focus"",""44"",""265722""
","""event"",""trial"",""time""
""blur"",""6"",""45525""
""blur"",""44"",""244275""
","""event"",""trial"",""time""
""focus"",""7"",""57473""
""focus"",""44"",""265722""
","""event"",""trial"",""time""
""fullscreenenter"",""1"",""1542""
","""event"",""trial"",""time""
""fullscreenexit"",""6"",""44183""
",,null,run_exp/static/audio/clip_28_real_game.m4a,null,,,,,,,,,,,,,,,,,,,,,,,,
instruc_begin_exp_contine,59,318871,0.0-22.0-3.0,"""event"",""trial"",""time""
""fullscreenenter"",""1"",""1542""
""fullscreenexit"",""6"",""44183""
""blur"",""6"",""45525""
""focus"",""7"",""57473""
""blur"",""44"",""244275""
""focus"",""44"",""265722""
","""event"",""trial"",""time""
""blur"",""6"",""45525""
""blur"",""44"",""244275""
","""event"",""trial"",""time""
""focus"",""7"",""57473""
""focus"",""44"",""265722""
","""event"",""trial"",""time""
""fullscreenenter"",""1"",""1542""
","""event"",""trial"",""time""
""fullscreenexit"",""6"",""44183""
",,1588.4,"<p>Now that you know how  to dig for space treasure and travel to new planets,you can start exploring! </p><p>Do you want to go over the instructions again or get started with the real game?</p>",,,,,,,1,,,,,,1,,,,,,,,,,,,
alien_welcome,60,323875,0.0-23.0-0.0,"""event"",""trial"",""time""
""fullscreenenter"",""1"",""1542""
""fullscreenexit"",""6"",""44183""
""blur"",""6"",""45525""
""focus"",""7"",""57473""
""blur"",""44"",""244275""
""focus"",""44"",""265722""
","""event"",""trial"",""time""
""blur"",""6"",""45525""
""blur"",""44"",""244275""
","""event"",""trial"",""time""
""focus"",""7"",""57473""
""focus"",""44"",""265722""
","""event"",""trial"",""time""
""fullscreenenter"",""1"",""1542""
","""event"",""trial"",""time""
""fullscreenexit"",""6"",""44183""
",,null,run_exp/static/images/task_images/aliens/old_aliens/planet/alien_planet-67.jpg,null,,,,,,,,,,,,,67,"67,57,23,32,18,16,35,66,27,63,30,26,34,12,24,58,21,8,77,72,47,50,44,75,29,20,3,22,25,70,39,40,52,31,36,19,73,61,45,1,59,37,64,41,17,2,78,74,11,80,60,49,62,68,4,76,28,79,51,7,9,14,53,69,5",,,,,,,,,,
land,61,324379,0.0-23.0-1.0,"""event"",""trial"",""time""
""fullscreenenter"",""1"",""1542""
""fullscreenexit"",""6"",""44183""
""blur"",""6"",""45525""
""focus"",""7"",""57473""
""blur"",""44"",""244275""
""focus"",""44"",""265722""
","""event"",""trial"",""time""
""blur"",""6"",""45525""
""blur"",""44"",""244275""
","""event"",""trial"",""time""
""focus"",""7"",""57473""
""focus"",""44"",""265722""
","""event"",""trial"",""time""
""fullscreenenter"",""1"",""1542""
","""event"",""trial"",""time""
""fullscreenexit"",""6"",""44183""
",,null,run_exp/static/images/task_images/land.jpg,null,,,,,,,98,,,1,,,,,,,,,,,,,,
dig,62,326384,0.0-23.0-2.0,"""event"",""trial"",""time""
""fullscreenenter"",""1"",""1542""
""fullscreenexit"",""6"",""44183""
""blur"",""6"",""45525""
""focus"",""7"",""57473""
""blur"",""44"",""244275""
""focus"",""44"",""265722""
","""event"",""trial"",""time""
""blur"",""6"",""45525""
""blur"",""44"",""244275""
","""event"",""trial"",""time""
""focus"",""7"",""57473""
""focus"",""44"",""265722""
","""event"",""trial"",""time""
""fullscreenenter"",""1"",""1542""
","""event"",""trial"",""time""
""fullscreenexit"",""6"",""44183""
",,,,,,,,,,,,"[{""stimulus"":""run_exp/static/images/task_images/dig.jpg"",""time"":0.40000009536743164},{""stimulus"":""run_exp/static/images/task_images/land.jpg"",""time"":669.1999998092651},{""stimulus"":""run_exp/static/images/task_images/dig.jpg"",""time"":1336.1999998092651}]",[],1,,,,,,,,,,,,,,
harvest,63,327387,0.0-23.0-3.0,"""event"",""trial"",""time""
""fullscreenenter"",""1"",""1542""
""fullscreenexit"",""6"",""44183""
""blur"",""6"",""45525""
""focus"",""7"",""57473""
""blur"",""44"",""244275""
""focus"",""44"",""265722""
","""event"",""trial"",""time""
""blur"",""6"",""45525""
""blur"",""44"",""244275""
","""event"",""trial"",""time""
""focus"",""7"",""57473""
""focus"",""44"",""265722""
","""event"",""trial"",""time""
""fullscreenenter"",""1"",""1542""
","""event"",""trial"",""time""
""fullscreenexit"",""6"",""44183""
",,null,run_exp/static/images/task_images/gems/98.jpg,null,,,,,,,18,,,1,,,,,98,0.18336313,0.183673469,,,,,,,
decision,64,327432,0.0-23.0-4.0,"""event"",""trial"",""time""
""fullscreenenter"",""1"",""1542""
""fullscreenexit"",""6"",""44183""
""blur"",""6"",""45525""
""focus"",""7"",""57473""
""blur"",""44"",""244275""
""focus"",""44"",""265722""
","""event"",""trial"",""time""
""blur"",""6"",""45525""
""blur"",""44"",""244275""
","""event"",""trial"",""time""
""focus"",""7"",""57473""
""focus"",""44"",""265722""
","""event"",""trial"",""time""
""fullscreenenter"",""1"",""1542""
","""event"",""trial"",""time""
""fullscreenexit"",""6"",""44183""
",,42.19999981,run_exp/static/images/task_images/land.jpg,65,,,,,,,18,,,1,,,,,,,,8559,1,0,FALSE,,,
dig,65,330394,0.0-24.0-0.0,"""event"",""trial"",""time""
""fullscreenenter"",""1"",""1542""
""fullscreenexit"",""6"",""44183""
""blur"",""6"",""45525""
""focus"",""7"",""57473""
""blur"",""44"",""244275""
""focus"",""44"",""265722""
","""event"",""trial"",""time""
""blur"",""6"",""45525""
""blur"",""44"",""244275""
","""event"",""trial"",""time""
""focus"",""7"",""57473""
""focus"",""44"",""265722""
","""event"",""trial"",""time""
""fullscreenenter"",""1"",""1542""
","""event"",""trial"",""time""
""fullscreenexit"",""6"",""44183""
",,,,,,,,,,,,"[{""stimulus"":""run_exp/static/images/task_images/dig.jpg"",""time"":0.19999980926513672},{""stimulus"":""run_exp/static/images/task_images/land.jpg"",""time"":987.7999997138977},{""stimulus"":""run_exp/static/images/task_images/dig.jpg"",""time"":1972.5999999046326}]",[],1,,,,,,,,,,,,,,
harvest,66,331396,0.0-24.0-1.0,"""event"",""trial"",""time""
""fullscreenenter"",""1"",""1542""
""fullscreenexit"",""6"",""44183""
""blur"",""6"",""45525""
""focus"",""7"",""57473""
""blur"",""44"",""244275""
""focus"",""44"",""265722""
","""event"",""trial"",""time""
""blur"",""6"",""45525""
""blur"",""44"",""244275""
","""event"",""trial"",""time""
""focus"",""7"",""57473""
""focus"",""44"",""265722""
","""event"",""trial"",""time""
""fullscreenenter"",""1"",""1542""
","""event"",""trial"",""time""
""fullscreenexit"",""6"",""44183""
",,null,run_exp/static/images/task_images/gems/18.jpg,null,,,,,,,4,,,1,,,,,18,0.202661939,0.222222222,,,,,,,
decision,67,331623,0.0-24.0-2.0,"""event"",""trial"",""time""
""fullscreenenter"",""1"",""1542""
""fullscreenexit"",""6"",""44183""
""blur"",""6"",""45525""
""focus"",""7"",""57473""
""blur"",""44"",""244275""
""focus"",""44"",""265722""
","""event"",""trial"",""time""
""blur"",""6"",""45525""
""blur"",""44"",""244275""
","""event"",""trial"",""time""
""focus"",""7"",""57473""
""focus"",""44"",""265722""
","""event"",""trial"",""time""
""fullscreenenter"",""1"",""1542""
","""event"",""trial"",""time""
""fullscreenexit"",""6"",""44183""
",,225,run_exp/static/images/task_images/land.jpg,76,,,,,,,4,,,1,,,,,,,,12750,1,1,TRUE,,,
travel,68,341404,0.0-25.0-0.0,"""event"",""trial"",""time""
""fullscreenenter"",""1"",""1542""
""fullscreenexit"",""6"",""44183""
""blur"",""6"",""45525""
""focus"",""7"",""57473""
""blur"",""44"",""244275""
""focus"",""44"",""265722""
","""event"",""trial"",""time""
""blur"",""6"",""45525""
""blur"",""44"",""244275""
","""event"",""trial"",""time""
""focus"",""7"",""57473""
""focus"",""44"",""265722""
","""event"",""trial"",""time""
""fullscreenenter"",""1"",""1542""
","""event"",""trial"",""time""
""fullscreenexit"",""6"",""44183""
",,,,,,,,,,,,"[{""stimulus"":""run_exp/static/images/task_images/rocket-01.jpg"",""time"":0.2999997138977051},{""stimulus"":""run_exp/static/images/task_images/rocket-02.jpg"",""time"":1088.1999998092651},{""stimulus"":""run_exp/static/images/task_images/rocket-03.jpg"",""time"":2174.5},{""stimulus"":""run_exp/static/images/task_images/rocket-04.jpg"",""time"":3260.2999997138977},{""stimulus"":""run_exp/static/images/task_images/rocket-05.jpg"",""time"":4346.199999809265},{""stimulus"":""run_exp/static/images/task_images/rocket-06.jpg"",""time"":5431.599999904633},{""stimulus"":""run_exp/static/images/task_images/rocket-07.jpg"",""time"":6518.299999713898},{""stimulus"":""run_exp/static/images/task_images/rocket-08.jpg"",""time"":7604.699999809265},{""stimulus"":""run_exp/static/images/task_images/rocket-09.jpg"",""time"":8690.099999904633}]",[],1,,,,,,,,,,,,,,
alien_welcome,69,346407,0.0-25.0-1.0,"""event"",""trial"",""time""
""fullscreenenter"",""1"",""1542""
""fullscreenexit"",""6"",""44183""
""blur"",""6"",""45525""
""focus"",""7"",""57473""
""blur"",""44"",""244275""
""focus"",""44"",""265722""
","""event"",""trial"",""time""
""blur"",""6"",""45525""
""blur"",""44"",""244275""
","""event"",""trial"",""time""
""focus"",""7"",""57473""
""focus"",""44"",""265722""
","""event"",""trial"",""time""
""fullscreenenter"",""1"",""1542""
","""event"",""trial"",""time""
""fullscreenexit"",""6"",""44183""
",,null,run_exp/static/images/task_images/aliens/old_aliens/planet/alien_planet-57.jpg,null,,,,,,,,,,,,,57,"67,57,23,32,18,16,35,66,27,63,30,26,34,12,24,58,21,8,77,72,47,50,44,75,29,20,3,22,25,70,39,40,52,31,36,19,73,61,45,1,59,37,64,41,17,2,78,74,11,80,60,49,62,68,4,76,28,79,51,7,9,14,53,69,5",,,,,,,,,,
land,70,346910,0.0-25.0-2.0,"""event"",""trial"",""time""
""fullscreenenter"",""1"",""1542""
""fullscreenexit"",""6"",""44183""
""blur"",""6"",""45525""
""focus"",""7"",""57473""
""blur"",""44"",""244275""
""focus"",""44"",""265722""
","""event"",""trial"",""time""
""blur"",""6"",""45525""
""blur"",""44"",""244275""
","""event"",""trial"",""time""
""focus"",""7"",""57473""
""focus"",""44"",""265722""
","""event"",""trial"",""time""
""fullscreenenter"",""1"",""1542""
","""event"",""trial"",""time""
""fullscreenexit"",""6"",""44183""
",,null,run_exp/static/images/task_images/land.jpg,null,,,,,,,97,,,2,,,,,,,,,,,,,,
dig,71,348914,0.0-25.0-3.0,"""event"",""trial"",""time""
""fullscreenenter"",""1"",""1542""
""fullscreenexit"",""6"",""44183""
""blur"",""6"",""45525""
""focus"",""7"",""57473""
""blur"",""44"",""244275""
""focus"",""44"",""265722""
","""event"",""trial"",""time""
""blur"",""6"",""45525""
""blur"",""44"",""244275""
","""event"",""trial"",""time""
""focus"",""7"",""57473""
""focus"",""44"",""265722""
","""event"",""trial"",""time""
""fullscreenenter"",""1"",""1542""
","""event"",""trial"",""time""
""fullscreenexit"",""6"",""44183""
",,,,,,,,,,,,"[{""stimulus"":""run_exp/static/images/task_images/dig.jpg"",""time"":0.2999997138977051},{""stimulus"":""run_exp/static/images/task_images/land.jpg"",""time"":669.4000000953674},{""stimulus"":""run_exp/static/images/task_images/dig.jpg"",""time"":1343.6999998092651}]",[],2,,,,,,,,,,,,,,
harvest,72,349917,0.0-25.0-4.0,"""event"",""trial"",""time""
""fullscreenenter"",""1"",""1542""
""fullscreenexit"",""6"",""44183""
""blur"",""6"",""45525""
""focus"",""7"",""57473""
""blur"",""44"",""244275""
""focus"",""44"",""265722""
","""event"",""trial"",""time""
""blur"",""6"",""45525""
""blur"",""44"",""244275""
","""event"",""trial"",""time""
""focus"",""7"",""57473""
""focus"",""44"",""265722""
","""event"",""trial"",""time""
""fullscreenenter"",""1"",""1542""
","""event"",""trial"",""time""
""fullscreenexit"",""6"",""44183""
",,null,run_exp/static/images/task_images/gems/97.jpg,null,,,,,,,25,,,2,,,,,97,0.261014373,0.257731959,,,,,,,
decision,73,350879,0.0-25.0-5.0,"""event"",""trial"",""time""
""fullscreenenter"",""1"",""1542""
""fullscreenexit"",""6"",""44183""
""blur"",""6"",""45525""
""focus"",""7"",""57473""
""blur"",""44"",""244275""
""focus"",""44"",""265722""
","""event"",""trial"",""time""
""blur"",""6"",""45525""
""blur"",""44"",""244275""
","""event"",""trial"",""time""
""focus"",""7"",""57473""
""focus"",""44"",""265722""
","""event"",""trial"",""time""
""fullscreenenter"",""1"",""1542""
","""event"",""trial"",""time""
""fullscreenexit"",""6"",""44183""
",,960.5,run_exp/static/images/task_images/land.jpg,65,,,,,,,25,,,2,,,,,,,,32006,1,0,FALSE,,,
dig,74,352923,0.0-26.0-0.0,"""event"",""trial"",""time""
""fullscreenenter"",""1"",""1542""
""fullscreenexit"",""6"",""44183""
""blur"",""6"",""45525""
""focus"",""7"",""57473""
""blur"",""44"",""244275""
""focus"",""44"",""265722""
","""event"",""trial"",""time""
""blur"",""6"",""45525""
""blur"",""44"",""244275""
","""event"",""trial"",""time""
""focus"",""7"",""57473""
""focus"",""44"",""265722""
","""event"",""trial"",""time""
""fullscreenenter"",""1"",""1542""
","""event"",""trial"",""time""
""fullscreenexit"",""6"",""44183""
",,,,,,,,,,,,"[{""stimulus"":""run_exp/static/images/task_images/dig.jpg"",""time"":0.19999980926513672},{""stimulus"":""run_exp/static/images/task_images/land.jpg"",""time"":681.0999999046326},{""stimulus"":""run_exp/static/images/task_images/dig.jpg"",""time"":1360.1999998092651}]",[],2,,,,,,,,,,,,,,
harvest,75,353926,0.0-26.0-1.0,"""event"",""trial"",""time""
""fullscreenenter"",""1"",""1542""
""fullscreenexit"",""6"",""44183""
""blur"",""6"",""45525""
""focus"",""7"",""57473""
""blur"",""44"",""244275""
""focus"",""44"",""265722""
","""event"",""trial"",""time""
""blur"",""6"",""45525""
""blur"",""44"",""244275""
","""event"",""trial"",""time""
""focus"",""7"",""57473""
""focus"",""44"",""265722""
","""event"",""trial"",""time""
""fullscreenenter"",""1"",""1542""
","""event"",""trial"",""time""
""fullscreenexit"",""6"",""44183""
",,null,run_exp/static/images/task_images/gems/25.jpg,null,,,,,,,5,,,2,,,,,25,0.210390723,0.2,,,,,,,
decision,76,354655,0.0-26.0-2.0,"""event"",""trial"",""time""
""fullscreenenter"",""1"",""1542""
""fullscreenexit"",""6"",""44183""
""blur"",""6"",""45525""
""focus"",""7"",""57473""
""blur"",""44"",""244275""
""focus"",""44"",""265722""
","""event"",""trial"",""time""
""blur"",""6"",""45525""
""blur"",""44"",""244275""
","""event"",""trial"",""time""
""focus"",""7"",""57473""
""focus"",""44"",""265722""
","""event"",""trial"",""time""
""fullscreenenter"",""1"",""1542""
","""event"",""trial"",""time""
""fullscreenexit"",""6"",""44183""
",,727.1999998,run_exp/static/images/task_images/land.jpg,76,,,,,,,5,,,2,,,,,,,,35782,1,1,TRUE,,,
travel,77,363932,0.0-27.0-0.0,"""event"",""trial"",""time""
""fullscreenenter"",""1"",""1542""
""fullscreenexit"",""6"",""44183""
""blur"",""6"",""45525""
""focus"",""7"",""57473""
""blur"",""44"",""244275""
""focus"",""44"",""265722""
","""event"",""trial"",""time""
""blur"",""6"",""45525""
""blur"",""44"",""244275""
","""event"",""trial"",""time""
""focus"",""7"",""57473""
""focus"",""44"",""265722""
","""event"",""trial"",""time""
""fullscreenenter"",""1"",""1542""
","""event"",""trial"",""time""
""fullscreenexit"",""6"",""44183""
",,,,,,,,,,,,"[{""stimulus"":""run_exp/static/images/task_images/rocket-01.jpg"",""time"":0.39999961853027344},{""stimulus"":""run_exp/static/images/task_images/rocket-02.jpg"",""time"":1032.6999998092651},{""stimulus"":""run_exp/static/images/task_images/rocket-03.jpg"",""time"":2062.3999996185303},{""stimulus"":""run_exp/static/images/task_images/rocket-04.jpg"",""time"":3092.2999997138977},{""stimulus"":""run_exp/static/images/task_images/rocket-05.jpg"",""time"":4121.799999713898},{""stimulus"":""run_exp/static/images/task_images/rocket-06.jpg"",""time"":5151.5},{""stimulus"":""run_exp/static/images/task_images/rocket-07.jpg"",""time"":6182.39999961853},{""stimulus"":""run_exp/static/images/task_images/rocket-08.jpg"",""time"":7212.299999713898},{""stimulus"":""run_exp/static/images/task_images/rocket-09.jpg"",""time"":8242.599999904633}]",[],2,,,,,,,,,,,,,,
alien_welcome,78,368936,0.0-27.0-1.0,"""event"",""trial"",""time""
""fullscreenenter"",""1"",""1542""
""fullscreenexit"",""6"",""44183""
""blur"",""6"",""45525""
""focus"",""7"",""57473""
""blur"",""44"",""244275""
""focus"",""44"",""265722""
","""event"",""trial"",""time""
""blur"",""6"",""45525""
""blur"",""44"",""244275""
","""event"",""trial"",""time""
""focus"",""7"",""57473""
""focus"",""44"",""265722""
","""event"",""trial"",""time""
""fullscreenenter"",""1"",""1542""
","""event"",""trial"",""time""
""fullscreenexit"",""6"",""44183""
",,null,run_exp/static/images/task_images/aliens/old_aliens/planet/alien_planet-23.jpg,null,,,,,,,,,,,,,23,"67,57,23,32,18,16,35,66,27,63,30,26,34,12,24,58,21,8,77,72,47,50,44,75,29,20,3,22,25,70,39,40,52,31,36,19,73,61,45,1,59,37,64,41,17,2,78,74,11,80,60,49,62,68,4,76,28,79,51,7,9,14,53,69,5",,,,,,,,,,
land,79,369439,0.0-27.0-2.0,"""event"",""trial"",""time""
""fullscreenenter"",""1"",""1542""
""fullscreenexit"",""6"",""44183""
""blur"",""6"",""45525""
""focus"",""7"",""57473""
""blur"",""44"",""244275""
""focus"",""44"",""265722""
","""event"",""trial"",""time""
""blur"",""6"",""45525""
""blur"",""44"",""244275""
","""event"",""trial"",""time""
""focus"",""7"",""57473""
""focus"",""44"",""265722""
","""event"",""trial"",""time""
""fullscreenenter"",""1"",""1542""
","""event"",""trial"",""time""
""fullscreenexit"",""6"",""44183""
",,null,run_exp/static/images/task_images/land.jpg,null,,,,,,,108,,,3,,,,,,,,,,,,,,
dig,80,371445,0.0-27.0-3.0,"""event"",""trial"",""time""
""fullscreenenter"",""1"",""1542""
""fullscreenexit"",""6"",""44183""
""blur"",""6"",""45525""
""focus"",""7"",""57473""
""blur"",""44"",""244275""
""focus"",""44"",""265722""
","""event"",""trial"",""time""
""blur"",""6"",""45525""
""blur"",""44"",""244275""
","""event"",""trial"",""time""
""focus"",""7"",""57473""
""focus"",""44"",""265722""
","""event"",""trial"",""time""
""fullscreenenter"",""1"",""1542""
","""event"",""trial"",""time""
""fullscreenexit"",""6"",""44183""
",,,,,,,,,,,,"[{""stimulus"":""run_exp/static/images/task_images/dig.jpg"",""time"":0.40000009536743164},{""stimulus"":""run_exp/static/images/task_images/land.jpg"",""time"":669.5},{""stimulus"":""run_exp/static/images/task_images/dig.jpg"",""time"":1335.6999998092651}]",[],3,,,,,,,,,,,,,,
harvest,81,372447,0.0-27.0-4.0,"""event"",""trial"",""time""
""fullscreenenter"",""1"",""1542""
""fullscreenexit"",""6"",""44183""
""blur"",""6"",""45525""
""focus"",""7"",""57473""
""blur"",""44"",""244275""
""focus"",""44"",""265722""
","""event"",""trial"",""time""
""blur"",""6"",""45525""
""blur"",""44"",""244275""
","""event"",""trial"",""time""
""focus"",""7"",""57473""
""focus"",""44"",""265722""
","""event"",""trial"",""time""
""fullscreenenter"",""1"",""1542""
","""event"",""trial"",""time""
""fullscreenexit"",""6"",""44183""
",,null,run_exp/static/images/task_images/gems/108.jpg,null,,,,,,,60,,,3,,,,,108,0.552636948,0.555555556,,,,,,,
decision,82,373119,0.0-27.0-5.0,"""event"",""trial"",""time""
""fullscreenenter"",""1"",""1542""
""fullscreenexit"",""6"",""44183""
""blur"",""6"",""45525""
""focus"",""7"",""57473""
""blur"",""44"",""244275""
""focus"",""44"",""265722""
","""event"",""trial"",""time""
""blur"",""6"",""45525""
""blur"",""44"",""244275""
","""event"",""trial"",""time""
""focus"",""7"",""57473""
""focus"",""44"",""265722""
","""event"",""trial"",""time""
""fullscreenenter"",""1"",""1542""
","""event"",""trial"",""time""
""fullscreenexit"",""6"",""44183""
",,669.5999999,run_exp/static/images/task_images/land.jpg,65,,,,,,,60,,,3,,,,,,,,54246,1,0,FALSE,,,
dig,83,375453,0.0-28.0-0.0,"""event"",""trial"",""time""
""fullscreenenter"",""1"",""1542""
""fullscreenexit"",""6"",""44183""
""blur"",""6"",""45525""
""focus"",""7"",""57473""
""blur"",""44"",""244275""
""focus"",""44"",""265722""
","""event"",""trial"",""time""
""blur"",""6"",""45525""
""blur"",""44"",""244275""
","""event"",""trial"",""time""
""focus"",""7"",""57473""
""focus"",""44"",""265722""
","""event"",""trial"",""time""
""fullscreenenter"",""1"",""1542""
","""event"",""trial"",""time""
""fullscreenexit"",""6"",""44183""
",,,,,,,,,,,,"[{""stimulus"":""run_exp/static/images/task_images/dig.jpg"",""time"":0.3000001907348633},{""stimulus"":""run_exp/static/images/task_images/land.jpg"",""time"":778.5999999046326},{""stimulus"":""run_exp/static/images/task_images/dig.jpg"",""time"":1553.7000002861023}]",[],3,,,,,,,,,,,,,,
harvest,84,376456,0.0-28.0-1.0,"""event"",""trial"",""time""
""fullscreenenter"",""1"",""1542""
""fullscreenexit"",""6"",""44183""
""blur"",""6"",""45525""
""focus"",""7"",""57473""
""blur"",""44"",""244275""
""focus"",""44"",""265722""
","""event"",""trial"",""time""
""blur"",""6"",""45525""
""blur"",""44"",""244275""
","""event"",""trial"",""time""
""focus"",""7"",""57473""
""focus"",""44"",""265722""
","""event"",""trial"",""time""
""fullscreenenter"",""1"",""1542""
","""event"",""trial"",""time""
""fullscreenexit"",""6"",""44183""
",,null,run_exp/static/images/task_images/gems/60.jpg,null,,,,,,,29,,,3,,,,,60,0.487835011,0.483333333,,,,,,,
decision,85,376718,0.0-28.0-2.0,"""event"",""trial"",""time""
""fullscreenenter"",""1"",""1542""
""fullscreenexit"",""6"",""44183""
""blur"",""6"",""45525""
""focus"",""7"",""57473""
""blur"",""44"",""244275""
""focus"",""44"",""265722""
","""event"",""trial"",""time""
""blur"",""6"",""45525""
""blur"",""44"",""244275""
","""event"",""trial"",""time""
""focus"",""7"",""57473""
""focus"",""44"",""265722""
","""event"",""trial"",""time""
""fullscreenenter"",""1"",""1542""
","""event"",""trial"",""time""
""fullscreenexit"",""6"",""44183""
",,261.1999998,run_exp/static/images/task_images/land.jpg,76,,,,,,,29,,,3,,,,,,,,57845,1,1,TRUE,,,
travel,86,386461,0.0-29.0-0.0,"""event"",""trial"",""time""
""fullscreenenter"",""1"",""1542""
""fullscreenexit"",""6"",""44183""
""blur"",""6"",""45525""
""focus"",""7"",""57473""
""blur"",""44"",""244275""
""focus"",""44"",""265722""
","""event"",""trial"",""time""
""blur"",""6"",""45525""
""blur"",""44"",""244275""
","""event"",""trial"",""time""
""focus"",""7"",""57473""
""focus"",""44"",""265722""
","""event"",""trial"",""time""
""fullscreenenter"",""1"",""1542""
","""event"",""trial"",""time""
""fullscreenexit"",""6"",""44183""
",,,,,,,,,,,,"[{""stimulus"":""run_exp/static/images/task_images/rocket-01.jpg"",""time"":0.09999990463256836},{""stimulus"":""run_exp/static/images/task_images/rocket-02.jpg"",""time"":1083.7000002861023},{""stimulus"":""run_exp/static/images/task_images/rocket-03.jpg"",""time"":2166.2000002861023},{""stimulus"":""run_exp/static/images/task_images/rocket-04.jpg"",""time"":3248},{""stimulus"":""run_exp/static/images/task_images/rocket-05.jpg"",""time"":4329.900000095367},{""stimulus"":""run_exp/static/images/task_images/rocket-06.jpg"",""time"":5412.099999904633},{""stimulus"":""run_exp/static/images/task_images/rocket-07.jpg"",""time"":6493.900000095367},{""stimulus"":""run_exp/static/images/task_images/rocket-08.jpg"",""time"":7576.700000286102},{""stimulus"":""run_exp/static/images/task_images/rocket-09.jpg"",""time"":8658}]",[],3,,,,,,,,,,,,,,
alien_welcome,87,391464,0.0-29.0-1.0,"""event"",""trial"",""time""
""fullscreenenter"",""1"",""1542""
""fullscreenexit"",""6"",""44183""
""blur"",""6"",""45525""
""focus"",""7"",""57473""
""blur"",""44"",""244275""
""focus"",""44"",""265722""
","""event"",""trial"",""time""
""blur"",""6"",""45525""
""blur"",""44"",""244275""
","""event"",""trial"",""time""
""focus"",""7"",""57473""
""focus"",""44"",""265722""
","""event"",""trial"",""time""
""fullscreenenter"",""1"",""1542""
","""event"",""trial"",""time""
""fullscreenexit"",""6"",""44183""
",,null,run_exp/static/images/task_images/aliens/old_aliens/planet/alien_planet-32.jpg,null,,,,,,,,,,,,,32,"67,57,23,32,18,16,35,66,27,63,30,26,34,12,24,58,21,8,77,72,47,50,44,75,29,20,3,22,25,70,39,40,52,31,36,19,73,61,45,1,59,37,64,41,17,2,78,74,11,80,60,49,62,68,4,76,28,79,51,7,9,14,53,69,5",,,,,,,,,,
land,88,391966,0.0-29.0-2.0,"""event"",""trial"",""time""
""fullscreenenter"",""1"",""1542""
""fullscreenexit"",""6"",""44183""
""blur"",""6"",""45525""
""focus"",""7"",""57473""
""blur"",""44"",""244275""
""focus"",""44"",""265722""
","""event"",""trial"",""time""
""blur"",""6"",""45525""
""blur"",""44"",""244275""
","""event"",""trial"",""time""
""focus"",""7"",""57473""
""focus"",""44"",""265722""
","""event"",""trial"",""time""
""fullscreenenter"",""1"",""1542""
","""event"",""trial"",""time""
""fullscreenexit"",""6"",""44183""
",,null,run_exp/static/images/task_images/land.jpg,null,,,,,,,98,,,4,,,,,,,,,,,,,,
dig,89,393971,0.0-29.0-3.0,"""event"",""trial"",""time""
""fullscreenenter"",""1"",""1542""
""fullscreenexit"",""6"",""44183""
""blur"",""6"",""45525""
""focus"",""7"",""57473""
""blur"",""44"",""244275""
""focus"",""44"",""265722""
","""event"",""trial"",""time""
""blur"",""6"",""45525""
""blur"",""44"",""244275""
","""event"",""trial"",""time""
""focus"",""7"",""57473""
""focus"",""44"",""265722""
","""event"",""trial"",""time""
""fullscreenenter"",""1"",""1542""
","""event"",""trial"",""time""
""fullscreenexit"",""6"",""44183""
",,,,,,,,,,,,"[{""stimulus"":""run_exp/static/images/task_images/dig.jpg"",""time"":0.19999980926513672},{""stimulus"":""run_exp/static/images/task_images/land.jpg"",""time"":669.3999996185303},{""stimulus"":""run_exp/static/images/task_images/dig.jpg"",""time"":1336.5}]",[],4,,,,,,,,,,,,,,
harvest,90,394973,0.0-29.0-4.0,"""event"",""trial"",""time""
""fullscreenenter"",""1"",""1542""
""fullscreenexit"",""6"",""44183""
""blur"",""6"",""45525""
""focus"",""7"",""57473""
""blur"",""44"",""244275""
""focus"",""44"",""265722""
","""event"",""trial"",""time""
""blur"",""6"",""45525""
""blur"",""44"",""244275""
","""event"",""trial"",""time""
""focus"",""7"",""57473""
""focus"",""44"",""265722""
","""event"",""trial"",""time""
""fullscreenenter"",""1"",""1542""
","""event"",""trial"",""time""
""fullscreenexit"",""6"",""44183""
",,null,run_exp/static/images/task_images/gems/98.jpg,null,,,,,,,58,,,4,,,,,98,0.587640676,0.591836735,,,,,,,
decision,91,395463,0.0-29.0-5.0,"""event"",""trial"",""time""
""fullscreenenter"",""1"",""1542""
""fullscreenexit"",""6"",""44183""
""blur"",""6"",""45525""
""focus"",""7"",""57473""
""blur"",""44"",""244275""
""focus"",""44"",""265722""
","""event"",""trial"",""time""
""blur"",""6"",""45525""
""blur"",""44"",""244275""
","""event"",""trial"",""time""
""focus"",""7"",""57473""
""focus"",""44"",""265722""
","""event"",""trial"",""time""
""fullscreenenter"",""1"",""1542""
","""event"",""trial"",""time""
""fullscreenexit"",""6"",""44183""
",,487.6999998,run_exp/static/images/task_images/land.jpg,65,,,,,,,58,,,4,,,,,,,,76590,1,0,FALSE,,,
dig,92,397980,0.0-30.0-0.0,"""event"",""trial"",""time""
""fullscreenenter"",""1"",""1542""
""fullscreenexit"",""6"",""44183""
""blur"",""6"",""45525""
""focus"",""7"",""57473""
""blur"",""44"",""244275""
""focus"",""44"",""265722""
","""event"",""trial"",""time""
""blur"",""6"",""45525""
""blur"",""44"",""244275""
","""event"",""trial"",""time""
""focus"",""7"",""57473""
""focus"",""44"",""265722""
","""event"",""trial"",""time""
""fullscreenenter"",""1"",""1542""
","""event"",""trial"",""time""
""fullscreenexit"",""6"",""44183""
",,,,,,,,,,,,"[{""stimulus"":""run_exp/static/images/task_images/dig.jpg"",""time"":0.19999980926513672},{""stimulus"":""run_exp/static/images/task_images/land.jpg"",""time"":839.1999998092651},{""stimulus"":""run_exp/static/images/task_images/dig.jpg"",""time"":1676.1999998092651}]",[],4,,,,,,,,,,,,,,
harvest,93,398983,0.0-30.0-1.0,"""event"",""trial"",""time""
""fullscreenenter"",""1"",""1542""
""fullscreenexit"",""6"",""44183""
""blur"",""6"",""45525""
""focus"",""7"",""57473""
""blur"",""44"",""244275""
""focus"",""44"",""265722""
","""event"",""trial"",""time""
""blur"",""6"",""45525""
""blur"",""44"",""244275""
","""event"",""trial"",""time""
""focus"",""7"",""57473""
""focus"",""44"",""265722""
","""event"",""trial"",""time""
""fullscreenenter"",""1"",""1542""
","""event"",""trial"",""time""
""fullscreenexit"",""6"",""44183""
",,null,run_exp/static/images/task_images/gems/58.jpg,null,,,,,,,33,,,4,,,,,58,0.562723282,0.568965517,,,,,,,
decision,94,398999,0.0-30.0-2.0,"""event"",""trial"",""time""
""fullscreenenter"",""1"",""1542""
""fullscreenexit"",""6"",""44183""
""blur"",""6"",""45525""
""focus"",""7"",""57473""
""blur"",""44"",""244275""
""focus"",""44"",""265722""
","""event"",""trial"",""time""
""blur"",""6"",""45525""
""blur"",""44"",""244275""
","""event"",""trial"",""time""
""focus"",""7"",""57473""
""focus"",""44"",""265722""
","""event"",""trial"",""time""
""fullscreenenter"",""1"",""1542""
","""event"",""trial"",""time""
""fullscreenexit"",""6"",""44183""
",,14.5,run_exp/static/images/task_images/land.jpg,65,,,,,,,33,,,4,,,,,,,,80126,1,1,FALSE,,,
dig,95,401990,0.0-31.0-0.0,"""event"",""trial"",""time""
""fullscreenenter"",""1"",""1542""
""fullscreenexit"",""6"",""44183""
""blur"",""6"",""45525""
""focus"",""7"",""57473""
""blur"",""44"",""244275""
""focus"",""44"",""265722""
","""event"",""trial"",""time""
""blur"",""6"",""45525""
""blur"",""44"",""244275""
","""event"",""trial"",""time""
""focus"",""7"",""57473""
""focus"",""44"",""265722""
","""event"",""trial"",""time""
""fullscreenenter"",""1"",""1542""
","""event"",""trial"",""time""
""fullscreenexit"",""6"",""44183""
",,,,,,,,,,,,"[{""stimulus"":""run_exp/static/images/task_images/dig.jpg"",""time"":0.20000028610229492},{""stimulus"":""run_exp/static/images/task_images/land.jpg"",""time"":996.5},{""stimulus"":""run_exp/static/images/task_images/dig.jpg"",""time"":1992.5}]",[],4,,,,,,,,,,,,,,
harvest,96,402993,0.0-31.0-1.0,"""event"",""trial"",""time""
""fullscreenenter"",""1"",""1542""
""fullscreenexit"",""6"",""44183""
""blur"",""6"",""45525""
""focus"",""7"",""57473""
""blur"",""44"",""244275""
""focus"",""44"",""265722""
","""event"",""trial"",""time""
""blur"",""6"",""45525""
""blur"",""44"",""244275""
","""event"",""trial"",""time""
""focus"",""7"",""57473""
""focus"",""44"",""265722""
","""event"",""trial"",""time""
""fullscreenenter"",""1"",""1542""
","""event"",""trial"",""time""
""fullscreenexit"",""6"",""44183""
",,null,run_exp/static/images/task_images/gems/33.jpg,null,,,,,,,19,,,4,,,,,33,0.563069052,0.575757576,,,,,,,
decision,97,403671,0.0-31.0-2.0,"""event"",""trial"",""time""
""fullscreenenter"",""1"",""1542""
""fullscreenexit"",""6"",""44183""
""blur"",""6"",""45525""
""focus"",""7"",""57473""
""blur"",""44"",""244275""
""focus"",""44"",""265722""
""blur"",""98"",""412483""
","""event"",""trial"",""time""
""blur"",""6"",""45525""
""blur"",""44"",""244275""
""blur"",""98"",""412483""
","""event"",""trial"",""time""
""focus"",""7"",""57473""
""focus"",""44"",""265722""
","""event"",""trial"",""time""
""fullscreenenter"",""1"",""1542""
","""event"",""trial"",""time""
""fullscreenexit"",""6"",""44183""
",,676.5,run_exp/static/images/task_images/land.jpg,76,,,,,,,19,,,4,,,,,,,,84798,1,2,TRUE,,,
travel,98,412992,0.0-32.0-0.0,"""event"",""trial"",""time""
""fullscreenenter"",""1"",""1542""
""fullscreenexit"",""6"",""44183""
""blur"",""6"",""45525""
""focus"",""7"",""57473""
""blur"",""44"",""244275""
""focus"",""44"",""265722""
""blur"",""98"",""412483""
","""event"",""trial"",""time""
""blur"",""6"",""45525""
""blur"",""44"",""244275""
""blur"",""98"",""412483""
","""event"",""trial"",""time""
""focus"",""7"",""57473""
""focus"",""44"",""265722""
","""event"",""trial"",""time""
""fullscreenenter"",""1"",""1542""
","""event"",""trial"",""time""
""fullscreenexit"",""6"",""44183""
",,,,,,,,,,,,"[{""stimulus"":""run_exp/static/images/task_images/rocket-01.jpg"",""time"":0.20000028610229492},{""stimulus"":""run_exp/static/images/task_images/rocket-02.jpg"",""time"":1037.7000002861023},{""stimulus"":""run_exp/static/images/task_images/rocket-03.jpg"",""time"":2072.7000002861023},{""stimulus"":""run_exp/static/images/task_images/rocket-04.jpg"",""time"":3107.5},{""stimulus"":""run_exp/static/images/task_images/rocket-05.jpg"",""time"":4141.800000190735},{""stimulus"":""run_exp/static/images/task_images/rocket-06.jpg"",""time"":5177.700000286102},{""stimulus"":""run_exp/static/images/task_images/rocket-07.jpg"",""time"":6212.599999904633},{""stimulus"":""run_exp/static/images/task_images/rocket-08.jpg"",""time"":7247.400000095367},{""stimulus"":""run_exp/static/images/task_images/rocket-09.jpg"",""time"":8282.300000190735}]",[],4,,,,,,,,,,,,,,
alien_welcome,99,417994,0.0-32.0-1.0,"""event"",""trial"",""time""
""fullscreenenter"",""1"",""1542""
""fullscreenexit"",""6"",""44183""
""blur"",""6"",""45525""
""focus"",""7"",""57473""
""blur"",""44"",""244275""
""focus"",""44"",""265722""
""blur"",""98"",""412483""
","""event"",""trial"",""time""
""blur"",""6"",""45525""
""blur"",""44"",""244275""
""blur"",""98"",""412483""
","""event"",""trial"",""time""
""focus"",""7"",""57473""
""focus"",""44"",""265722""
","""event"",""trial"",""time""
""fullscreenenter"",""1"",""1542""
","""event"",""trial"",""time""
""fullscreenexit"",""6"",""44183""
",,null,run_exp/static/images/task_images/aliens/old_aliens/planet/alien_planet-18.jpg,null,,,,,,,,,,,,,18,"67,57,23,32,18,16,35,66,27,63,30,26,34,12,24,58,21,8,77,72,47,50,44,75,29,20,3,22,25,70,39,40,52,31,36,19,73,61,45,1,59,37,64,41,17,2,78,74,11,80,60,49,62,68,4,76,28,79,51,7,9,14,53,69,5",,,,,,,,,,
land,100,418497,0.0-32.0-2.0,"""event"",""trial"",""time""
""fullscreenenter"",""1"",""1542""
""fullscreenexit"",""6"",""44183""
""blur"",""6"",""45525""
""focus"",""7"",""57473""
""blur"",""44"",""244275""
""focus"",""44"",""265722""
""blur"",""98"",""412483""
""focus"",""101"",""418664""
","""event"",""trial"",""time""
""blur"",""6"",""45525""
""blur"",""44"",""244275""
""blur"",""98"",""412483""
","""event"",""trial"",""time""
""focus"",""7"",""57473""
""focus"",""44"",""265722""
""focus"",""101"",""418664""
","""event"",""trial"",""time""
""fullscreenenter"",""1"",""1542""
","""event"",""trial"",""time""
""fullscreenexit"",""6"",""44183""
",,null,run_exp/static/images/task_images/land.jpg,null,,,,,,,97,,,5,,,,,,,,,,,,,,
dig,101,420503,0.0-32.0-3.0,"""event"",""trial"",""time""
""fullscreenenter"",""1"",""1542""
""fullscreenexit"",""6"",""44183""
""blur"",""6"",""45525""
""focus"",""7"",""57473""
""blur"",""44"",""244275""
""focus"",""44"",""265722""
""blur"",""98"",""412483""
""focus"",""101"",""418664""
","""event"",""trial"",""time""
""blur"",""6"",""45525""
""blur"",""44"",""244275""
""blur"",""98"",""412483""
","""event"",""trial"",""time""
""focus"",""7"",""57473""
""focus"",""44"",""265722""
""focus"",""101"",""418664""
","""event"",""trial"",""time""
""fullscreenenter"",""1"",""1542""
","""event"",""trial"",""time""
""fullscreenexit"",""6"",""44183""
",,,,,,,,,,,,"[{""stimulus"":""run_exp/static/images/task_images/dig.jpg"",""time"":0.39999961853027344},{""stimulus"":""run_exp/static/images/task_images/land.jpg"",""time"":669.5999999046326},{""stimulus"":""run_exp/static/images/task_images/dig.jpg"",""time"":1336.8999996185303}]",[],5,,,,,,,,,,,,,,
harvest,102,421506,0.0-32.0-4.0,"""event"",""trial"",""time""
""fullscreenenter"",""1"",""1542""
""fullscreenexit"",""6"",""44183""
""blur"",""6"",""45525""
""focus"",""7"",""57473""
""blur"",""44"",""244275""
""focus"",""44"",""265722""
""blur"",""98"",""412483""
""focus"",""101"",""418664""
","""event"",""trial"",""time""
""blur"",""6"",""45525""
""blur"",""44"",""244275""
""blur"",""98"",""412483""
","""event"",""trial"",""time""
""focus"",""7"",""57473""
""focus"",""44"",""265722""
""focus"",""101"",""418664""
","""event"",""trial"",""time""
""fullscreenenter"",""1"",""1542""
","""event"",""trial"",""time""
""fullscreenexit"",""6"",""44183""
",,null,run_exp/static/images/task_images/gems/97.jpg,null,,,,,,,49,,,5,,,,,97,0.503970675,0.505154639,,,,,,,
decision,103,421974,0.0-32.0-5.0,"""event"",""trial"",""time""
""fullscreenenter"",""1"",""1542""
""fullscreenexit"",""6"",""44183""
""blur"",""6"",""45525""
""focus"",""7"",""57473""
""blur"",""44"",""244275""
""focus"",""44"",""265722""
""blur"",""98"",""412483""
""focus"",""101"",""418664""
","""event"",""trial"",""time""
""blur"",""6"",""45525""
""blur"",""44"",""244275""
""blur"",""98"",""412483""
","""event"",""trial"",""time""
""focus"",""7"",""57473""
""focus"",""44"",""265722""
""focus"",""101"",""418664""
","""event"",""trial"",""time""
""fullscreenenter"",""1"",""1542""
","""event"",""trial"",""time""
""fullscreenexit"",""6"",""44183""
",,466.5,run_exp/static/images/task_images/land.jpg,65,,,,,,,49,,,5,,,,,,,,103101,1,0,FALSE,,,
dig,104,424512,0.0-33.0-0.0,"""event"",""trial"",""time""
""fullscreenenter"",""1"",""1542""
""fullscreenexit"",""6"",""44183""
""blur"",""6"",""45525""
""focus"",""7"",""57473""
""blur"",""44"",""244275""
""focus"",""44"",""265722""
""blur"",""98"",""412483""
""focus"",""101"",""418664""
","""event"",""trial"",""time""
""blur"",""6"",""45525""
""blur"",""44"",""244275""
""blur"",""98"",""412483""
","""event"",""trial"",""time""
""focus"",""7"",""57473""
""focus"",""44"",""265722""
""focus"",""101"",""418664""
","""event"",""trial"",""time""
""fullscreenenter"",""1"",""1542""
","""event"",""trial"",""time""
""fullscreenexit"",""6"",""44183""
",,,,,,,,,,,,"[{""stimulus"":""run_exp/static/images/task_images/dig.jpg"",""time"":0.20000028610229492},{""stimulus"":""run_exp/static/images/task_images/land.jpg"",""time"":845.7000002861023},{""stimulus"":""run_exp/static/images/task_images/dig.jpg"",""time"":1690.2000002861023}]",[],5,,,,,,,,,,,,,,
harvest,105,425514,0.0-33.0-1.0,"""event"",""trial"",""time""
""fullscreenenter"",""1"",""1542""
""fullscreenexit"",""6"",""44183""
""blur"",""6"",""45525""
""focus"",""7"",""57473""
""blur"",""44"",""244275""
""focus"",""44"",""265722""
""blur"",""98"",""412483""
""focus"",""101"",""418664""
","""event"",""trial"",""time""
""blur"",""6"",""45525""
""blur"",""44"",""244275""
""blur"",""98"",""412483""
","""event"",""trial"",""time""
""focus"",""7"",""57473""
""focus"",""44"",""265722""
""focus"",""101"",""418664""
","""event"",""trial"",""time""
""fullscreenenter"",""1"",""1542""
","""event"",""trial"",""time""
""fullscreenexit"",""6"",""44183""
",,null,run_exp/static/images/task_images/gems/49.jpg,null,,,,,,,23,,,5,,,,,49,0.464738192,0.469387755,,,,,,,
decision,106,426446,0.0-33.0-2.0,"""event"",""trial"",""time""
""fullscreenenter"",""1"",""1542""
""fullscreenexit"",""6"",""44183""
""blur"",""6"",""45525""
""focus"",""7"",""57473""
""blur"",""44"",""244275""
""focus"",""44"",""265722""
""blur"",""98"",""412483""
""focus"",""101"",""418664""
""blur"",""107"",""427729""
""focus"",""107"",""431204""
","""event"",""trial"",""time""
""blur"",""6"",""45525""
""blur"",""44"",""244275""
""blur"",""98"",""412483""
""blur"",""107"",""427729""
","""event"",""trial"",""time""
""focus"",""7"",""57473""
""focus"",""44"",""265722""
""focus"",""101"",""418664""
""focus"",""107"",""431204""
","""event"",""trial"",""time""
""fullscreenenter"",""1"",""1542""
","""event"",""trial"",""time""
""fullscreenexit"",""6"",""44183""
",,930.4000001,run_exp/static/images/task_images/land.jpg,76,,,,,,,23,,,5,,,,,,,,107573,1,1,TRUE,,,
travel,107,435522,0.0-34.0-0.0,"""event"",""trial"",""time""
""fullscreenenter"",""1"",""1542""
""fullscreenexit"",""6"",""44183""
""blur"",""6"",""45525""
""focus"",""7"",""57473""
""blur"",""44"",""244275""
""focus"",""44"",""265722""
""blur"",""98"",""412483""
""focus"",""101"",""418664""
""blur"",""107"",""427729""
""focus"",""107"",""431204""
","""event"",""trial"",""time""
""blur"",""6"",""45525""
""blur"",""44"",""244275""
""blur"",""98"",""412483""
""blur"",""107"",""427729""
","""event"",""trial"",""time""
""focus"",""7"",""57473""
""focus"",""44"",""265722""
""focus"",""101"",""418664""
""focus"",""107"",""431204""
","""event"",""trial"",""time""
""fullscreenenter"",""1"",""1542""
","""event"",""trial"",""time""
""fullscreenexit"",""6"",""44183""
",,,,,,,,,,,,"[{""stimulus"":""run_exp/static/images/task_images/rocket-01.jpg"",""time"":0.19999980926513672},{""stimulus"":""run_exp/static/images/task_images/rocket-02.jpg"",""time"":1009.5},{""stimulus"":""run_exp/static/images/task_images/rocket-03.jpg"",""time"":2016.9000000953674},{""stimulus"":""run_exp/static/images/task_images/rocket-04.jpg"",""time"":3023.699999809265},{""stimulus"":""run_exp/static/images/task_images/rocket-05.jpg"",""time"":4041.2999997138977},{""stimulus"":""run_exp/static/images/task_images/rocket-06.jpg"",""time"":5037},{""stimulus"":""run_exp/static/images/task_images/rocket-07.jpg"",""time"":6044.900000095367},{""stimulus"":""run_exp/static/images/task_images/rocket-08.jpg"",""time"":7051.799999713898},{""stimulus"":""run_exp/static/images/task_images/rocket-09.jpg"",""time"":8058.299999713898}]",[],5,,,,,,,,,,,,,,
alien_welcome,108,440525,0.0-34.0-1.0,"""event"",""trial"",""time""
""fullscreenenter"",""1"",""1542""
""fullscreenexit"",""6"",""44183""
""blur"",""6"",""45525""
""focus"",""7"",""57473""
""blur"",""44"",""244275""
""focus"",""44"",""265722""
""blur"",""98"",""412483""
""focus"",""101"",""418664""
""blur"",""107"",""427729""
""focus"",""107"",""431204""
","""event"",""trial"",""time""
""blur"",""6"",""45525""
""blur"",""44"",""244275""
""blur"",""98"",""412483""
""blur"",""107"",""427729""
","""event"",""trial"",""time""
""focus"",""7"",""57473""
""focus"",""44"",""265722""
""focus"",""101"",""418664""
""focus"",""107"",""431204""
","""event"",""trial"",""time""
""fullscreenenter"",""1"",""1542""
","""event"",""trial"",""time""
""fullscreenexit"",""6"",""44183""
",,null,run_exp/static/images/task_images/aliens/old_aliens/planet/alien_planet-16.jpg,null,,,,,,,,,,,,,16,"67,57,23,32,18,16,35,66,27,63,30,26,34,12,24,58,21,8,77,72,47,50,44,75,29,20,3,22,25,70,39,40,52,31,36,19,73,61,45,1,59,37,64,41,17,2,78,74,11,80,60,49,62,68,4,76,28,79,51,7,9,14,53,69,5",,,,,,,,,,
land,109,441028,0.0-34.0-2.0,"""event"",""trial"",""time""
""fullscreenenter"",""1"",""1542""
""fullscreenexit"",""6"",""44183""
""blur"",""6"",""45525""
""focus"",""7"",""57473""
""blur"",""44"",""244275""
""focus"",""44"",""265722""
""blur"",""98"",""412483""
""focus"",""101"",""418664""
""blur"",""107"",""427729""
""focus"",""107"",""431204""
","""event"",""trial"",""time""
""blur"",""6"",""45525""
""blur"",""44"",""244275""
""blur"",""98"",""412483""
""blur"",""107"",""427729""
","""event"",""trial"",""time""
""focus"",""7"",""57473""
""focus"",""44"",""265722""
""focus"",""101"",""418664""
""focus"",""107"",""431204""
","""event"",""trial"",""time""
""fullscreenenter"",""1"",""1542""
","""event"",""trial"",""time""
""fullscreenexit"",""6"",""44183""
",,null,run_exp/static/images/task_images/land.jpg,null,,,,,,,92,,,6,,,,,,,,,,,,,,
dig,110,443031,0.0-34.0-3.0,"""event"",""trial"",""time""
""fullscreenenter"",""1"",""1542""
""fullscreenexit"",""6"",""44183""
""blur"",""6"",""45525""
""focus"",""7"",""57473""
""blur"",""44"",""244275""
""focus"",""44"",""265722""
""blur"",""98"",""412483""
""focus"",""101"",""418664""
""blur"",""107"",""427729""
""focus"",""107"",""431204""
","""event"",""trial"",""time""
""blur"",""6"",""45525""
""blur"",""44"",""244275""
""blur"",""98"",""412483""
""blur"",""107"",""427729""
","""event"",""trial"",""time""
""focus"",""7"",""57473""
""focus"",""44"",""265722""
""focus"",""101"",""418664""
""focus"",""107"",""431204""
","""event"",""trial"",""time""
""fullscreenenter"",""1"",""1542""
","""event"",""trial"",""time""
""fullscreenexit"",""6"",""44183""
",,,,,,,,,,,,"[{""stimulus"":""run_exp/static/images/task_images/dig.jpg"",""time"":0.3000001907348633},{""stimulus"":""run_exp/static/images/task_images/land.jpg"",""time"":669.1999998092651},{""stimulus"":""run_exp/static/images/task_images/dig.jpg"",""time"":1336.4000000953674}]",[],6,,,,,,,,,,,,,,
harvest,111,444033,0.0-34.0-4.0,"""event"",""trial"",""time""
""fullscreenenter"",""1"",""1542""
""fullscreenexit"",""6"",""44183""
""blur"",""6"",""45525""
""focus"",""7"",""57473""
""blur"",""44"",""244275""
""focus"",""44"",""265722""
""blur"",""98"",""412483""
""focus"",""101"",""418664""
""blur"",""107"",""427729""
""focus"",""107"",""431204""
","""event"",""trial"",""time""
""blur"",""6"",""45525""
""blur"",""44"",""244275""
""blur"",""98"",""412483""
""blur"",""107"",""427729""
","""event"",""trial"",""time""
""focus"",""7"",""57473""
""focus"",""44"",""265722""
""focus"",""101"",""418664""
""focus"",""107"",""431204""
","""event"",""trial"",""time""
""fullscreenenter"",""1"",""1542""
","""event"",""trial"",""time""
""fullscreenexit"",""6"",""44183""
",,null,run_exp/static/images/task_images/gems/92.jpg,null,,,,,,,80,,,6,,,,,92,0.868762431,0.869565217,,,,,,,
decision,112,444574,0.0-34.0-5.0,"""event"",""trial"",""time""
""fullscreenenter"",""1"",""1542""
""fullscreenexit"",""6"",""44183""
""blur"",""6"",""45525""
""focus"",""7"",""57473""
""blur"",""44"",""244275""
""focus"",""44"",""265722""
""blur"",""98"",""412483""
""focus"",""101"",""418664""
""blur"",""107"",""427729""
""focus"",""107"",""431204""
","""event"",""trial"",""time""
""blur"",""6"",""45525""
""blur"",""44"",""244275""
""blur"",""98"",""412483""
""blur"",""107"",""427729""
","""event"",""trial"",""time""
""focus"",""7"",""57473""
""focus"",""44"",""265722""
""focus"",""101"",""418664""
""focus"",""107"",""431204""
","""event"",""trial"",""time""
""fullscreenenter"",""1"",""1542""
","""event"",""trial"",""time""
""fullscreenexit"",""6"",""44183""
",,539.6999998,run_exp/static/images/task_images/land.jpg,65,,,,,,,80,,,6,,,,,,,,125701,1,0,FALSE,,,
dig,113,447041,0.0-35.0-0.0,"""event"",""trial"",""time""
""fullscreenenter"",""1"",""1542""
""fullscreenexit"",""6"",""44183""
""blur"",""6"",""45525""
""focus"",""7"",""57473""
""blur"",""44"",""244275""
""focus"",""44"",""265722""
""blur"",""98"",""412483""
""focus"",""101"",""418664""
""blur"",""107"",""427729""
""focus"",""107"",""431204""
","""event"",""trial"",""time""
""blur"",""6"",""45525""
""blur"",""44"",""244275""
""blur"",""98"",""412483""
""blur"",""107"",""427729""
","""event"",""trial"",""time""
""focus"",""7"",""57473""
""focus"",""44"",""265722""
""focus"",""101"",""418664""
""focus"",""107"",""431204""
","""event"",""trial"",""time""
""fullscreenenter"",""1"",""1542""
","""event"",""trial"",""time""
""fullscreenexit"",""6"",""44183""
",,,,,,,,,,,,"[{""stimulus"":""run_exp/static/images/task_images/dig.jpg"",""time"":0.2999997138977051},{""stimulus"":""run_exp/static/images/task_images/land.jpg"",""time"":822.1999998092651},{""stimulus"":""run_exp/static/images/task_images/dig.jpg"",""time"":1642.1999998092651}]",[],6,,,,,,,,,,,,,,
harvest,114,448043,0.0-35.0-1.0,"""event"",""trial"",""time""
""fullscreenenter"",""1"",""1542""
""fullscreenexit"",""6"",""44183""
""blur"",""6"",""45525""
""focus"",""7"",""57473""
""blur"",""44"",""244275""
""focus"",""44"",""265722""
""blur"",""98"",""412483""
""focus"",""101"",""418664""
""blur"",""107"",""427729""
""focus"",""107"",""431204""
","""event"",""trial"",""time""
""blur"",""6"",""45525""
""blur"",""44"",""244275""
""blur"",""98"",""412483""
""blur"",""107"",""427729""
","""event"",""trial"",""time""
""focus"",""7"",""57473""
""focus"",""44"",""265722""
""focus"",""101"",""418664""
""focus"",""107"",""431204""
","""event"",""trial"",""time""
""fullscreenenter"",""1"",""1542""
","""event"",""trial"",""time""
""fullscreenexit"",""6"",""44183""
",,null,run_exp/static/images/task_images/gems/80.jpg,null,,,,,,,69,,,6,,,,,80,0.8636304,0.8625,,,,,,,
decision,115,448262,0.0-35.0-2.0,"""event"",""trial"",""time""
""fullscreenenter"",""1"",""1542""
""fullscreenexit"",""6"",""44183""
""blur"",""6"",""45525""
""focus"",""7"",""57473""
""blur"",""44"",""244275""
""focus"",""44"",""265722""
""blur"",""98"",""412483""
""focus"",""101"",""418664""
""blur"",""107"",""427729""
""focus"",""107"",""431204""
","""event"",""trial"",""time""
""blur"",""6"",""45525""
""blur"",""44"",""244275""
""blur"",""98"",""412483""
""blur"",""107"",""427729""
","""event"",""trial"",""time""
""focus"",""7"",""57473""
""focus"",""44"",""265722""
""focus"",""101"",""418664""
""focus"",""107"",""431204""
","""event"",""trial"",""time""
""fullscreenenter"",""1"",""1542""
","""event"",""trial"",""time""
""fullscreenexit"",""6"",""44183""
",,217.5,run_exp/static/images/task_images/land.jpg,65,,,,,,,69,,,6,,,,,,,,129389,1,1,FALSE,,,
dig,116,451050,0.0-36.0-0.0,"""event"",""trial"",""time""
""fullscreenenter"",""1"",""1542""
""fullscreenexit"",""6"",""44183""
""blur"",""6"",""45525""
""focus"",""7"",""57473""
""blur"",""44"",""244275""
""focus"",""44"",""265722""
""blur"",""98"",""412483""
""focus"",""101"",""418664""
""blur"",""107"",""427729""
""focus"",""107"",""431204""
","""event"",""trial"",""time""
""blur"",""6"",""45525""
""blur"",""44"",""244275""
""blur"",""98"",""412483""
""blur"",""107"",""427729""
","""event"",""trial"",""time""
""focus"",""7"",""57473""
""focus"",""44"",""265722""
""focus"",""101"",""418664""
""focus"",""107"",""431204""
","""event"",""trial"",""time""
""fullscreenenter"",""1"",""1542""
","""event"",""trial"",""time""
""fullscreenexit"",""6"",""44183""
",,,,,,,,,,,,"[{""stimulus"":""run_exp/static/images/task_images/dig.jpg"",""time"":0.19999980926513672},{""stimulus"":""run_exp/static/images/task_images/land.jpg"",""time"":928.7999997138977},{""stimulus"":""run_exp/static/images/task_images/dig.jpg"",""time"":1856.7999997138977}]",[],6,,,,,,,,,,,,,,
harvest,117,452053,0.0-36.0-1.0,"""event"",""trial"",""time""
""fullscreenenter"",""1"",""1542""
""fullscreenexit"",""6"",""44183""
""blur"",""6"",""45525""
""focus"",""7"",""57473""
""blur"",""44"",""244275""
""focus"",""44"",""265722""
""blur"",""98"",""412483""
""focus"",""101"",""418664""
""blur"",""107"",""427729""
""focus"",""107"",""431204""
","""event"",""trial"",""time""
""blur"",""6"",""45525""
""blur"",""44"",""244275""
""blur"",""98"",""412483""
""blur"",""107"",""427729""
","""event"",""trial"",""time""
""focus"",""7"",""57473""
""focus"",""44"",""265722""
""focus"",""101"",""418664""
""focus"",""107"",""431204""
","""event"",""trial"",""time""
""fullscreenenter"",""1"",""1542""
","""event"",""trial"",""time""
""fullscreenexit"",""6"",""44183""
",,null,run_exp/static/images/task_images/gems/69.jpg,null,,,,,,,54,,,6,,,,,69,0.782730339,0.782608696,,,,,,,
decision,118,452534,0.0-36.0-2.0,"""event"",""trial"",""time""
""fullscreenenter"",""1"",""1542""
""fullscreenexit"",""6"",""44183""
""blur"",""6"",""45525""
""focus"",""7"",""57473""
""blur"",""44"",""244275""
""focus"",""44"",""265722""
""blur"",""98"",""412483""
""focus"",""101"",""418664""
""blur"",""107"",""427729""
""focus"",""107"",""431204""
","""event"",""trial"",""time""
""blur"",""6"",""45525""
""blur"",""44"",""244275""
""blur"",""98"",""412483""
""blur"",""107"",""427729""
","""event"",""trial"",""time""
""focus"",""7"",""57473""
""focus"",""44"",""265722""
""focus"",""101"",""418664""
""focus"",""107"",""431204""
","""event"",""trial"",""time""
""fullscreenenter"",""1"",""1542""
","""event"",""trial"",""time""
""fullscreenexit"",""6"",""44183""
",,479.7999997,run_exp/static/images/task_images/land.jpg,65,,,,,,,54,,,6,,,,,,,,133661,1,2,FALSE,,,
dig,119,455061,0.0-37.0-0.0,"""event"",""trial"",""time""
""fullscreenenter"",""1"",""1542""
""fullscreenexit"",""6"",""44183""
""blur"",""6"",""45525""
""focus"",""7"",""57473""
""blur"",""44"",""244275""
""focus"",""44"",""265722""
""blur"",""98"",""412483""
""focus"",""101"",""418664""
""blur"",""107"",""427729""
""focus"",""107"",""431204""
","""event"",""trial"",""time""
""blur"",""6"",""45525""
""blur"",""44"",""244275""
""blur"",""98"",""412483""
""blur"",""107"",""427729""
","""event"",""trial"",""time""
""focus"",""7"",""57473""
""focus"",""44"",""265722""
""focus"",""101"",""418664""
""focus"",""107"",""431204""
","""event"",""trial"",""time""
""fullscreenenter"",""1"",""1542""
","""event"",""trial"",""time""
""fullscreenexit"",""6"",""44183""
",,,,,,,,,,,,"[{""stimulus"":""run_exp/static/images/task_images/dig.jpg"",""time"":0.2999997138977051},{""stimulus"":""run_exp/static/images/task_images/land.jpg"",""time"":842.7999997138977},{""stimulus"":""run_exp/static/images/task_images/dig.jpg"",""time"":1682.6999998092651}]",[],6,,,,,,,,,,,,,,
harvest,120,456063,0.0-37.0-1.0,"""event"",""trial"",""time""
""fullscreenenter"",""1"",""1542""
""fullscreenexit"",""6"",""44183""
""blur"",""6"",""45525""
""focus"",""7"",""57473""
""blur"",""44"",""244275""
""focus"",""44"",""265722""
""blur"",""98"",""412483""
""focus"",""101"",""418664""
""blur"",""107"",""427729""
""focus"",""107"",""431204""
","""event"",""trial"",""time""
""blur"",""6"",""45525""
""blur"",""44"",""244275""
""blur"",""98"",""412483""
""blur"",""107"",""427729""
","""event"",""trial"",""time""
""focus"",""7"",""57473""
""focus"",""44"",""265722""
""focus"",""101"",""418664""
""focus"",""107"",""431204""
","""event"",""trial"",""time""
""fullscreenenter"",""1"",""1542""
","""event"",""trial"",""time""
""fullscreenexit"",""6"",""44183""
",,null,run_exp/static/images/task_images/gems/54.jpg,null,,,,,,,42,,,6,,,,,54,0.77389413,0.777777778,,,,,,,
decision,121,456598,0.0-37.0-2.0,"""event"",""trial"",""time""
""fullscreenenter"",""1"",""1542""
""fullscreenexit"",""6"",""44183""
""blur"",""6"",""45525""
""focus"",""7"",""57473""
""blur"",""44"",""244275""
""focus"",""44"",""265722""
""blur"",""98"",""412483""
""focus"",""101"",""418664""
""blur"",""107"",""427729""
""focus"",""107"",""431204""
","""event"",""trial"",""time""
""blur"",""6"",""45525""
""blur"",""44"",""244275""
""blur"",""98"",""412483""
""blur"",""107"",""427729""
","""event"",""trial"",""time""
""focus"",""7"",""57473""
""focus"",""44"",""265722""
""focus"",""101"",""418664""
""focus"",""107"",""431204""
","""event"",""trial"",""time""
""fullscreenenter"",""1"",""1542""
","""event"",""trial"",""time""
""fullscreenexit"",""6"",""44183""
",,532.9000001,run_exp/static/images/task_images/land.jpg,76,,,,,,,42,,,6,,,,,,,,137725,1,3,TRUE,,,
travel,122,466064,0.0-38.0-0.0,"""event"",""trial"",""time""
""fullscreenenter"",""1"",""1542""
""fullscreenexit"",""6"",""44183""
""blur"",""6"",""45525""
""focus"",""7"",""57473""
""blur"",""44"",""244275""
""focus"",""44"",""265722""
""blur"",""98"",""412483""
""focus"",""101"",""418664""
""blur"",""107"",""427729""
""focus"",""107"",""431204""
","""event"",""trial"",""time""
""blur"",""6"",""45525""
""blur"",""44"",""244275""
""blur"",""98"",""412483""
""blur"",""107"",""427729""
","""event"",""trial"",""time""
""focus"",""7"",""57473""
""focus"",""44"",""265722""
""focus"",""101"",""418664""
""focus"",""107"",""431204""
","""event"",""trial"",""time""
""fullscreenenter"",""1"",""1542""
","""event"",""trial"",""time""
""fullscreenexit"",""6"",""44183""
",,,,,,,,,,,,"[{""stimulus"":""run_exp/static/images/task_images/rocket-01.jpg"",""time"":0.3000001907348633},{""stimulus"":""run_exp/static/images/task_images/rocket-02.jpg"",""time"":1052.7000002861023},{""stimulus"":""run_exp/static/images/task_images/rocket-03.jpg"",""time"":2115.2000002861023},{""stimulus"":""run_exp/static/images/task_images/rocket-04.jpg"",""time"":3156},{""stimulus"":""run_exp/static/images/task_images/rocket-05.jpg"",""time"":4206.900000095367},{""stimulus"":""run_exp/static/images/task_images/rocket-06.jpg"",""time"":5257.800000190735},{""stimulus"":""run_exp/static/images/task_images/rocket-07.jpg"",""time"":6308},{""stimulus"":""run_exp/static/images/task_images/rocket-08.jpg"",""time"":7358.900000095367},{""stimulus"":""run_exp/static/images/task_images/rocket-09.jpg"",""time"":8410.800000190735}]",[],6,,,,,,,,,,,,,,
alien_welcome,123,471067,0.0-38.0-1.0,"""event"",""trial"",""time""
""fullscreenenter"",""1"",""1542""
""fullscreenexit"",""6"",""44183""
""blur"",""6"",""45525""
""focus"",""7"",""57473""
""blur"",""44"",""244275""
""focus"",""44"",""265722""
""blur"",""98"",""412483""
""focus"",""101"",""418664""
""blur"",""107"",""427729""
""focus"",""107"",""431204""
","""event"",""trial"",""time""
""blur"",""6"",""45525""
""blur"",""44"",""244275""
""blur"",""98"",""412483""
""blur"",""107"",""427729""
","""event"",""trial"",""time""
""focus"",""7"",""57473""
""focus"",""44"",""265722""
""focus"",""101"",""418664""
""focus"",""107"",""431204""
","""event"",""trial"",""time""
""fullscreenenter"",""1"",""1542""
","""event"",""trial"",""time""
""fullscreenexit"",""6"",""44183""
",,null,run_exp/static/images/task_images/aliens/old_aliens/planet/alien_planet-35.jpg,null,,,,,,,,,,,,,35,"67,57,23,32,18,16,35,66,27,63,30,26,34,12,24,58,21,8,77,72,47,50,44,75,29,20,3,22,25,70,39,40,52,31,36,19,73,61,45,1,59,37,64,41,17,2,78,74,11,80,60,49,62,68,4,76,28,79,51,7,9,14,53,69,5",,,,,,,,,,
