"trial_type","trial_index","time_elapsed","internal_node_id","interactions","blur_events","focus_events","fullscreenenter_events","fullscreenexit_events","success","rt","stimulus","key_press","prompt","subject_id","participant_id","age","gender","button_pressed"
"pavlovia","0","9","0.0-0.0","""event"",""trial"",""time""
""fullscreenenter"",""1"",""3593""
","
","
","""event"",""trial"",""time""
""fullscreenenter"",""1"",""3593""
","
","","","","","","","","","",""
"fullscreen","1","4570","0.0-1.0","""event"",""trial"",""time""
""fullscreenenter"",""1"",""3593""
","
","
","""event"",""trial"",""time""
""fullscreenenter"",""1"",""3593""
","
","true","","","","","","","","",""
"instruc_welcome","2","14386","0.0-2.0","""event"",""trial"",""time""
""fullscreenenter"",""1"",""3593""
","
","
","""event"",""trial"",""time""
""fullscreenenter"",""1"",""3593""
","
","","null","run_exp/static/audio/clip_1_welcome.m4a","null","<p>Howdy! In this experiment, you’ll be an explorer traveling through space to collect space treasure.</p><p>Your mission is to collect as much treasure as possible.</p><br><br><p><img src='run_exp/static/images/task_images/opening_img-01.jpg' height='300' width='auto'></p>","7835","3192","24","Female",""
"audio-keyboard-response","3","31159","0.0-3.0","""event"",""trial"",""time""
""fullscreenenter"",""1"",""3593""
","
","
","""event"",""trial"",""time""
""fullscreenenter"",""1"",""3593""
","
","","null","run_exp/static/audio/clip_2_move.m4a","null","","","","","",""
"welcome_dec","4","54896","0.0-4.0","""event"",""trial"",""time""
""fullscreenenter"",""1"",""3593""
""blur"",""5"",""66889""
""focus"",""5"",""108585""
""fullscreenexit"",""5"",""108674""
""blur"",""5"",""111593""
""focus"",""5"",""115331""
""blur"",""5"",""147361""
""focus"",""5"",""196788""
","""event"",""trial"",""time""
""blur"",""5"",""66889""
""blur"",""5"",""111593""
""blur"",""5"",""147361""
","""event"",""trial"",""time""
""focus"",""5"",""108585""
""focus"",""5"",""115331""
""focus"",""5"",""196788""
","""event"",""trial"",""time""
""fullscreenenter"",""1"",""3593""
","""event"",""trial"",""time""
""fullscreenexit"",""5"",""108674""
","","23726.299999998882","<p>Howdy! In this experiment, you’ll be an explorer traveling through space to collect space treasure.</p><p>Your mission is to collect as much treasure as possible.</p><br><br><p><img src='run_exp/static/images/task_images/opening_img-01.jpg' height='300' width='auto'></p>","","","","","","","1"
