trial_type,trial_index,time_elapsed,internal_node_id,interactions,blur_events,focus_events,fullscreenenter_events,fullscreenexit_events,success,rt,stimulus,key_press,prompt,subject_id,participant_id,age,gender,button_pressed,next_reward,animation_sequence,responses,planet,curr_prac_trial,n_prac_rounds,alien,aliens,reward_received,decay_rate_actual,decay_rate_exp,time_in_block,block_num,prt,last_trial_on_planet,button_html,bonus,num_failures
pavlovia,0,16,0.0-0.0,"""event"",""trial"",""time""
""fullscreenenter"",""1"",""32627""
","
","
","""event"",""trial"",""time""
""fullscreenenter"",""1"",""32627""
","
",,,,,,,,,,,,,,,,,,,,,,,,,,,,
fullscreen,1,33425,0.0-1.0,"""event"",""trial"",""time""
""fullscreenenter"",""1"",""32627""
","
","
","""event"",""trial"",""time""
""fullscreenenter"",""1"",""32627""
","
",TRUE,,,,,,,,,,,,,,,,,,,,,,,,,,,
instruc_welcome,2,43459,0.0-2.0,"""event"",""trial"",""time""
""fullscreenenter"",""1"",""32627""
","
","
","""event"",""trial"",""time""
""fullscreenenter"",""1"",""32627""
","
",,null,run_exp/static/audio/clip_1_welcome.m4a,null,"<p>Howdy! In this experiment, you’ll be an explorer traveling through space to collect space treasure.</p><p>Your mission is to collect as much treasure as possible.</p><br><br><p><img src='run_exp/static/images/task_images/opening_img-01.jpg' height='300' width='auto'></p>",9343,1463,9.29,Female,,,,,,,,,,,,,,,,,,,
audio-keyboard-response,3,60060,0.0-3.0,"""event"",""trial"",""time""
""fullscreenenter"",""1"",""32627""
","
","
","""event"",""trial"",""time""
""fullscreenenter"",""1"",""32627""
","
",,null,run_exp/static/audio/clip_2_move.m4a,null,,,,,,,,,,,,,,,,,,,,,,,,
welcome_dec,4,61729,0.0-4.0,"""event"",""trial"",""time""
""fullscreenenter"",""1"",""32627""
","
","
","""event"",""trial"",""time""
""fullscreenenter"",""1"",""32627""
","
",,1665.5,"<p>Howdy! In this experiment, you’ll be an explorer traveling through space to collect space treasure.</p><p>Your mission is to collect as much treasure as possible.</p><br><br><p><img src='run_exp/static/images/task_images/opening_img-01.jpg' height='300' width='auto'></p>",,,,,,,1,,,,,,,,,,,,,,,,,,
html-keyboard-response,5,63723,0.0-5.0,"""event"",""trial"",""time""
""fullscreenenter"",""1"",""32627""
","
","
","""event"",""trial"",""time""
""fullscreenenter"",""1"",""32627""
","
",,1989.8,"<p>Howdy! In this experiment, you’ll be an explorer traveling through space to collect space treasure.</p><p>Your mission is to collect as much treasure as possible.</p><br><br><p><img src='run_exp/static/images/task_images/opening_img-01.jpg' height='300' width='auto'></p><button class=""jspsych-html-btn-unchosen""><img src=""run_exp/static/images/task_images/planet-01.jpg"" height=""50""></button><button class=""jspsych-html-btn-chosen""><img src=""run_exp/static/images/task_images/planet-02.jpg"" height=""50""></button><p><b>[press the space bar to lock in your answer]<b><br></p>",32,,,,,,,,,,,,,,,,,,,,,,,,
instruc_goal,6,73820,0.0-6.0-0.0,"""event"",""trial"",""time""
""fullscreenenter"",""1"",""32627""
","
","
","""event"",""trial"",""time""
""fullscreenenter"",""1"",""32627""
","
",,null,run_exp/static/audio/clip_3_goal.m4a,null,"<p> As a space explorer, you’ll visit different planets to dig for space treasure, these pink gems.</p> <p> The more treasure you dig up, the more bonus money you’ll win! </p><br><br><p><img src='run_exp/static/images/task_images/pink_gem.jpg' height='300' width='auto'></p>",,,,,,,,,,,,,,,,,,,,,,,
instruc_goal,7,77657,0.0-6.0-1.0,"""event"",""trial"",""time""
""fullscreenenter"",""1"",""32627""
","
","
","""event"",""trial"",""time""
""fullscreenenter"",""1"",""32627""
","
",,3833.3,"<p> As a space explorer, you’ll visit different planets to dig for space treasure, these pink gems.</p> <p> The more treasure you dig up, the more bonus money you’ll win! </p><br><br><p><img src='run_exp/static/images/task_images/pink_gem.jpg' height='300' width='auto'></p>",,,,,,,1,,,,,,,,,,,,,,,,,,
html-keyboard-response,8,78794,0.0-6.0-2.0,"""event"",""trial"",""time""
""fullscreenenter"",""1"",""32627""
","
","
","""event"",""trial"",""time""
""fullscreenenter"",""1"",""32627""
","
",,1135.9,"<p> As a space explorer, you’ll visit different planets to dig for space treasure, these pink gems.</p> <p> The more treasure you dig up, the more bonus money you’ll win! </p><br><br><p><img src='run_exp/static/images/task_images/pink_gem.jpg' height='300' width='auto'></p><button class=""jspsych-html-btn-unchosen""><img src=""run_exp/static/images/task_images/planet-01.jpg"" height=""50""></button><button class=""jspsych-html-btn-chosen""><img src=""run_exp/static/images/task_images/planet-02.jpg"" height=""50""></button><p><b>[press the space bar to lock in your answer]<b><br></p>",32,,,,,,,,,,,,,,,,,,,,,,,,
instruc_dig,9,94840,0.0-7.0-0.0,"""event"",""trial"",""time""
""fullscreenenter"",""1"",""32627""
","
","
","""event"",""trial"",""time""
""fullscreenenter"",""1"",""32627""
","
",,null,run_exp/static/audio/clip_4_dig.m4a,null,,,,,,,100,,,,,,,,,,,,,,,,,
instruc_dig_try,10,106867,0.0-7.0-1.0,"""event"",""trial"",""time""
""fullscreenenter"",""1"",""32627""
","
","
","""event"",""trial"",""time""
""fullscreenenter"",""1"",""32627""
","
",,12023.9,"<p> When you’ve arrived at a new planet, you will dig once. </p> <p>Then, you get to decide if you want to stay on the planet and dig again or travel to a new planet and dig there.</p> <p> To stay and dig, press the letter <strong>‘A’</strong> on your keyboard. Try pressing it now! </p><p><img src='run_exp/static/images/task_images/land.jpg'  height='700' width='auto'></p>",65,"<p> When you’ve arrived at a new planet, you will dig once. </p> <p>Then, you get to decide if you want to stay on the planet and dig again or travel to a new planet and dig there.</p> <p> To stay and dig, press the letter <strong>‘A’</strong> on your keyboard. Try pressing it now! </p><p><img src='run_exp/static/images/task_images/land.jpg'  height='700' width='auto'></p>",,,,,,100,,,,,,,,,,,,,,,,,
dig_prac,11,108988,0.0-7.0-2.0,"""event"",""trial"",""time""
""fullscreenenter"",""1"",""32627""
","
","
","""event"",""trial"",""time""
""fullscreenenter"",""1"",""32627""
","
",,,,,,,,,,,,"[{""stimulus"":""run_exp/static/images/task_images/dig.jpg"",""time"":0.7999999970197678},{""stimulus"":""run_exp/static/images/task_images/land.jpg"",""time"":673.8999999910593},{""stimulus"":""run_exp/static/images/task_images/dig.jpg"",""time"":1347.3999999910593}]",[],,,,,,,,,,,,,,,
instruc_travel,12,145242,0.0-7.0-3.0,"""event"",""trial"",""time""
""fullscreenenter"",""1"",""32627""
","
","
","""event"",""trial"",""time""
""fullscreenenter"",""1"",""32627""
","
",,null,run_exp/static/audio/clip_5_travel.m4a,null,"<p>Every time you dig up gems, there are less gems on the planet, so the more you dig on a planet the fewer gems you’ll get with each dig.</p><p>When gems are running low, you may want to travel to a new planet. </p> <p>  Planets are very far apart in this galaxy, so it will take some time to travel between them. </p> <br><p>There are lots and lots of planets for you to visit, so you won’t be able to return to any planets you’ve seen before. </p><br><p>To leave this planet and travel to a new one, press the letter <strong>‘L’</strong> on your keyboard. Try pressing it now! </p><p><img src='run_exp/static/images/task_images/rocket-01.jpg'  height='600' width='auto'></p>",,,,,,,,,,,,,,,,,,,,,,,
instruc_travel_try,13,148416,0.0-7.0-4.0,"""event"",""trial"",""time""
""fullscreenenter"",""1"",""32627""
","
","
","""event"",""trial"",""time""
""fullscreenenter"",""1"",""32627""
","
",,3172.5,"<p>Every time you dig up gems, there are less gems on the planet, so the more you dig on a planet the fewer gems you’ll get with each dig.</p><p>When gems are running low, you may want to travel to a new planet. </p> <p>  Planets are very far apart in this galaxy, so it will take some time to travel between them. </p> <br><p>There are lots and lots of planets for you to visit, so you won’t be able to return to any planets you’ve seen before. </p><br><p>To leave this planet and travel to a new one, press the letter <strong>‘L’</strong> on your keyboard. Try pressing it now! </p><p><img src='run_exp/static/images/task_images/rocket-01.jpg'  height='600' width='auto'></p>",76,"<p>Every time you dig up gems, there are less gems on the planet, so the more you dig on a planet the fewer gems you’ll get with each dig.</p><p>When gems are running low, you may want to travel to a new planet. </p> <p>  Planets are very far apart in this galaxy, so it will take some time to travel between them. </p> <br><p>There are lots and lots of planets for you to visit, so you won’t be able to return to any planets you’ve seen before. </p><br><p>To leave this planet and travel to a new one, press the letter <strong>‘L’</strong> on your keyboard. Try pressing it now! </p><p><img src='run_exp/static/images/task_images/rocket-01.jpg'  height='600' width='auto'></p>",,,,,,,,,,,,,,,,,,,,,,,
travel_prac,14,158431,0.0-7.0-5.0,"""event"",""trial"",""time""
""fullscreenenter"",""1"",""32627""
","
","
","""event"",""trial"",""time""
""fullscreenenter"",""1"",""32627""
","
",,,,,,,,,,,,"[{""stimulus"":""run_exp/static/images/task_images/rocket-01.jpg"",""time"":0.10000000894069672},{""stimulus"":""run_exp/static/images/task_images/rocket-02.jpg"",""time"":1116.2000000029802},{""stimulus"":""run_exp/static/images/task_images/rocket-03.jpg"",""time"":2232.7000000029802},{""stimulus"":""run_exp/static/images/task_images/rocket-04.jpg"",""time"":3348.2000000029802},{""stimulus"":""run_exp/static/images/task_images/rocket-05.jpg"",""time"":4446.20000000298},{""stimulus"":""run_exp/static/images/task_images/rocket-06.jpg"",""time"":5563.100000008941},{""stimulus"":""run_exp/static/images/task_images/rocket-07.jpg"",""time"":6679.600000008941},{""stimulus"":""run_exp/static/images/task_images/rocket-08.jpg"",""time"":7782.800000011921},{""stimulus"":""run_exp/static/images/task_images/rocket-09.jpg"",""time"":8898.90000000596}]",[],0,,,,,,,,,,,,,,
instruc_alien_greet,15,185644,0.0-7.0-6.0,"""event"",""trial"",""time""
""fullscreenenter"",""1"",""32627""
","
","
","""event"",""trial"",""time""
""fullscreenenter"",""1"",""32627""
","
",,null,run_exp/static/audio/clip_6_alien.m4a,null,"<p>When you arrive at a new planet, the alien who owns the treasure mine on that planet will greet you!</p><p>The better an alien takes care of their mine the easier it is to dig for gems. Some aliens take better care of their mine than others. So, you won’t get exactly the same amount of gems on each planet.</p><p>What the alien looks like does not tell you anything about how many gems there are on the planet.</p><br><p><img src=""run_exp/static/images/task_images/aliens/instructions_aliens/planet/alien_planet-1.jpg""  height=""600"" width=""auto""></p>",,,,,,,,,,,,,,,,,,,,,,,
instruc_alien_greet,16,188016,0.0-7.0-7.0,"""event"",""trial"",""time""
""fullscreenenter"",""1"",""32627""
","
","
","""event"",""trial"",""time""
""fullscreenenter"",""1"",""32627""
","
",,2368.9,"<p>When you arrive at a new planet, the alien who owns the treasure mine on that planet will greet you!</p><p>The better an alien takes care of their mine the easier it is to dig for gems. Some aliens take better care of their mine than others. So, you won’t get exactly the same amount of gems on each planet.</p><p>What the alien looks like does not tell you anything about how many gems there are on the planet.</p><br><p><img src=""run_exp/static/images/task_images/aliens/instructions_aliens/planet/alien_planet-1.jpg""  height=""600"" width=""auto""></p>",,,,,,,1,,,,,,,,,,,,,,,,,,
html-keyboard-response,17,189209,0.0-7.0-8.0,"""event"",""trial"",""time""
""fullscreenenter"",""1"",""32627""
","
","
","""event"",""trial"",""time""
""fullscreenenter"",""1"",""32627""
","
",,1191.6,"<p>When you arrive at a new planet, the alien who owns the treasure mine on that planet will greet you!</p><p>The better an alien takes care of their mine the easier it is to dig for gems. Some aliens take better care of their mine than others. So, you won’t get exactly the same amount of gems on each planet.</p><p>What the alien looks like does not tell you anything about how many gems there are on the planet.</p><br><p><img src=""run_exp/static/images/task_images/aliens/instructions_aliens/planet/alien_planet-1.jpg""  height=""600"" width=""auto""></p><button class=""jspsych-html-btn-unchosen""><img src=""run_exp/static/images/task_images/planet-01.jpg"" height=""50""></button><button class=""jspsych-html-btn-chosen""><img src=""run_exp/static/images/task_images/planet-02.jpg"" height=""50""></button><p><b>[press the space bar to lock in your answer]<b><br></p>",32,,,,,,,,,,,,,,,,,,,,,,,,
time_out,18,200323,0.0-8.0-0.0,"""event"",""trial"",""time""
""fullscreenenter"",""1"",""32627""
","
","
","""event"",""trial"",""time""
""fullscreenenter"",""1"",""32627""
","
",,null,run_exp/static/audio/clip_7_timeout.m4a,null,"<p>If you don't make your choice fast enough, you’ll have to wait a few seconds before you can make another one.</p><p>You can’t dig for more gems or travel to new planets. You just have to sit and wait.</p><br><p><img src='run_exp/static/images/task_images/time_out.jpg'  height='600' width='auto'></p>",,,,,,,,,,,,,,,,,,,,,,,
time_out,19,202744,0.0-8.0-1.0,"""event"",""trial"",""time""
""fullscreenenter"",""1"",""32627""
","
","
","""event"",""trial"",""time""
""fullscreenenter"",""1"",""32627""
","
",,2417.9,"<p>If you don't make your choice fast enough, you’ll have to wait a few seconds before you can make another one.</p><p>You can’t dig for more gems or travel to new planets. You just have to sit and wait.</p><br><p><img src='run_exp/static/images/task_images/time_out.jpg'  height='600' width='auto'></p>",,,,,,,1,,,,,,,,,,,,,,,,,,
html-keyboard-response,20,203569,0.0-8.0-2.0,"""event"",""trial"",""time""
""fullscreenenter"",""1"",""32627""
","
","
","""event"",""trial"",""time""
""fullscreenenter"",""1"",""32627""
","
",,823.7,"<p>If you don't make your choice fast enough, you’ll have to wait a few seconds before you can make another one.</p><p>You can’t dig for more gems or travel to new planets. You just have to sit and wait.</p><br><p><img src='run_exp/static/images/task_images/time_out.jpg'  height='600' width='auto'></p><button class=""jspsych-html-btn-unchosen""><img src=""run_exp/static/images/task_images/planet-01.jpg"" height=""50""></button><button class=""jspsych-html-btn-chosen""><img src=""run_exp/static/images/task_images/planet-02.jpg"" height=""50""></button><p><b>[press the space bar to lock in your answer]<b><br></p>",32,,,,,,,,,,,,,,,,,,,,,,,,
instruc_break,21,219264,0.0-9.0-0.0,"""event"",""trial"",""time""
""fullscreenenter"",""1"",""32627""
","
","
","""event"",""trial"",""time""
""fullscreenenter"",""1"",""32627""
","
",,null,run_exp/static/audio/clip_8_break.m4a,null,"<p> After digging and traveling for a while, you’ll be able to take a break at home base. </p><p>The game will last 20 minutes no matter what.</p><p>You will visit home base every 5 minutes, so, you will visit home base three times during the game.</p><br><p><img src='run_exp/static/images/task_images/home_base.jpg' height='600' width='auto'></p>",,,,,,,,,,,,,,,,,,,,,,,
instruc_break,22,221040,0.0-9.0-1.0,"""event"",""trial"",""time""
""fullscreenenter"",""1"",""32627""
","
","
","""event"",""trial"",""time""
""fullscreenenter"",""1"",""32627""
","
",,1772.3,"<p> After digging and traveling for a while, you’ll be able to take a break at home base. </p><p>The game will last 20 minutes no matter what.</p><p>You will visit home base every 5 minutes, so, you will visit home base three times during the game.</p><br><p><img src='run_exp/static/images/task_images/home_base.jpg' height='600' width='auto'></p>",,,,,,,1,,,,,,,,,,,,,,,,,,
html-keyboard-response,23,221728,0.0-9.0-2.0,"""event"",""trial"",""time""
""fullscreenenter"",""1"",""32627""
","
","
","""event"",""trial"",""time""
""fullscreenenter"",""1"",""32627""
","
",,687.3,"<p> After digging and traveling for a while, you’ll be able to take a break at home base. </p><p>The game will last 20 minutes no matter what.</p><p>You will visit home base every 5 minutes, so, you will visit home base three times during the game.</p><br><p><img src='run_exp/static/images/task_images/home_base.jpg' height='600' width='auto'></p><button class=""jspsych-html-btn-unchosen""><img src=""run_exp/static/images/task_images/planet-01.jpg"" height=""50""></button><button class=""jspsych-html-btn-chosen""><img src=""run_exp/static/images/task_images/planet-02.jpg"" height=""50""></button><p><b>[press the space bar to lock in your answer]<b><br></p>",32,,,,,,,,,,,,,,,,,,,,,,,,
instruc_prac_game,24,231865,0.0-10.0-0.0,"""event"",""trial"",""time""
""fullscreenenter"",""1"",""32627""
","
","
","""event"",""trial"",""time""
""fullscreenenter"",""1"",""32627""
","
",,null,run_exp/static/audio/clip_9_practice.m4a,null,"<p> Are you ready to play a practice game? </p> <p>In this practice game, you'll be digging up barrels of gems. But, in the real game, you'll be digging up the gems themselves. </p>",,,,,,,,,,,,,,,,,,,,,,,
html-button-response,25,233241,0.0-10.0-1.0,"""event"",""trial"",""time""
""fullscreenenter"",""1"",""32627""
","
","
","""event"",""trial"",""time""
""fullscreenenter"",""1"",""32627""
","
",,1374.5,"<p> Are you ready to play a practice game? </p> <p>In this practice game, you'll be digging up barrels of gems. But, in the real game, you'll be digging up the gems themselves. </p>",,,,,,,0,,,,,,,,,,,,,,,,,,
alien_welcome_prac,26,238253,0.0-11.0-0.0,"""event"",""trial"",""time""
""fullscreenenter"",""1"",""32627""
","
","
","""event"",""trial"",""time""
""fullscreenenter"",""1"",""32627""
","
",,null,run_exp/static/images/task_images/aliens/practice_aliens/planet/alien_planet-5.jpg,null,,,,,,,,,,,,,,,,,,,,,,,,
land_prac,27,238764,0.0-11.0-1.0,"""event"",""trial"",""time""
""fullscreenenter"",""1"",""32627""
","
","
","""event"",""trial"",""time""
""fullscreenenter"",""1"",""32627""
","
",,null,run_exp/static/images/task_images/land.jpg,null,,,,,,,95,,,0,,,,,,,,,,,,,,
dig_prac,28,240780,0.0-11.0-2.0,"""event"",""trial"",""time""
""fullscreenenter"",""1"",""32627""
","
","
","""event"",""trial"",""time""
""fullscreenenter"",""1"",""32627""
","
",,,,,,,,,,,,"[{""stimulus"":""run_exp/static/images/task_images/dig.jpg"",""time"":0.7999999970197678},{""stimulus"":""run_exp/static/images/task_images/land.jpg"",""time"":679.6999999880791},{""stimulus"":""run_exp/static/images/task_images/dig.jpg"",""time"":1346.699999988079}]",[],,,,,,,,,,,,,,,
harvest_prac,29,241785,0.0-11.0-3.0,"""event"",""trial"",""time""
""fullscreenenter"",""1"",""32627""
","
","
","""event"",""trial"",""time""
""fullscreenenter"",""1"",""32627""
","
",,null,run_exp/static/images/task_images/barrel_text.jpg,null,,,,,,,,,,,,,,,,,,,,,,,,
decision_prac,30,244793,0.0-11.0-4.0,"""event"",""trial"",""time""
""fullscreenenter"",""1"",""32627""
","
","
","""event"",""trial"",""time""
""fullscreenenter"",""1"",""32627""
","
",,null,run_exp/static/images/task_images/land.jpg,null,,,,,,,,,,,1,,,,,,,,,,,,,
time_out,31,246805,0.0-12.0-0.0,"""event"",""trial"",""time""
""fullscreenenter"",""1"",""32627""
","
","
","""event"",""trial"",""time""
""fullscreenenter"",""1"",""32627""
","
",,null,run_exp/static/images/task_images/time_out.jpg,null,,,,,,,,,,,,,,,,,,,,,,,,
decision_prac,32,247537,0.0-12.0-1.0,"""event"",""trial"",""time""
""fullscreenenter"",""1"",""32627""
","
","
","""event"",""trial"",""time""
""fullscreenenter"",""1"",""32627""
","
",,728.5,run_exp/static/images/task_images/land.jpg,65,,,,,,,,,,,2,,,,,,,,,,,,,
dig_prac,33,249551,0.0-13.0-0.0,"""event"",""trial"",""time""
""fullscreenenter"",""1"",""32627""
","
","
","""event"",""trial"",""time""
""fullscreenenter"",""1"",""32627""
","
",,,,,,,,,,,,"[{""stimulus"":""run_exp/static/images/task_images/dig.jpg"",""time"":0.3999999910593033},{""stimulus"":""run_exp/static/images/task_images/land.jpg"",""time"":674.5},{""stimulus"":""run_exp/static/images/task_images/dig.jpg"",""time"":1342.699999988079}]",[],,,,,,,,,,,,,,,
harvest_prac,34,250561,0.0-13.0-1.0,"""event"",""trial"",""time""
""fullscreenenter"",""1"",""32627""
","
","
","""event"",""trial"",""time""
""fullscreenenter"",""1"",""32627""
","
",,null,run_exp/static/images/task_images/barrel_text.jpg,null,,,,,,,,,,,,,,,,,,,,,,,,
decision_prac,35,251849,0.0-13.0-2.0,"""event"",""trial"",""time""
""fullscreenenter"",""1"",""32627""
","
","
","""event"",""trial"",""time""
""fullscreenenter"",""1"",""32627""
","
",,1286.3,run_exp/static/images/task_images/land.jpg,65,,,,,,,,,,,3,,,,,,,,,,,,,
dig_prac,36,253867,0.0-14.0-0.0,"""event"",""trial"",""time""
""fullscreenenter"",""1"",""32627""
","
","
","""event"",""trial"",""time""
""fullscreenenter"",""1"",""32627""
","
",,,,,,,,,,,,"[{""stimulus"":""run_exp/static/images/task_images/dig.jpg"",""time"":0.30000001192092896},{""stimulus"":""run_exp/static/images/task_images/land.jpg"",""time"":677.6000000089407},{""stimulus"":""run_exp/static/images/task_images/dig.jpg"",""time"":1344.300000011921}]",[],,,,,,,,,,,,,,,
harvest_prac,37,254877,0.0-14.0-1.0,"""event"",""trial"",""time""
""fullscreenenter"",""1"",""32627""
","
","
","""event"",""trial"",""time""
""fullscreenenter"",""1"",""32627""
","
",,null,run_exp/static/images/task_images/barrel_text.jpg,null,,,,,,,,,,,,,,,,,,,,,,,,
decision_prac,38,255640,0.0-14.0-2.0,"""event"",""trial"",""time""
""fullscreenenter"",""1"",""32627""
","
","
","""event"",""trial"",""time""
""fullscreenenter"",""1"",""32627""
","
",,761.4,run_exp/static/images/task_images/land.jpg,65,,,,,,,,,,,4,,,,,,,,,,,,,
dig_prac,39,257649,0.0-15.0-0.0,"""event"",""trial"",""time""
""fullscreenenter"",""1"",""32627""
","
","
","""event"",""trial"",""time""
""fullscreenenter"",""1"",""32627""
","
",,,,,,,,,,,,"[{""stimulus"":""run_exp/static/images/task_images/dig.jpg"",""time"":0.10000000894069672},{""stimulus"":""run_exp/static/images/task_images/land.jpg"",""time"":673.5},{""stimulus"":""run_exp/static/images/task_images/dig.jpg"",""time"":1339.5}]",[],,,,,,,,,,,,,,,
harvest_prac,40,258655,0.0-15.0-1.0,"""event"",""trial"",""time""
""fullscreenenter"",""1"",""32627""
","
","
","""event"",""trial"",""time""
""fullscreenenter"",""1"",""32627""
","
",,null,run_exp/static/images/task_images/barrel_text.jpg,null,,,,,,,,,,,,,,,,,,,,,,,,
decision_prac,41,259778,0.0-15.0-2.0,"""event"",""trial"",""time""
""fullscreenenter"",""1"",""32627""
","
","
","""event"",""trial"",""time""
""fullscreenenter"",""1"",""32627""
","
",,1120.7,run_exp/static/images/task_images/land.jpg,65,,,,,,,,,,,,1,,,,,,,,,,,,
quiz_instruc,42,262752,0.0-16.0-0.0,"""event"",""trial"",""time""
""fullscreenenter"",""1"",""32627""
","
","
","""event"",""trial"",""time""
""fullscreenenter"",""1"",""32627""
","
",,2969.1,run_exp/static/audio/clip_10_quiz.m4a,,,,,,,0,,,,,,,,,,,,,,,,,,
instruc_repeat,43,305523,0.0-16.0-1.0,"""event"",""trial"",""time""
""fullscreenenter"",""1"",""32627""
","
","
","""event"",""trial"",""time""
""fullscreenenter"",""1"",""32627""
","
",,null,"<p> Are you ready to play a practice game? </p> <p>In this practice game, you'll be digging up barrels of gems. But, in the real game, you'll be digging up the gems themselves. </p>",null,"<p>In this game, your goal is to collect as many gems as you can. That’s how you will win bonus money. </p> <p>The entire game will last 20 minutes no matter how many gems you collect or how many planets you visit. </p><p>To stay on a planet and dig again, press the letter A on your keyboard. To leave for a new planet, press the letter L.</p><p>The more you dig on a planet, the fewer gems you’ll get with each dig which is why you might consider leaving for a new planet. </p><p>When you arrive at a new planet, you’ll be greeted by an alien. What the alien looks like does not tell you anything about how much treasure is on the planet. </p>",,,,,,,,,,,,,,,,,,,,,,,
instruc_repeat_continue,44,308569,0.0-16.0-2.0,"""event"",""trial"",""time""
""fullscreenenter"",""1"",""32627""
","
","
","""event"",""trial"",""time""
""fullscreenenter"",""1"",""32627""
","
",,3044.1,"<p> Are you ready to play a practice game? </p> <p>In this practice game, you'll be digging up barrels of gems. But, in the real game, you'll be digging up the gems themselves. </p>",,,,,,,0,,,,,,,,,,,,,,,,,,
quiz_q_1_ask,45,312209,0.0-16.0-3.0,"""event"",""trial"",""time""
""fullscreenenter"",""1"",""32627""
","
","
","""event"",""trial"",""time""
""fullscreenenter"",""1"",""32627""
","
",,3639.3,run_exp/static/audio/clip_11_q1_ask.m4a,,,,,,,2,,,,,,,,,,,,,,,,,,
quiz_q_1_fb_correct,46,316065,0.0-17.0-0.0,"""event"",""trial"",""time""
""fullscreenenter"",""1"",""32627""
","
","
","""event"",""trial"",""time""
""fullscreenenter"",""1"",""32627""
","
",,null,run_exp/static/audio/clip_12_q1_correct.m4a,null,<p>That’s correct. You win extra money by collecting more gems.</p>,,,,,,,,,,,,,,,,,,,,,,,
quiz_q_2_ask,47,318193,0.0-17.0-1.0,"""event"",""trial"",""time""
""fullscreenenter"",""1"",""32627""
","
","
","""event"",""trial"",""time""
""fullscreenenter"",""1"",""32627""
","
",,2126.1,run_exp/static/audio/clip_14_q2_ask.m4a,,,,,,,1,,,,,,,,,,,,,,,,,,
quiz_q_2_fb_correct,48,322204,0.0-18.0-0.0,"""event"",""trial"",""time""
""fullscreenenter"",""1"",""32627""
","
","
","""event"",""trial"",""time""
""fullscreenenter"",""1"",""32627""
","
",,null,run_exp/static/audio/clip_15_q2_correct.m4a,null,<p>That’s correct. The experiment is 20 minutes no matter what.</p>,,,,,,,,,,,,,,,,,,,,,,,
quiz_q_3_ask,49,325265,0.0-18.0-1.0,"""event"",""trial"",""time""
""fullscreenenter"",""1"",""32627""
","
","
","""event"",""trial"",""time""
""fullscreenenter"",""1"",""32627""
","
",,3058.2,run_exp/static/audio/clip_17_q3_ask.m4a,,,,,,,1,,,,,,,,,,,,,,,,,,
quiz_q_3_fb_correct,50,329264,0.0-19.0-0.0,"""event"",""trial"",""time""
""fullscreenenter"",""1"",""32627""
","
","
","""event"",""trial"",""time""
""fullscreenenter"",""1"",""32627""
","
",,null,run_exp/static/audio/clip_18_q3_correct.m4a,null,<p> That’s correct. You press the letter L to travel to a new planet.</p>,,,,,,,,,,,,,,,,,,,,,,,
quiz_q_4_ask,51,332193,0.0-19.0-1.0,"""event"",""trial"",""time""
""fullscreenenter"",""1"",""32627""
","
","
","""event"",""trial"",""time""
""fullscreenenter"",""1"",""32627""
","
",,2927.1,run_exp/static/audio/clip_20_q4_ask.m4a,,,,,,,0,,,,,,,,,,,,,,,,,,
quiz_q_4_fb_correct,52,337524,0.0-20.0-0.0,"""event"",""trial"",""time""
""fullscreenenter"",""1"",""32627""
","
","
","""event"",""trial"",""time""
""fullscreenenter"",""1"",""32627""
","
",,null,run_exp/static/audio/clip_21_q4_correct.m4a,null,<p> That’s correct. The more you dig on a planet the fewer gems you’ll get with each dig. </p>,,,,,,,,,,,,,,,,,,,,,,,
quiz_q_5_ask,53,340065,0.0-20.0-1.0,"""event"",""trial"",""time""
""fullscreenenter"",""1"",""32627""
","
","
","""event"",""trial"",""time""
""fullscreenenter"",""1"",""32627""
","
",,2538.5,run_exp/static/audio/clip_23_q5_ask.m4a,,,,,,,1,,,,,,,,,,,,,,,,,,
quiz_q_5_fb_correct,54,345084,0.0-21.0-0.0,"""event"",""trial"",""time""
""fullscreenenter"",""1"",""32627""
","
","
","""event"",""trial"",""time""
""fullscreenenter"",""1"",""32627""
","
",,null,run_exp/static/audio/clip_24_q5_correct.m4a,null,<p> That’s correct. The alien tells you nothing about how much treasure is on the planet.</p>,,,,,,,,,,,,,,,,,,,,,,,
quiz_correct,55,348582,0.0-22.0-0.0,"""event"",""trial"",""time""
""fullscreenenter"",""1"",""32627""
","
","
","""event"",""trial"",""time""
""fullscreenenter"",""1"",""32627""
","
",,null,run_exp/static/audio/clip_26_correct_quiz.m4a,null,,,,,,,,,,,,,,,,,,,,,,,,
quiz_correct_continue,56,351777,0.0-22.0-1.0,"""event"",""trial"",""time""
""fullscreenenter"",""1"",""32627""
","
","
","""event"",""trial"",""time""
""fullscreenenter"",""1"",""32627""
","
",,3193.6,<p>Good job! You're now ready to move on to the real game!</p>,,,,,,,0,,,,,,,,,,,,,,,,,,
audio-keyboard-response,57,361905,0.0-22.0-2.0,"""event"",""trial"",""time""
""fullscreenenter"",""1"",""32627""
","
","
","""event"",""trial"",""time""
""fullscreenenter"",""1"",""32627""
","
",,null,run_exp/static/audio/clip_28_real_game.m4a,null,,,,,,,,,,,,,,,,,,,,,,,,
instruc_begin_exp_contine,58,363177,0.0-22.0-3.0,"""event"",""trial"",""time""
""fullscreenenter"",""1"",""32627""
","
","
","""event"",""trial"",""time""
""fullscreenenter"",""1"",""32627""
","
",,1270.2,"<p>Now that you know how  to dig for space treasure and travel to new planets,you can start exploring! </p><p>Do you want to go over the instructions again or get started with the real game?</p>",,,,,,,1,,,,,,1,,,,,,,,,,,,
alien_welcome,59,368184,0.0-23.0-0.0,"""event"",""trial"",""time""
""fullscreenenter"",""1"",""32627""
","
","
","""event"",""trial"",""time""
""fullscreenenter"",""1"",""32627""
","
",,null,run_exp/static/images/task_images/aliens/old_aliens/planet/alien_planet-58.jpg,null,,,,,,,,,,,,,58,"58,64,3,67,71,39,12,43,24,30,80,60,62,48,6,59,28,31,21,35,22,57,51,19,50,45,29,11,13",,,,,,,,,,
land,60,368696,0.0-23.0-1.0,"""event"",""trial"",""time""
""fullscreenenter"",""1"",""32627""
","
","
","""event"",""trial"",""time""
""fullscreenenter"",""1"",""32627""
","
",,null,run_exp/static/images/task_images/land.jpg,null,,,,,,,107,,,1,,,,,,,,,,,,,,
dig,61,370716,0.0-23.0-2.0,"""event"",""trial"",""time""
""fullscreenenter"",""1"",""32627""
","
","
","""event"",""trial"",""time""
""fullscreenenter"",""1"",""32627""
","
",,,,,,,,,,,,"[{""stimulus"":""run_exp/static/images/task_images/dig.jpg"",""time"":0.5},{""stimulus"":""run_exp/static/images/task_images/land.jpg"",""time"":684},{""stimulus"":""run_exp/static/images/task_images/dig.jpg"",""time"":1347.5}]",[],1,,,,,,,,,,,,,,
harvest,62,371723,0.0-23.0-3.0,"""event"",""trial"",""time""
""fullscreenenter"",""1"",""32627""
","
","
","""event"",""trial"",""time""
""fullscreenenter"",""1"",""32627""
","
",,null,run_exp/static/images/task_images/gems/107.jpg,null,,,,,,,18,,,1,,,,,107,0.16501656,0.168224299,,,,,,,
decision,63,372337,0.0-23.0-4.0,"""event"",""trial"",""time""
""fullscreenenter"",""1"",""32627""
","
","
","""event"",""trial"",""time""
""fullscreenenter"",""1"",""32627""
","
",,612.9,run_exp/static/images/task_images/land.jpg,65,,,,,,,18,,,1,,,,,,,,9160,1,0,FALSE,,,
dig,64,374735,0.0-24.0-0.0,"""event"",""trial"",""time""
""fullscreenenter"",""1"",""32627""
","
","
","""event"",""trial"",""time""
""fullscreenenter"",""1"",""32627""
","
",,,,,,,,,,,,"[{""stimulus"":""run_exp/static/images/task_images/dig.jpg"",""time"":0.20000000298023224},{""stimulus"":""run_exp/static/images/task_images/land.jpg"",""time"":807.4000000059605},{""stimulus"":""run_exp/static/images/task_images/dig.jpg"",""time"":1599.9000000059605}]",[],1,,,,,,,,,,,,,,
harvest,65,375749,0.0-24.0-1.0,"""event"",""trial"",""time""
""fullscreenenter"",""1"",""32627""
","
","
","""event"",""trial"",""time""
""fullscreenenter"",""1"",""32627""
","
",,null,run_exp/static/images/task_images/gems/18.jpg,null,,,,,,,4,,,1,,,,,18,0.209822468,0.222222222,,,,,,,
decision,66,376290,0.0-24.0-2.0,"""event"",""trial"",""time""
""fullscreenenter"",""1"",""32627""
","
","
","""event"",""trial"",""time""
""fullscreenenter"",""1"",""32627""
","
",,538.6,run_exp/static/images/task_images/land.jpg,65,,,,,,,4,,,1,,,,,,,,13112,1,1,FALSE,,,
dig,67,378766,0.0-25.0-0.0,"""event"",""trial"",""time""
""fullscreenenter"",""1"",""32627""
","
","
","""event"",""trial"",""time""
""fullscreenenter"",""1"",""32627""
","
",,,,,,,,,,,,"[{""stimulus"":""run_exp/static/images/task_images/dig.jpg"",""time"":0.5},{""stimulus"":""run_exp/static/images/task_images/land.jpg"",""time"":832.7999999970198},{""stimulus"":""run_exp/static/images/task_images/dig.jpg"",""time"":1652.1000000089407}]",[],1,,,,,,,,,,,,,,
harvest,68,379777,0.0-25.0-1.0,"""event"",""trial"",""time""
""fullscreenenter"",""1"",""32627""
","
","
","""event"",""trial"",""time""
""fullscreenenter"",""1"",""32627""
","
",,null,run_exp/static/images/task_images/gems/4.jpg,null,,,,,,,1,,,1,,,,,4,0.224893432,0.25,,,,,,,
decision,69,380289,0.0-25.0-2.0,"""event"",""trial"",""time""
""fullscreenenter"",""1"",""32627""
","
","
","""event"",""trial"",""time""
""fullscreenenter"",""1"",""32627""
","
",,510.6,run_exp/static/images/task_images/land.jpg,76,,,,,,,1,,,1,,,,,,,,17112,1,2,TRUE,,,
travel,70,389786,0.0-26.0-0.0,"""event"",""trial"",""time""
""fullscreenenter"",""1"",""32627""
","
","
","""event"",""trial"",""time""
""fullscreenenter"",""1"",""32627""
","
",,,,,,,,,,,,"[{""stimulus"":""run_exp/static/images/task_images/rocket-01.jpg"",""time"":0.4000000059604645},{""stimulus"":""run_exp/static/images/task_images/rocket-02.jpg"",""time"":1065.1000000089407},{""stimulus"":""run_exp/static/images/task_images/rocket-03.jpg"",""time"":2121.1000000089407},{""stimulus"":""run_exp/static/images/task_images/rocket-04.jpg"",""time"":3176},{""stimulus"":""run_exp/static/images/task_images/rocket-05.jpg"",""time"":4232.100000008941},{""stimulus"":""run_exp/static/images/task_images/rocket-06.jpg"",""time"":5272},{""stimulus"":""run_exp/static/images/task_images/rocket-07.jpg"",""time"":6340.4000000059605},{""stimulus"":""run_exp/static/images/task_images/rocket-08.jpg"",""time"":7381},{""stimulus"":""run_exp/static/images/task_images/rocket-09.jpg"",""time"":8434.800000011921}]",[],1,,,,,,,,,,,,,,
alien_welcome,71,394795,0.0-26.0-1.0,"""event"",""trial"",""time""
""fullscreenenter"",""1"",""32627""
","
","
","""event"",""trial"",""time""
""fullscreenenter"",""1"",""32627""
","
",,null,run_exp/static/images/task_images/aliens/old_aliens/planet/alien_planet-64.jpg,null,,,,,,,,,,,,,64,"58,64,3,67,71,39,12,43,24,30,80,60,62,48,6,59,28,31,21,35,22,57,51,19,50,45,29,11,13",,,,,,,,,,
land,72,395297,0.0-26.0-2.0,"""event"",""trial"",""time""
""fullscreenenter"",""1"",""32627""
","
","
","""event"",""trial"",""time""
""fullscreenenter"",""1"",""32627""
","
",,null,run_exp/static/images/task_images/land.jpg,null,,,,,,,98,,,2,,,,,,,,,,,,,,
dig,73,397310,0.0-26.0-3.0,"""event"",""trial"",""time""
""fullscreenenter"",""1"",""32627""
","
","
","""event"",""trial"",""time""
""fullscreenenter"",""1"",""32627""
","
",,,,,,,,,,,,"[{""stimulus"":""run_exp/static/images/task_images/dig.jpg"",""time"":0.4000000059604645},{""stimulus"":""run_exp/static/images/task_images/land.jpg"",""time"":679.7999999970198},{""stimulus"":""run_exp/static/images/task_images/dig.jpg"",""time"":1345.9000000059605}]",[],2,,,,,,,,,,,,,,
harvest,74,398315,0.0-26.0-4.0,"""event"",""trial"",""time""
""fullscreenenter"",""1"",""32627""
","
","
","""event"",""trial"",""time""
""fullscreenenter"",""1"",""32627""
","
",,null,run_exp/static/images/task_images/gems/98.jpg,null,,,,,,,11,,,2,,,,,98,0.111697899,0.112244898,,,,,,,
decision,75,399193,0.0-26.0-5.0,"""event"",""trial"",""time""
""fullscreenenter"",""1"",""32627""
","
","
","""event"",""trial"",""time""
""fullscreenenter"",""1"",""32627""
","
",,875.4,run_exp/static/images/task_images/land.jpg,65,,,,,,,11,,,2,,,,,,,,36015,1,0,FALSE,,,
dig,76,401333,0.0-27.0-0.0,"""event"",""trial"",""time""
""fullscreenenter"",""1"",""32627""
","
","
","""event"",""trial"",""time""
""fullscreenenter"",""1"",""32627""
","
",,,,,,,,,,,,"[{""stimulus"":""run_exp/static/images/task_images/dig.jpg"",""time"":0.29999999701976776},{""stimulus"":""run_exp/static/images/task_images/land.jpg"",""time"":722.5},{""stimulus"":""run_exp/static/images/task_images/dig.jpg"",""time"":1422.7000000029802}]",[],2,,,,,,,,,,,,,,
harvest,77,402343,0.0-27.0-1.0,"""event"",""trial"",""time""
""fullscreenenter"",""1"",""32627""
","
","
","""event"",""trial"",""time""
""fullscreenenter"",""1"",""32627""
","
",,null,run_exp/static/images/task_images/gems/11.jpg,null,,,,,,,3,,,2,,,,,11,0.250257206,0.272727273,,,,,,,
decision,78,402737,0.0-27.0-2.0,"""event"",""trial"",""time""
""fullscreenenter"",""1"",""32627""
","
","
","""event"",""trial"",""time""
""fullscreenenter"",""1"",""32627""
","
",,392.1,run_exp/static/images/task_images/land.jpg,65,,,,,,,3,,,2,,,,,,,,39559,1,1,FALSE,,,
dig,79,405348,0.0-28.0-0.0,"""event"",""trial"",""time""
""fullscreenenter"",""1"",""32627""
","
","
","""event"",""trial"",""time""
""fullscreenenter"",""1"",""32627""
","
",,,,,,,,,,,,"[{""stimulus"":""run_exp/static/images/task_images/dig.jpg"",""time"":0.20000000298023224},{""stimulus"":""run_exp/static/images/task_images/land.jpg"",""time"":870.4000000059605},{""stimulus"":""run_exp/static/images/task_images/dig.jpg"",""time"":1741.2000000029802}]",[],2,,,,,,,,,,,,,,
harvest,80,406360,0.0-28.0-1.0,"""event"",""trial"",""time""
""fullscreenenter"",""1"",""32627""
","
","
","""event"",""trial"",""time""
""fullscreenenter"",""1"",""32627""
","
",,null,run_exp/static/images/task_images/gems/3.jpg,null,,,,,,,1,,,2,,,,,3,0.214380877,0.333333333,,,,,,,
decision,81,407433,0.0-28.0-2.0,"""event"",""trial"",""time""
""fullscreenenter"",""1"",""32627""
","
","
","""event"",""trial"",""time""
""fullscreenenter"",""1"",""32627""
","
",,1072.2,run_exp/static/images/task_images/land.jpg,76,,,,,,,1,,,2,,,,,,,,44256,1,2,TRUE,,,
travel,82,416359,0.0-29.0-0.0,"""event"",""trial"",""time""
""fullscreenenter"",""1"",""32627""
","
","
","""event"",""trial"",""time""
""fullscreenenter"",""1"",""32627""
","
",,,,,,,,,,,,"[{""stimulus"":""run_exp/static/images/task_images/rocket-01.jpg"",""time"":0.29999999701976776},{""stimulus"":""run_exp/static/images/task_images/rocket-02.jpg"",""time"":1000.6999999880791},{""stimulus"":""run_exp/static/images/task_images/rocket-03.jpg"",""time"":1994},{""stimulus"":""run_exp/static/images/task_images/rocket-04.jpg"",""time"":2986},{""stimulus"":""run_exp/static/images/task_images/rocket-05.jpg"",""time"":3967},{""stimulus"":""run_exp/static/images/task_images/rocket-06.jpg"",""time"":4957.199999988079},{""stimulus"":""run_exp/static/images/task_images/rocket-07.jpg"",""time"":5962.29999999702},{""stimulus"":""run_exp/static/images/task_images/rocket-08.jpg"",""time"":6950.899999991059},{""stimulus"":""run_exp/static/images/task_images/rocket-09.jpg"",""time"":7943.29999999702}]",[],2,,,,,,,,,,,,,,
alien_welcome,83,421363,0.0-29.0-1.0,"""event"",""trial"",""time""
""fullscreenenter"",""1"",""32627""
","
","
","""event"",""trial"",""time""
""fullscreenenter"",""1"",""32627""
","
",,null,run_exp/static/images/task_images/aliens/old_aliens/planet/alien_planet-3.jpg,null,,,,,,,,,,,,,3,"58,64,3,67,71,39,12,43,24,30,80,60,62,48,6,59,28,31,21,35,22,57,51,19,50,45,29,11,13",,,,,,,,,,
land,84,421877,0.0-29.0-2.0,"""event"",""trial"",""time""
""fullscreenenter"",""1"",""32627""
","
","
","""event"",""trial"",""time""
""fullscreenenter"",""1"",""32627""
","
",,null,run_exp/static/images/task_images/land.jpg,null,,,,,,,103,,,3,,,,,,,,,,,,,,
dig,85,423893,0.0-29.0-3.0,"""event"",""trial"",""time""
""fullscreenenter"",""1"",""32627""
","
","
","""event"",""trial"",""time""
""fullscreenenter"",""1"",""32627""
","
",,,,,,,,,,,,"[{""stimulus"":""run_exp/static/images/task_images/dig.jpg"",""time"":0.5},{""stimulus"":""run_exp/static/images/task_images/land.jpg"",""time"":682.7000000029802},{""stimulus"":""run_exp/static/images/task_images/dig.jpg"",""time"":1346.5999999940395}]",[],3,,,,,,,,,,,,,,
harvest,86,424900,0.0-29.0-4.0,"""event"",""trial"",""time""
""fullscreenenter"",""1"",""32627""
","
","
","""event"",""trial"",""time""
""fullscreenenter"",""1"",""32627""
","
",,null,run_exp/static/images/task_images/gems/103.jpg,null,,,,,,,54,,,3,,,,,103,0.522746695,0.524271845,,,,,,,
decision,87,425698,0.0-29.0-5.0,"""event"",""trial"",""time""
""fullscreenenter"",""1"",""32627""
","
","
","""event"",""trial"",""time""
""fullscreenenter"",""1"",""32627""
","
",,795.1,run_exp/static/images/task_images/land.jpg,65,,,,,,,54,,,3,,,,,,,,62520,1,0,FALSE,,,
dig,88,427912,0.0-30.0-0.0,"""event"",""trial"",""time""
""fullscreenenter"",""1"",""32627""
","
","
","""event"",""trial"",""time""
""fullscreenenter"",""1"",""32627""
","
",,,,,,,,,,,,"[{""stimulus"":""run_exp/static/images/task_images/dig.jpg"",""time"":0.5999999940395355},{""stimulus"":""run_exp/static/images/task_images/land.jpg"",""time"":740.5},{""stimulus"":""run_exp/static/images/task_images/dig.jpg"",""time"":1483.0999999940395}]",[],3,,,,,,,,,,,,,,
harvest,89,428921,0.0-30.0-1.0,"""event"",""trial"",""time""
""fullscreenenter"",""1"",""32627""
","
","
","""event"",""trial"",""time""
""fullscreenenter"",""1"",""32627""
","
",,null,run_exp/static/images/task_images/gems/54.jpg,null,,,,,,,28,,,3,,,,,54,0.517900027,0.518518519,,,,,,,
decision,90,429105,0.0-30.0-2.0,"""event"",""trial"",""time""
""fullscreenenter"",""1"",""32627""
","
","
","""event"",""trial"",""time""
""fullscreenenter"",""1"",""32627""
","
",,181.6,run_exp/static/images/task_images/land.jpg,65,,,,,,,28,,,3,,,,,,,,65927,1,1,FALSE,,,
dig,91,431942,0.0-31.0-0.0,"""event"",""trial"",""time""
""fullscreenenter"",""1"",""32627""
","
","
","""event"",""trial"",""time""
""fullscreenenter"",""1"",""32627""
","
",,,,,,,,,,,,"[{""stimulus"":""run_exp/static/images/task_images/dig.jpg"",""time"":0.4000000059604645},{""stimulus"":""run_exp/static/images/task_images/land.jpg"",""time"":955.7999999970198},{""stimulus"":""run_exp/static/images/task_images/dig.jpg"",""time"":1886.7000000029802}]",[],3,,,,,,,,,,,,,,
harvest,92,432949,0.0-31.0-1.0,"""event"",""trial"",""time""
""fullscreenenter"",""1"",""32627""
","
","
","""event"",""trial"",""time""
""fullscreenenter"",""1"",""32627""
","
",,null,run_exp/static/images/task_images/gems/28.jpg,null,,,,,,,13,,,3,,,,,28,0.460395486,0.464285714,,,,,,,
decision,93,433386,0.0-31.0-2.0,"""event"",""trial"",""time""
""fullscreenenter"",""1"",""32627""
","
","
","""event"",""trial"",""time""
""fullscreenenter"",""1"",""32627""
","
",,434.3,run_exp/static/images/task_images/land.jpg,65,,,,,,,13,,,3,,,,,,,,70208,1,2,FALSE,,,
dig,94,435964,0.0-32.0-0.0,"""event"",""trial"",""time""
""fullscreenenter"",""1"",""32627""
","
","
","""event"",""trial"",""time""
""fullscreenenter"",""1"",""32627""
","
",,,,,,,,,,,,"[{""stimulus"":""run_exp/static/images/task_images/dig.jpg"",""time"":0.4000000059604645},{""stimulus"":""run_exp/static/images/task_images/land.jpg"",""time"":862.2999999970198},{""stimulus"":""run_exp/static/images/task_images/dig.jpg"",""time"":1717.6000000089407}]",[],3,,,,,,,,,,,,,,
harvest,95,436976,0.0-32.0-1.0,"""event"",""trial"",""time""
""fullscreenenter"",""1"",""32627""
","
","
","""event"",""trial"",""time""
""fullscreenenter"",""1"",""32627""
","
",,null,run_exp/static/images/task_images/gems/13.jpg,null,,,,,,,7,,,3,,,,,13,0.551088256,0.538461538,,,,,,,
decision,96,437337,0.0-32.0-2.0,"""event"",""trial"",""time""
""fullscreenenter"",""1"",""32627""
","
","
","""event"",""trial"",""time""
""fullscreenenter"",""1"",""32627""
","
",,358.9,run_exp/static/images/task_images/land.jpg,65,,,,,,,7,,,3,,,,,,,,74159,1,3,FALSE,,,
dig,97,440000,0.0-33.0-0.0,"""event"",""trial"",""time""
""fullscreenenter"",""1"",""32627""
","
","
","""event"",""trial"",""time""
""fullscreenenter"",""1"",""32627""
","
",,,,,,,,,,,,"[{""stimulus"":""run_exp/static/images/task_images/dig.jpg"",""time"":0.4000000059604645},{""stimulus"":""run_exp/static/images/task_images/land.jpg"",""time"":892.7000000029802},{""stimulus"":""run_exp/static/images/task_images/dig.jpg"",""time"":1776.2000000029802}]",[],3,,,,,,,,,,,,,,
harvest,98,441008,0.0-33.0-1.0,"""event"",""trial"",""time""
""fullscreenenter"",""1"",""32627""
","
","
","""event"",""trial"",""time""
""fullscreenenter"",""1"",""32627""
","
",,null,run_exp/static/images/task_images/gems/7.jpg,null,,,,,,,4,,,3,,,,,7,0.530428383,0.571428571,,,,,,,
decision,99,441803,0.0-33.0-2.0,"""event"",""trial"",""time""
""fullscreenenter"",""1"",""32627""
","
","
","""event"",""trial"",""time""
""fullscreenenter"",""1"",""32627""
","
",,793.4,run_exp/static/images/task_images/land.jpg,76,,,,,,,4,,,3,,,,,,,,78626,1,4,TRUE,,,
travel,100,451022,0.0-34.0-0.0,"""event"",""trial"",""time""
""fullscreenenter"",""1"",""32627""
","
","
","""event"",""trial"",""time""
""fullscreenenter"",""1"",""32627""
","
",,,,,,,,,,,,"[{""stimulus"":""run_exp/static/images/task_images/rocket-01.jpg"",""time"":0.5},{""stimulus"":""run_exp/static/images/task_images/rocket-02.jpg"",""time"":1030.2999999970198},{""stimulus"":""run_exp/static/images/task_images/rocket-03.jpg"",""time"":2047.5},{""stimulus"":""run_exp/static/images/task_images/rocket-04.jpg"",""time"":3070.9000000059605},{""stimulus"":""run_exp/static/images/task_images/rocket-05.jpg"",""time"":4091.7000000029802},{""stimulus"":""run_exp/static/images/task_images/rocket-06.jpg"",""time"":5114.4000000059605},{""stimulus"":""run_exp/static/images/task_images/rocket-07.jpg"",""time"":6140.5999999940395},{""stimulus"":""run_exp/static/images/task_images/rocket-08.jpg"",""time"":7166.29999999702},{""stimulus"":""run_exp/static/images/task_images/rocket-09.jpg"",""time"":8190.0999999940395}]",[],3,,,,,,,,,,,,,,
alien_welcome,101,456025,0.0-34.0-1.0,"""event"",""trial"",""time""
""fullscreenenter"",""1"",""32627""
","
","
","""event"",""trial"",""time""
""fullscreenenter"",""1"",""32627""
","
",,null,run_exp/static/images/task_images/aliens/old_aliens/planet/alien_planet-67.jpg,null,,,,,,,,,,,,,67,"58,64,3,67,71,39,12,43,24,30,80,60,62,48,6,59,28,31,21,35,22,57,51,19,50,45,29,11,13",,,,,,,,,,
land,102,456537,0.0-34.0-2.0,"""event"",""trial"",""time""
""fullscreenenter"",""1"",""32627""
","
","
","""event"",""trial"",""time""
""fullscreenenter"",""1"",""32627""
","
",,null,run_exp/static/images/task_images/land.jpg,null,,,,,,,97,,,4,,,,,,,,,,,,,,
dig,103,458541,0.0-34.0-3.0,"""event"",""trial"",""time""
""fullscreenenter"",""1"",""32627""
","
","
","""event"",""trial"",""time""
""fullscreenenter"",""1"",""32627""
","
",,,,,,,,,,,,"[{""stimulus"":""run_exp/static/images/task_images/dig.jpg"",""time"":0.20000000298023224},{""stimulus"":""run_exp/static/images/task_images/land.jpg"",""time"":682.7999999970198},{""stimulus"":""run_exp/static/images/task_images/dig.jpg"",""time"":1335.5}]",[],4,,,,,,,,,,,,,,
harvest,104,459546,0.0-34.0-4.0,"""event"",""trial"",""time""
""fullscreenenter"",""1"",""32627""
","
","
","""event"",""trial"",""time""
""fullscreenenter"",""1"",""32627""
","
",,null,run_exp/static/images/task_images/gems/97.jpg,null,,,,,,,46,,,4,,,,,97,0.471607604,0.474226804,,,,,,,
decision,105,461513,0.0-34.0-5.0,"""event"",""trial"",""time""
""fullscreenenter"",""1"",""32627""
","
","
","""event"",""trial"",""time""
""fullscreenenter"",""1"",""32627""
","
",,1964.8,run_exp/static/images/task_images/land.jpg,65,,,,,,,46,,,4,,,,,,,,98336,1,0,FALSE,,,
dig,106,462565,0.0-35.0-0.0,"""event"",""trial"",""time""
""fullscreenenter"",""1"",""32627""
","
","
","""event"",""trial"",""time""
""fullscreenenter"",""1"",""32627""
","
",,,,,,,,,,,,"[{""stimulus"":""run_exp/static/images/task_images/dig.jpg"",""time"":0.29999999701976776},{""stimulus"":""run_exp/static/images/task_images/land.jpg"",""time"":358.3999999910593},{""stimulus"":""run_exp/static/images/task_images/dig.jpg"",""time"":702.8999999910593}]",[],4,,,,,,,,,,,,,,
harvest,107,463572,0.0-35.0-1.0,"""event"",""trial"",""time""
""fullscreenenter"",""1"",""32627""
","
","
","""event"",""trial"",""time""
""fullscreenenter"",""1"",""32627""
","
",,null,run_exp/static/images/task_images/gems/46.jpg,null,,,,,,,24,,,4,,,,,46,0.522805512,0.52173913,,,,,,,
decision,108,464113,0.0-35.0-2.0,"""event"",""trial"",""time""
""fullscreenenter"",""1"",""32627""
","
","
","""event"",""trial"",""time""
""fullscreenenter"",""1"",""32627""
","
",,538.3,run_exp/static/images/task_images/land.jpg,65,,,,,,,24,,,4,,,,,,,,100935,1,1,FALSE,,,
dig,109,466584,0.0-36.0-0.0,"""event"",""trial"",""time""
""fullscreenenter"",""1"",""32627""
","
","
","""event"",""trial"",""time""
""fullscreenenter"",""1"",""32627""
","
",,,,,,,,,,,,"[{""stimulus"":""run_exp/static/images/task_images/dig.jpg"",""time"":0.4000000059604645},{""stimulus"":""run_exp/static/images/task_images/land.jpg"",""time"":834.1000000089407},{""stimulus"":""run_exp/static/images/task_images/dig.jpg"",""time"":1656.1000000089407}]",[],4,,,,,,,,,,,,,,
harvest,110,467596,0.0-36.0-1.0,"""event"",""trial"",""time""
""fullscreenenter"",""1"",""32627""
","
","
","""event"",""trial"",""time""
""fullscreenenter"",""1"",""32627""
","
",,null,run_exp/static/images/task_images/gems/24.jpg,null,,,,,,,14,,,4,,,,,24,0.575187438,0.583333333,,,,,,,
decision,111,467850,0.0-36.0-2.0,"""event"",""trial"",""time""
""fullscreenenter"",""1"",""32627""
","
","
","""event"",""trial"",""time""
""fullscreenenter"",""1"",""32627""
","
",,251.9,run_exp/static/images/task_images/land.jpg,65,,,,,,,14,,,4,,,,,,,,104672,1,2,FALSE,,,
dig,112,470607,0.0-37.0-0.0,"""event"",""trial"",""time""
""fullscreenenter"",""1"",""32627""
","
","
","""event"",""trial"",""time""
""fullscreenenter"",""1"",""32627""
","
",,,,,,,,,,,,"[{""stimulus"":""run_exp/static/images/task_images/dig.jpg"",""time"":0.4000000059604645},{""stimulus"":""run_exp/static/images/task_images/land.jpg"",""time"":933.7000000029802},{""stimulus"":""run_exp/static/images/task_images/dig.jpg"",""time"":1847.6000000089407}]",[],4,,,,,,,,,,,,,,
harvest,113,471617,0.0-37.0-1.0,"""event"",""trial"",""time""
""fullscreenenter"",""1"",""32627""
","
","
","""event"",""trial"",""time""
""fullscreenenter"",""1"",""32627""
","
",,null,run_exp/static/images/task_images/gems/14.jpg,null,,,,,,,7,,,4,,,,,14,0.521851955,0.5,,,,,,,
decision,114,471866,0.0-37.0-2.0,"""event"",""trial"",""time""
""fullscreenenter"",""1"",""32627""
","
","
","""event"",""trial"",""time""
""fullscreenenter"",""1"",""32627""
","
",,246.6,run_exp/static/images/task_images/land.jpg,65,,,,,,,7,,,4,,,,,,,,108688,1,3,FALSE,,,
dig,115,474631,0.0-38.0-0.0,"""event"",""trial"",""time""
""fullscreenenter"",""1"",""32627""
","
","
","""event"",""trial"",""time""
""fullscreenenter"",""1"",""32627""
","
",,,,,,,,,,,,"[{""stimulus"":""run_exp/static/images/task_images/dig.jpg"",""time"":0.5},{""stimulus"":""run_exp/static/images/task_images/land.jpg"",""time"":925.2999999970198},{""stimulus"":""run_exp/static/images/task_images/dig.jpg"",""time"":1841.3999999910593}]",[],4,,,,,,,,,,,,,,
harvest,116,475642,0.0-38.0-1.0,"""event"",""trial"",""time""
""fullscreenenter"",""1"",""32627""
","
","
","""event"",""trial"",""time""
""fullscreenenter"",""1"",""32627""
","
",,null,run_exp/static/images/task_images/gems/7.jpg,null,,,,,,,3,,,4,,,,,7,0.467214946,0.428571429,,,,,,,
decision,117,475938,0.0-38.0-2.0,"""event"",""trial"",""time""
""fullscreenenter"",""1"",""32627""
","
","
","""event"",""trial"",""time""
""fullscreenenter"",""1"",""32627""
","
",,295.3,run_exp/static/images/task_images/land.jpg,65,,,,,,,3,,,4,,,,,,,,112761,1,4,FALSE,,,
dig,118,478662,0.0-39.0-0.0,"""event"",""trial"",""time""
""fullscreenenter"",""1"",""32627""
","
","
","""event"",""trial"",""time""
""fullscreenenter"",""1"",""32627""
","
",,,,,,,,,,,,"[{""stimulus"":""run_exp/static/images/task_images/dig.jpg"",""time"":0.29999999701976776},{""stimulus"":""run_exp/static/images/task_images/land.jpg"",""time"":905.2000000029802},{""stimulus"":""run_exp/static/images/task_images/dig.jpg"",""time"":1817.5}]",[],4,,,,,,,,,,,,,,
harvest,119,479665,0.0-39.0-1.0,"""event"",""trial"",""time""
""fullscreenenter"",""1"",""32627""
","
","
","""event"",""trial"",""time""
""fullscreenenter"",""1"",""32627""
","
",,null,run_exp/static/images/task_images/gems/3.jpg,null,,,,,,,2,,,4,,,,,3,0.528414158,0.666666667,,,,,,,
decision,120,479906,0.0-39.0-2.0,"""event"",""trial"",""time""
""fullscreenenter"",""1"",""32627""
","
","
","""event"",""trial"",""time""
""fullscreenenter"",""1"",""32627""
","
",,239.3,run_exp/static/images/task_images/land.jpg,76,,,,,,,2,,,4,,,,,,,,116728,1,5,TRUE,,,
travel,121,489679,0.0-40.0-0.0,"""event"",""trial"",""time""
""fullscreenenter"",""1"",""32627""
","
","
","""event"",""trial"",""time""
""fullscreenenter"",""1"",""32627""
","
",,,,,,,,,,,,"[{""stimulus"":""run_exp/static/images/task_images/rocket-01.jpg"",""time"":0.5},{""stimulus"":""run_exp/static/images/task_images/rocket-02.jpg"",""time"":1089.4000000059605},{""stimulus"":""run_exp/static/images/task_images/rocket-03.jpg"",""time"":2171.1000000089407},{""stimulus"":""run_exp/static/images/task_images/rocket-04.jpg"",""time"":3257.2999999970198},{""stimulus"":""run_exp/static/images/task_images/rocket-05.jpg"",""time"":4342.79999999702},{""stimulus"":""run_exp/static/images/task_images/rocket-06.jpg"",""time"":5428.29999999702},{""stimulus"":""run_exp/static/images/task_images/rocket-07.jpg"",""time"":6517},{""stimulus"":""run_exp/static/images/task_images/rocket-08.jpg"",""time"":7602.20000000298},{""stimulus"":""run_exp/static/images/task_images/rocket-09.jpg"",""time"":8682.20000000298}]",[],4,,,,,,,,,,,,,,
alien_welcome,122,494685,0.0-40.0-1.0,"""event"",""trial"",""time""
""fullscreenenter"",""1"",""32627""
","
","
","""event"",""trial"",""time""
""fullscreenenter"",""1"",""32627""
","
",,null,run_exp/static/images/task_images/aliens/old_aliens/planet/alien_planet-71.jpg,null,,,,,,,,,,,,,71,"58,64,3,67,71,39,12,43,24,30,80,60,62,48,6,59,28,31,21,35,22,57,51,19,50,45,29,11,13",,,,,,,,,,
land,123,495199,0.0-40.0-2.0,"""event"",""trial"",""time""
""fullscreenenter"",""1"",""32627""
","
","
","""event"",""trial"",""time""
""fullscreenenter"",""1"",""32627""
","
",,null,run_exp/static/images/task_images/land.jpg,null,,,,,,,102,,,5,,,,,,,,,,,,,,
dig,124,497204,0.0-40.0-3.0,"""event"",""trial"",""time""
""fullscreenenter"",""1"",""32627""
","
","
","""event"",""trial"",""time""
""fullscreenenter"",""1"",""32627""
","
",,,,,,,,,,,,"[{""stimulus"":""run_exp/static/images/task_images/dig.jpg"",""time"":0.4000000059604645},{""stimulus"":""run_exp/static/images/task_images/land.jpg"",""time"":684.0999999940395},{""stimulus"":""run_exp/static/images/task_images/dig.jpg"",""time"":1336.7000000029802}]",[],5,,,,,,,,,,,,,,
harvest,125,498213,0.0-40.0-4.0,"""event"",""trial"",""time""
""fullscreenenter"",""1"",""32627""
","
","
","""event"",""trial"",""time""
""fullscreenenter"",""1"",""32627""
","
",,null,run_exp/static/images/task_images/gems/102.jpg,null,,,,,,,49,,,5,,,,,102,0.482505612,0.480392157,,,,,,,
decision,126,499042,0.0-40.0-5.0,"""event"",""trial"",""time""
""fullscreenenter"",""1"",""32627""
","
","
","""event"",""trial"",""time""
""fullscreenenter"",""1"",""32627""
","
",,826.4,run_exp/static/images/task_images/land.jpg,65,,,,,,,49,,,5,,,,,,,,135864,1,0,FALSE,,,
dig,127,501227,0.0-41.0-0.0,"""event"",""trial"",""time""
""fullscreenenter"",""1"",""32627""
","
","
","""event"",""trial"",""time""
""fullscreenenter"",""1"",""32627""
","
",,,,,,,,,,,,"[{""stimulus"":""run_exp/static/images/task_images/dig.jpg"",""time"":0.4000000059604645},{""stimulus"":""run_exp/static/images/task_images/land.jpg"",""time"":740.4000000059605},{""stimulus"":""run_exp/static/images/task_images/dig.jpg"",""time"":1450.4000000059605}]",[],5,,,,,,,,,,,,,,
harvest,128,502234,0.0-41.0-1.0,"""event"",""trial"",""time""
""fullscreenenter"",""1"",""32627""
","
","
","""event"",""trial"",""time""
""fullscreenenter"",""1"",""32627""
","
",,null,run_exp/static/images/task_images/gems/49.jpg,null,,,,,,,21,,,5,,,,,49,0.433878291,0.428571429,,,,,,,
decision,129,502762,0.0-41.0-2.0,"""event"",""trial"",""time""
""fullscreenenter"",""1"",""32627""
","
","
","""event"",""trial"",""time""
""fullscreenenter"",""1"",""32627""
","
",,525.3,run_exp/static/images/task_images/land.jpg,65,,,,,,,21,,,5,,,,,,,,139584,1,1,FALSE,,,
dig,130,505254,0.0-42.0-0.0,"""event"",""trial"",""time""
""fullscreenenter"",""1"",""32627""
","
","
","""event"",""trial"",""time""
""fullscreenenter"",""1"",""32627""
","
",,,,,,,,,,,,"[{""stimulus"":""run_exp/static/images/task_images/dig.jpg"",""time"":0.3999999910593033},{""stimulus"":""run_exp/static/images/task_images/land.jpg"",""time"":833.3999999910593},{""stimulus"":""run_exp/static/images/task_images/dig.jpg"",""time"":1652.7000000029802}]",[],5,,,,,,,,,,,,,,
harvest,131,506265,0.0-42.0-1.0,"""event"",""trial"",""time""
""fullscreenenter"",""1"",""32627""
","
","
","""event"",""trial"",""time""
""fullscreenenter"",""1"",""32627""
","
",,null,run_exp/static/images/task_images/gems/21.jpg,null,,,,,,,9,,,5,,,,,21,0.449267563,0.428571429,,,,,,,
decision,132,506601,0.0-42.0-2.0,"""event"",""trial"",""time""
""fullscreenenter"",""1"",""32627""
","
","
","""event"",""trial"",""time""
""fullscreenenter"",""1"",""32627""
","
",,333,run_exp/static/images/task_images/land.jpg,65,,,,,,,9,,,5,,,,,,,,143423,1,2,FALSE,,,
dig,133,509285,0.0-43.0-0.0,"""event"",""trial"",""time""
""fullscreenenter"",""1"",""32627""
","
","
","""event"",""trial"",""time""
""fullscreenenter"",""1"",""32627""
","
",,,,,,,,,,,,"[{""stimulus"":""run_exp/static/images/task_images/dig.jpg"",""time"":0.19999998807907104},{""stimulus"":""run_exp/static/images/task_images/land.jpg"",""time"":898.5999999940395},{""stimulus"":""run_exp/static/images/task_images/dig.jpg"",""time"":1781.199999988079}]",[],5,,,,,,,,,,,,,,
harvest,134,510294,0.0-43.0-1.0,"""event"",""trial"",""time""
""fullscreenenter"",""1"",""32627""
","
","
","""event"",""trial"",""time""
""fullscreenenter"",""1"",""32627""
","
",,null,run_exp/static/images/task_images/gems/9.jpg,null,,,,,,,4,,,5,,,,,9,0.492433195,0.444444444,,,,,,,
decision,135,511338,0.0-43.0-2.0,"""event"",""trial"",""time""
""fullscreenenter"",""1"",""32627""
","
","
","""event"",""trial"",""time""
""fullscreenenter"",""1"",""32627""
","
",,1042.1,run_exp/static/images/task_images/land.jpg,65,,,,,,,4,,,5,,,,,,,,148160,1,3,FALSE,,,
dig,136,513308,0.0-44.0-0.0,"""event"",""trial"",""time""
""fullscreenenter"",""1"",""32627""
","
","
","""event"",""trial"",""time""
""fullscreenenter"",""1"",""32627""
","
",,,,,,,,,,,,"[{""stimulus"":""run_exp/static/images/task_images/dig.jpg"",""time"":0.5},{""stimulus"":""run_exp/static/images/task_images/land.jpg"",""time"":656},{""stimulus"":""run_exp/static/images/task_images/dig.jpg"",""time"":1306.8999999910593}]",[],5,,,,,,,,,,,,,,
harvest,137,514317,0.0-44.0-1.0,"""event"",""trial"",""time""
""fullscreenenter"",""1"",""32627""
","
","
","""event"",""trial"",""time""
""fullscreenenter"",""1"",""32627""
","
",,null,run_exp/static/images/task_images/gems/4.jpg,null,,,,,,,2,,,5,,,,,4,0.502254125,0.5,,,,,,,
decision,138,514752,0.0-44.0-2.0,"""event"",""trial"",""time""
""fullscreenenter"",""1"",""32627""
","
","
","""event"",""trial"",""time""
""fullscreenenter"",""1"",""32627""
","
",,433.5,run_exp/static/images/task_images/land.jpg,76,,,,,,,2,,,5,,,,,,,,151574,1,4,TRUE,,,
travel,139,524316,0.0-45.0-0.0,"""event"",""trial"",""time""
""fullscreenenter"",""1"",""32627""
","
","
","""event"",""trial"",""time""
""fullscreenenter"",""1"",""32627""
","
",,,,,,,,,,,,"[{""stimulus"":""run_exp/static/images/task_images/rocket-01.jpg"",""time"":0.10000000894069672},{""stimulus"":""run_exp/static/images/task_images/rocket-02.jpg"",""time"":1073.9000000059605},{""stimulus"":""run_exp/static/images/task_images/rocket-03.jpg"",""time"":2128.5},{""stimulus"":""run_exp/static/images/task_images/rocket-04.jpg"",""time"":3197.2000000029802},{""stimulus"":""run_exp/static/images/task_images/rocket-05.jpg"",""time"":4264.4000000059605},{""stimulus"":""run_exp/static/images/task_images/rocket-06.jpg"",""time"":5313.70000000298},{""stimulus"":""run_exp/static/images/task_images/rocket-07.jpg"",""time"":6378.29999999702},{""stimulus"":""run_exp/static/images/task_images/rocket-08.jpg"",""time"":7449.29999999702},{""stimulus"":""run_exp/static/images/task_images/rocket-09.jpg"",""time"":8504.79999999702}]",[],5,,,,,,,,,,,,,,
alien_welcome,140,529331,0.0-45.0-1.0,"""event"",""trial"",""time""
""fullscreenenter"",""1"",""32627""
","
","
","""event"",""trial"",""time""
""fullscreenenter"",""1"",""32627""
","
",,null,run_exp/static/images/task_images/aliens/old_aliens/planet/alien_planet-39.jpg,null,,,,,,,,,,,,,39,"58,64,3,67,71,39,12,43,24,30,80,60,62,48,6,59,28,31,21,35,22,57,51,19,50,45,29,11,13",,,,,,,,,,
land,141,529843,0.0-45.0-2.0,"""event"",""trial"",""time""
""fullscreenenter"",""1"",""32627""
","
","
","""event"",""trial"",""time""
""fullscreenenter"",""1"",""32627""
","
",,null,run_exp/static/images/task_images/land.jpg,null,,,,,,,97,,,6,,,,,,,,,,,,,,
dig,142,531860,0.0-45.0-3.0,"""event"",""trial"",""time""
""fullscreenenter"",""1"",""32627""
","
","
","""event"",""trial"",""time""
""fullscreenenter"",""1"",""32627""
","
",,,,,,,,,,,,"[{""stimulus"":""run_exp/static/images/task_images/dig.jpg"",""time"":0.4000000059604645},{""stimulus"":""run_exp/static/images/task_images/land.jpg"",""time"":680.5999999940395},{""stimulus"":""run_exp/static/images/task_images/dig.jpg"",""time"":1347.0999999940395}]",[],6,,,,,,,,,,,,,,
harvest,143,532867,0.0-45.0-4.0,"""event"",""trial"",""time""
""fullscreenenter"",""1"",""32627""
","
","
","""event"",""trial"",""time""
""fullscreenenter"",""1"",""32627""
","
",,null,run_exp/static/images/task_images/gems/97.jpg,null,,,,,,,77,,,6,,,,,97,0.791273031,0.793814433,,,,,,,
decision,144,533657,0.0-45.0-5.0,"""event"",""trial"",""time""
""fullscreenenter"",""1"",""32627""
","
","
","""event"",""trial"",""time""
""fullscreenenter"",""1"",""32627""
","
",,788.7,run_exp/static/images/task_images/land.jpg,65,,,,,,,77,,,6,,,,,,,,170480,1,0,FALSE,,,
dig,145,535888,0.0-46.0-0.0,"""event"",""trial"",""time""
""fullscreenenter"",""1"",""32627""
","
","
","""event"",""trial"",""time""
""fullscreenenter"",""1"",""32627""
","
",,,,,,,,,,,,"[{""stimulus"":""run_exp/static/images/task_images/dig.jpg"",""time"":0.3999999910593033},{""stimulus"":""run_exp/static/images/task_images/land.jpg"",""time"":746.3999999910593},{""stimulus"":""run_exp/static/images/task_images/dig.jpg"",""time"":1478.0999999940395}]",[],6,,,,,,,,,,,,,,
harvest,146,536899,0.0-46.0-1.0,"""event"",""trial"",""time""
""fullscreenenter"",""1"",""32627""
","
","
","""event"",""trial"",""time""
""fullscreenenter"",""1"",""32627""
","
",,null,run_exp/static/images/task_images/gems/77.jpg,null,,,,,,,59,,,6,,,,,77,0.763783858,0.766233766,,,,,,,
decision,147,537297,0.0-46.0-2.0,"""event"",""trial"",""time""
""fullscreenenter"",""1"",""32627""
","
","
","""event"",""trial"",""time""
""fullscreenenter"",""1"",""32627""
","
",,395.7,run_exp/static/images/task_images/land.jpg,65,,,,,,,59,,,6,,,,,,,,174119,1,1,FALSE,,,
dig,148,539913,0.0-47.0-0.0,"""event"",""trial"",""time""
""fullscreenenter"",""1"",""32627""
","
","
","""event"",""trial"",""time""
""fullscreenenter"",""1"",""32627""
","
",,,,,,,,,,,,"[{""stimulus"":""run_exp/static/images/task_images/dig.jpg"",""time"":0.4000000059604645},{""stimulus"":""run_exp/static/images/task_images/land.jpg"",""time"":876.0999999940395},{""stimulus"":""run_exp/static/images/task_images/dig.jpg"",""time"":1743.4000000059605}]",[],6,,,,,,,,,,,,,,
harvest,149,540921,0.0-47.0-1.0,"""event"",""trial"",""time""
""fullscreenenter"",""1"",""32627""
","
","
","""event"",""trial"",""time""
""fullscreenenter"",""1"",""32627""
","
",,null,run_exp/static/images/task_images/gems/59.jpg,null,,,,,,,52,,,6,,,,,59,0.880891907,0.881355932,,,,,,,
decision,150,541779,0.0-47.0-2.0,"""event"",""trial"",""time""
""fullscreenenter"",""1"",""32627""
","
","
","""event"",""trial"",""time""
""fullscreenenter"",""1"",""32627""
","
",,856.6,run_exp/static/images/task_images/land.jpg,65,,,,,,,52,,,6,,,,,,,,178602,1,2,FALSE,,,
dig,151,543930,0.0-48.0-0.0,"""event"",""trial"",""time""
""fullscreenenter"",""1"",""32627""
","
","
","""event"",""trial"",""time""
""fullscreenenter"",""1"",""32627""
","
",,,,,,,,,,,,"[{""stimulus"":""run_exp/static/images/task_images/dig.jpg"",""time"":0.5},{""stimulus"":""run_exp/static/images/task_images/land.jpg"",""time"":716.7999999970198},{""stimulus"":""run_exp/static/images/task_images/dig.jpg"",""time"":1445.1000000089407}]",[],6,,,,,,,,,,,,,,
harvest,152,544941,0.0-48.0-1.0,"""event"",""trial"",""time""
""fullscreenenter"",""1"",""32627""
","
","
","""event"",""trial"",""time""
""fullscreenenter"",""1"",""32627""
","
",,null,run_exp/static/images/task_images/gems/52.jpg,null,,,,,,,44,,,6,,,,,52,0.850116931,0.846153846,,,,,,,
decision,153,545017,0.0-48.0-2.0,"""event"",""trial"",""time""
""fullscreenenter"",""1"",""32627""
","
","
","""event"",""trial"",""time""
""fullscreenenter"",""1"",""32627""
","
",,74.60000001,run_exp/static/images/task_images/land.jpg,65,,,,,,,44,,,6,,,,,,,,181840,1,3,FALSE,,,
dig,154,547952,0.0-49.0-0.0,"""event"",""trial"",""time""
""fullscreenenter"",""1"",""32627""
","
","
","""event"",""trial"",""time""
""fullscreenenter"",""1"",""32627""
","
",,,,,,,,,,,,"[{""stimulus"":""run_exp/static/images/task_images/dig.jpg"",""time"":0.5},{""stimulus"":""run_exp/static/images/task_images/land.jpg"",""time"":990.3000000119209},{""stimulus"":""run_exp/static/images/task_images/dig.jpg"",""time"":1952.5}]",[],6,,,,,,,,,,,,,,
harvest,155,548969,0.0-49.0-1.0,"""event"",""trial"",""time""
""fullscreenenter"",""1"",""32627""
","
","
","""event"",""trial"",""time""
""fullscreenenter"",""1"",""32627""
","
",,null,run_exp/static/images/task_images/gems/44.jpg,null,,,,,,,38,,,6,,,,,44,0.865485552,0.863636364,,,,,,,
decision,156,549401,0.0-49.0-2.0,"""event"",""trial"",""time""
""fullscreenenter"",""1"",""32627""
","
","
","""event"",""trial"",""time""
""fullscreenenter"",""1"",""32627""
","
",,430.7,run_exp/static/images/task_images/land.jpg,65,,,,,,,38,,,6,,,,,,,,186223,1,4,FALSE,,,
dig,157,551984,0.0-50.0-0.0,"""event"",""trial"",""time""
""fullscreenenter"",""1"",""32627""
","
","
","""event"",""trial"",""time""
""fullscreenenter"",""1"",""32627""
","
",,,,,,,,,,,,"[{""stimulus"":""run_exp/static/images/task_images/dig.jpg"",""time"":0.20000000298023224},{""stimulus"":""run_exp/static/images/task_images/land.jpg"",""time"":871.3999999910593},{""stimulus"":""run_exp/static/images/task_images/dig.jpg"",""time"":1724}]",[],6,,,,,,,,,,,,,,
harvest,158,552995,0.0-50.0-1.0,"""event"",""trial"",""time""
""fullscreenenter"",""1"",""32627""
","
","
","""event"",""trial"",""time""
""fullscreenenter"",""1"",""32627""
","
",,null,run_exp/static/images/task_images/gems/38.jpg,null,,,,,,,29,,,6,,,,,38,0.774116098,0.763157895,,,,,,,
decision,159,553338,0.0-50.0-2.0,"""event"",""trial"",""time""
""fullscreenenter"",""1"",""32627""
","
","
","""event"",""trial"",""time""
""fullscreenenter"",""1"",""32627""
","
",,341.7,run_exp/static/images/task_images/land.jpg,65,,,,,,,29,,,6,,,,,,,,190161,1,5,FALSE,,,
dig,160,556006,0.0-51.0-0.0,"""event"",""trial"",""time""
""fullscreenenter"",""1"",""32627""
","
","
","""event"",""trial"",""time""
""fullscreenenter"",""1"",""32627""
","
",,,,,,,,,,,,"[{""stimulus"":""run_exp/static/images/task_images/dig.jpg"",""time"":0.4000000059604645},{""stimulus"":""run_exp/static/images/task_images/land.jpg"",""time"":888.0999999940395},{""stimulus"":""run_exp/static/images/task_images/dig.jpg"",""time"":1775.9000000059605}]",[],6,,,,,,,,,,,,,,
harvest,161,557015,0.0-51.0-1.0,"""event"",""trial"",""time""
""fullscreenenter"",""1"",""32627""
","
","
","""event"",""trial"",""time""
""fullscreenenter"",""1"",""32627""
","
",,null,run_exp/static/images/task_images/gems/29.jpg,null,,,,,,,26,,,6,,,,,29,0.902724439,0.896551724,,,,,,,
decision,162,557401,0.0-51.0-2.0,"""event"",""trial"",""time""
""fullscreenenter"",""1"",""32627""
","
","
","""event"",""trial"",""time""
""fullscreenenter"",""1"",""32627""
","
",,385,run_exp/static/images/task_images/land.jpg,65,,,,,,,26,,,6,,,,,,,,194223,1,6,FALSE,,,
dig,163,560026,0.0-52.0-0.0,"""event"",""trial"",""time""
""fullscreenenter"",""1"",""32627""
","
","
","""event"",""trial"",""time""
""fullscreenenter"",""1"",""32627""
","
",,,,,,,,,,,,"[{""stimulus"":""run_exp/static/images/task_images/dig.jpg"",""time"":0.29999999701976776},{""stimulus"":""run_exp/static/images/task_images/land.jpg"",""time"":884},{""stimulus"":""run_exp/static/images/task_images/dig.jpg"",""time"":1750}]",[],6,,,,,,,,,,,,,,
harvest,164,561035,0.0-52.0-1.0,"""event"",""trial"",""time""
""fullscreenenter"",""1"",""32627""
","
","
","""event"",""trial"",""time""
""fullscreenenter"",""1"",""32627""
","
",,null,run_exp/static/images/task_images/gems/26.jpg,null,,,,,,,22,,,6,,,,,26,0.827392939,0.846153846,,,,,,,
decision,165,561409,0.0-52.0-2.0,"""event"",""trial"",""time""
""fullscreenenter"",""1"",""32627""
","
","
","""event"",""trial"",""time""
""fullscreenenter"",""1"",""32627""
","
",,372,run_exp/static/images/task_images/land.jpg,65,,,,,,,22,,,6,,,,,,,,198232,1,7,FALSE,,,
dig,166,564057,0.0-53.0-0.0,"""event"",""trial"",""time""
""fullscreenenter"",""1"",""32627""
","
","
","""event"",""trial"",""time""
""fullscreenenter"",""1"",""32627""
","
",,,,,,,,,,,,"[{""stimulus"":""run_exp/static/images/task_images/dig.jpg"",""time"":0.3999999910593033},{""stimulus"":""run_exp/static/images/task_images/land.jpg"",""time"":890.3999999910593},{""stimulus"":""run_exp/static/images/task_images/dig.jpg"",""time"":1758.5999999940395}]",[],6,,,,,,,,,,,,,,
harvest,167,565069,0.0-53.0-1.0,"""event"",""trial"",""time""
""fullscreenenter"",""1"",""32627""
","
","
","""event"",""trial"",""time""
""fullscreenenter"",""1"",""32627""
","
",,null,run_exp/static/images/task_images/gems/22.jpg,null,,,,,,,18,,,6,,,,,22,0.799001676,0.818181818,,,,,,,
decision,168,566345,0.0-53.0-2.0,"""event"",""trial"",""time""
""fullscreenenter"",""1"",""32627""
","
","
","""event"",""trial"",""time""
""fullscreenenter"",""1"",""32627""
","
",,1274.2,run_exp/static/images/task_images/land.jpg,65,,,,,,,18,,,6,,,,,,,,203168,1,8,FALSE,,,
dig,169,568083,0.0-54.0-0.0,"""event"",""trial"",""time""
""fullscreenenter"",""1"",""32627""
","
","
","""event"",""trial"",""time""
""fullscreenenter"",""1"",""32627""
","
",,,,,,,,,,,,"[{""stimulus"":""run_exp/static/images/task_images/dig.jpg"",""time"":0.29999999701976776},{""stimulus"":""run_exp/static/images/task_images/land.jpg"",""time"":585.2999999970198},{""stimulus"":""run_exp/static/images/task_images/dig.jpg"",""time"":1161.6000000089407}]",[],6,,,,,,,,,,,,,,
harvest,170,569091,0.0-54.0-1.0,"""event"",""trial"",""time""
""fullscreenenter"",""1"",""32627""
","
","
","""event"",""trial"",""time""
""fullscreenenter"",""1"",""32627""
","
",,null,run_exp/static/images/task_images/gems/18.jpg,null,,,,,,,15,,,6,,,,,18,0.854017968,0.833333333,,,,,,,
decision,171,569474,0.0-54.0-2.0,"""event"",""trial"",""time""
""fullscreenenter"",""1"",""32627""
","
","
","""event"",""trial"",""time""
""fullscreenenter"",""1"",""32627""
","
",,380.3,run_exp/static/images/task_images/land.jpg,65,,,,,,,15,,,6,,,,,,,,206296,1,9,FALSE,,,
dig,172,572114,0.0-55.0-0.0,"""event"",""trial"",""time""
""fullscreenenter"",""1"",""32627""
","
","
","""event"",""trial"",""time""
""fullscreenenter"",""1"",""32627""
","
",,,,,,,,,,,,"[{""stimulus"":""run_exp/static/images/task_images/dig.jpg"",""time"":0.5},{""stimulus"":""run_exp/static/images/task_images/land.jpg"",""time"":886},{""stimulus"":""run_exp/static/images/task_images/dig.jpg"",""time"":1752.5}]",[],6,,,,,,,,,,,,,,
harvest,173,573120,0.0-55.0-1.0,"""event"",""trial"",""time""
""fullscreenenter"",""1"",""32627""
","
","
","""event"",""trial"",""time""
""fullscreenenter"",""1"",""32627""
","
",,null,run_exp/static/images/task_images/gems/15.jpg,null,,,,,,,13,,,6,,,,,15,0.857089178,0.866666667,,,,,,,
decision,174,573458,0.0-55.0-2.0,"""event"",""trial"",""time""
""fullscreenenter"",""1"",""32627""
","
","
","""event"",""trial"",""time""
""fullscreenenter"",""1"",""32627""
","
",,335.7,run_exp/static/images/task_images/land.jpg,65,,,,,,,13,,,6,,,,,,,,210280,1,10,FALSE,,,
dig,175,576142,0.0-56.0-0.0,"""event"",""trial"",""time""
""fullscreenenter"",""1"",""32627""
","
","
","""event"",""trial"",""time""
""fullscreenenter"",""1"",""32627""
","
",,,,,,,,,,,,"[{""stimulus"":""run_exp/static/images/task_images/dig.jpg"",""time"":0.29999999701976776},{""stimulus"":""run_exp/static/images/task_images/land.jpg"",""time"":894.5},{""stimulus"":""run_exp/static/images/task_images/dig.jpg"",""time"":1791.7000000029802}]",[],6,,,,,,,,,,,,,,
harvest,176,577151,0.0-56.0-1.0,"""event"",""trial"",""time""
""fullscreenenter"",""1"",""32627""
","
","
","""event"",""trial"",""time""
""fullscreenenter"",""1"",""32627""
","
",,null,run_exp/static/images/task_images/gems/13.jpg,null,,,,,,,10,,,6,,,,,13,0.73944948,0.769230769,,,,,,,
decision,177,577529,0.0-56.0-2.0,"""event"",""trial"",""time""
""fullscreenenter"",""1"",""32627""
","
","
","""event"",""trial"",""time""
""fullscreenenter"",""1"",""32627""
","
",,377.6,run_exp/static/images/task_images/land.jpg,65,,,,,,,10,,,6,,,,,,,,214351,1,11,FALSE,,,
dig,178,580162,0.0-57.0-0.0,"""event"",""trial"",""time""
""fullscreenenter"",""1"",""32627""
","
","
","""event"",""trial"",""time""
""fullscreenenter"",""1"",""32627""
","
",,,,,,,,,,,,"[{""stimulus"":""run_exp/static/images/task_images/dig.jpg"",""time"":0.29999999701976776},{""stimulus"":""run_exp/static/images/task_images/land.jpg"",""time"":888.9000000059605},{""stimulus"":""run_exp/static/images/task_images/dig.jpg"",""time"":1758.4000000059605}]",[],6,,,,,,,,,,,,,,
harvest,179,581173,0.0-57.0-1.0,"""event"",""trial"",""time""
""fullscreenenter"",""1"",""32627""
","
","
","""event"",""trial"",""time""
""fullscreenenter"",""1"",""32627""
","
",,null,run_exp/static/images/task_images/gems/10.jpg,null,,,,,,,8,,,6,,,,,10,0.791301036,0.8,,,,,,,
decision,180,581497,0.0-57.0-2.0,"""event"",""trial"",""time""
""fullscreenenter"",""1"",""32627""
","
","
","""event"",""trial"",""time""
""fullscreenenter"",""1"",""32627""
","
",,321.7,run_exp/static/images/task_images/land.jpg,65,,,,,,,8,,,6,,,,,,,,218319,1,12,FALSE,,,
dig,181,584188,0.0-58.0-0.0,"""event"",""trial"",""time""
""fullscreenenter"",""1"",""32627""
","
","
","""event"",""trial"",""time""
""fullscreenenter"",""1"",""32627""
","
",,,,,,,,,,,,"[{""stimulus"":""run_exp/static/images/task_images/dig.jpg"",""time"":0.4000000059604645},{""stimulus"":""run_exp/static/images/task_images/land.jpg"",""time"":900.7000000029802},{""stimulus"":""run_exp/static/images/task_images/dig.jpg"",""time"":1799.7000000029802}]",[],6,,,,,,,,,,,,,,
harvest,182,585198,0.0-58.0-1.0,"""event"",""trial"",""time""
""fullscreenenter"",""1"",""32627""
","
","
","""event"",""trial"",""time""
""fullscreenenter"",""1"",""32627""
","
",,null,run_exp/static/images/task_images/gems/8.jpg,null,,,,,,,7,,,6,,,,,8,0.813715114,0.875,,,,,,,
decision,183,585577,0.0-58.0-2.0,"""event"",""trial"",""time""
""fullscreenenter"",""1"",""32627""
","
","
","""event"",""trial"",""time""
""fullscreenenter"",""1"",""32627""
","
",,377.7,run_exp/static/images/task_images/land.jpg,65,,,,,,,7,,,6,,,,,,,,222400,1,13,FALSE,,,
dig,184,588218,0.0-59.0-0.0,"""event"",""trial"",""time""
""fullscreenenter"",""1"",""32627""
","
","
","""event"",""trial"",""time""
""fullscreenenter"",""1"",""32627""
","
",,,,,,,,,,,,"[{""stimulus"":""run_exp/static/images/task_images/dig.jpg"",""time"":0.5},{""stimulus"":""run_exp/static/images/task_images/land.jpg"",""time"":883.5999999940395},{""stimulus"":""run_exp/static/images/task_images/dig.jpg"",""time"":1751}]",[],6,,,,,,,,,,,,,,
harvest,185,589225,0.0-59.0-1.0,"""event"",""trial"",""time""
""fullscreenenter"",""1"",""32627""
","
","
","""event"",""trial"",""time""
""fullscreenenter"",""1"",""32627""
","
",,null,run_exp/static/images/task_images/gems/7.jpg,null,,,,,,,6,,,6,,,,,7,0.826432117,0.857142857,,,,,,,
decision,186,589538,0.0-59.0-2.0,"""event"",""trial"",""time""
""fullscreenenter"",""1"",""32627""
","
","
","""event"",""trial"",""time""
""fullscreenenter"",""1"",""32627""
","
",,311.6,run_exp/static/images/task_images/land.jpg,65,,,,,,,6,,,6,,,,,,,,226360,1,14,FALSE,,,
dig,187,592240,0.0-60.0-0.0,"""event"",""trial"",""time""
""fullscreenenter"",""1"",""32627""
","
","
","""event"",""trial"",""time""
""fullscreenenter"",""1"",""32627""
","
",,,,,,,,,,,,"[{""stimulus"":""run_exp/static/images/task_images/dig.jpg"",""time"":0.4000000059604645},{""stimulus"":""run_exp/static/images/task_images/land.jpg"",""time"":909.5},{""stimulus"":""run_exp/static/images/task_images/dig.jpg"",""time"":1809.5999999940395}]",[],6,,,,,,,,,,,,,,
harvest,188,593250,0.0-60.0-1.0,"""event"",""trial"",""time""
""fullscreenenter"",""1"",""32627""
","
","
","""event"",""trial"",""time""
""fullscreenenter"",""1"",""32627""
","
",,null,run_exp/static/images/task_images/gems/6.jpg,null,,,,,,,5,,,6,,,,,6,0.769546938,0.833333333,,,,,,,
decision,189,593585,0.0-60.0-2.0,"""event"",""trial"",""time""
""fullscreenenter"",""1"",""32627""
","
","
","""event"",""trial"",""time""
""fullscreenenter"",""1"",""32627""
","
",,332.6,run_exp/static/images/task_images/land.jpg,65,,,,,,,5,,,6,,,,,,,,230407,1,15,FALSE,,,
dig,190,596269,0.0-61.0-0.0,"""event"",""trial"",""time""
""fullscreenenter"",""1"",""32627""
","
","
","""event"",""trial"",""time""
""fullscreenenter"",""1"",""32627""
","
",,,,,,,,,,,,"[{""stimulus"":""run_exp/static/images/task_images/dig.jpg"",""time"":0.30000001192092896},{""stimulus"":""run_exp/static/images/task_images/land.jpg"",""time"":901.7000000029802},{""stimulus"":""run_exp/static/images/task_images/dig.jpg"",""time"":1782.800000011921}]",[],6,,,,,,,,,,,,,,
harvest,191,597283,0.0-61.0-1.0,"""event"",""trial"",""time""
""fullscreenenter"",""1"",""32627""
","
","
","""event"",""trial"",""time""
""fullscreenenter"",""1"",""32627""
","
",,null,run_exp/static/images/task_images/gems/5.jpg,null,,,,,,,4,,,6,,,,,5,0.820880648,0.8,,,,,,,
decision,192,597673,0.0-61.0-2.0,"""event"",""trial"",""time""
""fullscreenenter"",""1"",""32627""
","
","
","""event"",""trial"",""time""
""fullscreenenter"",""1"",""32627""
","
",,388.7,run_exp/static/images/task_images/land.jpg,76,,,,,,,4,,,6,,,,,,,,234495,1,16,TRUE,,,
travel,193,607295,0.0-62.0-0.0,"""event"",""trial"",""time""
""fullscreenenter"",""1"",""32627""
","
","
","""event"",""trial"",""time""
""fullscreenenter"",""1"",""32627""
","
",,,,,,,,,,,,"[{""stimulus"":""run_exp/static/images/task_images/rocket-01.jpg"",""time"":0.20000000298023224},{""stimulus"":""run_exp/static/images/task_images/rocket-02.jpg"",""time"":1081.9000000059605},{""stimulus"":""run_exp/static/images/task_images/rocket-03.jpg"",""time"":2136.5999999940395},{""stimulus"":""run_exp/static/images/task_images/rocket-04.jpg"",""time"":3209.2999999970198},{""stimulus"":""run_exp/static/images/task_images/rocket-05.jpg"",""time"":4278.5},{""stimulus"":""run_exp/static/images/task_images/rocket-06.jpg"",""time"":5351.79999999702},{""stimulus"":""run_exp/static/images/task_images/rocket-07.jpg"",""time"":6405.9000000059605},{""stimulus"":""run_exp/static/images/task_images/rocket-08.jpg"",""time"":7477.4000000059605},{""stimulus"":""run_exp/static/images/task_images/rocket-09.jpg"",""time"":8548.40000000596}]",[],6,,,,,,,,,,,,,,
alien_welcome,194,612302,0.0-62.0-1.0,"""event"",""trial"",""time""
""fullscreenenter"",""1"",""32627""
","
","
","""event"",""trial"",""time""
""fullscreenenter"",""1"",""32627""
","
",,null,run_exp/static/images/task_images/aliens/old_aliens/planet/alien_planet-12.jpg,null,,,,,,,,,,,,,12,"58,64,3,67,71,39,12,43,24,30,80,60,62,48,6,59,28,31,21,35,22,57,51,19,50,45,29,11,13",,,,,,,,,,
land,195,612816,0.0-62.0-2.0,"""event"",""trial"",""time""
""fullscreenenter"",""1"",""32627""
","
","
","""event"",""trial"",""time""
""fullscreenenter"",""1"",""32627""
","
",,null,run_exp/static/images/task_images/land.jpg,null,,,,,,,96,,,7,,,,,,,,,,,,,,
dig,196,614827,0.0-62.0-3.0,"""event"",""trial"",""time""
""fullscreenenter"",""1"",""32627""
","
","
","""event"",""trial"",""time""
""fullscreenenter"",""1"",""32627""
","
",,,,,,,,,,,,"[{""stimulus"":""run_exp/static/images/task_images/dig.jpg"",""time"":0.5},{""stimulus"":""run_exp/static/images/task_images/land.jpg"",""time"":676.1000000089407},{""stimulus"":""run_exp/static/images/task_images/dig.jpg"",""time"":1345.6000000089407}]",[],7,,,,,,,,,,,,,,
harvest,197,615839,0.0-62.0-4.0,"""event"",""trial"",""time""
""fullscreenenter"",""1"",""32627""
","
","
","""event"",""trial"",""time""
""fullscreenenter"",""1"",""32627""
","
",,null,run_exp/static/images/task_images/gems/96.jpg,null,,,,,,,72,,,7,,,,,96,0.749168873,0.75,,,,,,,
decision,198,616265,0.0-62.0-5.0,"""event"",""trial"",""time""
""fullscreenenter"",""1"",""32627""
","
","
","""event"",""trial"",""time""
""fullscreenenter"",""1"",""32627""
","
",,424.4,run_exp/static/images/task_images/land.jpg,65,,,,,,,72,,,7,,,,,,,,253087,1,0,FALSE,,,
dig,199,618854,0.0-63.0-0.0,"""event"",""trial"",""time""
""fullscreenenter"",""1"",""32627""
","
","
","""event"",""trial"",""time""
""fullscreenenter"",""1"",""32627""
","
",,,,,,,,,,,,"[{""stimulus"":""run_exp/static/images/task_images/dig.jpg"",""time"":0.29999999701976776},{""stimulus"":""run_exp/static/images/task_images/land.jpg"",""time"":860.2000000029802},{""stimulus"":""run_exp/static/images/task_images/dig.jpg"",""time"":1728.2000000029802}]",[],7,,,,,,,,,,,,,,
harvest,200,619860,0.0-63.0-1.0,"""event"",""trial"",""time""
""fullscreenenter"",""1"",""32627""
","
","
","""event"",""trial"",""time""
""fullscreenenter"",""1"",""32627""
","
",,null,run_exp/static/images/task_images/gems/72.jpg,null,,,,,,,56,,,7,,,,,72,0.782196023,0.777777778,,,,,,,
decision,201,622872,0.0-63.0-2.0,"""event"",""trial"",""time""
""fullscreenenter"",""1"",""32627""
","
","
","""event"",""trial"",""time""
""fullscreenenter"",""1"",""32627""
","
",,null,run_exp/static/images/task_images/land.jpg,null,,,,,,,56,,,7,,,,,,,,259694,1,1,FALSE,,,
time_out,202,624888,0.0-64.0-0.0,"""event"",""trial"",""time""
""fullscreenenter"",""1"",""32627""
","
","
","""event"",""trial"",""time""
""fullscreenenter"",""1"",""32627""
","
",,null,run_exp/static/images/task_images/time_out.jpg,null,,,,,,,56,,,,,,,,,,,,,,,,,
decision,203,625617,0.0-64.0-1.0,"""event"",""trial"",""time""
""fullscreenenter"",""1"",""32627""
","
","
","""event"",""trial"",""time""
""fullscreenenter"",""1"",""32627""
","
",,726.6,run_exp/static/images/task_images/land.jpg,65,,,,,,,56,,,7,,,,,,,,262440,1,1,FALSE,,,
dig,204,627905,0.0-65.0-0.0,"""event"",""trial"",""time""
""fullscreenenter"",""1"",""32627""
","
","
","""event"",""trial"",""time""
""fullscreenenter"",""1"",""32627""
","
",,,,,,,,,,,,"[{""stimulus"":""run_exp/static/images/task_images/dig.jpg"",""time"":0.3999999910593033},{""stimulus"":""run_exp/static/images/task_images/land.jpg"",""time"":770.2999999970198},{""stimulus"":""run_exp/static/images/task_images/dig.jpg"",""time"":1518.7999999970198}]",[],7,,,,,,,,,,,,,,
harvest,205,628918,0.0-65.0-1.0,"""event"",""trial"",""time""
""fullscreenenter"",""1"",""32627""
","
","
","""event"",""trial"",""time""
""fullscreenenter"",""1"",""32627""
","
",,null,run_exp/static/images/task_images/gems/56.jpg,null,,,,,,,46,,,7,,,,,56,0.826122077,0.821428571,,,,,,,
decision,206,629505,0.0-65.0-2.0,"""event"",""trial"",""time""
""fullscreenenter"",""1"",""32627""
","
","
","""event"",""trial"",""time""
""fullscreenenter"",""1"",""32627""
","
",,585.6,run_exp/static/images/task_images/land.jpg,65,,,,,,,46,,,7,,,,,,,,266327,1,2,FALSE,,,
dig,207,631927,0.0-66.0-0.0,"""event"",""trial"",""time""
""fullscreenenter"",""1"",""32627""
","
","
","""event"",""trial"",""time""
""fullscreenenter"",""1"",""32627""
","
",,,,,,,,,,,,"[{""stimulus"":""run_exp/static/images/task_images/dig.jpg"",""time"":0.29999999701976776},{""stimulus"":""run_exp/static/images/task_images/land.jpg"",""time"":820.5},{""stimulus"":""run_exp/static/images/task_images/dig.jpg"",""time"":1610.0999999940395}]",[],7,,,,,,,,,,,,,,
harvest,208,632935,0.0-66.0-1.0,"""event"",""trial"",""time""
""fullscreenenter"",""1"",""32627""
","
","
","""event"",""trial"",""time""
""fullscreenenter"",""1"",""32627""
","
",,null,run_exp/static/images/task_images/gems/46.jpg,null,,,,,,,40,,,7,,,,,46,0.869053691,0.869565217,,,,,,,
decision,209,633289,0.0-66.0-2.0,"""event"",""trial"",""time""
""fullscreenenter"",""1"",""32627""
","
","
","""event"",""trial"",""time""
""fullscreenenter"",""1"",""32627""
","
",,351.8,run_exp/static/images/task_images/land.jpg,65,,,,,,,40,,,7,,,,,,,,270111,1,3,FALSE,,,
dig,210,635946,0.0-67.0-0.0,"""event"",""trial"",""time""
""fullscreenenter"",""1"",""32627""
","
","
","""event"",""trial"",""time""
""fullscreenenter"",""1"",""32627""
","
",,,,,,,,,,,,"[{""stimulus"":""run_exp/static/images/task_images/dig.jpg"",""time"":0.20000000298023224},{""stimulus"":""run_exp/static/images/task_images/land.jpg"",""time"":884.7000000029802},{""stimulus"":""run_exp/static/images/task_images/dig.jpg"",""time"":1766.7999999970198}]",[],7,,,,,,,,,,,,,,
harvest,211,636955,0.0-67.0-1.0,"""event"",""trial"",""time""
""fullscreenenter"",""1"",""32627""
","
","
","""event"",""trial"",""time""
""fullscreenenter"",""1"",""32627""
","
",,null,run_exp/static/images/task_images/gems/40.jpg,null,,,,,,,32,,,7,,,,,40,0.80258061,0.8,,,,,,,
decision,212,637209,0.0-67.0-2.0,"""event"",""trial"",""time""
""fullscreenenter"",""1"",""32627""
","
","
","""event"",""trial"",""time""
""fullscreenenter"",""1"",""32627""
","
",,252.1,run_exp/static/images/task_images/land.jpg,65,,,,,,,32,,,7,,,,,,,,274032,1,4,FALSE,,,
dig,213,639967,0.0-68.0-0.0,"""event"",""trial"",""time""
""fullscreenenter"",""1"",""32627""
","
","
","""event"",""trial"",""time""
""fullscreenenter"",""1"",""32627""
","
",,,,,,,,,,,,"[{""stimulus"":""run_exp/static/images/task_images/dig.jpg"",""time"":0.3999999910593033},{""stimulus"":""run_exp/static/images/task_images/land.jpg"",""time"":919.5},{""stimulus"":""run_exp/static/images/task_images/dig.jpg"",""time"":1835.5}]",[],7,,,,,,,,,,,,,,
harvest,214,640978,0.0-68.0-1.0,"""event"",""trial"",""time""
""fullscreenenter"",""1"",""32627""
","
","
","""event"",""trial"",""time""
""fullscreenenter"",""1"",""32627""
","
",,null,run_exp/static/images/task_images/gems/32.jpg,null,,,,,,,25,,,7,,,,,32,0.793583918,0.78125,,,,,,,
decision,215,641305,0.0-68.0-2.0,"""event"",""trial"",""time""
""fullscreenenter"",""1"",""32627""
","
","
","""event"",""trial"",""time""
""fullscreenenter"",""1"",""32627""
","
",,325.2,run_exp/static/images/task_images/land.jpg,65,,,,,,,25,,,7,,,,,,,,278128,1,5,FALSE,,,
dig,216,643995,0.0-69.0-0.0,"""event"",""trial"",""time""
""fullscreenenter"",""1"",""32627""
","
","
","""event"",""trial"",""time""
""fullscreenenter"",""1"",""32627""
","
",,,,,,,,,,,,"[{""stimulus"":""run_exp/static/images/task_images/dig.jpg"",""time"":0.4000000059604645},{""stimulus"":""run_exp/static/images/task_images/land.jpg"",""time"":895.5999999940395},{""stimulus"":""run_exp/static/images/task_images/dig.jpg"",""time"":1795.7000000029802}]",[],7,,,,,,,,,,,,,,
harvest,217,645002,0.0-69.0-1.0,"""event"",""trial"",""time""
""fullscreenenter"",""1"",""32627""
","
","
","""event"",""trial"",""time""
""fullscreenenter"",""1"",""32627""
","
",,null,run_exp/static/images/task_images/gems/25.jpg,null,,,,,,,20,,,7,,,,,25,0.800395801,0.8,,,,,,,
decision,218,645009,0.0-69.0-2.0,"""event"",""trial"",""time""
""fullscreenenter"",""1"",""32627""
","
","
","""event"",""trial"",""time""
""fullscreenenter"",""1"",""32627""
","
",,5.799999997,run_exp/static/images/task_images/land.jpg,65,,,,,,,20,,,7,,,,,,,,281831,1,6,FALSE,,,
dig,219,648020,0.0-70.0-0.0,"""event"",""trial"",""time""
""fullscreenenter"",""1"",""32627""
","
","
","""event"",""trial"",""time""
""fullscreenenter"",""1"",""32627""
","
",,,,,,,,,,,,"[{""stimulus"":""run_exp/static/images/task_images/dig.jpg"",""time"":0.29999999701976776},{""stimulus"":""run_exp/static/images/task_images/land.jpg"",""time"":1012.7999999970198},{""stimulus"":""run_exp/static/images/task_images/dig.jpg"",""time"":2010.4000000059605}]",[],7,,,,,,,,,,,,,,
harvest,220,649030,0.0-70.0-1.0,"""event"",""trial"",""time""
""fullscreenenter"",""1"",""32627""
","
","
","""event"",""trial"",""time""
""fullscreenenter"",""1"",""32627""
","
",,null,run_exp/static/images/task_images/gems/20.jpg,null,,,,,,,15,,,7,,,,,20,0.762924118,0.75,,,,,,,
decision,221,649361,0.0-70.0-2.0,"""event"",""trial"",""time""
""fullscreenenter"",""1"",""32627""
","
","
","""event"",""trial"",""time""
""fullscreenenter"",""1"",""32627""
","
",,328.7,run_exp/static/images/task_images/land.jpg,65,,,,,,,15,,,7,,,,,,,,286184,1,7,FALSE,,,
dig,222,652043,0.0-71.0-0.0,"""event"",""trial"",""time""
""fullscreenenter"",""1"",""32627""
","
","
","""event"",""trial"",""time""
""fullscreenenter"",""1"",""32627""
","
",,,,,,,,,,,,"[{""stimulus"":""run_exp/static/images/task_images/dig.jpg"",""time"":0.3999999910593033},{""stimulus"":""run_exp/static/images/task_images/land.jpg"",""time"":900.8999999910593},{""stimulus"":""run_exp/static/images/task_images/dig.jpg"",""time"":1787.699999988079}]",[],7,,,,,,,,,,,,,,
harvest,223,653053,0.0-71.0-1.0,"""event"",""trial"",""time""
""fullscreenenter"",""1"",""32627""
","
","
","""event"",""trial"",""time""
""fullscreenenter"",""1"",""32627""
","
",,null,run_exp/static/images/task_images/gems/15.jpg,null,,,,,,,11,,,7,,,,,15,0.751019037,0.733333333,,,,,,,
decision,224,653377,0.0-71.0-2.0,"""event"",""trial"",""time""
""fullscreenenter"",""1"",""32627""
","
","
","""event"",""trial"",""time""
""fullscreenenter"",""1"",""32627""
","
",,322.6,run_exp/static/images/task_images/land.jpg,65,,,,,,,11,,,7,,,,,,,,290200,1,8,FALSE,,,
dig,225,656065,0.0-72.0-0.0,"""event"",""trial"",""time""
""fullscreenenter"",""1"",""32627""
","
","
","""event"",""trial"",""time""
""fullscreenenter"",""1"",""32627""
","
",,,,,,,,,,,,"[{""stimulus"":""run_exp/static/images/task_images/dig.jpg"",""time"":0.3999999910593033},{""stimulus"":""run_exp/static/images/task_images/land.jpg"",""time"":894.2999999970198},{""stimulus"":""run_exp/static/images/task_images/dig.jpg"",""time"":1796}]",[],7,,,,,,,,,,,,,,
harvest,226,657078,0.0-72.0-1.0,"""event"",""trial"",""time""
""fullscreenenter"",""1"",""32627""
","
","
","""event"",""trial"",""time""
""fullscreenenter"",""1"",""32627""
","
",,null,run_exp/static/images/task_images/gems/11.jpg,null,,,,,,,9,,,7,,,,,11,0.832482184,0.818181818,,,,,,,
decision,227,657378,0.0-72.0-2.0,"""event"",""trial"",""time""
""fullscreenenter"",""1"",""32627""
","
","
","""event"",""trial"",""time""
""fullscreenenter"",""1"",""32627""
","
",,298.1,run_exp/static/images/task_images/land.jpg,65,,,,,,,9,,,7,,,,,,,,294200,1,9,FALSE,,,
dig,228,660090,0.0-73.0-0.0,"""event"",""trial"",""time""
""fullscreenenter"",""1"",""32627""
","
","
","""event"",""trial"",""time""
""fullscreenenter"",""1"",""32627""
","
",,,,,,,,,,,,"[{""stimulus"":""run_exp/static/images/task_images/dig.jpg"",""time"":0.30000001192092896},{""stimulus"":""run_exp/static/images/task_images/land.jpg"",""time"":902.8000000119209},{""stimulus"":""run_exp/static/images/task_images/dig.jpg"",""time"":1804.5}]",[],7,,,,,,,,,,,,,,
harvest,229,661099,0.0-73.0-1.0,"""event"",""trial"",""time""
""fullscreenenter"",""1"",""32627""
","
","
","""event"",""trial"",""time""
""fullscreenenter"",""1"",""32627""
","
",,null,run_exp/static/images/task_images/gems/9.jpg,null,,,,,,,7,,,7,,,,,9,0.799732465,0.777777778,,,,,,,
decision,230,661673,0.0-73.0-2.0,"""event"",""trial"",""time""
""fullscreenenter"",""1"",""32627""
","
","
","""event"",""trial"",""time""
""fullscreenenter"",""1"",""32627""
","
",,572.3,run_exp/static/images/task_images/land.jpg,65,,,,,,,7,,,7,,,,,,,,298495,1,10,FALSE,,,
dig,231,664119,0.0-74.0-0.0,"""event"",""trial"",""time""
""fullscreenenter"",""1"",""32627""
","
","
","""event"",""trial"",""time""
""fullscreenenter"",""1"",""32627""
","
",,,,,,,,,,,,"[{""stimulus"":""run_exp/static/images/task_images/dig.jpg"",""time"":0.29999999701976776},{""stimulus"":""run_exp/static/images/task_images/land.jpg"",""time"":815.5},{""stimulus"":""run_exp/static/images/task_images/dig.jpg"",""time"":1619.7000000029802}]",[],7,,,,,,,,,,,,,,
harvest,232,665128,0.0-74.0-1.0,"""event"",""trial"",""time""
""fullscreenenter"",""1"",""32627""
","
","
","""event"",""trial"",""time""
""fullscreenenter"",""1"",""32627""
","
",,null,run_exp/static/images/task_images/gems/7.jpg,null,,,,,,,6,,,7,,,,,7,0.8910831,0.857142857,,,,,,,
decision,233,665432,0.0-74.0-2.0,"""event"",""trial"",""time""
""fullscreenenter"",""1"",""32627""
","
","
","""event"",""trial"",""time""
""fullscreenenter"",""1"",""32627""
","
",,301.9,run_exp/static/images/task_images/land.jpg,76,,,,,,,6,,,7,,,,,,,,302254,1,11,TRUE,,,
end_of_block_continue,234,672977,0.0-75.0-0.0,"""event"",""trial"",""time""
""fullscreenenter"",""1"",""32627""
","
","
","""event"",""trial"",""time""
""fullscreenenter"",""1"",""32627""
","
",,7540.1,run_exp/static/audio/clip_32_block_end.m4a,,,,,,,0,,,,,,,,,,,,,,,,,,
alien_welcome,235,677987,0.0-76.0-0.0,"""event"",""trial"",""time""
""fullscreenenter"",""1"",""32627""
","
","
","""event"",""trial"",""time""
""fullscreenenter"",""1"",""32627""
","
",,null,run_exp/static/images/task_images/aliens/old_aliens/planet/alien_planet-43.jpg,null,,,,,,,,,,,,,43,"58,64,3,67,71,39,12,43,24,30,80,60,62,48,6,59,28,31,21,35,22,57,51,19,50,45,29,11,13",,,,,,,,,,
land,236,678497,0.0-76.0-1.0,"""event"",""trial"",""time""
""fullscreenenter"",""1"",""32627""
","
","
","""event"",""trial"",""time""
""fullscreenenter"",""1"",""32627""
","
",,null,run_exp/static/images/task_images/land.jpg,null,,,,,,,101,,,8,,,,,,,,,,,,,,
dig,237,680512,0.0-76.0-2.0,"""event"",""trial"",""time""
""fullscreenenter"",""1"",""32627""
","
","
","""event"",""trial"",""time""
""fullscreenenter"",""1"",""32627""
","
",,,,,,,,,,,,"[{""stimulus"":""run_exp/static/images/task_images/dig.jpg"",""time"":0.3999999910593033},{""stimulus"":""run_exp/static/images/task_images/land.jpg"",""time"":678.3999999910593},{""stimulus"":""run_exp/static/images/task_images/dig.jpg"",""time"":1345.7000000029802}]",[],8,,,,,,,,,,,,,,
harvest,238,681525,0.0-76.0-3.0,"""event"",""trial"",""time""
""fullscreenenter"",""1"",""32627""
","
","
","""event"",""trial"",""time""
""fullscreenenter"",""1"",""32627""
","
",,null,run_exp/static/images/task_images/gems/101.jpg,null,,,,,,,25,,,8,,,,,101,0.243275176,0.247524752,,,,,,,
decision,239,682241,0.0-76.0-4.0,"""event"",""trial"",""time""
""fullscreenenter"",""1"",""32627""
","
","
","""event"",""trial"",""time""
""fullscreenenter"",""1"",""32627""
","
",,714.3,run_exp/static/images/task_images/land.jpg,65,,,,,,,25,,,8,,,,,,,,9263,2,0,FALSE,,,
dig,240,684533,0.0-77.0-0.0,"""event"",""trial"",""time""
""fullscreenenter"",""1"",""32627""
","
","
","""event"",""trial"",""time""
""fullscreenenter"",""1"",""32627""
","
",,,,,,,,,,,,"[{""stimulus"":""run_exp/static/images/task_images/dig.jpg"",""time"":0.4000000059604645},{""stimulus"":""run_exp/static/images/task_images/land.jpg"",""time"":767.3000000119209},{""stimulus"":""run_exp/static/images/task_images/dig.jpg"",""time"":1526.6000000089407}]",[],8,,,,,,,,,,,,,,
harvest,241,685540,0.0-77.0-1.0,"""event"",""trial"",""time""
""fullscreenenter"",""1"",""32627""
","
","
","""event"",""trial"",""time""
""fullscreenenter"",""1"",""32627""
","
",,null,run_exp/static/images/task_images/gems/25.jpg,null,,,,,,,5,,,8,,,,,25,0.185475365,0.2,,,,,,,
decision,242,686009,0.0-77.0-2.0,"""event"",""trial"",""time""
""fullscreenenter"",""1"",""32627""
","
","
","""event"",""trial"",""time""
""fullscreenenter"",""1"",""32627""
","
",,467.3,run_exp/static/images/task_images/land.jpg,65,,,,,,,5,,,8,,,,,,,,13032,2,1,FALSE,,,
dig,243,688552,0.0-78.0-0.0,"""event"",""trial"",""time""
""fullscreenenter"",""1"",""32627""
","
","
","""event"",""trial"",""time""
""fullscreenenter"",""1"",""32627""
","
",,,,,,,,,,,,"[{""stimulus"":""run_exp/static/images/task_images/dig.jpg"",""time"":0.4000000059604645},{""stimulus"":""run_exp/static/images/task_images/land.jpg"",""time"":859.5},{""stimulus"":""run_exp/static/images/task_images/dig.jpg"",""time"":1697.5}]",[],8,,,,,,,,,,,,,,
harvest,244,689558,0.0-78.0-1.0,"""event"",""trial"",""time""
""fullscreenenter"",""1"",""32627""
","
","
","""event"",""trial"",""time""
""fullscreenenter"",""1"",""32627""
","
",,null,run_exp/static/images/task_images/gems/5.jpg,null,,,,,,,1,,,8,,,,,5,0.188699546,0.2,,,,,,,
decision,245,689586,0.0-78.0-2.0,"""event"",""trial"",""time""
""fullscreenenter"",""1"",""32627""
","
","
","""event"",""trial"",""time""
""fullscreenenter"",""1"",""32627""
","
",,24.8,run_exp/static/images/task_images/land.jpg,76,,,,,,,1,,,8,,,,,,,,16608,2,2,TRUE,,,
travel,246,699571,0.0-79.0-0.0,"""event"",""trial"",""time""
""fullscreenenter"",""1"",""32627""
","
","
","""event"",""trial"",""time""
""fullscreenenter"",""1"",""32627""
","
",,,,,,,,,,,,"[{""stimulus"":""run_exp/static/images/task_images/rocket-01.jpg"",""time"":0.29999999701976776},{""stimulus"":""run_exp/static/images/task_images/rocket-02.jpg"",""time"":1113.0999999940395},{""stimulus"":""run_exp/static/images/task_images/rocket-03.jpg"",""time"":2219},{""stimulus"":""run_exp/static/images/task_images/rocket-04.jpg"",""time"":3336.3999999910593},{""stimulus"":""run_exp/static/images/task_images/rocket-05.jpg"",""time"":4440.899999991059},{""stimulus"":""run_exp/static/images/task_images/rocket-06.jpg"",""time"":5554},{""stimulus"":""run_exp/static/images/task_images/rocket-07.jpg"",""time"":6656.20000000298},{""stimulus"":""run_exp/static/images/task_images/rocket-08.jpg"",""time"":7772.5999999940395},{""stimulus"":""run_exp/static/images/task_images/rocket-09.jpg"",""time"":8873.70000000298}]",[],8,,,,,,,,,,,,,,
alien_welcome,247,704579,0.0-79.0-1.0,"""event"",""trial"",""time""
""fullscreenenter"",""1"",""32627""
","
","
","""event"",""trial"",""time""
""fullscreenenter"",""1"",""32627""
","
",,null,run_exp/static/images/task_images/aliens/old_aliens/planet/alien_planet-24.jpg,null,,,,,,,,,,,,,24,"58,64,3,67,71,39,12,43,24,30,80,60,62,48,6,59,28,31,21,35,22,57,51,19,50,45,29,11,13",,,,,,,,,,
land,248,705093,0.0-79.0-2.0,"""event"",""trial"",""time""
""fullscreenenter"",""1"",""32627""
","
","
","""event"",""trial"",""time""
""fullscreenenter"",""1"",""32627""
","
",,null,run_exp/static/images/task_images/land.jpg,null,,,,,,,103,,,9,,,,,,,,,,,,,,
dig,249,707100,0.0-79.0-3.0,"""event"",""trial"",""time""
""fullscreenenter"",""1"",""32627""
","
","
","""event"",""trial"",""time""
""fullscreenenter"",""1"",""32627""
","
",,,,,,,,,,,,"[{""stimulus"":""run_exp/static/images/task_images/dig.jpg"",""time"":0.5999999940395355},{""stimulus"":""run_exp/static/images/task_images/land.jpg"",""time"":682},{""stimulus"":""run_exp/static/images/task_images/dig.jpg"",""time"":1335.7000000029802}]",[],9,,,,,,,,,,,,,,
harvest,250,708114,0.0-79.0-4.0,"""event"",""trial"",""time""
""fullscreenenter"",""1"",""32627""
","
","
","""event"",""trial"",""time""
""fullscreenenter"",""1"",""32627""
","
",,null,run_exp/static/images/task_images/gems/103.jpg,null,,,,,,,20,,,9,,,,,103,0.191907577,0.194174757,,,,,,,
decision,251,708537,0.0-79.0-5.0,"""event"",""trial"",""time""
""fullscreenenter"",""1"",""32627""
","
","
","""event"",""trial"",""time""
""fullscreenenter"",""1"",""32627""
","
",,420.6,run_exp/static/images/task_images/land.jpg,65,,,,,,,20,,,9,,,,,,,,35559,2,0,FALSE,,,
dig,252,711122,0.0-80.0-0.0,"""event"",""trial"",""time""
""fullscreenenter"",""1"",""32627""
","
","
","""event"",""trial"",""time""
""fullscreenenter"",""1"",""32627""
","
",,,,,,,,,,,,"[{""stimulus"":""run_exp/static/images/task_images/dig.jpg"",""time"":0.29999999701976776},{""stimulus"":""run_exp/static/images/task_images/land.jpg"",""time"":870.5},{""stimulus"":""run_exp/static/images/task_images/dig.jpg"",""time"":1721.5999999940395}]",[],9,,,,,,,,,,,,,,
harvest,253,712133,0.0-80.0-1.0,"""event"",""trial"",""time""
""fullscreenenter"",""1"",""32627""
","
","
","""event"",""trial"",""time""
""fullscreenenter"",""1"",""32627""
","
",,null,run_exp/static/images/task_images/gems/20.jpg,null,,,,,,,5,,,9,,,,,20,0.239337898,0.25,,,,,,,
decision,254,712802,0.0-80.0-2.0,"""event"",""trial"",""time""
""fullscreenenter"",""1"",""32627""
