trial_type,trial_index,time_elapsed,internal_node_id,interactions,blur_events,focus_events,fullscreenenter_events,fullscreenexit_events,success,rt,stimulus,key_press,prompt,subject_id,participant_id,age,gender,button_pressed,next_reward,animation_sequence,responses,planet,curr_prac_trial,n_prac_rounds,alien,aliens,reward_received,decay_rate_actual,decay_rate_exp,time_in_block,block_num,prt,last_trial_on_planet,button_html,bonus,num_failures
pavlovia,0,3,0.0-0.0,"""event"",""trial"",""time""
""fullscreenenter"",""1"",""2675""
","
","
","""event"",""trial"",""time""
""fullscreenenter"",""1"",""2675""
","
",,,,,,,,,,,,,,,,,,,,,,,,,,,,
fullscreen,1,3660,0.0-1.0,"""event"",""trial"",""time""
""fullscreenenter"",""1"",""2675""
","
","
","""event"",""trial"",""time""
""fullscreenenter"",""1"",""2675""
","
",TRUE,,,,,,,,,,,,,,,,,,,,,,,,,,,
instruc_welcome,2,13415,0.0-2.0,"""event"",""trial"",""time""
""fullscreenenter"",""1"",""2675""
","
","
","""event"",""trial"",""time""
""fullscreenenter"",""1"",""2675""
","
",,null,run_exp/static/audio/clip_1_welcome.m4a,null,"<p>Howdy! In this experiment, you’ll be an explorer traveling through space to collect space treasure.</p><p>Your mission is to collect as much treasure as possible.</p><br><br><p><img src='run_exp/static/images/task_images/opening_img-01.jpg' height='300' width='auto'></p>",8298,787,23.97,Female,,,,,,,,,,,,,,,,,,,
audio-keyboard-response,3,30012,0.0-3.0,"""event"",""trial"",""time""
""fullscreenenter"",""1"",""2675""
","
","
","""event"",""trial"",""time""
""fullscreenenter"",""1"",""2675""
","
",,null,run_exp/static/audio/clip_2_move.m4a,null,,,,,,,,,,,,,,,,,,,,,,,,
welcome_dec,4,33495,0.0-4.0,"""event"",""trial"",""time""
""fullscreenenter"",""1"",""2675""
","
","
","""event"",""trial"",""time""
""fullscreenenter"",""1"",""2675""
","
",,3480.4,"<p>Howdy! In this experiment, you’ll be an explorer traveling through space to collect space treasure.</p><p>Your mission is to collect as much treasure as possible.</p><br><br><p><img src='run_exp/static/images/task_images/opening_img-01.jpg' height='300' width='auto'></p>",,,,,,,1,,,,,,,,,,,,,,,,,,
html-keyboard-response,5,34803,0.0-5.0,"""event"",""trial"",""time""
""fullscreenenter"",""1"",""2675""
","
","
","""event"",""trial"",""time""
""fullscreenenter"",""1"",""2675""
","
",,1307.2,"<p>Howdy! In this experiment, you’ll be an explorer traveling through space to collect space treasure.</p><p>Your mission is to collect as much treasure as possible.</p><br><br><p><img src='run_exp/static/images/task_images/opening_img-01.jpg' height='300' width='auto'></p><button class=""jspsych-html-btn-unchosen""><img src=""run_exp/static/images/task_images/planet-01.jpg"" height=""50""></button><button class=""jspsych-html-btn-chosen""><img src=""run_exp/static/images/task_images/planet-02.jpg"" height=""50""></button><p><b>[press the space bar to lock in your answer]<b><br></p>",32,,,,,,,,,,,,,,,,,,,,,,,,
instruc_goal,6,44874,0.0-6.0-0.0,"""event"",""trial"",""time""
""fullscreenenter"",""1"",""2675""
","
","
","""event"",""trial"",""time""
""fullscreenenter"",""1"",""2675""
","
",,null,run_exp/static/audio/clip_3_goal.m4a,null,"<p> As a space explorer, you’ll visit different planets to dig for space treasure, these pink gems.</p> <p> The more treasure you dig up, the more bonus money you’ll win! </p><br><br><p><img src='run_exp/static/images/task_images/pink_gem.jpg' height='300' width='auto'></p>",,,,,,,,,,,,,,,,,,,,,,,
instruc_goal,7,46108,0.0-6.0-1.0,"""event"",""trial"",""time""
""fullscreenenter"",""1"",""2675""
","
","
","""event"",""trial"",""time""
""fullscreenenter"",""1"",""2675""
","
",,1232.7,"<p> As a space explorer, you’ll visit different planets to dig for space treasure, these pink gems.</p> <p> The more treasure you dig up, the more bonus money you’ll win! </p><br><br><p><img src='run_exp/static/images/task_images/pink_gem.jpg' height='300' width='auto'></p>",,,,,,,1,,,,,,,,,,,,,,,,,,
html-keyboard-response,8,47747,0.0-6.0-2.0,"""event"",""trial"",""time""
""fullscreenenter"",""1"",""2675""
","
","
","""event"",""trial"",""time""
""fullscreenenter"",""1"",""2675""
","
",,1638.4,"<p> As a space explorer, you’ll visit different planets to dig for space treasure, these pink gems.</p> <p> The more treasure you dig up, the more bonus money you’ll win! </p><br><br><p><img src='run_exp/static/images/task_images/pink_gem.jpg' height='300' width='auto'></p><button class=""jspsych-html-btn-unchosen""><img src=""run_exp/static/images/task_images/planet-01.jpg"" height=""50""></button><button class=""jspsych-html-btn-chosen""><img src=""run_exp/static/images/task_images/planet-02.jpg"" height=""50""></button><p><b>[press the space bar to lock in your answer]<b><br></p>",32,,,,,,,,,,,,,,,,,,,,,,,,
instruc_dig,9,63753,0.0-7.0-0.0,"""event"",""trial"",""time""
""fullscreenenter"",""1"",""2675""
","
","
","""event"",""trial"",""time""
""fullscreenenter"",""1"",""2675""
","
",,null,run_exp/static/audio/clip_4_dig.m4a,null,,,,,,,100,,,,,,,,,,,,,,,,,
instruc_dig_try,10,64464,0.0-7.0-1.0,"""event"",""trial"",""time""
""fullscreenenter"",""1"",""2675""
","
","
","""event"",""trial"",""time""
""fullscreenenter"",""1"",""2675""
","
",,709.5999999,"<p> When you’ve arrived at a new planet, you will dig once. </p> <p>Then, you get to decide if you want to stay on the planet and dig again or travel to a new planet and dig there.</p> <p> To stay and dig, press the letter <strong>‘A’</strong> on your keyboard. Try pressing it now! </p><p><img src='run_exp/static/images/task_images/land.jpg'  height='700' width='auto'></p>",65,"<p> When you’ve arrived at a new planet, you will dig once. </p> <p>Then, you get to decide if you want to stay on the planet and dig again or travel to a new planet and dig there.</p> <p> To stay and dig, press the letter <strong>‘A’</strong> on your keyboard. Try pressing it now! </p><p><img src='run_exp/static/images/task_images/land.jpg'  height='700' width='auto'></p>",,,,,,100,,,,,,,,,,,,,,,,,
dig_prac,11,66472,0.0-7.0-2.0,"""event"",""trial"",""time""
""fullscreenenter"",""1"",""2675""
","
","
","""event"",""trial"",""time""
""fullscreenenter"",""1"",""2675""
","
",,,,,,,,,,,,"[{""stimulus"":""run_exp/static/images/task_images/dig.jpg"",""time"":0.09999990463256836},{""stimulus"":""run_exp/static/images/task_images/land.jpg"",""time"":668.3999998569489},{""stimulus"":""run_exp/static/images/task_images/dig.jpg"",""time"":1342.2999999523163}]",[],,,,,,,,,,,,,,,
instruc_travel,12,102733,0.0-7.0-3.0,"""event"",""trial"",""time""
""fullscreenenter"",""1"",""2675""
","
","
","""event"",""trial"",""time""
""fullscreenenter"",""1"",""2675""
","
",,null,run_exp/static/audio/clip_5_travel.m4a,null,"<p>Every time you dig up gems, there are less gems on the planet, so the more you dig on a planet the fewer gems you’ll get with each dig.</p><p>When gems are running low, you may want to travel to a new planet. </p> <p>  Planets are very far apart in this galaxy, so it will take some time to travel between them. </p> <br><p>There are lots and lots of planets for you to visit, so you won’t be able to return to any planets you’ve seen before. </p><br><p>To leave this planet and travel to a new one, press the letter <strong>‘L’</strong> on your keyboard. Try pressing it now! </p><p><img src='run_exp/static/images/task_images/rocket-01.jpg'  height='600' width='auto'></p>",,,,,,,,,,,,,,,,,,,,,,,
instruc_travel_try,13,105609,0.0-7.0-4.0,"""event"",""trial"",""time""
""fullscreenenter"",""1"",""2675""
","
","
","""event"",""trial"",""time""
""fullscreenenter"",""1"",""2675""
","
",,2875.2,"<p>Every time you dig up gems, there are less gems on the planet, so the more you dig on a planet the fewer gems you’ll get with each dig.</p><p>When gems are running low, you may want to travel to a new planet. </p> <p>  Planets are very far apart in this galaxy, so it will take some time to travel between them. </p> <br><p>There are lots and lots of planets for you to visit, so you won’t be able to return to any planets you’ve seen before. </p><br><p>To leave this planet and travel to a new one, press the letter <strong>‘L’</strong> on your keyboard. Try pressing it now! </p><p><img src='run_exp/static/images/task_images/rocket-01.jpg'  height='600' width='auto'></p>",76,"<p>Every time you dig up gems, there are less gems on the planet, so the more you dig on a planet the fewer gems you’ll get with each dig.</p><p>When gems are running low, you may want to travel to a new planet. </p> <p>  Planets are very far apart in this galaxy, so it will take some time to travel between them. </p> <br><p>There are lots and lots of planets for you to visit, so you won’t be able to return to any planets you’ve seen before. </p><br><p>To leave this planet and travel to a new one, press the letter <strong>‘L’</strong> on your keyboard. Try pressing it now! </p><p><img src='run_exp/static/images/task_images/rocket-01.jpg'  height='600' width='auto'></p>",,,,,,,,,,,,,,,,,,,,,,,
travel_prac,14,115614,0.0-7.0-5.0,"""event"",""trial"",""time""
""fullscreenenter"",""1"",""2675""
","
","
","""event"",""trial"",""time""
""fullscreenenter"",""1"",""2675""
","
",,,,,,,,,,,,"[{""stimulus"":""run_exp/static/images/task_images/rocket-01.jpg"",""time"":0.20000004768371582},{""stimulus"":""run_exp/static/images/task_images/rocket-02.jpg"",""time"":1113.9000000953674},{""stimulus"":""run_exp/static/images/task_images/rocket-03.jpg"",""time"":2224.7999999523163},{""stimulus"":""run_exp/static/images/task_images/rocket-04.jpg"",""time"":3335},{""stimulus"":""run_exp/static/images/task_images/rocket-05.jpg"",""time"":4449.700000047684},{""stimulus"":""run_exp/static/images/task_images/rocket-06.jpg"",""time"":5556.200000047684},{""stimulus"":""run_exp/static/images/task_images/rocket-07.jpg"",""time"":6669.799999952316},{""stimulus"":""run_exp/static/images/task_images/rocket-08.jpg"",""time"":7778.799999952316},{""stimulus"":""run_exp/static/images/task_images/rocket-09.jpg"",""time"":8891.299999952316}]",[],0,,,,,,,,,,,,,,
instruc_alien_greet,15,142803,0.0-7.0-6.0,"""event"",""trial"",""time""
""fullscreenenter"",""1"",""2675""
","
","
","""event"",""trial"",""time""
""fullscreenenter"",""1"",""2675""
","
",,null,run_exp/static/audio/clip_6_alien.m4a,null,"<p>When you arrive at a new planet, the alien who owns the treasure mine on that planet will greet you!</p><p>The better an alien takes care of their mine the easier it is to dig for gems. Some aliens take better care of their mine than others. So, you won’t get exactly the same amount of gems on each planet.</p><p>What the alien looks like does not tell you anything about how many gems there are on the planet.</p><br><p><img src=""run_exp/static/images/task_images/aliens/instructions_aliens/planet/alien_planet-1.jpg""  height=""600"" width=""auto""></p>",,,,,,,,,,,,,,,,,,,,,,,
instruc_alien_greet,16,145147,0.0-7.0-7.0,"""event"",""trial"",""time""
""fullscreenenter"",""1"",""2675""
","
","
","""event"",""trial"",""time""
""fullscreenenter"",""1"",""2675""
","
",,2340.7,"<p>When you arrive at a new planet, the alien who owns the treasure mine on that planet will greet you!</p><p>The better an alien takes care of their mine the easier it is to dig for gems. Some aliens take better care of their mine than others. So, you won’t get exactly the same amount of gems on each planet.</p><p>What the alien looks like does not tell you anything about how many gems there are on the planet.</p><br><p><img src=""run_exp/static/images/task_images/aliens/instructions_aliens/planet/alien_planet-1.jpg""  height=""600"" width=""auto""></p>",,,,,,,1,,,,,,,,,,,,,,,,,,
html-keyboard-response,17,145916,0.0-7.0-8.0,"""event"",""trial"",""time""
""fullscreenenter"",""1"",""2675""
","
","
","""event"",""trial"",""time""
""fullscreenenter"",""1"",""2675""
","
",,766.0999999,"<p>When you arrive at a new planet, the alien who owns the treasure mine on that planet will greet you!</p><p>The better an alien takes care of their mine the easier it is to dig for gems. Some aliens take better care of their mine than others. So, you won’t get exactly the same amount of gems on each planet.</p><p>What the alien looks like does not tell you anything about how many gems there are on the planet.</p><br><p><img src=""run_exp/static/images/task_images/aliens/instructions_aliens/planet/alien_planet-1.jpg""  height=""600"" width=""auto""></p><button class=""jspsych-html-btn-unchosen""><img src=""run_exp/static/images/task_images/planet-01.jpg"" height=""50""></button><button class=""jspsych-html-btn-chosen""><img src=""run_exp/static/images/task_images/planet-02.jpg"" height=""50""></button><p><b>[press the space bar to lock in your answer]<b><br></p>",32,,,,,,,,,,,,,,,,,,,,,,,,
time_out,18,157043,0.0-8.0-0.0,"""event"",""trial"",""time""
""fullscreenenter"",""1"",""2675""
","
","
","""event"",""trial"",""time""
""fullscreenenter"",""1"",""2675""
","
",,null,run_exp/static/audio/clip_7_timeout.m4a,null,"<p>If you don't make your choice fast enough, you’ll have to wait a few seconds before you can make another one.</p><p>You can’t dig for more gems or travel to new planets. You just have to sit and wait.</p><br><p><img src='run_exp/static/images/task_images/time_out.jpg'  height='600' width='auto'></p>",,,,,,,,,,,,,,,,,,,,,,,
time_out,19,158096,0.0-8.0-1.0,"""event"",""trial"",""time""
""fullscreenenter"",""1"",""2675""
","
","
","""event"",""trial"",""time""
""fullscreenenter"",""1"",""2675""
","
",,1051.1,"<p>If you don't make your choice fast enough, you’ll have to wait a few seconds before you can make another one.</p><p>You can’t dig for more gems or travel to new planets. You just have to sit and wait.</p><br><p><img src='run_exp/static/images/task_images/time_out.jpg'  height='600' width='auto'></p>",,,,,,,1,,,,,,,,,,,,,,,,,,
html-keyboard-response,20,159070,0.0-8.0-2.0,"""event"",""trial"",""time""
""fullscreenenter"",""1"",""2675""
","
","
","""event"",""trial"",""time""
""fullscreenenter"",""1"",""2675""
","
",,972.2,"<p>If you don't make your choice fast enough, you’ll have to wait a few seconds before you can make another one.</p><p>You can’t dig for more gems or travel to new planets. You just have to sit and wait.</p><br><p><img src='run_exp/static/images/task_images/time_out.jpg'  height='600' width='auto'></p><button class=""jspsych-html-btn-unchosen""><img src=""run_exp/static/images/task_images/planet-01.jpg"" height=""50""></button><button class=""jspsych-html-btn-chosen""><img src=""run_exp/static/images/task_images/planet-02.jpg"" height=""50""></button><p><b>[press the space bar to lock in your answer]<b><br></p>",32,,,,,,,,,,,,,,,,,,,,,,,,
instruc_break,21,174743,0.0-9.0-0.0,"""event"",""trial"",""time""
""fullscreenenter"",""1"",""2675""
","
","
","""event"",""trial"",""time""
""fullscreenenter"",""1"",""2675""
","
",,null,run_exp/static/audio/clip_8_break.m4a,null,"<p> After digging and traveling for a while, you’ll be able to take a break at home base. </p><p>The game will last 20 minutes no matter what.</p><p>You will visit home base every 5 minutes, so, you will visit home base three times during the game.</p><br><p><img src='run_exp/static/images/task_images/home_base.jpg' height='600' width='auto'></p>",,,,,,,,,,,,,,,,,,,,,,,
instruc_break,22,178729,0.0-9.0-1.0,"""event"",""trial"",""time""
""fullscreenenter"",""1"",""2675""
","
","
","""event"",""trial"",""time""
""fullscreenenter"",""1"",""2675""
","
",,3984.1,"<p> After digging and traveling for a while, you’ll be able to take a break at home base. </p><p>The game will last 20 minutes no matter what.</p><p>You will visit home base every 5 minutes, so, you will visit home base three times during the game.</p><br><p><img src='run_exp/static/images/task_images/home_base.jpg' height='600' width='auto'></p>",,,,,,,1,,,,,,,,,,,,,,,,,,
html-keyboard-response,23,179708,0.0-9.0-2.0,"""event"",""trial"",""time""
""fullscreenenter"",""1"",""2675""
","
","
","""event"",""trial"",""time""
""fullscreenenter"",""1"",""2675""
","
",,977.4000001,"<p> After digging and traveling for a while, you’ll be able to take a break at home base. </p><p>The game will last 20 minutes no matter what.</p><p>You will visit home base every 5 minutes, so, you will visit home base three times during the game.</p><br><p><img src='run_exp/static/images/task_images/home_base.jpg' height='600' width='auto'></p><button class=""jspsych-html-btn-unchosen""><img src=""run_exp/static/images/task_images/planet-01.jpg"" height=""50""></button><button class=""jspsych-html-btn-chosen""><img src=""run_exp/static/images/task_images/planet-02.jpg"" height=""50""></button><p><b>[press the space bar to lock in your answer]<b><br></p>",32,,,,,,,,,,,,,,,,,,,,,,,,
instruc_prac_game,24,189842,0.0-10.0-0.0,"""event"",""trial"",""time""
""fullscreenenter"",""1"",""2675""
","
","
","""event"",""trial"",""time""
""fullscreenenter"",""1"",""2675""
","
",,null,run_exp/static/audio/clip_9_practice.m4a,null,"<p> Are you ready to play a practice game? </p> <p>In this practice game, you'll be digging up barrels of gems. But, in the real game, you'll be digging up the gems themselves. </p>",,,,,,,,,,,,,,,,,,,,,,,
html-button-response,25,190863,0.0-10.0-1.0,"""event"",""trial"",""time""
""fullscreenenter"",""1"",""2675""
","
","
","""event"",""trial"",""time""
""fullscreenenter"",""1"",""2675""
","
",,1018,"<p> Are you ready to play a practice game? </p> <p>In this practice game, you'll be digging up barrels of gems. But, in the real game, you'll be digging up the gems themselves. </p>",,,,,,,0,,,,,,,,,,,,,,,,,,
alien_welcome_prac,26,195868,0.0-11.0-0.0,"""event"",""trial"",""time""
""fullscreenenter"",""1"",""2675""
","
","
","""event"",""trial"",""time""
""fullscreenenter"",""1"",""2675""
","
",,null,run_exp/static/images/task_images/aliens/practice_aliens/planet/alien_planet-5.jpg,null,,,,,,,,,,,,,,,,,,,,,,,,
land_prac,27,196371,0.0-11.0-1.0,"""event"",""trial"",""time""
""fullscreenenter"",""1"",""2675""
","
","
","""event"",""trial"",""time""
""fullscreenenter"",""1"",""2675""
","
",,null,run_exp/static/images/task_images/land.jpg,null,,,,,,,99,,,0,,,,,,,,,,,,,,
dig_prac,28,198377,0.0-11.0-2.0,"""event"",""trial"",""time""
""fullscreenenter"",""1"",""2675""
","
","
","""event"",""trial"",""time""
""fullscreenenter"",""1"",""2675""
","
",,,,,,,,,,,,"[{""stimulus"":""run_exp/static/images/task_images/dig.jpg"",""time"":0.40000009536743164},{""stimulus"":""run_exp/static/images/task_images/land.jpg"",""time"":673.4000000953674},{""stimulus"":""run_exp/static/images/task_images/dig.jpg"",""time"":1336.1000001430511}]",[],,,,,,,,,,,,,,,
harvest_prac,29,199380,0.0-11.0-3.0,"""event"",""trial"",""time""
""fullscreenenter"",""1"",""2675""
","
","
","""event"",""trial"",""time""
""fullscreenenter"",""1"",""2675""
","
",,null,run_exp/static/images/task_images/barrel_text.jpg,null,,,,,,,,,,,,,,,,,,,,,,,,
decision_prac,30,200135,0.0-11.0-4.0,"""event"",""trial"",""time""
""fullscreenenter"",""1"",""2675""
","
","
","""event"",""trial"",""time""
""fullscreenenter"",""1"",""2675""
","
",,753.1000001,run_exp/static/images/task_images/land.jpg,65,,,,,,,,,,,1,,,,,,,,,,,,,
dig_prac,31,202140,0.0-12.0-0.0,"""event"",""trial"",""time""
""fullscreenenter"",""1"",""2675""
","
","
","""event"",""trial"",""time""
""fullscreenenter"",""1"",""2675""
","
",,,,,,,,,,,,"[{""stimulus"":""run_exp/static/images/task_images/dig.jpg"",""time"":0.20000004768371582},{""stimulus"":""run_exp/static/images/task_images/land.jpg"",""time"":679.3000001907349},{""stimulus"":""run_exp/static/images/task_images/dig.jpg"",""time"":1337.5}]",[],,,,,,,,,,,,,,,
harvest_prac,32,203143,0.0-12.0-1.0,"""event"",""trial"",""time""
""fullscreenenter"",""1"",""2675""
","
","
","""event"",""trial"",""time""
""fullscreenenter"",""1"",""2675""
","
",,null,run_exp/static/images/task_images/barrel_text.jpg,null,,,,,,,,,,,,,,,,,,,,,,,,
decision_prac,33,203413,0.0-12.0-2.0,"""event"",""trial"",""time""
""fullscreenenter"",""1"",""2675""
","
","
","""event"",""trial"",""time""
""fullscreenenter"",""1"",""2675""
","
",,269.6999998,run_exp/static/images/task_images/land.jpg,65,,,,,,,,,,,2,,,,,,,,,,,,,
dig_prac,34,205419,0.0-13.0-0.0,"""event"",""trial"",""time""
""fullscreenenter"",""1"",""2675""
","
","
","""event"",""trial"",""time""
""fullscreenenter"",""1"",""2675""
","
",,,,,,,,,,,,"[{""stimulus"":""run_exp/static/images/task_images/dig.jpg"",""time"":0.09999990463256836},{""stimulus"":""run_exp/static/images/task_images/land.jpg"",""time"":683.5},{""stimulus"":""run_exp/static/images/task_images/dig.jpg"",""time"":1334.7999999523163}]",[],,,,,,,,,,,,,,,
harvest_prac,35,206424,0.0-13.0-1.0,"""event"",""trial"",""time""
""fullscreenenter"",""1"",""2675""
","
","
","""event"",""trial"",""time""
""fullscreenenter"",""1"",""2675""
","
",,null,run_exp/static/images/task_images/barrel_text.jpg,null,,,,,,,,,,,,,,,,,,,,,,,,
decision_prac,36,206684,0.0-13.0-2.0,"""event"",""trial"",""time""
""fullscreenenter"",""1"",""2675""
","
","
","""event"",""trial"",""time""
""fullscreenenter"",""1"",""2675""
","
",,259,run_exp/static/images/task_images/land.jpg,65,,,,,,,,,,,3,,,,,,,,,,,,,
dig_prac,37,208692,0.0-14.0-0.0,"""event"",""trial"",""time""
""fullscreenenter"",""1"",""2675""
","
","
","""event"",""trial"",""time""
""fullscreenenter"",""1"",""2675""
","
",,,,,,,,,,,,"[{""stimulus"":""run_exp/static/images/task_images/dig.jpg"",""time"":0.20000004768371582},{""stimulus"":""run_exp/static/images/task_images/land.jpg"",""time"":668.5},{""stimulus"":""run_exp/static/images/task_images/dig.jpg"",""time"":1336.5999999046326}]",[],,,,,,,,,,,,,,,
harvest_prac,38,209695,0.0-14.0-1.0,"""event"",""trial"",""time""
""fullscreenenter"",""1"",""2675""
","
","
","""event"",""trial"",""time""
""fullscreenenter"",""1"",""2675""
","
",,null,run_exp/static/images/task_images/barrel_text.jpg,null,,,,,,,,,,,,,,,,,,,,,,,,
decision_prac,39,210159,0.0-14.0-2.0,"""event"",""trial"",""time""
""fullscreenenter"",""1"",""2675""
","
","
","""event"",""trial"",""time""
""fullscreenenter"",""1"",""2675""
","
",,463.3,run_exp/static/images/task_images/land.jpg,65,,,,,,,,,,,4,,,,,,,,,,,,,
dig_prac,40,212165,0.0-15.0-0.0,"""event"",""trial"",""time""
""fullscreenenter"",""1"",""2675""
","
","
","""event"",""trial"",""time""
""fullscreenenter"",""1"",""2675""
","
",,,,,,,,,,,,"[{""stimulus"":""run_exp/static/images/task_images/dig.jpg"",""time"":0.20000004768371582},{""stimulus"":""run_exp/static/images/task_images/land.jpg"",""time"":669.7000000476837},{""stimulus"":""run_exp/static/images/task_images/dig.jpg"",""time"":1335.7000000476837}]",[],,,,,,,,,,,,,,,
harvest_prac,41,213177,0.0-15.0-1.0,"""event"",""trial"",""time""
""fullscreenenter"",""1"",""2675""
","
","
","""event"",""trial"",""time""
""fullscreenenter"",""1"",""2675""
","
",,null,run_exp/static/images/task_images/barrel_text.jpg,null,,,,,,,,,,,,,,,,,,,,,,,,
decision_prac,42,213712,0.0-15.0-2.0,"""event"",""trial"",""time""
""fullscreenenter"",""1"",""2675""
","
","
","""event"",""trial"",""time""
""fullscreenenter"",""1"",""2675""
","
",,534.3999999,run_exp/static/images/task_images/land.jpg,65,,,,,,,,,,,,1,,,,,,,,,,,,
quiz_instruc,43,215631,0.0-16.0-0.0,"""event"",""trial"",""time""
""fullscreenenter"",""1"",""2675""
","
","
","""event"",""trial"",""time""
""fullscreenenter"",""1"",""2675""
","
",,1916.1,run_exp/static/audio/clip_10_quiz.m4a,,,,,,,0,,,,,,,,,,,,,,,,,,
instruc_repeat,44,258393,0.0-16.0-1.0,"""event"",""trial"",""time""
""fullscreenenter"",""1"",""2675""
","
","
","""event"",""trial"",""time""
""fullscreenenter"",""1"",""2675""
","
",,null,"<p> Are you ready to play a practice game? </p> <p>In this practice game, you'll be digging up barrels of gems. But, in the real game, you'll be digging up the gems themselves. </p>",null,"<p>In this game, your goal is to collect as many gems as you can. That’s how you will win bonus money. </p> <p>The entire game will last 20 minutes no matter how many gems you collect or how many planets you visit. </p><p>To stay on a planet and dig again, press the letter A on your keyboard. To leave for a new planet, press the letter L.</p><p>The more you dig on a planet, the fewer gems you’ll get with each dig which is why you might consider leaving for a new planet. </p><p>When you arrive at a new planet, you’ll be greeted by an alien. What the alien looks like does not tell you anything about how much treasure is on the planet. </p>",,,,,,,,,,,,,,,,,,,,,,,
instruc_repeat_continue,45,261824,0.0-16.0-2.0,"""event"",""trial"",""time""
""fullscreenenter"",""1"",""2675""
","
","
","""event"",""trial"",""time""
""fullscreenenter"",""1"",""2675""
","
",,3429.7,"<p> Are you ready to play a practice game? </p> <p>In this practice game, you'll be digging up barrels of gems. But, in the real game, you'll be digging up the gems themselves. </p>",,,,,,,0,,,,,,,,,,,,,,,,,,
quiz_q_1_ask,46,263912,0.0-16.0-3.0,"""event"",""trial"",""time""
""fullscreenenter"",""1"",""2675""
","
","
","""event"",""trial"",""time""
""fullscreenenter"",""1"",""2675""
","
",,2085.9,run_exp/static/audio/clip_11_q1_ask.m4a,,,,,,,2,,,,,,,,,,,,,,,,,,
quiz_q_1_fb_correct,47,267773,0.0-17.0-0.0,"""event"",""trial"",""time""
""fullscreenenter"",""1"",""2675""
","
","
","""event"",""trial"",""time""
""fullscreenenter"",""1"",""2675""
","
",,null,run_exp/static/audio/clip_12_q1_correct.m4a,null,<p>That’s correct. You win extra money by collecting more gems.</p>,,,,,,,,,,,,,,,,,,,,,,,
quiz_q_2_ask,48,272494,0.0-17.0-1.0,"""event"",""trial"",""time""
""fullscreenenter"",""1"",""2675""
","
","
","""event"",""trial"",""time""
""fullscreenenter"",""1"",""2675""
","
",,4718.6,run_exp/static/audio/clip_14_q2_ask.m4a,,,,,,,1,,,,,,,,,,,,,,,,,,
quiz_q_2_fb_correct,49,276512,0.0-18.0-0.0,"""event"",""trial"",""time""
""fullscreenenter"",""1"",""2675""
","
","
","""event"",""trial"",""time""
""fullscreenenter"",""1"",""2675""
","
",,null,run_exp/static/audio/clip_15_q2_correct.m4a,null,<p>That’s correct. The experiment is 20 minutes no matter what.</p>,,,,,,,,,,,,,,,,,,,,,,,
quiz_q_3_ask,50,278568,0.0-18.0-1.0,"""event"",""trial"",""time""
""fullscreenenter"",""1"",""2675""
","
","
","""event"",""trial"",""time""
""fullscreenenter"",""1"",""2675""
","
",,2054.9,run_exp/static/audio/clip_17_q3_ask.m4a,,,,,,,1,,,,,,,,,,,,,,,,,,
quiz_q_3_fb_correct,51,282553,0.0-19.0-0.0,"""event"",""trial"",""time""
""fullscreenenter"",""1"",""2675""
","
","
","""event"",""trial"",""time""
""fullscreenenter"",""1"",""2675""
","
",,null,run_exp/static/audio/clip_18_q3_correct.m4a,null,<p> That’s correct. You press the letter L to travel to a new planet.</p>,,,,,,,,,,,,,,,,,,,,,,,
quiz_q_4_ask,52,285823,0.0-19.0-1.0,"""event"",""trial"",""time""
""fullscreenenter"",""1"",""2675""
","
","
","""event"",""trial"",""time""
""fullscreenenter"",""1"",""2675""
","
",,3266.7,run_exp/static/audio/clip_20_q4_ask.m4a,,,,,,,0,,,,,,,,,,,,,,,,,,
quiz_q_4_fb_correct,53,291155,0.0-20.0-0.0,"""event"",""trial"",""time""
""fullscreenenter"",""1"",""2675""
","
","
","""event"",""trial"",""time""
""fullscreenenter"",""1"",""2675""
","
",,null,run_exp/static/audio/clip_21_q4_correct.m4a,null,<p> That’s correct. The more you dig on a planet the fewer gems you’ll get with each dig. </p>,,,,,,,,,,,,,,,,,,,,,,,
quiz_q_5_ask,54,292707,0.0-20.0-1.0,"""event"",""trial"",""time""
""fullscreenenter"",""1"",""2675""
","
","
","""event"",""trial"",""time""
""fullscreenenter"",""1"",""2675""
","
",,1550.8,run_exp/static/audio/clip_23_q5_ask.m4a,,,,,,,1,,,,,,,,,,,,,,,,,,
quiz_q_5_fb_correct,55,297715,0.0-21.0-0.0,"""event"",""trial"",""time""
""fullscreenenter"",""1"",""2675""
","
","
","""event"",""trial"",""time""
""fullscreenenter"",""1"",""2675""
","
",,null,run_exp/static/audio/clip_24_q5_correct.m4a,null,<p> That’s correct. The alien tells you nothing about how much treasure is on the planet.</p>,,,,,,,,,,,,,,,,,,,,,,,
quiz_correct,56,301175,0.0-22.0-0.0,"""event"",""trial"",""time""
""fullscreenenter"",""1"",""2675""
","
","
","""event"",""trial"",""time""
""fullscreenenter"",""1"",""2675""
","
",,null,run_exp/static/audio/clip_26_correct_quiz.m4a,null,,,,,,,,,,,,,,,,,,,,,,,,
quiz_correct_continue,57,301646,0.0-22.0-1.0,"""event"",""trial"",""time""
""fullscreenenter"",""1"",""2675""
","
","
","""event"",""trial"",""time""
""fullscreenenter"",""1"",""2675""
","
",,470,<p>Good job! You're now ready to move on to the real game!</p>,,,,,,,0,,,,,,,,,,,,,,,,,,
audio-keyboard-response,58,311775,0.0-22.0-2.0,"""event"",""trial"",""time""
""fullscreenenter"",""1"",""2675""
","
","
","""event"",""trial"",""time""
""fullscreenenter"",""1"",""2675""
","
",,null,run_exp/static/audio/clip_28_real_game.m4a,null,,,,,,,,,,,,,,,,,,,,,,,,
instruc_begin_exp_contine,59,313019,0.0-22.0-3.0,"""event"",""trial"",""time""
""fullscreenenter"",""1"",""2675""
","
","
","""event"",""trial"",""time""
""fullscreenenter"",""1"",""2675""
","
",,1242.2,"<p>Now that you know how  to dig for space treasure and travel to new planets,you can start exploring! </p><p>Do you want to go over the instructions again or get started with the real game?</p>",,,,,,,1,,,,,,1,,,,,,,,,,,,
alien_welcome,60,318033,0.0-23.0-0.0,"""event"",""trial"",""time""
""fullscreenenter"",""1"",""2675""
","
","
","""event"",""trial"",""time""
""fullscreenenter"",""1"",""2675""
","
",,null,run_exp/static/images/task_images/aliens/old_aliens/planet/alien_planet-73.jpg,null,,,,,,,,,,,,,73,"73,47,18,25,3,52,76,75,54,26,63,32,64,7,77,6,34,28,8,22,17,78,70,39,41,40,56,35,20,44,58,51,30,11,53,43,14,5,61,4,10",,,,,,,,,,
land,61,318536,0.0-23.0-1.0,"""event"",""trial"",""time""
""fullscreenenter"",""1"",""2675""
","
","
","""event"",""trial"",""time""
""fullscreenenter"",""1"",""2675""
","
",,null,run_exp/static/images/task_images/land.jpg,null,,,,,,,101,,,1,,,,,,,,,,,,,,
dig,62,320543,0.0-23.0-2.0,"""event"",""trial"",""time""
""fullscreenenter"",""1"",""2675""
","
","
","""event"",""trial"",""time""
""fullscreenenter"",""1"",""2675""
","
",,,,,,,,,,,,"[{""stimulus"":""run_exp/static/images/task_images/dig.jpg"",""time"":0.20000004768371582},{""stimulus"":""run_exp/static/images/task_images/land.jpg"",""time"":670.6000001430511},{""stimulus"":""run_exp/static/images/task_images/dig.jpg"",""time"":1336.2000000476837}]",[],1,,,,,,,,,,,,,,
harvest,63,321546,0.0-23.0-3.0,"""event"",""trial"",""time""
""fullscreenenter"",""1"",""2675""
","
","
","""event"",""trial"",""time""
""fullscreenenter"",""1"",""2675""
","
",,null,run_exp/static/images/task_images/gems/101.jpg,null,,,,,,,13,,,1,,,,,101,0.128595441,0.128712871,,,,,,,
decision,64,322073,0.0-23.0-4.0,"""event"",""trial"",""time""
""fullscreenenter"",""1"",""2675""
","
","
","""event"",""trial"",""time""
""fullscreenenter"",""1"",""2675""
","
",,525.4000001,run_exp/static/images/task_images/land.jpg,65,,,,,,,13,,,1,,,,,,,,9053,1,0,FALSE,,,
dig,65,324550,0.0-24.0-0.0,"""event"",""trial"",""time""
""fullscreenenter"",""1"",""2675""
","
","
","""event"",""trial"",""time""
""fullscreenenter"",""1"",""2675""
","
",,,,,,,,,,,,"[{""stimulus"":""run_exp/static/images/task_images/dig.jpg"",""time"":0.10000014305114746},{""stimulus"":""run_exp/static/images/task_images/land.jpg"",""time"":826.6000001430511},{""stimulus"":""run_exp/static/images/task_images/dig.jpg"",""time"":1649.7000000476837}]",[],1,,,,,,,,,,,,,,
harvest,66,325553,0.0-24.0-1.0,"""event"",""trial"",""time""
""fullscreenenter"",""1"",""2675""
","
","
","""event"",""trial"",""time""
""fullscreenenter"",""1"",""2675""
","
",,null,run_exp/static/images/task_images/gems/13.jpg,null,,,,,,,3,,,1,,,,,13,0.195105647,0.230769231,,,,,,,
decision,67,325896,0.0-24.0-2.0,"""event"",""trial"",""time""
""fullscreenenter"",""1"",""2675""
","
","
","""event"",""trial"",""time""
""fullscreenenter"",""1"",""2675""
","
",,342.3000002,run_exp/static/images/task_images/land.jpg,65,,,,,,,3,,,1,,,,,,,,12876,1,1,FALSE,,,
dig,68,328555,0.0-25.0-0.0,"""event"",""trial"",""time""
""fullscreenenter"",""1"",""2675""
","
","
","""event"",""trial"",""time""
""fullscreenenter"",""1"",""2675""
","
",,,,,,,,,,,,"[{""stimulus"":""run_exp/static/images/task_images/dig.jpg"",""time"":0.09999990463256836},{""stimulus"":""run_exp/static/images/task_images/land.jpg"",""time"":892.7999999523163},{""stimulus"":""run_exp/static/images/task_images/dig.jpg"",""time"":1773.5}]",[],1,,,,,,,,,,,,,,
harvest,69,329557,0.0-25.0-1.0,"""event"",""trial"",""time""
""fullscreenenter"",""1"",""2675""
","
","
","""event"",""trial"",""time""
""fullscreenenter"",""1"",""2675""
","
",,null,run_exp/static/images/task_images/gems/3.jpg,null,,,,,,,1,,,1,,,,,3,0.267454101,0.333333333,,,,,,,
decision,70,330116,0.0-25.0-2.0,"""event"",""trial"",""time""
""fullscreenenter"",""1"",""2675""
","
","
","""event"",""trial"",""time""
""fullscreenenter"",""1"",""2675""
","
",,557.5,run_exp/static/images/task_images/land.jpg,65,,,,,,,1,,,1,,,,,,,,17096,1,2,FALSE,,,
dig,71,332560,0.0-26.0-0.0,"""event"",""trial"",""time""
""fullscreenenter"",""1"",""2675""
","
","
","""event"",""trial"",""time""
""fullscreenenter"",""1"",""2675""
","
",,,,,,,,,,,,"[{""stimulus"":""run_exp/static/images/task_images/dig.jpg"",""time"":0.10000014305114746},{""stimulus"":""run_exp/static/images/task_images/land.jpg"",""time"":815.7999999523163},{""stimulus"":""run_exp/static/images/task_images/dig.jpg"",""time"":1635.7999999523163}]",[],1,,,,,,,,,,,,,,
harvest,72,333562,0.0-26.0-1.0,"""event"",""trial"",""time""
""fullscreenenter"",""1"",""2675""
","
","
","""event"",""trial"",""time""
""fullscreenenter"",""1"",""2675""
","
",,null,run_exp/static/images/task_images/gems/1.jpg,null,,,,,,,0,,,1,,,,,1,0.192396351,0,,,,,,,
decision,73,333885,0.0-26.0-2.0,"""event"",""trial"",""time""
""fullscreenenter"",""1"",""2675""
","
","
","""event"",""trial"",""time""
""fullscreenenter"",""1"",""2675""
","
",,321.6999998,run_exp/static/images/task_images/land.jpg,76,,,,,,,0,,,1,,,,,,,,20866,1,3,TRUE,,,
travel,74,343565,0.0-27.0-0.0,"""event"",""trial"",""time""
""fullscreenenter"",""1"",""2675""
","
","
","""event"",""trial"",""time""
""fullscreenenter"",""1"",""2675""
","
",,,,,,,,,,,,"[{""stimulus"":""run_exp/static/images/task_images/rocket-01.jpg"",""time"":0.09999990463256836},{""stimulus"":""run_exp/static/images/task_images/rocket-02.jpg"",""time"":1088.9000000953674},{""stimulus"":""run_exp/static/images/task_images/rocket-03.jpg"",""time"":2151.4000000953674},{""stimulus"":""run_exp/static/images/task_images/rocket-04.jpg"",""time"":3228.7999999523163},{""stimulus"":""run_exp/static/images/task_images/rocket-05.jpg"",""time"":4302.099999904633},{""stimulus"":""run_exp/static/images/task_images/rocket-06.jpg"",""time"":5380.099999904633},{""stimulus"":""run_exp/static/images/task_images/rocket-07.jpg"",""time"":6453.900000095367},{""stimulus"":""run_exp/static/images/task_images/rocket-08.jpg"",""time"":7527.700000047684},{""stimulus"":""run_exp/static/images/task_images/rocket-09.jpg"",""time"":8604}]",[],1,,,,,,,,,,,,,,
alien_welcome,75,348570,0.0-27.0-1.0,"""event"",""trial"",""time""
""fullscreenenter"",""1"",""2675""
","
","
","""event"",""trial"",""time""
""fullscreenenter"",""1"",""2675""
","
",,null,run_exp/static/images/task_images/aliens/old_aliens/planet/alien_planet-47.jpg,null,,,,,,,,,,,,,47,"73,47,18,25,3,52,76,75,54,26,63,32,64,7,77,6,34,28,8,22,17,78,70,39,41,40,56,35,20,44,58,51,30,11,53,43,14,5,61,4,10",,,,,,,,,,
land,76,349079,0.0-27.0-2.0,"""event"",""trial"",""time""
""fullscreenenter"",""1"",""2675""
","
","
","""event"",""trial"",""time""
""fullscreenenter"",""1"",""2675""
","
",,null,run_exp/static/images/task_images/land.jpg,null,,,,,,,102,,,2,,,,,,,,,,,,,,
dig,77,351083,0.0-27.0-3.0,"""event"",""trial"",""time""
""fullscreenenter"",""1"",""2675""
","
","
","""event"",""trial"",""time""
""fullscreenenter"",""1"",""2675""
","
",,,,,,,,,,,,"[{""stimulus"":""run_exp/static/images/task_images/dig.jpg"",""time"":0.20000004768371582},{""stimulus"":""run_exp/static/images/task_images/land.jpg"",""time"":669.5999999046326},{""stimulus"":""run_exp/static/images/task_images/dig.jpg"",""time"":1336.8999998569489}]",[],2,,,,,,,,,,,,,,
harvest,78,352098,0.0-27.0-4.0,"""event"",""trial"",""time""
""fullscreenenter"",""1"",""2675""
","
","
","""event"",""trial"",""time""
""fullscreenenter"",""1"",""2675""
","
",,null,run_exp/static/images/task_images/gems/102.jpg,null,,,,,,,16,,,2,,,,,102,0.157489513,0.156862745,,,,,,,
decision,79,352428,0.0-27.0-5.0,"""event"",""trial"",""time""
""fullscreenenter"",""1"",""2675""
","
","
","""event"",""trial"",""time""
""fullscreenenter"",""1"",""2675""
","
",,328.6000001,run_exp/static/images/task_images/land.jpg,65,,,,,,,16,,,2,,,,,,,,39408,1,0,FALSE,,,
dig,80,355102,0.0-28.0-0.0,"""event"",""trial"",""time""
""fullscreenenter"",""1"",""2675""
","
","
","""event"",""trial"",""time""
""fullscreenenter"",""1"",""2675""
","
",,,,,,,,,,,,"[{""stimulus"":""run_exp/static/images/task_images/dig.jpg"",""time"":0.20000004768371582},{""stimulus"":""run_exp/static/images/task_images/land.jpg"",""time"":893.7000000476837},{""stimulus"":""run_exp/static/images/task_images/dig.jpg"",""time"":1781.7000000476837}]",[],2,,,,,,,,,,,,,,
harvest,81,356107,0.0-28.0-1.0,"""event"",""trial"",""time""
""fullscreenenter"",""1"",""2675""
","
","
","""event"",""trial"",""time""
""fullscreenenter"",""1"",""2675""
","
",,null,run_exp/static/images/task_images/gems/16.jpg,null,,,,,,,4,,,2,,,,,16,0.219645426,0.25,,,,,,,
decision,82,356175,0.0-28.0-2.0,"""event"",""trial"",""time""
""fullscreenenter"",""1"",""2675""
","
","
","""event"",""trial"",""time""
""fullscreenenter"",""1"",""2675""
","
",,67.29999995,run_exp/static/images/task_images/land.jpg,65,,,,,,,4,,,2,,,,,,,,43155,1,1,FALSE,,,
dig,83,359110,0.0-29.0-0.0,"""event"",""trial"",""time""
""fullscreenenter"",""1"",""2675""
","
","
","""event"",""trial"",""time""
""fullscreenenter"",""1"",""2675""
","
",,,,,,,,,,,,"[{""stimulus"":""run_exp/static/images/task_images/dig.jpg"",""time"":0.10000014305114746},{""stimulus"":""run_exp/static/images/task_images/land.jpg"",""time"":980},{""stimulus"":""run_exp/static/images/task_images/dig.jpg"",""time"":1956.1000001430511}]",[],2,,,,,,,,,,,,,,
harvest,84,360120,0.0-29.0-1.0,"""event"",""trial"",""time""
""fullscreenenter"",""1"",""2675""
","
","
","""event"",""trial"",""time""
""fullscreenenter"",""1"",""2675""
","
",,null,run_exp/static/images/task_images/gems/4.jpg,null,,,,,,,1,,,2,,,,,4,0.151277152,0.25,,,,,,,
decision,85,360355,0.0-29.0-2.0,"""event"",""trial"",""time""
""fullscreenenter"",""1"",""2675""
","
","
","""event"",""trial"",""time""
""fullscreenenter"",""1"",""2675""
","
",,233.4000001,run_exp/static/images/task_images/land.jpg,76,,,,,,,1,,,2,,,,,,,,47335,1,2,TRUE,,,
travel,86,370127,0.0-30.0-0.0,"""event"",""trial"",""time""
""fullscreenenter"",""1"",""2675""
","
","
","""event"",""trial"",""time""
""fullscreenenter"",""1"",""2675""
","
",,,,,,,,,,,,"[{""stimulus"":""run_exp/static/images/task_images/rocket-01.jpg"",""time"":0.09999990463256836},{""stimulus"":""run_exp/static/images/task_images/rocket-02.jpg"",""time"":1089.2999999523163},{""stimulus"":""run_exp/static/images/task_images/rocket-03.jpg"",""time"":2171.0999999046326},{""stimulus"":""run_exp/static/images/task_images/rocket-04.jpg"",""time"":3257.2000000476837},{""stimulus"":""run_exp/static/images/task_images/rocket-05.jpg"",""time"":4343},{""stimulus"":""run_exp/static/images/task_images/rocket-06.jpg"",""time"":5425.599999904633},{""stimulus"":""run_exp/static/images/task_images/rocket-07.jpg"",""time"":6513.399999856949},{""stimulus"":""run_exp/static/images/task_images/rocket-08.jpg"",""time"":7600.299999952316},{""stimulus"":""run_exp/static/images/task_images/rocket-09.jpg"",""time"":8682.799999952316}]",[],2,,,,,,,,,,,,,,
alien_welcome,87,375129,0.0-30.0-1.0,"""event"",""trial"",""time""
""fullscreenenter"",""1"",""2675""
","
","
","""event"",""trial"",""time""
""fullscreenenter"",""1"",""2675""
","
",,null,run_exp/static/images/task_images/aliens/old_aliens/planet/alien_planet-18.jpg,null,,,,,,,,,,,,,18,"73,47,18,25,3,52,76,75,54,26,63,32,64,7,77,6,34,28,8,22,17,78,70,39,41,40,56,35,20,44,58,51,30,11,53,43,14,5,61,4,10",,,,,,,,,,
land,88,375633,0.0-30.0-2.0,"""event"",""trial"",""time""
""fullscreenenter"",""1"",""2675""
","
","
","""event"",""trial"",""time""
""fullscreenenter"",""1"",""2675""
","
",,null,run_exp/static/images/task_images/land.jpg,null,,,,,,,96,,,3,,,,,,,,,,,,,,
dig,89,377643,0.0-30.0-3.0,"""event"",""trial"",""time""
""fullscreenenter"",""1"",""2675""
","
","
","""event"",""trial"",""time""
""fullscreenenter"",""1"",""2675""
","
",,,,,,,,,,,,"[{""stimulus"":""run_exp/static/images/task_images/dig.jpg"",""time"":0.20000004768371582},{""stimulus"":""run_exp/static/images/task_images/land.jpg"",""time"":668.8999998569489},{""stimulus"":""run_exp/static/images/task_images/dig.jpg"",""time"":1337.7999999523163}]",[],3,,,,,,,,,,,,,,
harvest,90,378646,0.0-30.0-4.0,"""event"",""trial"",""time""
""fullscreenenter"",""1"",""2675""
","
","
","""event"",""trial"",""time""
""fullscreenenter"",""1"",""2675""
","
",,null,run_exp/static/images/task_images/gems/96.jpg,null,,,,,,,49,,,3,,,,,96,0.511832793,0.510416667,,,,,,,
decision,91,379013,0.0-30.0-5.0,"""event"",""trial"",""time""
""fullscreenenter"",""1"",""2675""
","
","
","""event"",""trial"",""time""
""fullscreenenter"",""1"",""2675""
","
",,365.2,run_exp/static/images/task_images/land.jpg,65,,,,,,,49,,,3,,,,,,,,65993,1,0,FALSE,,,
dig,92,381651,0.0-31.0-0.0,"""event"",""trial"",""time""
""fullscreenenter"",""1"",""2675""
","
","
","""event"",""trial"",""time""
""fullscreenenter"",""1"",""2675""
","
",,,,,,,,,,,,"[{""stimulus"":""run_exp/static/images/task_images/dig.jpg"",""time"":0.10000014305114746},{""stimulus"":""run_exp/static/images/task_images/land.jpg"",""time"":880.4000000953674},{""stimulus"":""run_exp/static/images/task_images/dig.jpg"",""time"":1758}]",[],3,,,,,,,,,,,,,,
harvest,93,382653,0.0-31.0-1.0,"""event"",""trial"",""time""
""fullscreenenter"",""1"",""2675""
","
","
","""event"",""trial"",""time""
""fullscreenenter"",""1"",""2675""
","
",,null,run_exp/static/images/task_images/gems/49.jpg,null,,,,,,,25,,,3,,,,,49,0.51080703,0.510204082,,,,,,,
decision,94,382840,0.0-31.0-2.0,"""event"",""trial"",""time""
""fullscreenenter"",""1"",""2675""
","
","
","""event"",""trial"",""time""
""fullscreenenter"",""1"",""2675""
","
",,186,run_exp/static/images/task_images/land.jpg,65,,,,,,,25,,,3,,,,,,,,69820,1,1,FALSE,,,
dig,95,385661,0.0-32.0-0.0,"""event"",""trial"",""time""
""fullscreenenter"",""1"",""2675""
","
","
","""event"",""trial"",""time""
""fullscreenenter"",""1"",""2675""
","
",,,,,,,,,,,,"[{""stimulus"":""run_exp/static/images/task_images/dig.jpg"",""time"":0.19999980926513672},{""stimulus"":""run_exp/static/images/task_images/land.jpg"",""time"":942.0999999046326},{""stimulus"":""run_exp/static/images/task_images/dig.jpg"",""time"":1878.5999999046326}]",[],3,,,,,,,,,,,,,,
harvest,96,386663,0.0-32.0-1.0,"""event"",""trial"",""time""
""fullscreenenter"",""1"",""2675""
","
","
","""event"",""trial"",""time""
""fullscreenenter"",""1"",""2675""
","
",,null,run_exp/static/images/task_images/gems/25.jpg,null,,,,,,,13,,,3,,,,,25,0.501869187,0.52,,,,,,,
decision,97,386770,0.0-32.0-2.0,"""event"",""trial"",""time""
""fullscreenenter"",""1"",""2675""
","
","
","""event"",""trial"",""time""
""fullscreenenter"",""1"",""2675""
","
",,105.3000002,run_exp/static/images/task_images/land.jpg,65,,,,,,,13,,,3,,,,,,,,73750,1,2,FALSE,,,
dig,98,389667,0.0-33.0-0.0,"""event"",""trial"",""time""
""fullscreenenter"",""1"",""2675""
","
","
","""event"",""trial"",""time""
""fullscreenenter"",""1"",""2675""
","
",,,,,,,,,,,,"[{""stimulus"":""run_exp/static/images/task_images/dig.jpg"",""time"":0.09999990463256836},{""stimulus"":""run_exp/static/images/task_images/land.jpg"",""time"":966.0999999046326},{""stimulus"":""run_exp/static/images/task_images/dig.jpg"",""time"":1929.7000000476837}]",[],3,,,,,,,,,,,,,,
harvest,99,390670,0.0-33.0-1.0,"""event"",""trial"",""time""
""fullscreenenter"",""1"",""2675""
","
","
","""event"",""trial"",""time""
""fullscreenenter"",""1"",""2675""
","
",,null,run_exp/static/images/task_images/gems/13.jpg,null,,,,,,,6,,,3,,,,,13,0.430454353,0.461538462,,,,,,,
decision,100,391028,0.0-33.0-2.0,"""event"",""trial"",""time""
""fullscreenenter"",""1"",""2675""
","
","
","""event"",""trial"",""time""
""fullscreenenter"",""1"",""2675""
","
",,357,run_exp/static/images/task_images/land.jpg,65,,,,,,,6,,,3,,,,,,,,78008,1,3,FALSE,,,
dig,101,393675,0.0-34.0-0.0,"""event"",""trial"",""time""
""fullscreenenter"",""1"",""2675""
","
","
","""event"",""trial"",""time""
""fullscreenenter"",""1"",""2675""
","
",,,,,,,,,,,,"[{""stimulus"":""run_exp/static/images/task_images/dig.jpg"",""time"":0.10000014305114746},{""stimulus"":""run_exp/static/images/task_images/land.jpg"",""time"":882.2000000476837},{""stimulus"":""run_exp/static/images/task_images/dig.jpg"",""time"":1767.1000001430511}]",[],3,,,,,,,,,,,,,,
harvest,102,394679,0.0-34.0-1.0,"""event"",""trial"",""time""
""fullscreenenter"",""1"",""2675""
","
","
","""event"",""trial"",""time""
""fullscreenenter"",""1"",""2675""
","
",,null,run_exp/static/images/task_images/gems/6.jpg,null,,,,,,,3,,,3,,,,,6,0.445216111,0.5,,,,,,,
decision,103,394865,0.0-34.0-2.0,"""event"",""trial"",""time""
""fullscreenenter"",""1"",""2675""
","
","
","""event"",""trial"",""time""
""fullscreenenter"",""1"",""2675""
","
",,184.5,run_exp/static/images/task_images/land.jpg,65,,,,,,,3,,,3,,,,,,,,81845,1,4,FALSE,,,
dig,104,397684,0.0-35.0-0.0,"""event"",""trial"",""time""
""fullscreenenter"",""1"",""2675""
","
","
","""event"",""trial"",""time""
""fullscreenenter"",""1"",""2675""
","
",,,,,,,,,,,,"[{""stimulus"":""run_exp/static/images/task_images/dig.jpg"",""time"":0.10000014305114746},{""stimulus"":""run_exp/static/images/task_images/land.jpg"",""time"":941.8000001907349},{""stimulus"":""run_exp/static/images/task_images/dig.jpg"",""time"":1879}]",[],3,,,,,,,,,,,,,,
harvest,105,398690,0.0-35.0-1.0,"""event"",""trial"",""time""
""fullscreenenter"",""1"",""2675""
","
","
","""event"",""trial"",""time""
""fullscreenenter"",""1"",""2675""
","
",,null,run_exp/static/images/task_images/gems/3.jpg,null,,,,,,,1,,,3,,,,,3,0.454596728,0.333333333,,,,,,,
decision,106,399133,0.0-35.0-2.0,"""event"",""trial"",""time""
""fullscreenenter"",""1"",""2675""
","
","
","""event"",""trial"",""time""
""fullscreenenter"",""1"",""2675""
","
",,442.6000001,run_exp/static/images/task_images/land.jpg,65,,,,,,,1,,,3,,,,,,,,86113,1,5,FALSE,,,
dig,107,401696,0.0-36.0-0.0,"""event"",""trial"",""time""
""fullscreenenter"",""1"",""2675""
","
","
","""event"",""trial"",""time""
""fullscreenenter"",""1"",""2675""
","
",,,,,,,,,,,,"[{""stimulus"":""run_exp/static/images/task_images/dig.jpg"",""time"":0.09999990463256836},{""stimulus"":""run_exp/static/images/task_images/land.jpg"",""time"":856.2000000476837},{""stimulus"":""run_exp/static/images/task_images/dig.jpg"",""time"":1705.0999999046326}]",[],3,,,,,,,,,,,,,,
harvest,108,402700,0.0-36.0-1.0,"""event"",""trial"",""time""
""fullscreenenter"",""1"",""2675""
","
","
","""event"",""trial"",""time""
""fullscreenenter"",""1"",""2675""
","
",,null,run_exp/static/images/task_images/gems/1.jpg,null,,,,,,,1,,,3,,,,,1,0.52027473,1,,,,,,,
decision,109,402987,0.0-36.0-2.0,"""event"",""trial"",""time""
""fullscreenenter"",""1"",""2675""
","
","
","""event"",""trial"",""time""
""fullscreenenter"",""1"",""2675""
","
",,285.6000001,run_exp/static/images/task_images/land.jpg,65,,,,,,,1,,,3,,,,,,,,89967,1,6,FALSE,,,
dig,110,405703,0.0-37.0-0.0,"""event"",""trial"",""time""
""fullscreenenter"",""1"",""2675""
","
","
","""event"",""trial"",""time""
""fullscreenenter"",""1"",""2675""
","
",,,,,,,,,,,,"[{""stimulus"":""run_exp/static/images/task_images/dig.jpg"",""time"":0.09999990463256836},{""stimulus"":""run_exp/static/images/task_images/land.jpg"",""time"":906.7000000476837},{""stimulus"":""run_exp/static/images/task_images/dig.jpg"",""time"":1812.7999999523163}]",[],3,,,,,,,,,,,,,,
harvest,111,406707,0.0-37.0-1.0,"""event"",""trial"",""time""
""fullscreenenter"",""1"",""2675""
","
","
","""event"",""trial"",""time""
""fullscreenenter"",""1"",""2675""
","
",,null,run_exp/static/images/task_images/gems/1.jpg,null,,,,,,,1,,,3,,,,,1,0.509387032,1,,,,,,,
decision,112,406731,0.0-37.0-2.0,"""event"",""trial"",""time""
""fullscreenenter"",""1"",""2675""
","
","
","""event"",""trial"",""time""
""fullscreenenter"",""1"",""2675""
","
",,23.5,run_exp/static/images/task_images/land.jpg,76,,,,,,,1,,,3,,,,,,,,93711,1,7,TRUE,,,
travel,113,416709,0.0-38.0-0.0,"""event"",""trial"",""time""
""fullscreenenter"",""1"",""2675""
","
","
","""event"",""trial"",""time""
""fullscreenenter"",""1"",""2675""
","
",,,,,,,,,,,,"[{""stimulus"":""run_exp/static/images/task_images/rocket-01.jpg"",""time"":0.09999990463256836},{""stimulus"":""run_exp/static/images/task_images/rocket-02.jpg"",""time"":1111.7000000476837},{""stimulus"":""run_exp/static/images/task_images/rocket-03.jpg"",""time"":2219.7000000476837},{""stimulus"":""run_exp/static/images/task_images/rocket-04.jpg"",""time"":3334.5999999046326},{""stimulus"":""run_exp/static/images/task_images/rocket-05.jpg"",""time"":4447.599999904633},{""stimulus"":""run_exp/static/images/task_images/rocket-06.jpg"",""time"":5544.200000047684},{""stimulus"":""run_exp/static/images/task_images/rocket-07.jpg"",""time"":6652.900000095367},{""stimulus"":""run_exp/static/images/task_images/rocket-08.jpg"",""time"":7760.200000047684},{""stimulus"":""run_exp/static/images/task_images/rocket-09.jpg"",""time"":8865.099999904633}]",[],3,,,,,,,,,,,,,,
alien_welcome,114,421712,0.0-38.0-1.0,"""event"",""trial"",""time""
""fullscreenenter"",""1"",""2675""
","
","
","""event"",""trial"",""time""
""fullscreenenter"",""1"",""2675""
","
",,null,run_exp/static/images/task_images/aliens/old_aliens/planet/alien_planet-25.jpg,null,,,,,,,,,,,,,25,"73,47,18,25,3,52,76,75,54,26,63,32,64,7,77,6,34,28,8,22,17,78,70,39,41,40,56,35,20,44,58,51,30,11,53,43,14,5,61,4,10",,,,,,,,,,
land,115,422215,0.0-38.0-2.0,"""event"",""trial"",""time""
""fullscreenenter"",""1"",""2675""
","
","
","""event"",""trial"",""time""
""fullscreenenter"",""1"",""2675""
","
",,null,run_exp/static/images/task_images/land.jpg,null,,,,,,,103,,,4,,,,,,,,,,,,,,
dig,116,424220,0.0-38.0-3.0,"""event"",""trial"",""time""
""fullscreenenter"",""1"",""2675""
","
","
","""event"",""trial"",""time""
""fullscreenenter"",""1"",""2675""
","
",,,,,,,,,,,,"[{""stimulus"":""run_exp/static/images/task_images/dig.jpg"",""time"":0.2999999523162842},{""stimulus"":""run_exp/static/images/task_images/land.jpg"",""time"":670.2000000476837},{""stimulus"":""run_exp/static/images/task_images/dig.jpg"",""time"":1338.7999999523163}]",[],4,,,,,,,,,,,,,,
harvest,117,425222,0.0-38.0-4.0,"""event"",""trial"",""time""
""fullscreenenter"",""1"",""2675""
","
","
","""event"",""trial"",""time""
""fullscreenenter"",""1"",""2675""
","
",,null,run_exp/static/images/task_images/gems/103.jpg,null,,,,,,,45,,,4,,,,,103,0.432218411,0.436893204,,,,,,,
decision,118,425493,0.0-38.0-5.0,"""event"",""trial"",""time""
""fullscreenenter"",""1"",""2675""
","
","
","""event"",""trial"",""time""
""fullscreenenter"",""1"",""2675""
","
",,269.3000002,run_exp/static/images/task_images/land.jpg,65,,,,,,,45,,,4,,,,,,,,112473,1,0,FALSE,,,
dig,119,428229,0.0-39.0-0.0,"""event"",""trial"",""time""
""fullscreenenter"",""1"",""2675""
","
","
","""event"",""trial"",""time""
""fullscreenenter"",""1"",""2675""
","
",,,,,,,,,,,,"[{""stimulus"":""run_exp/static/images/task_images/dig.jpg"",""time"":0.20000004768371582},{""stimulus"":""run_exp/static/images/task_images/land.jpg"",""time"":913.2000000476837},{""stimulus"":""run_exp/static/images/task_images/dig.jpg"",""time"":1821.7000000476837}]",[],4,,,,,,,,,,,,,,
harvest,120,429231,0.0-39.0-1.0,"""event"",""trial"",""time""
""fullscreenenter"",""1"",""2675""
","
","
","""event"",""trial"",""time""
""fullscreenenter"",""1"",""2675""
","
",,null,run_exp/static/images/task_images/gems/45.jpg,null,,,,,,,21,,,4,,,,,45,0.473171751,0.466666667,,,,,,,
decision,121,429337,0.0-39.0-2.0,"""event"",""trial"",""time""
""fullscreenenter"",""1"",""2675""
","
","
","""event"",""trial"",""time""
""fullscreenenter"",""1"",""2675""
","
",,105.5999999,run_exp/static/images/task_images/land.jpg,65,,,,,,,21,,,4,,,,,,,,116318,1,1,FALSE,,,
dig,122,432235,0.0-40.0-0.0,"""event"",""trial"",""time""
""fullscreenenter"",""1"",""2675""
","
","
","""event"",""trial"",""time""
""fullscreenenter"",""1"",""2675""
","
",,,,,,,,,,,,"[{""stimulus"":""run_exp/static/images/task_images/dig.jpg"",""time"":0.10000014305114746},{""stimulus"":""run_exp/static/images/task_images/land.jpg"",""time"":966.2999999523163},{""stimulus"":""run_exp/static/images/task_images/dig.jpg"",""time"":1933}]",[],4,,,,,,,,,,,,,,
harvest,123,433238,0.0-40.0-1.0,"""event"",""trial"",""time""
""fullscreenenter"",""1"",""2675""
","
","
","""event"",""trial"",""time""
""fullscreenenter"",""1"",""2675""
","
",,null,run_exp/static/images/task_images/gems/21.jpg,null,,,,,,,11,,,4,,,,,21,0.536861444,0.523809524,,,,,,,
decision,124,433314,0.0-40.0-2.0,"""event"",""trial"",""time""
""fullscreenenter"",""1"",""2675""
","
","
","""event"",""trial"",""time""
""fullscreenenter"",""1"",""2675""
","
",,74.89999986,run_exp/static/images/task_images/land.jpg,76,,,,,,,11,,,4,,,,,,,,120294,1,2,TRUE,,,
travel,125,443238,0.0-41.0-0.0,"""event"",""trial"",""time""
""fullscreenenter"",""1"",""2675""
","
","
","""event"",""trial"",""time""
""fullscreenenter"",""1"",""2675""
","
",,,,,,,,,,,,"[{""stimulus"":""run_exp/static/images/task_images/rocket-01.jpg"",""time"":0.20000004768371582},{""stimulus"":""run_exp/static/images/task_images/rocket-02.jpg"",""time"":1103.5},{""stimulus"":""run_exp/static/images/task_images/rocket-03.jpg"",""time"":2206.5999999046326},{""stimulus"":""run_exp/static/images/task_images/rocket-04.jpg"",""time"":3311},{""stimulus"":""run_exp/static/images/task_images/rocket-05.jpg"",""time"":4409.099999904633},{""stimulus"":""run_exp/static/images/task_images/rocket-06.jpg"",""time"":5511.200000047684},{""stimulus"":""run_exp/static/images/task_images/rocket-07.jpg"",""time"":6613.599999904633},{""stimulus"":""run_exp/static/images/task_images/rocket-08.jpg"",""time"":7716.599999904633},{""stimulus"":""run_exp/static/images/task_images/rocket-09.jpg"",""time"":8823.099999904633}]",[],4,,,,,,,,,,,,,,
alien_welcome,126,448242,0.0-41.0-1.0,"""event"",""trial"",""time""
""fullscreenenter"",""1"",""2675""
","
","
","""event"",""trial"",""time""
""fullscreenenter"",""1"",""2675""
","
",,null,run_exp/static/images/task_images/aliens/old_aliens/planet/alien_planet-3.jpg,null,,,,,,,,,,,,,3,"73,47,18,25,3,52,76,75,54,26,63,32,64,7,77,6,34,28,8,22,17,78,70,39,41,40,56,35,20,44,58,51,30,11,53,43,14,5,61,4,10",,,,,,,,,,
land,127,448746,0.0-41.0-2.0,"""event"",""trial"",""time""
""fullscreenenter"",""1"",""2675""
","
","
","""event"",""trial"",""time""
""fullscreenenter"",""1"",""2675""
","
",,null,run_exp/static/images/task_images/land.jpg,null,,,,,,,104,,,5,,,,,,,,,,,,,,
dig,128,450750,0.0-41.0-3.0,"""event"",""trial"",""time""
""fullscreenenter"",""1"",""2675""
","
","
","""event"",""trial"",""time""
""fullscreenenter"",""1"",""2675""
","
",,,,,,,,,,,,"[{""stimulus"":""run_exp/static/images/task_images/dig.jpg"",""time"":0.19999980926513672},{""stimulus"":""run_exp/static/images/task_images/land.jpg"",""time"":678.1999998092651},{""stimulus"":""run_exp/static/images/task_images/dig.jpg"",""time"":1337.7999999523163}]",[],5,,,,,,,,,,,,,,
harvest,129,451766,0.0-41.0-4.0,"""event"",""trial"",""time""
""fullscreenenter"",""1"",""2675""
","
","
","""event"",""trial"",""time""
""fullscreenenter"",""1"",""2675""
","
",,null,run_exp/static/images/task_images/gems/104.jpg,null,,,,,,,63,,,5,,,,,104,0.606958237,0.605769231,,,,,,,
decision,130,452052,0.0-41.0-5.0,"""event"",""trial"",""time""
""fullscreenenter"",""1"",""2675""
","
","
","""event"",""trial"",""time""
""fullscreenenter"",""1"",""2675""
","
",,285.5,run_exp/static/images/task_images/land.jpg,65,,,,,,,63,,,5,,,,,,,,139033,1,0,FALSE,,,
dig,131,454769,0.0-42.0-0.0,"""event"",""trial"",""time""
""fullscreenenter"",""1"",""2675""
","
","
","""event"",""trial"",""time""
""fullscreenenter"",""1"",""2675""
","
",,,,,,,,,,,,"[{""stimulus"":""run_exp/static/images/task_images/dig.jpg"",""time"":0.10000014305114746},{""stimulus"":""run_exp/static/images/task_images/land.jpg"",""time"":908.2000000476837},{""stimulus"":""run_exp/static/images/task_images/dig.jpg"",""time"":1809.9000000953674}]",[],5,,,,,,,,,,,,,,
harvest,132,455773,0.0-42.0-1.0,"""event"",""trial"",""time""
""fullscreenenter"",""1"",""2675""
","
","
","""event"",""trial"",""time""
""fullscreenenter"",""1"",""2675""
","
",,null,run_exp/static/images/task_images/gems/63.jpg,null,,,,,,,30,,,5,,,,,63,0.47670248,0.476190476,,,,,,,
decision,133,455784,0.0-42.0-2.0,"""event"",""trial"",""time""
""fullscreenenter"",""1"",""2675""
","
","
","""event"",""trial"",""time""
""fullscreenenter"",""1"",""2675""
","
",,9.800000191,run_exp/static/images/task_images/land.jpg,65,,,,,,,30,,,5,,,,,,,,142764,1,1,FALSE,,,
dig,134,458776,0.0-43.0-0.0,"""event"",""trial"",""time""
""fullscreenenter"",""1"",""2675""
","
","
","""event"",""trial"",""time""
""fullscreenenter"",""1"",""2675""
","
",,,,,,,,,,,,"[{""stimulus"":""run_exp/static/images/task_images/dig.jpg"",""time"":0.20000004768371582},{""stimulus"":""run_exp/static/images/task_images/land.jpg"",""time"":999.7000000476837},{""stimulus"":""run_exp/static/images/task_images/dig.jpg"",""time"":1996}]",[],5,,,,,,,,,,,,,,
harvest,135,459780,0.0-43.0-1.0,"""event"",""trial"",""time""
""fullscreenenter"",""1"",""2675""
","
","
","""event"",""trial"",""time""
""fullscreenenter"",""1"",""2675""
","
",,null,run_exp/static/images/task_images/gems/30.jpg,null,,,,,,,13,,,5,,,,,30,0.449476877,0.433333333,,,,,,,
decision,136,460274,0.0-43.0-2.0,"""event"",""trial"",""time""
""fullscreenenter"",""1"",""2675""
","
","
","""event"",""trial"",""time""
""fullscreenenter"",""1"",""2675""
","
",,492.8000002,run_exp/static/images/task_images/land.jpg,65,,,,,,,13,,,5,,,,,,,,147254,1,2,FALSE,,,
dig,137,462784,0.0-44.0-0.0,"""event"",""trial"",""time""
""fullscreenenter"",""1"",""2675""
","
","
","""event"",""trial"",""time""
""fullscreenenter"",""1"",""2675""
","
",,,,,,,,,,,,"[{""stimulus"":""run_exp/static/images/task_images/dig.jpg"",""time"":0.10000014305114746},{""stimulus"":""run_exp/static/images/task_images/land.jpg"",""time"":836.7000000476837},{""stimulus"":""run_exp/static/images/task_images/dig.jpg"",""time"":1673.9000000953674}]",[],5,,,,,,,,,,,,,,
harvest,138,463786,0.0-44.0-1.0,"""event"",""trial"",""time""
""fullscreenenter"",""1"",""2675""
","
","
","""event"",""trial"",""time""
""fullscreenenter"",""1"",""2675""
","
",,null,run_exp/static/images/task_images/gems/13.jpg,null,,,,,,,6,,,5,,,,,13,0.498675297,0.461538462,,,,,,,
decision,139,464020,0.0-44.0-2.0,"""event"",""trial"",""time""
""fullscreenenter"",""1"",""2675""
","
","
","""event"",""trial"",""time""
""fullscreenenter"",""1"",""2675""
","
",,232.8000002,run_exp/static/images/task_images/land.jpg,76,,,,,,,6,,,5,,,,,,,,151000,1,3,TRUE,,,
travel,140,473797,0.0-45.0-0.0,"""event"",""trial"",""time""
""fullscreenenter"",""1"",""2675""
","
","
","""event"",""trial"",""time""
""fullscreenenter"",""1"",""2675""
","
",,,,,,,,,,,,"[{""stimulus"":""run_exp/static/images/task_images/rocket-01.jpg"",""time"":0.20000004768371582},{""stimulus"":""run_exp/static/images/task_images/rocket-02.jpg"",""time"":1089.4000000953674},{""stimulus"":""run_exp/static/images/task_images/rocket-03.jpg"",""time"":2177.7999999523163},{""stimulus"":""run_exp/static/images/task_images/rocket-04.jpg"",""time"":3267.9000000953674},{""stimulus"":""run_exp/static/images/task_images/rocket-05.jpg"",""time"":4342.400000095367},{""stimulus"":""run_exp/static/images/task_images/rocket-06.jpg"",""time"":5426.799999952316},{""stimulus"":""run_exp/static/images/task_images/rocket-07.jpg"",""time"":6511.5},{""stimulus"":""run_exp/static/images/task_images/rocket-08.jpg"",""time"":7597},{""stimulus"":""run_exp/static/images/task_images/rocket-09.jpg"",""time"":8684.200000047684}]",[],5,,,,,,,,,,,,,,
alien_welcome,141,478800,0.0-45.0-1.0,"""event"",""trial"",""time""
""fullscreenenter"",""1"",""2675""
","
","
","""event"",""trial"",""time""
""fullscreenenter"",""1"",""2675""
","
",,null,run_exp/static/images/task_images/aliens/old_aliens/planet/alien_planet-52.jpg,null,,,,,,,,,,,,,52,"73,47,18,25,3,52,76,75,54,26,63,32,64,7,77,6,34,28,8,22,17,78,70,39,41,40,56,35,20,44,58,51,30,11,53,43,14,5,61,4,10",,,,,,,,,,
land,142,479302,0.0-45.0-2.0,"""event"",""trial"",""time""
""fullscreenenter"",""1"",""2675""
","
","
","""event"",""trial"",""time""
""fullscreenenter"",""1"",""2675""
","
",,null,run_exp/static/images/task_images/land.jpg,null,,,,,,,95,,,6,,,,,,,,,,,,,,
dig,143,481308,0.0-45.0-3.0,"""event"",""trial"",""time""
""fullscreenenter"",""1"",""2675""
","
","
","""event"",""trial"",""time""
""fullscreenenter"",""1"",""2675""
","
",,,,,,,,,,,,"[{""stimulus"":""run_exp/static/images/task_images/dig.jpg"",""time"":0.19999980926513672},{""stimulus"":""run_exp/static/images/task_images/land.jpg"",""time"":668.7999999523163},{""stimulus"":""run_exp/static/images/task_images/dig.jpg"",""time"":1338.1999998092651}]",[],6,,,,,,,,,,,,,,
harvest,144,482313,0.0-45.0-4.0,"""event"",""trial"",""time""
""fullscreenenter"",""1"",""2675""
","
","
","""event"",""trial"",""time""
""fullscreenenter"",""1"",""2675""
","
",,null,run_exp/static/images/task_images/gems/95.jpg,null,,,,,,,65,,,6,,,,,95,0.688156951,0.684210526,,,,,,,
decision,145,482604,0.0-45.0-5.0,"""event"",""trial"",""time""
""fullscreenenter"",""1"",""2675""
","
","
","""event"",""trial"",""time""
""fullscreenenter"",""1"",""2675""
","
",,289.4000001,run_exp/static/images/task_images/land.jpg,65,,,,,,,65,,,6,,,,,,,,169584,1,0,FALSE,,,
dig,146,485318,0.0-46.0-0.0,"""event"",""trial"",""time""
""fullscreenenter"",""1"",""2675""
","
","
","""event"",""trial"",""time""
""fullscreenenter"",""1"",""2675""
","
",,,,,,,,,,,,"[{""stimulus"":""run_exp/static/images/task_images/dig.jpg"",""time"":0.10000014305114746},{""stimulus"":""run_exp/static/images/task_images/land.jpg"",""time"":906},{""stimulus"":""run_exp/static/images/task_images/dig.jpg"",""time"":1815.4000000953674}]",[],6,,,,,,,,,,,,,,
harvest,147,486320,0.0-46.0-1.0,"""event"",""trial"",""time""
""fullscreenenter"",""1"",""2675""
","
","
","""event"",""trial"",""time""
""fullscreenenter"",""1"",""2675""
","
",,null,run_exp/static/images/task_images/gems/65.jpg,null,,,,,,,53,,,6,,,,,65,0.818553956,0.815384615,,,,,,,
decision,148,486515,0.0-46.0-2.0,"""event"",""trial"",""time""
""fullscreenenter"",""1"",""2675""
","
","
","""event"",""trial"",""time""
""fullscreenenter"",""1"",""2675""
","
",,193.3,run_exp/static/images/task_images/land.jpg,65,,,,,,,53,,,6,,,,,,,,173495,1,1,FALSE,,,
dig,149,489323,0.0-47.0-0.0,"""event"",""trial"",""time""
""fullscreenenter"",""1"",""2675""
","
","
","""event"",""trial"",""time""
""fullscreenenter"",""1"",""2675""
","
",,,,,,,,,,,,"[{""stimulus"":""run_exp/static/images/task_images/dig.jpg"",""time"":0.09999990463256836},{""stimulus"":""run_exp/static/images/task_images/land.jpg"",""time"":936},{""stimulus"":""run_exp/static/images/task_images/dig.jpg"",""time"":1872.5}]",[],6,,,,,,,,,,,,,,
harvest,150,490325,0.0-47.0-1.0,"""event"",""trial"",""time""
""fullscreenenter"",""1"",""2675""
","
","
","""event"",""trial"",""time""
""fullscreenenter"",""1"",""2675""
","
",,null,run_exp/static/images/task_images/gems/53.jpg,null,,,,,,,44,,,6,,,,,53,0.837401083,0.830188679,,,,,,,
decision,151,490598,0.0-47.0-2.0,"""event"",""trial"",""time""
""fullscreenenter"",""1"",""2675""
","
","
","""event"",""trial"",""time""
""fullscreenenter"",""1"",""2675""
","
",,271.7,run_exp/static/images/task_images/land.jpg,65,,,,,,,44,,,6,,,,,,,,177578,1,2,FALSE,,,
dig,152,493332,0.0-48.0-0.0,"""event"",""trial"",""time""
""fullscreenenter"",""1"",""2675""
","
","
","""event"",""trial"",""time""
""fullscreenenter"",""1"",""2675""
","
",,,,,,,,,,,,"[{""stimulus"":""run_exp/static/images/task_images/dig.jpg"",""time"":0.10000014305114746},{""stimulus"":""run_exp/static/images/task_images/land.jpg"",""time"":913.6000001430511},{""stimulus"":""run_exp/static/images/task_images/dig.jpg"",""time"":1820.2000000476837}]",[],6,,,,,,,,,,,,,,
harvest,153,494335,0.0-48.0-1.0,"""event"",""trial"",""time""
""fullscreenenter"",""1"",""2675""
","
","
","""event"",""trial"",""time""
""fullscreenenter"",""1"",""2675""
","
",,null,run_exp/static/images/task_images/gems/44.jpg,null,,,,,,,34,,,6,,,,,44,0.780411883,0.772727273,,,,,,,
decision,154,494613,0.0-48.0-2.0,"""event"",""trial"",""time""
""fullscreenenter"",""1"",""2675""
","
","
","""event"",""trial"",""time""
""fullscreenenter"",""1"",""2675""
","
",,276.7,run_exp/static/images/task_images/land.jpg,65,,,,,,,34,,,6,,,,,,,,181593,1,3,FALSE,,,
dig,155,497339,0.0-49.0-0.0,"""event"",""trial"",""time""
""fullscreenenter"",""1"",""2675""
","
","
","""event"",""trial"",""time""
""fullscreenenter"",""1"",""2675""
","
",,,,,,,,,,,,"[{""stimulus"":""run_exp/static/images/task_images/dig.jpg"",""time"":0},{""stimulus"":""run_exp/static/images/task_images/land.jpg"",""time"":908},{""stimulus"":""run_exp/static/images/task_images/dig.jpg"",""time"":1814.7999999523163}]",[],6,,,,,,,,,,,,,,
harvest,156,498340,0.0-49.0-1.0,"""event"",""trial"",""time""
""fullscreenenter"",""1"",""2675""
","
","
","""event"",""trial"",""time""
""fullscreenenter"",""1"",""2675""
","
",,null,run_exp/static/images/task_images/gems/34.jpg,null,,,,,,,29,,,6,,,,,34,0.841145455,0.852941176,,,,,,,
decision,157,498564,0.0-49.0-2.0,"""event"",""trial"",""time""
""fullscreenenter"",""1"",""2675""
","
","
","""event"",""trial"",""time""
""fullscreenenter"",""1"",""2675""
","
",,222.4000001,run_exp/static/images/task_images/land.jpg,65,,,,,,,29,,,6,,,,,,,,185544,1,4,FALSE,,,
dig,158,501344,0.0-50.0-0.0,"""event"",""trial"",""time""
""fullscreenenter"",""1"",""2675""
","
","
","""event"",""trial"",""time""
""fullscreenenter"",""1"",""2675""
","
",,,,,,,,,,,,"[{""stimulus"":""run_exp/static/images/task_images/dig.jpg"",""time"":0.10000014305114746},{""stimulus"":""run_exp/static/images/task_images/land.jpg"",""time"":928.5},{""stimulus"":""run_exp/static/images/task_images/dig.jpg"",""time"":1854.7000000476837}]",[],6,,,,,,,,,,,,,,
harvest,159,502348,0.0-50.0-1.0,"""event"",""trial"",""time""
""fullscreenenter"",""1"",""2675""
","
","
","""event"",""trial"",""time""
""fullscreenenter"",""1"",""2675""
","
",,null,run_exp/static/images/task_images/gems/29.jpg,null,,,,,,,23,,,6,,,,,29,0.789319639,0.793103448,,,,,,,
decision,160,502612,0.0-50.0-2.0,"""event"",""trial"",""time""
""fullscreenenter"",""1"",""2675""
","
","
","""event"",""trial"",""time""
""fullscreenenter"",""1"",""2675""
","
",,262.8,run_exp/static/images/task_images/land.jpg,76,,,,,,,23,,,6,,,,,,,,189592,1,5,TRUE,,,
travel,161,512345,0.0-51.0-0.0,"""event"",""trial"",""time""
""fullscreenenter"",""1"",""2675""
","
","
","""event"",""trial"",""time""
""fullscreenenter"",""1"",""2675""
","
",,,,,,,,,,,,"[{""stimulus"":""run_exp/static/images/task_images/rocket-01.jpg"",""time"":0.10000014305114746},{""stimulus"":""run_exp/static/images/task_images/rocket-02.jpg"",""time"":1088.1000001430511},{""stimulus"":""run_exp/static/images/task_images/rocket-03.jpg"",""time"":2166.100000143051},{""stimulus"":""run_exp/static/images/task_images/rocket-04.jpg"",""time"":3244},{""stimulus"":""run_exp/static/images/task_images/rocket-05.jpg"",""time"":4327.900000095367},{""stimulus"":""run_exp/static/images/task_images/rocket-06.jpg"",""time"":5409.799999952316},{""stimulus"":""run_exp/static/images/task_images/rocket-07.jpg"",""time"":6491.100000143051},{""stimulus"":""run_exp/static/images/task_images/rocket-08.jpg"",""time"":7568.100000143051},{""stimulus"":""run_exp/static/images/task_images/rocket-09.jpg"",""time"":8650}]",[],6,,,,,,,,,,,,,,
alien_welcome,162,517349,0.0-51.0-1.0,"""event"",""trial"",""time""
""fullscreenenter"",""1"",""2675""
","
","
","""event"",""trial"",""time""
""fullscreenenter"",""1"",""2675""
","
",,null,run_exp/static/images/task_images/aliens/old_aliens/planet/alien_planet-76.jpg,null,,,,,,,,,,,,,76,"73,47,18,25,3,52,76,75,54,26,63,32,64,7,77,6,34,28,8,22,17,78,70,39,41,40,56,35,20,44,58,51,30,11,53,43,14,5,61,4,10",,,,,,,,,,
land,163,517851,0.0-51.0-2.0,"""event"",""trial"",""time""
""fullscreenenter"",""1"",""2675""
","
","
","""event"",""trial"",""time""
""fullscreenenter"",""1"",""2675""
","
",,null,run_exp/static/images/task_images/land.jpg,null,,,,,,,101,,,7,,,,,,,,,,,,,,
dig,164,519855,0.0-51.0-3.0,"""event"",""trial"",""time""
""fullscreenenter"",""1"",""2675""
","
","
","""event"",""trial"",""time""
""fullscreenenter"",""1"",""2675""
","
",,,,,,,,,,,,"[{""stimulus"":""run_exp/static/images/task_images/dig.jpg"",""time"":0.2999999523162842},{""stimulus"":""run_exp/static/images/task_images/land.jpg"",""time"":670.2999999523163},{""stimulus"":""run_exp/static/images/task_images/dig.jpg"",""time"":1335}]",[],7,,,,,,,,,,,,,,
harvest,165,520871,0.0-51.0-4.0,"""event"",""trial"",""time""
""fullscreenenter"",""1"",""2675""
","
","
","""event"",""trial"",""time""
""fullscreenenter"",""1"",""2675""
","
",,null,run_exp/static/images/task_images/gems/101.jpg,null,,,,,,,90,,,7,,,,,101,0.894022035,0.891089109,,,,,,,
decision,166,521111,0.0-51.0-5.0,"""event"",""trial"",""time""
""fullscreenenter"",""1"",""2675""
","
","
","""event"",""trial"",""time""
""fullscreenenter"",""1"",""2675""
","
",,238,run_exp/static/images/task_images/land.jpg,65,,,,,,,90,,,7,,,,,,,,208091,1,0,FALSE,,,
dig,167,523874,0.0-52.0-0.0,"""event"",""trial"",""time""
""fullscreenenter"",""1"",""2675""
","
","
","""event"",""trial"",""time""
""fullscreenenter"",""1"",""2675""
","
",,,,,,,,,,,,"[{""stimulus"":""run_exp/static/images/task_images/dig.jpg"",""time"":0.10000014305114746},{""stimulus"":""run_exp/static/images/task_images/land.jpg"",""time"":922.6000001430511},{""stimulus"":""run_exp/static/images/task_images/dig.jpg"",""time"":1845}]",[],7,,,,,,,,,,,,,,
harvest,168,524879,0.0-52.0-1.0,"""event"",""trial"",""time""
""fullscreenenter"",""1"",""2675""
","
","
","""event"",""trial"",""time""
""fullscreenenter"",""1"",""2675""
","
",,null,run_exp/static/images/task_images/gems/90.jpg,null,,,,,,,67,,,7,,,,,90,0.741319679,0.744444444,,,,,,,
decision,169,525091,0.0-52.0-2.0,"""event"",""trial"",""time""
""fullscreenenter"",""1"",""2675""
","
","
","""event"",""trial"",""time""
""fullscreenenter"",""1"",""2675""
","
",,210.9000001,run_exp/static/images/task_images/land.jpg,65,,,,,,,67,,,7,,,,,,,,212071,1,1,FALSE,,,
dig,170,527885,0.0-53.0-0.0,"""event"",""trial"",""time""
""fullscreenenter"",""1"",""2675""
","
","
","""event"",""trial"",""time""
""fullscreenenter"",""1"",""2675""
","
",,,,,,,,,,,,"[{""stimulus"":""run_exp/static/images/task_images/dig.jpg"",""time"":0.19999980926513672},{""stimulus"":""run_exp/static/images/task_images/land.jpg"",""time"":931.0999999046326},{""stimulus"":""run_exp/static/images/task_images/dig.jpg"",""time"":1862.8999998569489}]",[],7,,,,,,,,,,,,,,
harvest,171,528887,0.0-53.0-1.0,"""event"",""trial"",""time""
""fullscreenenter"",""1"",""2675""
","
","
","""event"",""trial"",""time""
""fullscreenenter"",""1"",""2675""
","
",,null,run_exp/static/images/task_images/gems/67.jpg,null,,,,,,,44,,,7,,,,,67,0.657061054,0.656716418,,,,,,,
decision,172,528936,0.0-53.0-2.0,"""event"",""trial"",""time""
""fullscreenenter"",""1"",""2675""
","
","
","""event"",""trial"",""time""
""fullscreenenter"",""1"",""2675""
","
",,48.5999999,run_exp/static/images/task_images/land.jpg,65,,,,,,,44,,,7,,,,,,,,215916,1,2,FALSE,,,
dig,173,531889,0.0-54.0-0.0,"""event"",""trial"",""time""
""fullscreenenter"",""1"",""2675""
","
","
","""event"",""trial"",""time""
""fullscreenenter"",""1"",""2675""
","
",,,,,,,,,,,,"[{""stimulus"":""run_exp/static/images/task_images/dig.jpg"",""time"":0.20000004768371582},{""stimulus"":""run_exp/static/images/task_images/land.jpg"",""time"":985.5},{""stimulus"":""run_exp/static/images/task_images/dig.jpg"",""time"":1970.2000000476837}]",[],7,,,,,,,,,,,,,,
harvest,174,532894,0.0-54.0-1.0,"""event"",""trial"",""time""
""fullscreenenter"",""1"",""2675""
","
","
","""event"",""trial"",""time""
""fullscreenenter"",""1"",""2675""
","
",,null,run_exp/static/images/task_images/gems/44.jpg,null,,,,,,,36,,,7,,,,,44,0.812058239,0.818181818,,,,,,,
decision,175,533013,0.0-54.0-2.0,"""event"",""trial"",""time""
""fullscreenenter"",""1"",""2675""
","
","
","""event"",""trial"",""time""
""fullscreenenter"",""1"",""2675""
","
",,118.7,run_exp/static/images/task_images/land.jpg,65,,,,,,,36,,,7,,,,,,,,219993,1,3,FALSE,,,
dig,176,535899,0.0-55.0-0.0,"""event"",""trial"",""time""
""fullscreenenter"",""1"",""2675""
","
","
","""event"",""trial"",""time""
""fullscreenenter"",""1"",""2675""
","
",,,,,,,,,,,,"[{""stimulus"":""run_exp/static/images/task_images/dig.jpg"",""time"":0},{""stimulus"":""run_exp/static/images/task_images/land.jpg"",""time"":964.5},{""stimulus"":""run_exp/static/images/task_images/dig.jpg"",""time"":1923.7000000476837}]",[],7,,,,,,,,,,,,,,
harvest,177,536904,0.0-55.0-1.0,"""event"",""trial"",""time""
""fullscreenenter"",""1"",""2675""
","
","
","""event"",""trial"",""time""
""fullscreenenter"",""1"",""2675""
","
",,null,run_exp/static/images/task_images/gems/36.jpg,null,,,,,,,30,,,7,,,,,36,0.834001499,0.833333333,,,,,,,
decision,178,537118,0.0-55.0-2.0,"""event"",""trial"",""time""
""fullscreenenter"",""1"",""2675""
","
","
","""event"",""trial"",""time""
""fullscreenenter"",""1"",""2675""
","
",,213,run_exp/static/images/task_images/land.jpg,65,,,,,,,30,,,7,,,,,,,,224098,1,4,FALSE,,,
dig,179,539910,0.0-56.0-0.0,"""event"",""trial"",""time""
""fullscreenenter"",""1"",""2675""
","
","
","""event"",""trial"",""time""
""fullscreenenter"",""1"",""2675""
","
",,,,,,,,,,,,"[{""stimulus"":""run_exp/static/images/task_images/dig.jpg"",""time"":0.20000004768371582},{""stimulus"":""run_exp/static/images/task_images/land.jpg"",""time"":931.1000001430511},{""stimulus"":""run_exp/static/images/task_images/dig.jpg"",""time"":1859.7000000476837}]",[],7,,,,,,,,,,,,,,
harvest,180,540911,0.0-56.0-1.0,"""event"",""trial"",""time""
""fullscreenenter"",""1"",""2675""
","
","
","""event"",""trial"",""time""
""fullscreenenter"",""1"",""2675""
","
",,null,run_exp/static/images/task_images/gems/30.jpg,null,,,,,,,22,,,7,,,,,30,0.747823493,0.733333333,,,,,,,
decision,181,541361,0.0-56.0-2.0,"""event"",""trial"",""time""
""fullscreenenter"",""1"",""2675""
","
","
","""event"",""trial"",""time""
""fullscreenenter"",""1"",""2675""
","
",,448.9000001,run_exp/static/images/task_images/land.jpg,65,,,,,,,22,,,7,,,,,,,,228341,1,5,FALSE,,,
dig,182,543914,0.0-57.0-0.0,"""event"",""trial"",""time""
""fullscreenenter"",""1"",""2675""
","
","
","""event"",""trial"",""time""
""fullscreenenter"",""1"",""2675""
","
",,,,,,,,,,,,"[{""stimulus"":""run_exp/static/images/task_images/dig.jpg"",""time"":0.20000004768371582},{""stimulus"":""run_exp/static/images/task_images/land.jpg"",""time"":853},{""stimulus"":""run_exp/static/images/task_images/dig.jpg"",""time"":1702.7000000476837}]",[],7,,,,,,,,,,,,,,
harvest,183,544916,0.0-57.0-1.0,"""event"",""trial"",""time""
""fullscreenenter"",""1"",""2675""
","
","
","""event"",""trial"",""time""
""fullscreenenter"",""1"",""2675""
","
",,null,run_exp/static/images/task_images/gems/22.jpg,null,,,,,,,18,,,7,,,,,22,0.79829317,0.818181818,,,,,,,
decision,184,545337,0.0-57.0-2.0,"""event"",""trial"",""time""
""fullscreenenter"",""1"",""2675""
","
","
","""event"",""trial"",""time""
""fullscreenenter"",""1"",""2675""
","
",,419.5,run_exp/static/images/task_images/land.jpg,76,,,,,,,18,,,7,,,,,,,,232317,1,6,TRUE,,,
travel,185,554917,0.0-58.0-0.0,"""event"",""trial"",""time""
""fullscreenenter"",""1"",""2675""
","
","
","""event"",""trial"",""time""
""fullscreenenter"",""1"",""2675""
","
",,,,,,,,,,,,"[{""stimulus"":""run_exp/static/images/task_images/rocket-01.jpg"",""time"":0.20000004768371582},{""stimulus"":""run_exp/static/images/task_images/rocket-02.jpg"",""time"":1064.9000000953674},{""stimulus"":""run_exp/static/images/task_images/rocket-03.jpg"",""time"":2129.4000000953674},{""stimulus"":""run_exp/static/images/task_images/rocket-04.jpg"",""time"":3196.9000000953674},{""stimulus"":""run_exp/static/images/task_images/rocket-05.jpg"",""time"":4269.799999952316},{""stimulus"":""run_exp/static/images/task_images/rocket-06.jpg"",""time"":5321},{""stimulus"":""run_exp/static/images/task_images/rocket-07.jpg"",""time"":6386.100000143051},{""stimulus"":""run_exp/static/images/task_images/rocket-08.jpg"",""time"":7451.400000095367},{""stimulus"":""run_exp/static/images/task_images/rocket-09.jpg"",""time"":8523.100000143051}]",[],7,,,,,,,,,,,,,,
alien_welcome,186,559920,0.0-58.0-1.0,"""event"",""trial"",""time""
""fullscreenenter"",""1"",""2675""
","
","
","""event"",""trial"",""time""
""fullscreenenter"",""1"",""2675""
","
",,null,run_exp/static/images/task_images/aliens/old_aliens/planet/alien_planet-75.jpg,null,,,,,,,,,,,,,75,"73,47,18,25,3,52,76,75,54,26,63,32,64,7,77,6,34,28,8,22,17,78,70,39,41,40,56,35,20,44,58,51,30,11,53,43,14,5,61,4,10",,,,,,,,,,
land,187,560425,0.0-58.0-2.0,"""event"",""trial"",""time""
""fullscreenenter"",""1"",""2675""
","
","
","""event"",""trial"",""time""
""fullscreenenter"",""1"",""2675""
","
",,null,run_exp/static/images/task_images/land.jpg,null,,,,,,,102,,,8,,,,,,,,,,,,,,
dig,188,562430,0.0-58.0-3.0,"""event"",""trial"",""time""
""fullscreenenter"",""1"",""2675""
","
","
","""event"",""trial"",""time""
""fullscreenenter"",""1"",""2675""
","
",,,,,,,,,,,,"[{""stimulus"":""run_exp/static/images/task_images/dig.jpg"",""time"":0.20000004768371582},{""stimulus"":""run_exp/static/images/task_images/land.jpg"",""time"":668.2000000476837},{""stimulus"":""run_exp/static/images/task_images/dig.jpg"",""time"":1336.2000000476837}]",[],8,,,,,,,,,,,,,,
harvest,189,563431,0.0-58.0-4.0,"""event"",""trial"",""time""
""fullscreenenter"",""1"",""2675""
","
","
","""event"",""trial"",""time""
""fullscreenenter"",""1"",""2675""
","
",,null,run_exp/static/images/task_images/gems/102.jpg,null,,,,,,,86,,,8,,,,,102,0.840257364,0.843137255,,,,,,,
decision,190,563782,0.0-58.0-5.0,"""event"",""trial"",""time""
""fullscreenenter"",""1"",""2675""
","
","
","""event"",""trial"",""time""
""fullscreenenter"",""1"",""2675""
","
",,349.3,run_exp/static/images/task_images/land.jpg,65,,,,,,,86,,,8,,,,,,,,250762,1,0,FALSE,,,
dig,191,566434,0.0-59.0-0.0,"""event"",""trial"",""time""
""fullscreenenter"",""1"",""2675""
","
","
","""event"",""trial"",""time""
""fullscreenenter"",""1"",""2675""
","
",,,,,,,,,,,,"[{""stimulus"":""run_exp/static/images/task_images/dig.jpg"",""time"":0.09999990463256836},{""stimulus"":""run_exp/static/images/task_images/land.jpg"",""time"":893.5999999046326},{""stimulus"":""run_exp/static/images/task_images/dig.jpg"",""time"":1773.5}]",[],8,,,,,,,,,,,,,,
harvest,192,567437,0.0-59.0-1.0,"""event"",""trial"",""time""
""fullscreenenter"",""1"",""2675""
","
","
","""event"",""trial"",""time""
""fullscreenenter"",""1"",""2675""
","
",,null,run_exp/static/images/task_images/gems/86.jpg,null,,,,,,,70,,,8,,,,,86,0.813953224,0.813953488,,,,,,,
decision,193,567732,0.0-59.0-2.0,"""event"",""trial"",""time""
""fullscreenenter"",""1"",""2675""
","
","
","""event"",""trial"",""time""
""fullscreenenter"",""1"",""2675""
","
",,293.5,run_exp/static/images/task_images/land.jpg,65,,,,,,,70,,,8,,,,,,,,254712,1,1,FALSE,,,
dig,194,570456,0.0-60.0-0.0,"""event"",""trial"",""time""
""fullscreenenter"",""1"",""2675""
","
","
","""event"",""trial"",""time""
""fullscreenenter"",""1"",""2675""
","
",,,,,,,,,,,,"[{""stimulus"":""run_exp/static/images/task_images/dig.jpg"",""time"":0.09999990463256836},{""stimulus"":""run_exp/static/images/task_images/land.jpg"",""time"":906.5},{""stimulus"":""run_exp/static/images/task_images/dig.jpg"",""time"":1805.2000000476837}]",[],8,,,,,,,,,,,,,,
harvest,195,571457,0.0-60.0-1.0,"""event"",""trial"",""time""
""fullscreenenter"",""1"",""2675""
","
","
","""event"",""trial"",""time""
""fullscreenenter"",""1"",""2675""
","
",,null,run_exp/static/images/task_images/gems/70.jpg,null,,,,,,,56,,,8,,,,,70,0.800567407,0.8,,,,,,,
decision,196,571734,0.0-60.0-2.0,"""event"",""trial"",""time""
""fullscreenenter"",""1"",""2675""
","
","
","""event"",""trial"",""time""
""fullscreenenter"",""1"",""2675""
","
",,275.5,run_exp/static/images/task_images/land.jpg,65,,,,,,,56,,,8,,,,,,,,258714,1,2,FALSE,,,
dig,197,574462,0.0-61.0-0.0,"""event"",""trial"",""time""
""fullscreenenter"",""1"",""2675""
","
","
","""event"",""trial"",""time""
""fullscreenenter"",""1"",""2675""
","
",,,,,,,,,,,,"[{""stimulus"":""run_exp/static/images/task_images/dig.jpg"",""time"":0.10000014305114746},{""stimulus"":""run_exp/static/images/task_images/land.jpg"",""time"":910.7000000476837},{""stimulus"":""run_exp/static/images/task_images/dig.jpg"",""time"":1819.2000000476837}]",[],8,,,,,,,,,,,,,,
harvest,198,575465,0.0-61.0-1.0,"""event"",""trial"",""time""
""fullscreenenter"",""1"",""2675""
","
","
","""event"",""trial"",""time""
""fullscreenenter"",""1"",""2675""
","
",,null,run_exp/static/images/task_images/gems/56.jpg,null,,,,,,,41,,,8,,,,,56,0.736000826,0.732142857,,,,,,,
decision,199,575727,0.0-61.0-2.0,"""event"",""trial"",""time""
""fullscreenenter"",""1"",""2675""
","
","
","""event"",""trial"",""time""
""fullscreenenter"",""1"",""2675""
","
",,260.8000002,run_exp/static/images/task_images/land.jpg,65,,,,,,,41,,,8,,,,,,,,262707,1,3,FALSE,,,
dig,200,578482,0.0-62.0-0.0,"""event"",""trial"",""time""
""fullscreenenter"",""1"",""2675""
","
","
","""event"",""trial"",""time""
""fullscreenenter"",""1"",""2675""
","
",,,,,,,,,,,,"[{""stimulus"":""run_exp/static/images/task_images/dig.jpg"",""time"":0.09999990463256836},{""stimulus"":""run_exp/static/images/task_images/land.jpg"",""time"":915.7999999523163},{""stimulus"":""run_exp/static/images/task_images/dig.jpg"",""time"":1831.8999998569489}]",[],8,,,,,,,,,,,,,,
harvest,201,579484,0.0-62.0-1.0,"""event"",""trial"",""time""
""fullscreenenter"",""1"",""2675""
","
","
","""event"",""trial"",""time""
""fullscreenenter"",""1"",""2675""
","
",,null,run_exp/static/images/task_images/gems/41.jpg,null,,,,,,,33,,,8,,,,,41,0.803673895,0.804878049,,,,,,,
decision,202,579765,0.0-62.0-2.0,"""event"",""trial"",""time""
""fullscreenenter"",""1"",""2675""
","
","
","""event"",""trial"",""time""
""fullscreenenter"",""1"",""2675""
","
",,280,run_exp/static/images/task_images/land.jpg,65,,,,,,,33,,,8,,,,,,,,266745,1,4,FALSE,,,
dig,203,582486,0.0-63.0-0.0,"""event"",""trial"",""time""
""fullscreenenter"",""1"",""2675""
","
","
","""event"",""trial"",""time""
""fullscreenenter"",""1"",""2675""
","
",,,,,,,,,,,,"[{""stimulus"":""run_exp/static/images/task_images/dig.jpg"",""time"":0.10000014305114746},{""stimulus"":""run_exp/static/images/task_images/land.jpg"",""time"":908.1000001430511},{""stimulus"":""run_exp/static/images/task_images/dig.jpg"",""time"":1816.5}]",[],8,,,,,,,,,,,,,,
harvest,204,583490,0.0-63.0-1.0,"""event"",""trial"",""time""
""fullscreenenter"",""1"",""2675""
","
","
","""event"",""trial"",""time""
""fullscreenenter"",""1"",""2675""
","
",,null,run_exp/static/images/task_images/gems/33.jpg,null,,,,,,,26,,,8,,,,,33,0.794167496,0.787878788,,,,,,,
decision,205,583753,0.0-63.0-2.0,"""event"",""trial"",""time""
""fullscreenenter"",""1"",""2675""
","
","
","""event"",""trial"",""time""
""fullscreenenter"",""1"",""2675""
","
",,262.2,run_exp/static/images/task_images/land.jpg,65,,,,,,,26,,,8,,,,,,,,270733,1,5,FALSE,,,
dig,206,586495,0.0-64.0-0.0,"""event"",""trial"",""time""
""fullscreenenter"",""1"",""2675""
","
","
","""event"",""trial"",""time""
""fullscreenenter"",""1"",""2675""
","
",,,,,,,,,,,,"[{""stimulus"":""run_exp/static/images/task_images/dig.jpg"",""time"":0.10000014305114746},{""stimulus"":""run_exp/static/images/task_images/land.jpg"",""time"":913.7999999523163},{""stimulus"":""run_exp/static/images/task_images/dig.jpg"",""time"":1828.7000000476837}]",[],8,,,,,,,,,,,,,,
harvest,207,587498,0.0-64.0-1.0,"""event"",""trial"",""time""
""fullscreenenter"",""1"",""2675""
","
","
","""event"",""trial"",""time""
""fullscreenenter"",""1"",""2675""
","
",,null,run_exp/static/images/task_images/gems/26.jpg,null,,,,,,,20,,,8,,,,,26,0.7818986,0.769230769,,,,,,,
decision,208,587806,0.0-64.0-2.0,"""event"",""trial"",""time""
""fullscreenenter"",""1"",""2675""
","
","
","""event"",""trial"",""time""
""fullscreenenter"",""1"",""2675""
","
",,307,run_exp/static/images/task_images/land.jpg,65,,,,,,,20,,,8,,,,,,,,274786,1,6,FALSE,,,
dig,209,590502,0.0-65.0-0.0,"""event"",""trial"",""time""
""fullscreenenter"",""1"",""2675""
","
","
","""event"",""trial"",""time""
""fullscreenenter"",""1"",""2675""
","
",,,,,,,,,,,,"[{""stimulus"":""run_exp/static/images/task_images/dig.jpg"",""time"":0.10000014305114746},{""stimulus"":""run_exp/static/images/task_images/land.jpg"",""time"":899.9000000953674},{""stimulus"":""run_exp/static/images/task_images/dig.jpg"",""time"":1797}]",[],8,,,,,,,,,,,,,,
harvest,210,591504,0.0-65.0-1.0,"""event"",""trial"",""time""
""fullscreenenter"",""1"",""2675""
","
","
","""event"",""trial"",""time""
""fullscreenenter"",""1"",""2675""
","
",,null,run_exp/static/images/task_images/gems/20.jpg,null,,,,,,,18,,,8,,,,,20,0.880014781,0.9,,,,,,,
decision,211,591789,0.0-65.0-2.0,"""event"",""trial"",""time""
""fullscreenenter"",""1"",""2675""
","
","
","""event"",""trial"",""time""
""fullscreenenter"",""1"",""2675""
","
",,283.5999999,run_exp/static/images/task_images/land.jpg,76,,,,,,,18,,,8,,,,,,,,278769,1,7,TRUE,,,
travel,212,601504,0.0-66.0-0.0,"""event"",""trial"",""time""
""fullscreenenter"",""1"",""2675""
","
","
","""event"",""trial"",""time""
""fullscreenenter"",""1"",""2675""
","
",,,,,,,,,,,,"[{""stimulus"":""run_exp/static/images/task_images/rocket-01.jpg"",""time"":0.09999990463256836},{""stimulus"":""run_exp/static/images/task_images/rocket-02.jpg"",""time"":1083.0999999046326},{""stimulus"":""run_exp/static/images/task_images/rocket-03.jpg"",""time"":2162},{""stimulus"":""run_exp/static/images/task_images/rocket-04.jpg"",""time"":3239.7999999523163},{""stimulus"":""run_exp/static/images/task_images/rocket-05.jpg"",""time"":4327},{""stimulus"":""run_exp/static/images/task_images/rocket-06.jpg"",""time"":5396.799999952316},{""stimulus"":""run_exp/static/images/task_images/rocket-07.jpg"",""time"":6477},{""stimulus"":""run_exp/static/images/task_images/rocket-08.jpg"",""time"":7562.899999856949},{""stimulus"":""run_exp/static/images/task_images/rocket-09.jpg"",""time"":8636.799999952316}]",[],8,,,,,,,,,,,,,,
alien_welcome,213,606508,0.0-66.0-1.0,"""event"",""trial"",""time""
""fullscreenenter"",""1"",""2675""
","
","
","""event"",""trial"",""time""
""fullscreenenter"",""1"",""2675""
","
",,null,run_exp/static/images/task_images/aliens/old_aliens/planet/alien_planet-54.jpg,null,,,,,,,,,,,,,54,"73,47,18,25,3,52,76,75,54,26,63,32,64,7,77,6,34,28,8,22,17,78,70,39,41,40,56,35,20,44,58,51,30,11,53,43,14,5,61,4,10",,,,,,,,,,
land,214,607012,0.0-66.0-2.0,"""event"",""trial"",""time""
""fullscreenenter"",""1"",""2675""
","
","
","""event"",""trial"",""time""
""fullscreenenter"",""1"",""2675""
","
",,null,run_exp/static/images/task_images/land.jpg,null,,,,,,,101,,,9,,,,,,,,,,,,,,
dig,215,609018,0.0-66.0-3.0,"""event"",""trial"",""time""
""fullscreenenter"",""1"",""2675""
","
","
","""event"",""trial"",""time""
""fullscreenenter"",""1"",""2675""
","
",,,,,,,,,,,,"[{""stimulus"":""run_exp/static/images/task_images/dig.jpg"",""time"":0.19999980926513672},{""stimulus"":""run_exp/static/images/task_images/land.jpg"",""time"":669.2999999523163},{""stimulus"":""run_exp/static/images/task_images/dig.jpg"",""time"":1337}]",[],9,,,,,,,,,,,,,,
harvest,216,610021,0.0-66.0-4.0,"""event"",""trial"",""time""
""fullscreenenter"",""1"",""2675""
","
","
","""event"",""trial"",""time""
""fullscreenenter"",""1"",""2675""
","
",,null,run_exp/static/images/task_images/gems/101.jpg,null,,,,,,,21,,,9,,,,,101,0.207361173,0.207920792,,,,,,,
decision,217,610329,0.0-66.0-5.0,"""event"",""trial"",""time""
""fullscreenenter"",""1"",""2675""
","
","
","""event"",""trial"",""time""
""fullscreenenter"",""1"",""2675""
","
",,307.3,run_exp/static/images/task_images/land.jpg,65,,,,,,,21,,,9,,,,,,,,297309,1,0,FALSE,,,
dig,218,613028,0.0-67.0-0.0,"""event"",""trial"",""time""
""fullscreenenter"",""1"",""2675""
","
","
","""event"",""trial"",""time""
""fullscreenenter"",""1"",""2675""
","
",,,,,,,,,,,,"[{""stimulus"":""run_exp/static/images/task_images/dig.jpg"",""time"":0.10000014305114746},{""stimulus"":""run_exp/static/images/task_images/land.jpg"",""time"":900.9000000953674},{""stimulus"":""run_exp/static/images/task_images/dig.jpg"",""time"":1797.3000001907349}]",[],9,,,,,,,,,,,,,,
harvest,219,614031,0.0-67.0-1.0,"""event"",""trial"",""time""
""fullscreenenter"",""1"",""2675""
","
","
","""event"",""trial"",""time""
""fullscreenenter"",""1"",""2675""
","
",,null,run_exp/static/images/task_images/gems/21.jpg,null,,,,,,,5,,,9,,,,,21,0.251366321,0.238095238,,,,,,,
decision,220,614283,0.0-67.0-2.0,"""event"",""trial"",""time""
""fullscreenenter"",""1"",""2675""
","
","
","""event"",""trial"",""time""
""fullscreenenter"",""1"",""2675""
","
",,251.3,run_exp/static/images/task_images/land.jpg,76,,,,,,,5,,,9,,,,,,,,301263,1,1,TRUE,,,
end_of_block_continue,221,623175,0.0-68.0-0.0,"""event"",""trial"",""time""
""fullscreenenter"",""1"",""2675""
","
","
","""event"",""trial"",""time""
""fullscreenenter"",""1"",""2675""
","
",,null,run_exp/static/audio/clip_32_block_end.m4a,,,,,,,null,,,,,,,,,,,,,,,,,,
alien_welcome,222,628179,0.0-69.0-0.0,"""event"",""trial"",""time""
""fullscreenenter"",""1"",""2675""
","
","
","""event"",""trial"",""time""
""fullscreenenter"",""1"",""2675""
","
",,null,run_exp/static/images/task_images/aliens/old_aliens/planet/alien_planet-26.jpg,null,,,,,,,,,,,,,26,"73,47,18,25,3,52,76,75,54,26,63,32,64,7,77,6,34,28,8,22,17,78,70,39,41,40,56,35,20,44,58,51,30,11,53,43,14,5,61,4,10",,,,,,,,,,
land,223,628683,0.0-69.0-1.0,"""event"",""trial"",""time""
""fullscreenenter"",""1"",""2675""
","
","
","""event"",""trial"",""time""
""fullscreenenter"",""1"",""2675""
","
",,null,run_exp/static/images/task_images/land.jpg,null,,,,,,,100,,,10,,,,,,,,,,,,,,
dig,224,630691,0.0-69.0-2.0,"""event"",""trial"",""time""
""fullscreenenter"",""1"",""2675""
","
","
","""event"",""trial"",""time""
""fullscreenenter"",""1"",""2675""
","
",,,,,,,,,,,,"[{""stimulus"":""run_exp/static/images/task_images/dig.jpg"",""time"":0.09999990463256836},{""stimulus"":""run_exp/static/images/task_images/land.jpg"",""time"":669.2000000476837},{""stimulus"":""run_exp/static/images/task_images/dig.jpg"",""time"":1336.2000000476837}]",[],10,,,,,,,,,,,,,,
harvest,225,631694,0.0-69.0-3.0,"""event"",""trial"",""time""
""fullscreenenter"",""1"",""2675""
","
","
","""event"",""trial"",""time""
""fullscreenenter"",""1"",""2675""
","
",,null,run_exp/static/images/task_images/gems/100.jpg,null,,,,,,,26,,,10,,,,,100,0.256036607,0.26,,,,,,,
decision,226,631937,0.0-69.0-4.0,"""event"",""trial"",""time""
""fullscreenenter"",""1"",""2675""
","
","
","""event"",""trial"",""time""
""fullscreenenter"",""1"",""2675""
","
",,242.3,run_exp/static/images/task_images/land.jpg,65,,,,,,,26,,,10,,,,,,,,8760,2,0,FALSE,,,
dig,227,634697,0.0-70.0-0.0,"""event"",""trial"",""time""
""fullscreenenter"",""1"",""2675""
","
","
","""event"",""trial"",""time""
""fullscreenenter"",""1"",""2675""
","
",,,,,,,,,,,,"[{""stimulus"":""run_exp/static/images/task_images/dig.jpg"",""time"":0.09999990463256836},{""stimulus"":""run_exp/static/images/task_images/land.jpg"",""time"":920.5999999046326},{""stimulus"":""run_exp/static/images/task_images/dig.jpg"",""time"":1841.3999998569489}]",[],10,,,,,,,,,,,,,,
harvest,228,635700,0.0-70.0-1.0,"""event"",""trial"",""time""
""fullscreenenter"",""1"",""2675""
","
","
","""event"",""trial"",""time""
""fullscreenenter"",""1"",""2675""
","
",,null,run_exp/static/images/task_images/gems/26.jpg,null,,,,,,,6,,,10,,,,,26,0.227817236,0.230769231,,,,,,,
decision,229,635816,0.0-70.0-2.0,"""event"",""trial"",""time""
""fullscreenenter"",""1"",""2675""
","
","
","""event"",""trial"",""time""
""fullscreenenter"",""1"",""2675""
","
",,114.2,run_exp/static/images/task_images/land.jpg,76,,,,,,,6,,,10,,,,,,,,12639,2,1,TRUE,,,
travel,230,645709,0.0-71.0-0.0,"""event"",""trial"",""time""
""fullscreenenter"",""1"",""2675""
","
","
","""event"",""trial"",""time""
""fullscreenenter"",""1"",""2675""
","
",,,,,,,,,,,,"[{""stimulus"":""run_exp/static/images/task_images/rocket-01.jpg"",""time"":0.10000014305114746},{""stimulus"":""run_exp/static/images/task_images/rocket-02.jpg"",""time"":1100.2000000476837},{""stimulus"":""run_exp/static/images/task_images/rocket-03.jpg"",""time"":2198.4000000953674},{""stimulus"":""run_exp/static/images/task_images/rocket-04.jpg"",""time"":3298},{""stimulus"":""run_exp/static/images/task_images/rocket-05.jpg"",""time"":4396.400000095367},{""stimulus"":""run_exp/static/images/task_images/rocket-06.jpg"",""time"":5493.700000047684},{""stimulus"":""run_exp/static/images/task_images/rocket-07.jpg"",""time"":6599.900000095367},{""stimulus"":""run_exp/static/images/task_images/rocket-08.jpg"",""time"":7690.300000190735},{""stimulus"":""run_exp/static/images/task_images/rocket-09.jpg"",""time"":8786.300000190735}]",[],10,,,,,,,,,,,,,,
alien_welcome,231,650711,0.0-71.0-1.0,"""event"",""trial"",""time""
""fullscreenenter"",""1"",""2675""
","
","
","""event"",""trial"",""time""
""fullscreenenter"",""1"",""2675""
","
",,null,run_exp/static/images/task_images/aliens/old_aliens/planet/alien_planet-63.jpg,null,,,,,,,,,,,,,63,"73,47,18,25,3,52,76,75,54,26,63,32,64,7,77,6,34,28,8,22,17,78,70,39,41,40,56,35,20,44,58,51,30,11,53,43,14,5,61,4,10",,,,,,,,,,
land,232,651219,0.0-71.0-2.0,"""event"",""trial"",""time""
""fullscreenenter"",""1"",""2675""
","
","
","""event"",""trial"",""time""
""fullscreenenter"",""1"",""2675""
","
",,null,run_exp/static/images/task_images/land.jpg,null,,,,,,,97,,,11,,,,,,,,,,,,,,
dig,233,653223,0.0-71.0-3.0,"""event"",""trial"",""time""
""fullscreenenter"",""1"",""2675""
","
","
","""event"",""trial"",""time""
""fullscreenenter"",""1"",""2675""
","
",,,,,,,,,,,,"[{""stimulus"":""run_exp/static/images/task_images/dig.jpg"",""time"":0.20000004768371582},{""stimulus"":""run_exp/static/images/task_images/land.jpg"",""time"":671},{""stimulus"":""run_exp/static/images/task_images/dig.jpg"",""time"":1337.7000000476837}]",[],11,,,,,,,,,,,,,,
harvest,234,654227,0.0-71.0-4.0,"""event"",""trial"",""time""
""fullscreenenter"",""1"",""2675""
","
","
","""event"",""trial"",""time""
""fullscreenenter"",""1"",""2675""
","
",,null,run_exp/static/images/task_images/gems/97.jpg,null,,,,,,,25,,,11,,,,,97,0.256120347,0.257731959,,,,,,,
decision,235,654479,0.0-71.0-5.0,"""event"",""trial"",""time""
""fullscreenenter"",""1"",""2675""
","
","
","""event"",""trial"",""time""
""fullscreenenter"",""1"",""2675""
","
",,251.3,run_exp/static/images/task_images/land.jpg,65,,,,,,,25,,,11,,,,,,,,31303,2,0,FALSE,,,
dig,236,657231,0.0-72.0-0.0,"""event"",""trial"",""time""
""fullscreenenter"",""1"",""2675""
","
","
","""event"",""trial"",""time""
""fullscreenenter"",""1"",""2675""
","
",,,,,,,,,,,,"[{""stimulus"":""run_exp/static/images/task_images/dig.jpg"",""time"":0.20000004768371582},{""stimulus"":""run_exp/static/images/task_images/land.jpg"",""time"":919.5999999046326},{""stimulus"":""run_exp/static/images/task_images/dig.jpg"",""time"":1835.7000000476837}]",[],11,,,,,,,,,,,,,,
harvest,237,658234,0.0-72.0-1.0,"""event"",""trial"",""time""
""fullscreenenter"",""1"",""2675""
","
","
","""event"",""trial"",""time""
""fullscreenenter"",""1"",""2675""
","
",,null,run_exp/static/images/task_images/gems/25.jpg,null,,,,,,,7,,,11,,,,,25,0.273944706,0.28,,,,,,,
decision,238,658537,0.0-72.0-2.0,"""event"",""trial"",""time""
""fullscreenenter"",""1"",""2675""
","
","
","""event"",""trial"",""time""
""fullscreenenter"",""1"",""2675""
","
",,302.2,run_exp/static/images/task_images/land.jpg,76,,,,,,,7,,,11,,,,,,,,35360,2,1,TRUE,,,
travel,239,668233,0.0-73.0-0.0,"""event"",""trial"",""time""
""fullscreenenter"",""1"",""2675""
","
","
","""event"",""trial"",""time""
""fullscreenenter"",""1"",""2675""
","
",,,,,,,,,,,,"[{""stimulus"":""run_exp/static/images/task_images/rocket-01.jpg"",""time"":0.10000014305114746},{""stimulus"":""run_exp/static/images/task_images/rocket-02.jpg"",""time"":1079},{""stimulus"":""run_exp/static/images/task_images/rocket-03.jpg"",""time"":2158.5},{""stimulus"":""run_exp/static/images/task_images/rocket-04.jpg"",""time"":3234.7000000476837},{""stimulus"":""run_exp/static/images/task_images/rocket-05.jpg"",""time"":4313},{""stimulus"":""run_exp/static/images/task_images/rocket-06.jpg"",""time"":5389.299999952316},{""stimulus"":""run_exp/static/images/task_images/rocket-07.jpg"",""time"":6465.100000143051},{""stimulus"":""run_exp/static/images/task_images/rocket-08.jpg"",""time"":7542.600000143051},{""stimulus"":""run_exp/static/images/task_images/rocket-09.jpg"",""time"":8620.299999952316}]",[],11,,,,,,,,,,,,,,
alien_welcome,240,673237,0.0-73.0-1.0,"""event"",""trial"",""time""
""fullscreenenter"",""1"",""2675""
","
","
","""event"",""trial"",""time""
""fullscreenenter"",""1"",""2675""
","
",,null,run_exp/static/images/task_images/aliens/old_aliens/planet/alien_planet-32.jpg,null,,,,,,,,,,,,,32,"73,47,18,25,3,52,76,75,54,26,63,32,64,7,77,6,34,28,8,22,17,78,70,39,41,40,56,35,20,44,58,51,30,11,53,43,14,5,61,4,10",,,,,,,,,,
land,241,673741,0.0-73.0-2.0,"""event"",""trial"",""time""
""fullscreenenter"",""1"",""2675""
","
","
","""event"",""trial"",""time""
""fullscreenenter"",""1"",""2675""
","
",,null,run_exp/static/images/task_images/land.jpg,null,,,,,,,107,,,12,,,,,,,,,,,,,,
dig,242,675752,0.0-73.0-3.0,"""event"",""trial"",""time""
""fullscreenenter"",""1"",""2675""
","
","
","""event"",""trial"",""time""
""fullscreenenter"",""1"",""2675""
","
",,,,,,,,,,,,"[{""stimulus"":""run_exp/static/images/task_images/dig.jpg"",""time"":0.20000004768371582},{""stimulus"":""run_exp/static/images/task_images/land.jpg"",""time"":671.4000000953674},{""stimulus"":""run_exp/static/images/task_images/dig.jpg"",""time"":1336.1000001430511}]",[],12,,,,,,,,,,,,,,
harvest,243,676758,0.0-73.0-4.0,"""event"",""trial"",""time""
""fullscreenenter"",""1"",""2675""
","
","
","""event"",""trial"",""time""
""fullscreenenter"",""1"",""2675""
","
",,null,run_exp/static/images/task_images/gems/107.jpg,null,,,,,,,35,,,12,,,,,107,0.328420143,0.327102804,,,,,,,
decision,244,677053,0.0-73.0-5.0,"""event"",""trial"",""time""
""fullscreenenter"",""1"",""2675""
","
","
","""event"",""trial"",""time""
""fullscreenenter"",""1"",""2675""
","
",,294.8999999,run_exp/static/images/task_images/land.jpg,65,,,,,,,35,,,12,,,,,,,,53876,2,0,FALSE,,,
dig,245,679763,0.0-74.0-0.0,"""event"",""trial"",""time""
""fullscreenenter"",""1"",""2675""
","
","
","""event"",""trial"",""time""
""fullscreenenter"",""1"",""2675""
","
",,,,,,,,,,,,"[{""stimulus"":""run_exp/static/images/task_images/dig.jpg"",""time"":0.10000014305114746},{""stimulus"":""run_exp/static/images/task_images/land.jpg"",""time"":904.7000000476837},{""stimulus"":""run_exp/static/images/task_images/dig.jpg"",""time"":1805.2000000476837}]",[],12,,,,,,,,,,,,,,
harvest,246,680766,0.0-74.0-1.0,"""event"",""trial"",""time""
""fullscreenenter"",""1"",""2675""
","
","
","""event"",""trial"",""time""
""fullscreenenter"",""1"",""2675""
","
