trial_type,trial_index,time_elapsed,internal_node_id,interactions,blur_events,focus_events,fullscreenenter_events,fullscreenexit_events,success,rt,stimulus,key_press,prompt,subject_id,participant_id,age,gender,button_pressed,next_reward,animation_sequence,responses,planet,curr_prac_trial,n_prac_rounds,alien,aliens,reward_received,decay_rate_actual,decay_rate_exp,time_in_block,block_num,prt,last_trial_on_planet,button_html,bonus,num_failures
pavlovia,0,2,0.0-0.0,"""event"",""trial"",""time""
""fullscreenenter"",""1"",""2247""
","
","
","""event"",""trial"",""time""
""fullscreenenter"",""1"",""2247""
","
",,,,,,,,,,,,,,,,,,,,,,,,,,,,
fullscreen,1,3249,0.0-1.0,"""event"",""trial"",""time""
""fullscreenenter"",""1"",""2247""
","
","
","""event"",""trial"",""time""
""fullscreenenter"",""1"",""2247""
","
",TRUE,,,,,,,,,,,,,,,,,,,,,,,,,,,
instruc_welcome,2,13429,0.0-2.0,"""event"",""trial"",""time""
""fullscreenenter"",""1"",""2247""
","
","
","""event"",""trial"",""time""
""fullscreenenter"",""1"",""2247""
","
",,null,run_exp/static/audio/clip_1_welcome.m4a,null,"<p>Howdy! In this experiment, you’ll be an explorer traveling through space to collect space treasure.</p><p>Your mission is to collect as much treasure as possible.</p><br><br><p><img src='run_exp/static/images/task_images/opening_img-01.jpg' height='300' width='auto'></p>",8284,261,21.62,Female,,,,,,,,,,,,,,,,,,,
audio-keyboard-response,3,30198,0.0-3.0,"""event"",""trial"",""time""
""fullscreenenter"",""1"",""2247""
","
","
","""event"",""trial"",""time""
""fullscreenenter"",""1"",""2247""
","
",,null,run_exp/static/audio/clip_2_move.m4a,null,,,,,,,,,,,,,,,,,,,,,,,,
welcome_dec,4,31743,0.0-4.0,"""event"",""trial"",""time""
""fullscreenenter"",""1"",""2247""
","
","
","""event"",""trial"",""time""
""fullscreenenter"",""1"",""2247""
","
",,1541.1,"<p>Howdy! In this experiment, you’ll be an explorer traveling through space to collect space treasure.</p><p>Your mission is to collect as much treasure as possible.</p><br><br><p><img src='run_exp/static/images/task_images/opening_img-01.jpg' height='300' width='auto'></p>",,,,,,,1,,,,,,,,,,,,,,,,,,
html-keyboard-response,5,32558,0.0-5.0,"""event"",""trial"",""time""
""fullscreenenter"",""1"",""2247""
","
","
","""event"",""trial"",""time""
""fullscreenenter"",""1"",""2247""
","
",,813,"<p>Howdy! In this experiment, you’ll be an explorer traveling through space to collect space treasure.</p><p>Your mission is to collect as much treasure as possible.</p><br><br><p><img src='run_exp/static/images/task_images/opening_img-01.jpg' height='300' width='auto'></p><button class=""jspsych-html-btn-unchosen""><img src=""run_exp/static/images/task_images/planet-01.jpg"" height=""50""></button><button class=""jspsych-html-btn-chosen""><img src=""run_exp/static/images/task_images/planet-02.jpg"" height=""50""></button><p><b>[press the space bar to lock in your answer]<b><br></p>",32,,,,,,,,,,,,,,,,,,,,,,,,
instruc_goal,6,42788,0.0-6.0-0.0,"""event"",""trial"",""time""
""fullscreenenter"",""1"",""2247""
","
","
","""event"",""trial"",""time""
""fullscreenenter"",""1"",""2247""
","
",,null,run_exp/static/audio/clip_3_goal.m4a,null,"<p> As a space explorer, you’ll visit different planets to dig for space treasure, these pink gems.</p> <p> The more treasure you dig up, the more bonus money you’ll win! </p><br><br><p><img src='run_exp/static/images/task_images/pink_gem.jpg' height='300' width='auto'></p>",,,,,,,,,,,,,,,,,,,,,,,
instruc_goal,7,44261,0.0-6.0-1.0,"""event"",""trial"",""time""
""fullscreenenter"",""1"",""2247""
","
","
","""event"",""trial"",""time""
""fullscreenenter"",""1"",""2247""
","
",,1471.2,"<p> As a space explorer, you’ll visit different planets to dig for space treasure, these pink gems.</p> <p> The more treasure you dig up, the more bonus money you’ll win! </p><br><br><p><img src='run_exp/static/images/task_images/pink_gem.jpg' height='300' width='auto'></p>",,,,,,,1,,,,,,,,,,,,,,,,,,
html-keyboard-response,8,44663,0.0-6.0-2.0,"""event"",""trial"",""time""
""fullscreenenter"",""1"",""2247""
","
","
","""event"",""trial"",""time""
""fullscreenenter"",""1"",""2247""
","
",,400.5,"<p> As a space explorer, you’ll visit different planets to dig for space treasure, these pink gems.</p> <p> The more treasure you dig up, the more bonus money you’ll win! </p><br><br><p><img src='run_exp/static/images/task_images/pink_gem.jpg' height='300' width='auto'></p><button class=""jspsych-html-btn-unchosen""><img src=""run_exp/static/images/task_images/planet-01.jpg"" height=""50""></button><button class=""jspsych-html-btn-chosen""><img src=""run_exp/static/images/task_images/planet-02.jpg"" height=""50""></button><p><b>[press the space bar to lock in your answer]<b><br></p>",32,,,,,,,,,,,,,,,,,,,,,,,,
instruc_dig,9,60838,0.0-7.0-0.0,"""event"",""trial"",""time""
""fullscreenenter"",""1"",""2247""
","
","
","""event"",""trial"",""time""
""fullscreenenter"",""1"",""2247""
","
",,null,run_exp/static/audio/clip_4_dig.m4a,null,,,,,,,100,,,,,,,,,,,,,,,,,
instruc_dig_try,10,61844,0.0-7.0-1.0,"""event"",""trial"",""time""
""fullscreenenter"",""1"",""2247""
","
","
","""event"",""trial"",""time""
""fullscreenenter"",""1"",""2247""
","
",,1004.6,"<p> When you’ve arrived at a new planet, you will dig once. </p> <p>Then, you get to decide if you want to stay on the planet and dig again or travel to a new planet and dig there.</p> <p> To stay and dig, press the letter <strong>‘A’</strong> on your keyboard. Try pressing it now! </p><p><img src='run_exp/static/images/task_images/land.jpg'  height='700' width='auto'></p>",65,"<p> When you’ve arrived at a new planet, you will dig once. </p> <p>Then, you get to decide if you want to stay on the planet and dig again or travel to a new planet and dig there.</p> <p> To stay and dig, press the letter <strong>‘A’</strong> on your keyboard. Try pressing it now! </p><p><img src='run_exp/static/images/task_images/land.jpg'  height='700' width='auto'></p>",,,,,,100,,,,,,,,,,,,,,,,,
dig_prac,11,63856,0.0-7.0-2.0,"""event"",""trial"",""time""
""fullscreenenter"",""1"",""2247""
","
","
","""event"",""trial"",""time""
""fullscreenenter"",""1"",""2247""
","
",,,,,,,,,,,,"[{""stimulus"":""run_exp/static/images/task_images/dig.jpg"",""time"":0.2000000011175871},{""stimulus"":""run_exp/static/images/task_images/land.jpg"",""time"":676.2000000011176},{""stimulus"":""run_exp/static/images/task_images/dig.jpg"",""time"":1335.2000000011176}]",[],,,,,,,,,,,,,,,
instruc_travel,12,100277,0.0-7.0-3.0,"""event"",""trial"",""time""
""fullscreenenter"",""1"",""2247""
","
","
","""event"",""trial"",""time""
""fullscreenenter"",""1"",""2247""
","
",,null,run_exp/static/audio/clip_5_travel.m4a,null,"<p>Every time you dig up gems, there are less gems on the planet, so the more you dig on a planet the fewer gems you’ll get with each dig.</p><p>When gems are running low, you may want to travel to a new planet. </p> <p>  Planets are very far apart in this galaxy, so it will take some time to travel between them. </p> <br><p>There are lots and lots of planets for you to visit, so you won’t be able to return to any planets you’ve seen before. </p><br><p>To leave this planet and travel to a new one, press the letter <strong>‘L’</strong> on your keyboard. Try pressing it now! </p><p><img src='run_exp/static/images/task_images/rocket-01.jpg'  height='600' width='auto'></p>",,,,,,,,,,,,,,,,,,,,,,,
instruc_travel_try,13,103098,0.0-7.0-4.0,"""event"",""trial"",""time""
""fullscreenenter"",""1"",""2247""
","
","
","""event"",""trial"",""time""
""fullscreenenter"",""1"",""2247""
","
",,2819.4,"<p>Every time you dig up gems, there are less gems on the planet, so the more you dig on a planet the fewer gems you’ll get with each dig.</p><p>When gems are running low, you may want to travel to a new planet. </p> <p>  Planets are very far apart in this galaxy, so it will take some time to travel between them. </p> <br><p>There are lots and lots of planets for you to visit, so you won’t be able to return to any planets you’ve seen before. </p><br><p>To leave this planet and travel to a new one, press the letter <strong>‘L’</strong> on your keyboard. Try pressing it now! </p><p><img src='run_exp/static/images/task_images/rocket-01.jpg'  height='600' width='auto'></p>",76,"<p>Every time you dig up gems, there are less gems on the planet, so the more you dig on a planet the fewer gems you’ll get with each dig.</p><p>When gems are running low, you may want to travel to a new planet. </p> <p>  Planets are very far apart in this galaxy, so it will take some time to travel between them. </p> <br><p>There are lots and lots of planets for you to visit, so you won’t be able to return to any planets you’ve seen before. </p><br><p>To leave this planet and travel to a new one, press the letter <strong>‘L’</strong> on your keyboard. Try pressing it now! </p><p><img src='run_exp/static/images/task_images/rocket-01.jpg'  height='600' width='auto'></p>",,,,,,,,,,,,,,,,,,,,,,,
travel_prac,14,113110,0.0-7.0-5.0,"""event"",""trial"",""time""
""fullscreenenter"",""1"",""2247""
","
","
","""event"",""trial"",""time""
""fullscreenenter"",""1"",""2247""
","
",,,,,,,,,,,,"[{""stimulus"":""run_exp/static/images/task_images/rocket-01.jpg"",""time"":0.19999999925494194},{""stimulus"":""run_exp/static/images/task_images/rocket-02.jpg"",""time"":1124.5},{""stimulus"":""run_exp/static/images/task_images/rocket-03.jpg"",""time"":2228.199999999255},{""stimulus"":""run_exp/static/images/task_images/rocket-04.jpg"",""time"":3335},{""stimulus"":""run_exp/static/images/task_images/rocket-05.jpg"",""time"":4447.799999998882},{""stimulus"":""run_exp/static/images/task_images/rocket-06.jpg"",""time"":5562.39999999851},{""stimulus"":""run_exp/static/images/task_images/rocket-07.jpg"",""time"":6674.5},{""stimulus"":""run_exp/static/images/task_images/rocket-08.jpg"",""time"":7787.299999998882},{""stimulus"":""run_exp/static/images/task_images/rocket-09.jpg"",""time"":8898.299999998882}]",[],0,,,,,,,,,,,,,,
instruc_alien_greet,15,140476,0.0-7.0-6.0,"""event"",""trial"",""time""
""fullscreenenter"",""1"",""2247""
","
","
","""event"",""trial"",""time""
""fullscreenenter"",""1"",""2247""
","
",,null,run_exp/static/audio/clip_6_alien.m4a,null,"<p>When you arrive at a new planet, the alien who owns the treasure mine on that planet will greet you!</p><p>The better an alien takes care of their mine the easier it is to dig for gems. Some aliens take better care of their mine than others. So, you won’t get exactly the same amount of gems on each planet.</p><p>What the alien looks like does not tell you anything about how many gems there are on the planet.</p><br><p><img src=""run_exp/static/images/task_images/aliens/instructions_aliens/planet/alien_planet-1.jpg""  height=""600"" width=""auto""></p>",,,,,,,,,,,,,,,,,,,,,,,
instruc_alien_greet,16,142447,0.0-7.0-7.0,"""event"",""trial"",""time""
""fullscreenenter"",""1"",""2247""
","
","
","""event"",""trial"",""time""
""fullscreenenter"",""1"",""2247""
","
",,1968.2,"<p>When you arrive at a new planet, the alien who owns the treasure mine on that planet will greet you!</p><p>The better an alien takes care of their mine the easier it is to dig for gems. Some aliens take better care of their mine than others. So, you won’t get exactly the same amount of gems on each planet.</p><p>What the alien looks like does not tell you anything about how many gems there are on the planet.</p><br><p><img src=""run_exp/static/images/task_images/aliens/instructions_aliens/planet/alien_planet-1.jpg""  height=""600"" width=""auto""></p>",,,,,,,1,,,,,,,,,,,,,,,,,,
html-keyboard-response,17,142847,0.0-7.0-8.0,"""event"",""trial"",""time""
""fullscreenenter"",""1"",""2247""
","
","
","""event"",""trial"",""time""
""fullscreenenter"",""1"",""2247""
","
",,399,"<p>When you arrive at a new planet, the alien who owns the treasure mine on that planet will greet you!</p><p>The better an alien takes care of their mine the easier it is to dig for gems. Some aliens take better care of their mine than others. So, you won’t get exactly the same amount of gems on each planet.</p><p>What the alien looks like does not tell you anything about how many gems there are on the planet.</p><br><p><img src=""run_exp/static/images/task_images/aliens/instructions_aliens/planet/alien_planet-1.jpg""  height=""600"" width=""auto""></p><button class=""jspsych-html-btn-unchosen""><img src=""run_exp/static/images/task_images/planet-01.jpg"" height=""50""></button><button class=""jspsych-html-btn-chosen""><img src=""run_exp/static/images/task_images/planet-02.jpg"" height=""50""></button><p><b>[press the space bar to lock in your answer]<b><br></p>",32,,,,,,,,,,,,,,,,,,,,,,,,
time_out,18,154116,0.0-8.0-0.0,"""event"",""trial"",""time""
""fullscreenenter"",""1"",""2247""
","
","
","""event"",""trial"",""time""
""fullscreenenter"",""1"",""2247""
","
",,null,run_exp/static/audio/clip_7_timeout.m4a,null,"<p>If you don't make your choice fast enough, you’ll have to wait a few seconds before you can make another one.</p><p>You can’t dig for more gems or travel to new planets. You just have to sit and wait.</p><br><p><img src='run_exp/static/images/task_images/time_out.jpg'  height='600' width='auto'></p>",,,,,,,,,,,,,,,,,,,,,,,
time_out,19,155634,0.0-8.0-1.0,"""event"",""trial"",""time""
""fullscreenenter"",""1"",""2247""
","
","
","""event"",""trial"",""time""
""fullscreenenter"",""1"",""2247""
","
",,1515.4,"<p>If you don't make your choice fast enough, you’ll have to wait a few seconds before you can make another one.</p><p>You can’t dig for more gems or travel to new planets. You just have to sit and wait.</p><br><p><img src='run_exp/static/images/task_images/time_out.jpg'  height='600' width='auto'></p>",,,,,,,1,,,,,,,,,,,,,,,,,,
html-keyboard-response,20,155968,0.0-8.0-2.0,"""event"",""trial"",""time""
""fullscreenenter"",""1"",""2247""
","
","
","""event"",""trial"",""time""
""fullscreenenter"",""1"",""2247""
","
",,333.3,"<p>If you don't make your choice fast enough, you’ll have to wait a few seconds before you can make another one.</p><p>You can’t dig for more gems or travel to new planets. You just have to sit and wait.</p><br><p><img src='run_exp/static/images/task_images/time_out.jpg'  height='600' width='auto'></p><button class=""jspsych-html-btn-unchosen""><img src=""run_exp/static/images/task_images/planet-01.jpg"" height=""50""></button><button class=""jspsych-html-btn-chosen""><img src=""run_exp/static/images/task_images/planet-02.jpg"" height=""50""></button><p><b>[press the space bar to lock in your answer]<b><br></p>",32,,,,,,,,,,,,,,,,,,,,,,,,
instruc_break,21,171836,0.0-9.0-0.0,"""event"",""trial"",""time""
""fullscreenenter"",""1"",""2247""
","
","
","""event"",""trial"",""time""
""fullscreenenter"",""1"",""2247""
","
",,null,run_exp/static/audio/clip_8_break.m4a,null,"<p> After digging and traveling for a while, you’ll be able to take a break at home base. </p><p>The game will last 20 minutes no matter what.</p><p>You will visit home base every 5 minutes, so, you will visit home base three times during the game.</p><br><p><img src='run_exp/static/images/task_images/home_base.jpg' height='600' width='auto'></p>",,,,,,,,,,,,,,,,,,,,,,,
instruc_break,22,173306,0.0-9.0-1.0,"""event"",""trial"",""time""
""fullscreenenter"",""1"",""2247""
","
","
","""event"",""trial"",""time""
""fullscreenenter"",""1"",""2247""
","
",,1467.7,"<p> After digging and traveling for a while, you’ll be able to take a break at home base. </p><p>The game will last 20 minutes no matter what.</p><p>You will visit home base every 5 minutes, so, you will visit home base three times during the game.</p><br><p><img src='run_exp/static/images/task_images/home_base.jpg' height='600' width='auto'></p>",,,,,,,1,,,,,,,,,,,,,,,,,,
html-keyboard-response,23,173638,0.0-9.0-2.0,"""event"",""trial"",""time""
""fullscreenenter"",""1"",""2247""
","
","
","""event"",""trial"",""time""
""fullscreenenter"",""1"",""2247""
","
",,330.2,"<p> After digging and traveling for a while, you’ll be able to take a break at home base. </p><p>The game will last 20 minutes no matter what.</p><p>You will visit home base every 5 minutes, so, you will visit home base three times during the game.</p><br><p><img src='run_exp/static/images/task_images/home_base.jpg' height='600' width='auto'></p><button class=""jspsych-html-btn-unchosen""><img src=""run_exp/static/images/task_images/planet-01.jpg"" height=""50""></button><button class=""jspsych-html-btn-chosen""><img src=""run_exp/static/images/task_images/planet-02.jpg"" height=""50""></button><p><b>[press the space bar to lock in your answer]<b><br></p>",32,,,,,,,,,,,,,,,,,,,,,,,,
instruc_prac_game,24,183936,0.0-10.0-0.0,"""event"",""trial"",""time""
""fullscreenenter"",""1"",""2247""
","
","
","""event"",""trial"",""time""
""fullscreenenter"",""1"",""2247""
","
",,null,run_exp/static/audio/clip_9_practice.m4a,null,"<p> Are you ready to play a practice game? </p> <p>In this practice game, you'll be digging up barrels of gems. But, in the real game, you'll be digging up the gems themselves. </p>",,,,,,,,,,,,,,,,,,,,,,,
html-button-response,25,185294,0.0-10.0-1.0,"""event"",""trial"",""time""
""fullscreenenter"",""1"",""2247""
","
","
","""event"",""trial"",""time""
""fullscreenenter"",""1"",""2247""
","
",,1356.4,"<p> Are you ready to play a practice game? </p> <p>In this practice game, you'll be digging up barrels of gems. But, in the real game, you'll be digging up the gems themselves. </p>",,,,,,,0,,,,,,,,,,,,,,,,,,
alien_welcome_prac,26,190301,0.0-11.0-0.0,"""event"",""trial"",""time""
""fullscreenenter"",""1"",""2247""
","
","
","""event"",""trial"",""time""
""fullscreenenter"",""1"",""2247""
","
",,null,run_exp/static/images/task_images/aliens/practice_aliens/planet/alien_planet-5.jpg,null,,,,,,,,,,,,,,,,,,,,,,,,
land_prac,27,190814,0.0-11.0-1.0,"""event"",""trial"",""time""
""fullscreenenter"",""1"",""2247""
","
","
","""event"",""trial"",""time""
""fullscreenenter"",""1"",""2247""
","
",,null,run_exp/static/images/task_images/land.jpg,null,,,,,,,100,,,0,,,,,,,,,,,,,,
dig_prac,28,192830,0.0-11.0-2.0,"""event"",""trial"",""time""
""fullscreenenter"",""1"",""2247""
","
","
","""event"",""trial"",""time""
""fullscreenenter"",""1"",""2247""
","
",,,,,,,,,,,,"[{""stimulus"":""run_exp/static/images/task_images/dig.jpg"",""time"":0.4000000022351742},{""stimulus"":""run_exp/static/images/task_images/land.jpg"",""time"":678.3000000007451},{""stimulus"":""run_exp/static/images/task_images/dig.jpg"",""time"":1339.1000000014901}]",[],,,,,,,,,,,,,,,
harvest_prac,29,193835,0.0-11.0-3.0,"""event"",""trial"",""time""
""fullscreenenter"",""1"",""2247""
","
","
","""event"",""trial"",""time""
""fullscreenenter"",""1"",""2247""
","
",,null,run_exp/static/images/task_images/barrel_text.jpg,null,,,,,,,,,,,,,,,,,,,,,,,,
decision_prac,30,196846,0.0-11.0-4.0,"""event"",""trial"",""time""
""fullscreenenter"",""1"",""2247""
","
","
","""event"",""trial"",""time""
""fullscreenenter"",""1"",""2247""
","
",,null,run_exp/static/images/task_images/land.jpg,null,,,,,,,,,,,1,,,,,,,,,,,,,
time_out,31,198862,0.0-12.0-0.0,"""event"",""trial"",""time""
""fullscreenenter"",""1"",""2247""
","
","
","""event"",""trial"",""time""
""fullscreenenter"",""1"",""2247""
","
",,null,run_exp/static/images/task_images/time_out.jpg,null,,,,,,,,,,,,,,,,,,,,,,,,
decision_prac,32,199375,0.0-12.0-1.0,"""event"",""trial"",""time""
""fullscreenenter"",""1"",""2247""
","
","
","""event"",""trial"",""time""
""fullscreenenter"",""1"",""2247""
","
",,510.9,run_exp/static/images/task_images/land.jpg,65,,,,,,,,,,,2,,,,,,,,,,,,,
dig_prac,33,201390,0.0-13.0-0.0,"""event"",""trial"",""time""
""fullscreenenter"",""1"",""2247""
","
","
","""event"",""trial"",""time""
""fullscreenenter"",""1"",""2247""
","
",,,,,,,,,,,,"[{""stimulus"":""run_exp/static/images/task_images/dig.jpg"",""time"":0.10000000149011612},{""stimulus"":""run_exp/static/images/task_images/land.jpg"",""time"":673.4000000022352},{""stimulus"":""run_exp/static/images/task_images/dig.jpg"",""time"":1339.2000000029802}]",[],,,,,,,,,,,,,,,
harvest_prac,34,202398,0.0-13.0-1.0,"""event"",""trial"",""time""
""fullscreenenter"",""1"",""2247""
","
","
","""event"",""trial"",""time""
""fullscreenenter"",""1"",""2247""
","
",,null,run_exp/static/images/task_images/barrel_text.jpg,null,,,,,,,,,,,,,,,,,,,,,,,,
decision_prac,35,203008,0.0-13.0-2.0,"""event"",""trial"",""time""
""fullscreenenter"",""1"",""2247""
","
","
","""event"",""trial"",""time""
""fullscreenenter"",""1"",""2247""
","
",,609.1,run_exp/static/images/task_images/land.jpg,65,,,,,,,,,,,3,,,,,,,,,,,,,
dig_prac,36,205018,0.0-14.0-0.0,"""event"",""trial"",""time""
""fullscreenenter"",""1"",""2247""
","
","
","""event"",""trial"",""time""
""fullscreenenter"",""1"",""2247""
","
",,,,,,,,,,,,"[{""stimulus"":""run_exp/static/images/task_images/dig.jpg"",""time"":0},{""stimulus"":""run_exp/static/images/task_images/land.jpg"",""time"":671.1000000014901},{""stimulus"":""run_exp/static/images/task_images/dig.jpg"",""time"":1344.6000000014901}]",[],,,,,,,,,,,,,,,
harvest_prac,37,206026,0.0-14.0-1.0,"""event"",""trial"",""time""
""fullscreenenter"",""1"",""2247""
","
","
","""event"",""trial"",""time""
""fullscreenenter"",""1"",""2247""
","
",,null,run_exp/static/images/task_images/barrel_text.jpg,null,,,,,,,,,,,,,,,,,,,,,,,,
decision_prac,38,206341,0.0-14.0-2.0,"""event"",""trial"",""time""
""fullscreenenter"",""1"",""2247""
","
","
","""event"",""trial"",""time""
""fullscreenenter"",""1"",""2247""
","
",,313.6,run_exp/static/images/task_images/land.jpg,65,,,,,,,,,,,4,,,,,,,,,,,,,
dig_prac,39,208350,0.0-15.0-0.0,"""event"",""trial"",""time""
""fullscreenenter"",""1"",""2247""
","
","
","""event"",""trial"",""time""
""fullscreenenter"",""1"",""2247""
","
",,,,,,,,,,,,"[{""stimulus"":""run_exp/static/images/task_images/dig.jpg"",""time"":0.19999999925494194},{""stimulus"":""run_exp/static/images/task_images/land.jpg"",""time"":679.1000000014901},{""stimulus"":""run_exp/static/images/task_images/dig.jpg"",""time"":1338.5}]",[],,,,,,,,,,,,,,,
harvest_prac,40,209357,0.0-15.0-1.0,"""event"",""trial"",""time""
""fullscreenenter"",""1"",""2247""
","
","
","""event"",""trial"",""time""
""fullscreenenter"",""1"",""2247""
","
",,null,run_exp/static/images/task_images/barrel_text.jpg,null,,,,,,,,,,,,,,,,,,,,,,,,
decision_prac,41,209641,0.0-15.0-2.0,"""event"",""trial"",""time""
""fullscreenenter"",""1"",""2247""
","
","
","""event"",""trial"",""time""
""fullscreenenter"",""1"",""2247""
","
",,282.5,run_exp/static/images/task_images/land.jpg,65,,,,,,,,,,,,1,,,,,,,,,,,,
quiz_instruc,42,217888,0.0-16.0-0.0,"""event"",""trial"",""time""
""fullscreenenter"",""1"",""2247""
","
","
","""event"",""trial"",""time""
""fullscreenenter"",""1"",""2247""
","
",,8244.4,run_exp/static/audio/clip_10_quiz.m4a,,,,,,,0,,,,,,,,,,,,,,,,,,
instruc_repeat,43,260834,0.0-16.0-1.0,"""event"",""trial"",""time""
""fullscreenenter"",""1"",""2247""
","
","
","""event"",""trial"",""time""
""fullscreenenter"",""1"",""2247""
","
",,null,"<p> Are you ready to play a practice game? </p> <p>In this practice game, you'll be digging up barrels of gems. But, in the real game, you'll be digging up the gems themselves. </p>",null,"<p>In this game, your goal is to collect as many gems as you can. That’s how you will win bonus money. </p> <p>The entire game will last 20 minutes no matter how many gems you collect or how many planets you visit. </p><p>To stay on a planet and dig again, press the letter A on your keyboard. To leave for a new planet, press the letter L.</p><p>The more you dig on a planet, the fewer gems you’ll get with each dig which is why you might consider leaving for a new planet. </p><p>When you arrive at a new planet, you’ll be greeted by an alien. What the alien looks like does not tell you anything about how much treasure is on the planet. </p>",,,,,,,,,,,,,,,,,,,,,,,
instruc_repeat_continue,44,261996,0.0-16.0-2.0,"""event"",""trial"",""time""
""fullscreenenter"",""1"",""2247""
","
","
","""event"",""trial"",""time""
""fullscreenenter"",""1"",""2247""
","
",,1159.8,"<p> Are you ready to play a practice game? </p> <p>In this practice game, you'll be digging up barrels of gems. But, in the real game, you'll be digging up the gems themselves. </p>",,,,,,,0,,,,,,,,,,,,,,,,,,
quiz_q_1_ask,45,264903,0.0-16.0-3.0,"""event"",""trial"",""time""
""fullscreenenter"",""1"",""2247""
","
","
","""event"",""trial"",""time""
""fullscreenenter"",""1"",""2247""
","
",,2905.2,run_exp/static/audio/clip_11_q1_ask.m4a,,,,,,,2,,,,,,,,,,,,,,,,,,
quiz_q_1_fb_correct,46,268924,0.0-17.0-0.0,"""event"",""trial"",""time""
""fullscreenenter"",""1"",""2247""
","
","
","""event"",""trial"",""time""
""fullscreenenter"",""1"",""2247""
","
",,null,run_exp/static/audio/clip_12_q1_correct.m4a,null,<p>That’s correct. You win extra money by collecting more gems.</p>,,,,,,,,,,,,,,,,,,,,,,,
quiz_q_2_ask,47,273476,0.0-17.0-1.0,"""event"",""trial"",""time""
""fullscreenenter"",""1"",""2247""
","
","
","""event"",""trial"",""time""
""fullscreenenter"",""1"",""2247""
","
",,4549.1,run_exp/static/audio/clip_14_q2_ask.m4a,,,,,,,1,,,,,,,,,,,,,,,,,,
quiz_q_2_fb_correct,48,277674,0.0-18.0-0.0,"""event"",""trial"",""time""
""fullscreenenter"",""1"",""2247""
","
","
","""event"",""trial"",""time""
""fullscreenenter"",""1"",""2247""
","
",,null,run_exp/static/audio/clip_15_q2_correct.m4a,null,<p>That’s correct. The experiment is 20 minutes no matter what.</p>,,,,,,,,,,,,,,,,,,,,,,,
quiz_q_3_ask,49,281129,0.0-18.0-1.0,"""event"",""trial"",""time""
""fullscreenenter"",""1"",""2247""
","
","
","""event"",""trial"",""time""
""fullscreenenter"",""1"",""2247""
","
",,3453,run_exp/static/audio/clip_17_q3_ask.m4a,,,,,,,1,,,,,,,,,,,,,,,,,,
quiz_q_3_fb_correct,50,285284,0.0-19.0-0.0,"""event"",""trial"",""time""
""fullscreenenter"",""1"",""2247""
","
","
","""event"",""trial"",""time""
""fullscreenenter"",""1"",""2247""
","
",,null,run_exp/static/audio/clip_18_q3_correct.m4a,null,<p> That’s correct. You press the letter L to travel to a new planet.</p>,,,,,,,,,,,,,,,,,,,,,,,
quiz_q_4_ask,51,289555,0.0-19.0-1.0,"""event"",""trial"",""time""
""fullscreenenter"",""1"",""2247""
","
","
","""event"",""trial"",""time""
""fullscreenenter"",""1"",""2247""
","
",,4268.8,run_exp/static/audio/clip_20_q4_ask.m4a,,,,,,,0,,,,,,,,,,,,,,,,,,
quiz_q_4_fb_correct,52,295034,0.0-20.0-0.0,"""event"",""trial"",""time""
""fullscreenenter"",""1"",""2247""
","
","
","""event"",""trial"",""time""
""fullscreenenter"",""1"",""2247""
","
",,null,run_exp/static/audio/clip_21_q4_correct.m4a,null,<p> That’s correct. The more you dig on a planet the fewer gems you’ll get with each dig. </p>,,,,,,,,,,,,,,,,,,,,,,,
quiz_q_5_ask,53,297488,0.0-20.0-1.0,"""event"",""trial"",""time""
""fullscreenenter"",""1"",""2247""
","
","
","""event"",""trial"",""time""
""fullscreenenter"",""1"",""2247""
","
",,2451.8,run_exp/static/audio/clip_23_q5_ask.m4a,,,,,,,1,,,,,,,,,,,,,,,,,,
quiz_q_5_fb_correct,54,302654,0.0-21.0-0.0,"""event"",""trial"",""time""
""fullscreenenter"",""1"",""2247""
","
","
","""event"",""trial"",""time""
""fullscreenenter"",""1"",""2247""
","
",,null,run_exp/static/audio/clip_24_q5_correct.m4a,null,<p> That’s correct. The alien tells you nothing about how much treasure is on the planet.</p>,,,,,,,,,,,,,,,,,,,,,,,
quiz_correct,55,306274,0.0-22.0-0.0,"""event"",""trial"",""time""
""fullscreenenter"",""1"",""2247""
","
","
","""event"",""trial"",""time""
""fullscreenenter"",""1"",""2247""
","
",,null,run_exp/static/audio/clip_26_correct_quiz.m4a,null,,,,,,,,,,,,,,,,,,,,,,,,
quiz_correct_continue,56,307455,0.0-22.0-1.0,"""event"",""trial"",""time""
""fullscreenenter"",""1"",""2247""
","
","
","""event"",""trial"",""time""
""fullscreenenter"",""1"",""2247""
","
",,1180.3,<p>Good job! You're now ready to move on to the real game!</p>,,,,,,,0,,,,,,,,,,,,,,,,,,
audio-keyboard-response,57,317753,0.0-22.0-2.0,"""event"",""trial"",""time""
""fullscreenenter"",""1"",""2247""
","
","
","""event"",""trial"",""time""
""fullscreenenter"",""1"",""2247""
","
",,null,run_exp/static/audio/clip_28_real_game.m4a,null,,,,,,,,,,,,,,,,,,,,,,,,
instruc_begin_exp_contine,58,318774,0.0-22.0-3.0,"""event"",""trial"",""time""
""fullscreenenter"",""1"",""2247""
","
","
","""event"",""trial"",""time""
""fullscreenenter"",""1"",""2247""
","
",,1019,"<p>Now that you know how  to dig for space treasure and travel to new planets,you can start exploring! </p><p>Do you want to go over the instructions again or get started with the real game?</p>",,,,,,,1,,,,,,1,,,,,,,,,,,,
alien_welcome,59,323785,0.0-23.0-0.0,"""event"",""trial"",""time""
""fullscreenenter"",""1"",""2247""
","
","
","""event"",""trial"",""time""
""fullscreenenter"",""1"",""2247""
","
",,null,run_exp/static/images/task_images/aliens/old_aliens/planet/alien_planet-77.jpg,null,,,,,,,,,,,,,77,"77,58,27,34,47,45,28,4,56,40,53,44,64,79,3,10,21,66,7,19,14,50,22,71,26,25,67,51,68,54,60,30,15,72,69,75,46,31,20,17,35,78,42,2,74,80,65,13,37,11,33,5,52,73,38,63,36",,,,,,,,,,
land,60,324292,0.0-23.0-1.0,"""event"",""trial"",""time""
""fullscreenenter"",""1"",""2247""
","
","
","""event"",""trial"",""time""
""fullscreenenter"",""1"",""2247""
","
",,null,run_exp/static/images/task_images/land.jpg,null,,,,,,,103,,,1,,,,,,,,,,,,,,
dig,61,326307,0.0-23.0-2.0,"""event"",""trial"",""time""
""fullscreenenter"",""1"",""2247""
","
","
","""event"",""trial"",""time""
""fullscreenenter"",""1"",""2247""
","
",,,,,,,,,,,,"[{""stimulus"":""run_exp/static/images/task_images/dig.jpg"",""time"":0.30000000074505806},{""stimulus"":""run_exp/static/images/task_images/land.jpg"",""time"":675.2000000029802},{""stimulus"":""run_exp/static/images/task_images/dig.jpg"",""time"":1339.4000000022352}]",[],1,,,,,,,,,,,,,,
harvest,62,327313,0.0-23.0-3.0,"""event"",""trial"",""time""
""fullscreenenter"",""1"",""2247""
","
","
","""event"",""trial"",""time""
""fullscreenenter"",""1"",""2247""
","
",,null,run_exp/static/images/task_images/gems/103.jpg,null,,,,,,,23,,,1,,,,,103,0.218881395,0.223300971,,,,,,,
decision,63,327986,0.0-23.0-4.0,"""event"",""trial"",""time""
""fullscreenenter"",""1"",""2247""
","
","
","""event"",""trial"",""time""
""fullscreenenter"",""1"",""2247""
","
",,670.7,run_exp/static/images/task_images/land.jpg,65,,,,,,,23,,,1,,,,,,,,9210,1,0,FALSE,,,
dig,64,330319,0.0-24.0-0.0,"""event"",""trial"",""time""
""fullscreenenter"",""1"",""2247""
","
","
","""event"",""trial"",""time""
""fullscreenenter"",""1"",""2247""
","
",,,,,,,,,,,,"[{""stimulus"":""run_exp/static/images/task_images/dig.jpg"",""time"":0.19999999925494194},{""stimulus"":""run_exp/static/images/task_images/land.jpg"",""time"":780.1999999992549},{""stimulus"":""run_exp/static/images/task_images/dig.jpg"",""time"":1557.300000000745}]",[],1,,,,,,,,,,,,,,
harvest,65,331332,0.0-24.0-1.0,"""event"",""trial"",""time""
""fullscreenenter"",""1"",""2247""
","
","
","""event"",""trial"",""time""
""fullscreenenter"",""1"",""2247""
","
",,null,run_exp/static/images/task_images/gems/23.jpg,null,,,,,,,5,,,1,,,,,23,0.237276541,0.217391304,,,,,,,
decision,66,331753,0.0-24.0-2.0,"""event"",""trial"",""time""
""fullscreenenter"",""1"",""2247""
","
","
","""event"",""trial"",""time""
""fullscreenenter"",""1"",""2247""
","
",,420,run_exp/static/images/task_images/land.jpg,65,,,,,,,5,,,1,,,,,,,,12978,1,1,FALSE,,,
dig,67,334343,0.0-25.0-0.0,"""event"",""trial"",""time""
""fullscreenenter"",""1"",""2247""
","
","
","""event"",""trial"",""time""
""fullscreenenter"",""1"",""2247""
","
",,,,,,,,,,,,"[{""stimulus"":""run_exp/static/images/task_images/dig.jpg"",""time"":0.10000000149011612},{""stimulus"":""run_exp/static/images/task_images/land.jpg"",""time"":860.9000000022352},{""stimulus"":""run_exp/static/images/task_images/dig.jpg"",""time"":1724.300000000745}]",[],1,,,,,,,,,,,,,,
harvest,68,335352,0.0-25.0-1.0,"""event"",""trial"",""time""
""fullscreenenter"",""1"",""2247""
","
","
","""event"",""trial"",""time""
""fullscreenenter"",""1"",""2247""
","
",,null,run_exp/static/images/task_images/gems/5.jpg,null,,,,,,,1,,,1,,,,,5,0.289316904,0.2,,,,,,,
decision,69,335546,0.0-25.0-2.0,"""event"",""trial"",""time""
""fullscreenenter"",""1"",""2247""
","
","
","""event"",""trial"",""time""
""fullscreenenter"",""1"",""2247""
","
",,192.9,run_exp/static/images/task_images/land.jpg,65,,,,,,,1,,,1,,,,,,,,16770,1,2,FALSE,,,
dig,70,338362,0.0-26.0-0.0,"""event"",""trial"",""time""
""fullscreenenter"",""1"",""2247""
","
","
","""event"",""trial"",""time""
""fullscreenenter"",""1"",""2247""
","
",,,,,,,,,,,,"[{""stimulus"":""run_exp/static/images/task_images/dig.jpg"",""time"":0.19999999925494194},{""stimulus"":""run_exp/static/images/task_images/land.jpg"",""time"":939.1000000014901},{""stimulus"":""run_exp/static/images/task_images/dig.jpg"",""time"":1879.5}]",[],1,,,,,,,,,,,,,,
harvest,71,339370,0.0-26.0-1.0,"""event"",""trial"",""time""
""fullscreenenter"",""1"",""2247""
","
","
","""event"",""trial"",""time""
""fullscreenenter"",""1"",""2247""
","
",,null,run_exp/static/images/task_images/gems/1.jpg,null,,,,,,,0,,,1,,,,,1,0.255749847,0,,,,,,,
decision,72,339745,0.0-26.0-2.0,"""event"",""trial"",""time""
""fullscreenenter"",""1"",""2247""
","
","
","""event"",""trial"",""time""
""fullscreenenter"",""1"",""2247""
","
",,373.4,run_exp/static/images/task_images/land.jpg,65,,,,,,,0,,,1,,,,,,,,20969,1,3,FALSE,,,
dig,73,342378,0.0-27.0-0.0,"""event"",""trial"",""time""
""fullscreenenter"",""1"",""2247""
","
","
","""event"",""trial"",""time""
""fullscreenenter"",""1"",""2247""
","
",,,,,,,,,,,,"[{""stimulus"":""run_exp/static/images/task_images/dig.jpg"",""time"":0.20000000298023224},{""stimulus"":""run_exp/static/images/task_images/land.jpg"",""time"":885.5},{""stimulus"":""run_exp/static/images/task_images/dig.jpg"",""time"":1756.300000000745}]",[],1,,,,,,,,,,,,,,
harvest,74,343383,0.0-27.0-1.0,"""event"",""trial"",""time""
""fullscreenenter"",""1"",""2247""
","
","
","""event"",""trial"",""time""
""fullscreenenter"",""1"",""2247""
","
",,null,run_exp/static/images/task_images/gems/0.jpg,null,,,,,,,0,,,1,,,,,0,0.281911725,NaN,,,,,,,
decision,75,343811,0.0-27.0-2.0,"""event"",""trial"",""time""
""fullscreenenter"",""1"",""2247""
","
","
","""event"",""trial"",""time""
""fullscreenenter"",""1"",""2247""
","
",,426.9,run_exp/static/images/task_images/land.jpg,76,,,,,,,0,,,1,,,,,,,,25035,1,4,TRUE,,,
travel,76,353383,0.0-28.0-0.0,"""event"",""trial"",""time""
""fullscreenenter"",""1"",""2247""
","
","
","""event"",""trial"",""time""
""fullscreenenter"",""1"",""2247""
","
",,,,,,,,,,,,"[{""stimulus"":""run_exp/static/images/task_images/rocket-01.jpg"",""time"":0.10000000149011612},{""stimulus"":""run_exp/static/images/task_images/rocket-02.jpg"",""time"":1068.9000000022352},{""stimulus"":""run_exp/static/images/task_images/rocket-03.jpg"",""time"":2134.5},{""stimulus"":""run_exp/static/images/task_images/rocket-04.jpg"",""time"":3193.60000000149},{""stimulus"":""run_exp/static/images/task_images/rocket-05.jpg"",""time"":4262.5},{""stimulus"":""run_exp/static/images/task_images/rocket-06.jpg"",""time"":5325.400000002235},{""stimulus"":""run_exp/static/images/task_images/rocket-07.jpg"",""time"":6385.5},{""stimulus"":""run_exp/static/images/task_images/rocket-08.jpg"",""time"":7449.699999999255},{""stimulus"":""run_exp/static/images/task_images/rocket-09.jpg"",""time"":8510.10000000149}]",[],1,,,,,,,,,,,,,,
alien_welcome,77,358392,0.0-28.0-1.0,"""event"",""trial"",""time""
""fullscreenenter"",""1"",""2247""
","
","
","""event"",""trial"",""time""
""fullscreenenter"",""1"",""2247""
","
",,null,run_exp/static/images/task_images/aliens/old_aliens/planet/alien_planet-58.jpg,null,,,,,,,,,,,,,58,"77,58,27,34,47,45,28,4,56,40,53,44,64,79,3,10,21,66,7,19,14,50,22,71,26,25,67,51,68,54,60,30,15,72,69,75,46,31,20,17,35,78,42,2,74,80,65,13,37,11,33,5,52,73,38,63,36",,,,,,,,,,
land,78,358895,0.0-28.0-2.0,"""event"",""trial"",""time""
""fullscreenenter"",""1"",""2247""
","
","
","""event"",""trial"",""time""
""fullscreenenter"",""1"",""2247""
","
",,null,run_exp/static/images/task_images/land.jpg,null,,,,,,,100,,,2,,,,,,,,,,,,,,
dig,79,360907,0.0-28.0-3.0,"""event"",""trial"",""time""
""fullscreenenter"",""1"",""2247""
","
","
","""event"",""trial"",""time""
""fullscreenenter"",""1"",""2247""
","
",,,,,,,,,,,,"[{""stimulus"":""run_exp/static/images/task_images/dig.jpg"",""time"":0.30000000074505806},{""stimulus"":""run_exp/static/images/task_images/land.jpg"",""time"":674.1999999992549},{""stimulus"":""run_exp/static/images/task_images/dig.jpg"",""time"":1342.6000000014901}]",[],2,,,,,,,,,,,,,,
harvest,80,361912,0.0-28.0-4.0,"""event"",""trial"",""time""
""fullscreenenter"",""1"",""2247""
","
","
","""event"",""trial"",""time""
""fullscreenenter"",""1"",""2247""
","
",,null,run_exp/static/images/task_images/gems/100.jpg,null,,,,,,,19,,,2,,,,,100,0.186061492,0.19,,,,,,,
decision,81,362297,0.0-28.0-5.0,"""event"",""trial"",""time""
""fullscreenenter"",""1"",""2247""
","
","
","""event"",""trial"",""time""
""fullscreenenter"",""1"",""2247""
","
",,383.8,run_exp/static/images/task_images/land.jpg,65,,,,,,,19,,,2,,,,,,,,43521,1,0,FALSE,,,
dig,82,364922,0.0-29.0-0.0,"""event"",""trial"",""time""
""fullscreenenter"",""1"",""2247""
","
","
","""event"",""trial"",""time""
""fullscreenenter"",""1"",""2247""
","
",,,,,,,,,,,,"[{""stimulus"":""run_exp/static/images/task_images/dig.jpg"",""time"":0.09999999776482582},{""stimulus"":""run_exp/static/images/task_images/land.jpg"",""time"":876.8999999985099},{""stimulus"":""run_exp/static/images/task_images/dig.jpg"",""time"":1752.5}]",[],2,,,,,,,,,,,,,,
harvest,83,365927,0.0-29.0-1.0,"""event"",""trial"",""time""
""fullscreenenter"",""1"",""2247""
","
","
","""event"",""trial"",""time""
""fullscreenenter"",""1"",""2247""
","
",,null,run_exp/static/images/task_images/gems/19.jpg,null,,,,,,,4,,,2,,,,,19,0.230608788,0.210526316,,,,,,,
decision,84,366457,0.0-29.0-2.0,"""event"",""trial"",""time""
""fullscreenenter"",""1"",""2247""
","
","
","""event"",""trial"",""time""
""fullscreenenter"",""1"",""2247""
","
",,528.6,run_exp/static/images/task_images/land.jpg,65,,,,,,,4,,,2,,,,,,,,47681,1,1,FALSE,,,
dig,85,368934,0.0-30.0-0.0,"""event"",""trial"",""time""
""fullscreenenter"",""1"",""2247""
","
","
","""event"",""trial"",""time""
""fullscreenenter"",""1"",""2247""
","
",,,,,,,,,,,,"[{""stimulus"":""run_exp/static/images/task_images/dig.jpg"",""time"":0.10000000149011612},{""stimulus"":""run_exp/static/images/task_images/land.jpg"",""time"":832},{""stimulus"":""run_exp/static/images/task_images/dig.jpg"",""time"":1652.300000000745}]",[],2,,,,,,,,,,,,,,
harvest,86,369945,0.0-30.0-1.0,"""event"",""trial"",""time""
""fullscreenenter"",""1"",""2247""
","
","
","""event"",""trial"",""time""
""fullscreenenter"",""1"",""2247""
","
",,null,run_exp/static/images/task_images/gems/4.jpg,null,,,,,,,1,,,2,,,,,4,0.336328761,0.25,,,,,,,
decision,87,370342,0.0-30.0-2.0,"""event"",""trial"",""time""
""fullscreenenter"",""1"",""2247""
","
","
","""event"",""trial"",""time""
""fullscreenenter"",""1"",""2247""
","
",,395.5,run_exp/static/images/task_images/land.jpg,76,,,,,,,1,,,2,,,,,,,,51566,1,2,TRUE,,,
travel,88,379952,0.0-31.0-0.0,"""event"",""trial"",""time""
""fullscreenenter"",""1"",""2247""
","
","
","""event"",""trial"",""time""
""fullscreenenter"",""1"",""2247""
","
",,,,,,,,,,,,"[{""stimulus"":""run_exp/static/images/task_images/rocket-01.jpg"",""time"":0.19999999925494194},{""stimulus"":""run_exp/static/images/task_images/rocket-02.jpg"",""time"":1071.699999999255},{""stimulus"":""run_exp/static/images/task_images/rocket-03.jpg"",""time"":2145.599999997765},{""stimulus"":""run_exp/static/images/task_images/rocket-04.jpg"",""time"":3207.7999999970198},{""stimulus"":""run_exp/static/images/task_images/rocket-05.jpg"",""time"":4271.5},{""stimulus"":""run_exp/static/images/task_images/rocket-06.jpg"",""time"":5347.099999997765},{""stimulus"":""run_exp/static/images/task_images/rocket-07.jpg"",""time"":6407.099999997765},{""stimulus"":""run_exp/static/images/task_images/rocket-08.jpg"",""time"":7472.89999999851},{""stimulus"":""run_exp/static/images/task_images/rocket-09.jpg"",""time"":8547}]",[],2,,,,,,,,,,,,,,
alien_welcome,89,384959,0.0-31.0-1.0,"""event"",""trial"",""time""
""fullscreenenter"",""1"",""2247""
","
","
","""event"",""trial"",""time""
""fullscreenenter"",""1"",""2247""
","
",,null,run_exp/static/images/task_images/aliens/old_aliens/planet/alien_planet-27.jpg,null,,,,,,,,,,,,,27,"77,58,27,34,47,45,28,4,56,40,53,44,64,79,3,10,21,66,7,19,14,50,22,71,26,25,67,51,68,54,60,30,15,72,69,75,46,31,20,17,35,78,42,2,74,80,65,13,37,11,33,5,52,73,38,63,36",,,,,,,,,,
land,90,385462,0.0-31.0-2.0,"""event"",""trial"",""time""
""fullscreenenter"",""1"",""2247""
","
","
","""event"",""trial"",""time""
""fullscreenenter"",""1"",""2247""
","
",,null,run_exp/static/images/task_images/land.jpg,null,,,,,,,91,,,3,,,,,,,,,,,,,,
dig,91,387472,0.0-31.0-3.0,"""event"",""trial"",""time""
""fullscreenenter"",""1"",""2247""
","
","
","""event"",""trial"",""time""
""fullscreenenter"",""1"",""2247""
","
",,,,,,,,,,,,"[{""stimulus"":""run_exp/static/images/task_images/dig.jpg"",""time"":0.4000000022351742},{""stimulus"":""run_exp/static/images/task_images/land.jpg"",""time"":671.1000000014901},{""stimulus"":""run_exp/static/images/task_images/dig.jpg"",""time"":1335.4000000022352}]",[],3,,,,,,,,,,,,,,
harvest,92,388482,0.0-31.0-4.0,"""event"",""trial"",""time""
""fullscreenenter"",""1"",""2247""
","
","
","""event"",""trial"",""time""
""fullscreenenter"",""1"",""2247""
","
",,null,run_exp/static/images/task_images/gems/91.jpg,null,,,,,,,47,,,3,,,,,91,0.517326111,0.516483516,,,,,,,
decision,93,388867,0.0-31.0-5.0,"""event"",""trial"",""time""
""fullscreenenter"",""1"",""2247""
","
","
","""event"",""trial"",""time""
""fullscreenenter"",""1"",""2247""
","
",,383.3,run_exp/static/images/task_images/land.jpg,65,,,,,,,47,,,3,,,,,,,,70091,1,0,FALSE,,,
dig,94,391499,0.0-32.0-0.0,"""event"",""trial"",""time""
""fullscreenenter"",""1"",""2247""
","
","
","""event"",""trial"",""time""
""fullscreenenter"",""1"",""2247""
","
",,,,,,,,,,,,"[{""stimulus"":""run_exp/static/images/task_images/dig.jpg"",""time"":0.19999999925494194},{""stimulus"":""run_exp/static/images/task_images/land.jpg"",""time"":882.6999999992549},{""stimulus"":""run_exp/static/images/task_images/dig.jpg"",""time"":1755.5}]",[],3,,,,,,,,,,,,,,
harvest,95,392502,0.0-32.0-1.0,"""event"",""trial"",""time""
""fullscreenenter"",""1"",""2247""
","
","
","""event"",""trial"",""time""
""fullscreenenter"",""1"",""2247""
","
",,null,run_exp/static/images/task_images/gems/47.jpg,null,,,,,,,24,,,3,,,,,47,0.517808545,0.510638298,,,,,,,
decision,96,392858,0.0-32.0-2.0,"""event"",""trial"",""time""
""fullscreenenter"",""1"",""2247""
","
","
","""event"",""trial"",""time""
""fullscreenenter"",""1"",""2247""
","
",,354.3,run_exp/static/images/task_images/land.jpg,76,,,,,,,24,,,3,,,,,,,,74082,1,1,TRUE,,,
travel,97,402502,0.0-33.0-0.0,"""event"",""trial"",""time""
""fullscreenenter"",""1"",""2247""
","
","
","""event"",""trial"",""time""
""fullscreenenter"",""1"",""2247""
","
",,,,,,,,,,,,"[{""stimulus"":""run_exp/static/images/task_images/rocket-01.jpg"",""time"":0.09999999776482582},{""stimulus"":""run_exp/static/images/task_images/rocket-02.jpg"",""time"":1075.5999999977648},{""stimulus"":""run_exp/static/images/task_images/rocket-03.jpg"",""time"":2150.199999999255},{""stimulus"":""run_exp/static/images/task_images/rocket-04.jpg"",""time"":3219.89999999851},{""stimulus"":""run_exp/static/images/task_images/rocket-05.jpg"",""time"":4293},{""stimulus"":""run_exp/static/images/task_images/rocket-06.jpg"",""time"":5362.89999999851},{""stimulus"":""run_exp/static/images/task_images/rocket-07.jpg"",""time"":6439.599999997765},{""stimulus"":""run_exp/static/images/task_images/rocket-08.jpg"",""time"":7498.599999997765},{""stimulus"":""run_exp/static/images/task_images/rocket-09.jpg"",""time"":8572.29999999702}]",[],3,,,,,,,,,,,,,,
alien_welcome,98,407512,0.0-33.0-1.0,"""event"",""trial"",""time""
""fullscreenenter"",""1"",""2247""
","
","
","""event"",""trial"",""time""
""fullscreenenter"",""1"",""2247""
","
",,null,run_exp/static/images/task_images/aliens/old_aliens/planet/alien_planet-34.jpg,null,,,,,,,,,,,,,34,"77,58,27,34,47,45,28,4,56,40,53,44,64,79,3,10,21,66,7,19,14,50,22,71,26,25,67,51,68,54,60,30,15,72,69,75,46,31,20,17,35,78,42,2,74,80,65,13,37,11,33,5,52,73,38,63,36",,,,,,,,,,
land,99,408019,0.0-33.0-2.0,"""event"",""trial"",""time""
""fullscreenenter"",""1"",""2247""
","
","
","""event"",""trial"",""time""
""fullscreenenter"",""1"",""2247""
","
",,null,run_exp/static/images/task_images/land.jpg,null,,,,,,,101,,,4,,,,,,,,,,,,,,
dig,100,410032,0.0-33.0-3.0,"""event"",""trial"",""time""
""fullscreenenter"",""1"",""2247""
","
","
","""event"",""trial"",""time""
""fullscreenenter"",""1"",""2247""
","
",,,,,,,,,,,,"[{""stimulus"":""run_exp/static/images/task_images/dig.jpg"",""time"":0.30000000074505806},{""stimulus"":""run_exp/static/images/task_images/land.jpg"",""time"":673.6999999992549},{""stimulus"":""run_exp/static/images/task_images/dig.jpg"",""time"":1338.1000000014901}]",[],4,,,,,,,,,,,,,,
harvest,101,411040,0.0-33.0-4.0,"""event"",""trial"",""time""
""fullscreenenter"",""1"",""2247""
","
","
","""event"",""trial"",""time""
""fullscreenenter"",""1"",""2247""
","
",,null,run_exp/static/images/task_images/gems/101.jpg,null,,,,,,,57,,,4,,,,,101,0.560412755,0.564356436,,,,,,,
decision,102,411372,0.0-33.0-5.0,"""event"",""trial"",""time""
""fullscreenenter"",""1"",""2247""
","
","
","""event"",""trial"",""time""
""fullscreenenter"",""1"",""2247""
","
",,331.5,run_exp/static/images/task_images/land.jpg,65,,,,,,,57,,,4,,,,,,,,92597,1,0,FALSE,,,
dig,103,414047,0.0-34.0-0.0,"""event"",""trial"",""time""
""fullscreenenter"",""1"",""2247""
","
","
","""event"",""trial"",""time""
""fullscreenenter"",""1"",""2247""
","
",,,,,,,,,,,,"[{""stimulus"":""run_exp/static/images/task_images/dig.jpg"",""time"":0.19999999925494194},{""stimulus"":""run_exp/static/images/task_images/land.jpg"",""time"":897.1999999992549},{""stimulus"":""run_exp/static/images/task_images/dig.jpg"",""time"":1787.800000000745}]",[],4,,,,,,,,,,,,,,
harvest,104,415055,0.0-34.0-1.0,"""event"",""trial"",""time""
""fullscreenenter"",""1"",""2247""
","
","
","""event"",""trial"",""time""
""fullscreenenter"",""1"",""2247""
","
",,null,run_exp/static/images/task_images/gems/57.jpg,null,,,,,,,29,,,4,,,,,57,0.50804552,0.50877193,,,,,,,
decision,105,415317,0.0-34.0-2.0,"""event"",""trial"",""time""
""fullscreenenter"",""1"",""2247""
","
","
","""event"",""trial"",""time""
""fullscreenenter"",""1"",""2247""
","
",,260.8,run_exp/static/images/task_images/land.jpg,65,,,,,,,29,,,4,,,,,,,,96541,1,1,FALSE,,,
dig,106,418067,0.0-35.0-0.0,"""event"",""trial"",""time""
""fullscreenenter"",""1"",""2247""
","
","
","""event"",""trial"",""time""
""fullscreenenter"",""1"",""2247""
","
",,,,,,,,,,,,"[{""stimulus"":""run_exp/static/images/task_images/dig.jpg"",""time"":0.10000000149011612},{""stimulus"":""run_exp/static/images/task_images/land.jpg"",""time"":923.6000000014901},{""stimulus"":""run_exp/static/images/task_images/dig.jpg"",""time"":1832.1000000014901}]",[],4,,,,,,,,,,,,,,
harvest,107,419072,0.0-35.0-1.0,"""event"",""trial"",""time""
""fullscreenenter"",""1"",""2247""
","
","
","""event"",""trial"",""time""
""fullscreenenter"",""1"",""2247""
","
",,null,run_exp/static/images/task_images/gems/29.jpg,null,,,,,,,14,,,4,,,,,29,0.467768041,0.482758621,,,,,,,
decision,108,419303,0.0-35.0-2.0,"""event"",""trial"",""time""
""fullscreenenter"",""1"",""2247""
","
","
","""event"",""trial"",""time""
""fullscreenenter"",""1"",""2247""
","
",,230,run_exp/static/images/task_images/land.jpg,76,,,,,,,14,,,4,,,,,,,,100527,1,2,TRUE,,,
travel,109,429081,0.0-36.0-0.0,"""event"",""trial"",""time""
""fullscreenenter"",""1"",""2247""
","
","
","""event"",""trial"",""time""
""fullscreenenter"",""1"",""2247""
","
",,,,,,,,,,,,"[{""stimulus"":""run_exp/static/images/task_images/rocket-01.jpg"",""time"":0.10000000149011612},{""stimulus"":""run_exp/static/images/task_images/rocket-02.jpg"",""time"":1096.1000000014901},{""stimulus"":""run_exp/static/images/task_images/rocket-03.jpg"",""time"":2176.60000000149},{""stimulus"":""run_exp/static/images/task_images/rocket-04.jpg"",""time"":3264.199999999255},{""stimulus"":""run_exp/static/images/task_images/rocket-05.jpg"",""time"":4348.199999999255},{""stimulus"":""run_exp/static/images/task_images/rocket-06.jpg"",""time"":5431.300000000745},{""stimulus"":""run_exp/static/images/task_images/rocket-07.jpg"",""time"":6516.400000002235},{""stimulus"":""run_exp/static/images/task_images/rocket-08.jpg"",""time"":7596.60000000149},{""stimulus"":""run_exp/static/images/task_images/rocket-09.jpg"",""time"":8688.900000002235}]",[],4,,,,,,,,,,,,,,
alien_welcome,110,434090,0.0-36.0-1.0,"""event"",""trial"",""time""
""fullscreenenter"",""1"",""2247""
","
","
","""event"",""trial"",""time""
""fullscreenenter"",""1"",""2247""
","
",,null,run_exp/static/images/task_images/aliens/old_aliens/planet/alien_planet-47.jpg,null,,,,,,,,,,,,,47,"77,58,27,34,47,45,28,4,56,40,53,44,64,79,3,10,21,66,7,19,14,50,22,71,26,25,67,51,68,54,60,30,15,72,69,75,46,31,20,17,35,78,42,2,74,80,65,13,37,11,33,5,52,73,38,63,36",,,,,,,,,,
land,111,434592,0.0-36.0-2.0,"""event"",""trial"",""time""
""fullscreenenter"",""1"",""2247""
","
","
","""event"",""trial"",""time""
""fullscreenenter"",""1"",""2247""
","
",,null,run_exp/static/images/task_images/land.jpg,null,,,,,,,104,,,5,,,,,,,,,,,,,,
dig,112,436598,0.0-36.0-3.0,"""event"",""trial"",""time""
""fullscreenenter"",""1"",""2247""
","
","
","""event"",""trial"",""time""
""fullscreenenter"",""1"",""2247""
","
",,,,,,,,,,,,"[{""stimulus"":""run_exp/static/images/task_images/dig.jpg"",""time"":0.19999999925494194},{""stimulus"":""run_exp/static/images/task_images/land.jpg"",""time"":669.0999999977648},{""stimulus"":""run_exp/static/images/task_images/dig.jpg"",""time"":1341.0999999977648}]",[],5,,,,,,,,,,,,,,
harvest,113,437606,0.0-36.0-4.0,"""event"",""trial"",""time""
""fullscreenenter"",""1"",""2247""
","
","
","""event"",""trial"",""time""
""fullscreenenter"",""1"",""2247""
","
",,null,run_exp/static/images/task_images/gems/104.jpg,null,,,,,,,56,,,5,,,,,104,0.540689987,0.538461538,,,,,,,
decision,114,437949,0.0-36.0-5.0,"""event"",""trial"",""time""
""fullscreenenter"",""1"",""2247""
","
","
","""event"",""trial"",""time""
""fullscreenenter"",""1"",""2247""
","
",,341.5,run_exp/static/images/task_images/land.jpg,65,,,,,,,56,,,5,,,,,,,,119174,1,0,FALSE,,,
dig,115,440614,0.0-37.0-0.0,"""event"",""trial"",""time""
""fullscreenenter"",""1"",""2247""
","
","
","""event"",""trial"",""time""
""fullscreenenter"",""1"",""2247""
","
",,,,,,,,,,,,"[{""stimulus"":""run_exp/static/images/task_images/dig.jpg"",""time"":0.19999999925494194},{""stimulus"":""run_exp/static/images/task_images/land.jpg"",""time"":894.1999999992549},{""stimulus"":""run_exp/static/images/task_images/dig.jpg"",""time"":1776.8999999985099}]",[],5,,,,,,,,,,,,,,
harvest,116,441622,0.0-37.0-1.0,"""event"",""trial"",""time""
""fullscreenenter"",""1"",""2247""
","
","
","""event"",""trial"",""time""
""fullscreenenter"",""1"",""2247""
","
",,null,run_exp/static/images/task_images/gems/56.jpg,null,,,,,,,29,,,5,,,,,56,0.509181137,0.517857143,,,,,,,
decision,117,441742,0.0-37.0-2.0,"""event"",""trial"",""time""
""fullscreenenter"",""1"",""2247""
","
","
","""event"",""trial"",""time""
""fullscreenenter"",""1"",""2247""
","
",,118,run_exp/static/images/task_images/land.jpg,76,,,,,,,29,,,5,,,,,,,,122966,1,1,TRUE,,,
travel,118,451631,0.0-38.0-0.0,"""event"",""trial"",""time""
""fullscreenenter"",""1"",""2247""
","
","
","""event"",""trial"",""time""
""fullscreenenter"",""1"",""2247""
","
",,,,,,,,,,,,"[{""stimulus"":""run_exp/static/images/task_images/rocket-01.jpg"",""time"":0.09999999776482582},{""stimulus"":""run_exp/static/images/task_images/rocket-02.jpg"",""time"":1102.5},{""stimulus"":""run_exp/static/images/task_images/rocket-03.jpg"",""time"":2199.5},{""stimulus"":""run_exp/static/images/task_images/rocket-04.jpg"",""time"":3306.699999999255},{""stimulus"":""run_exp/static/images/task_images/rocket-05.jpg"",""time"":4400.5},{""stimulus"":""run_exp/static/images/task_images/rocket-06.jpg"",""time"":5494.79999999702},{""stimulus"":""run_exp/static/images/task_images/rocket-07.jpg"",""time"":6594.599999997765},{""stimulus"":""run_exp/static/images/task_images/rocket-08.jpg"",""time"":7694},{""stimulus"":""run_exp/static/images/task_images/rocket-09.jpg"",""time"":8789.89999999851}]",[],5,,,,,,,,,,,,,,
alien_welcome,119,456640,0.0-38.0-1.0,"""event"",""trial"",""time""
""fullscreenenter"",""1"",""2247""
","
","
","""event"",""trial"",""time""
""fullscreenenter"",""1"",""2247""
","
",,null,run_exp/static/images/task_images/aliens/old_aliens/planet/alien_planet-45.jpg,null,,,,,,,,,,,,,45,"77,58,27,34,47,45,28,4,56,40,53,44,64,79,3,10,21,66,7,19,14,50,22,71,26,25,67,51,68,54,60,30,15,72,69,75,46,31,20,17,35,78,42,2,74,80,65,13,37,11,33,5,52,73,38,63,36",,,,,,,,,,
land,120,457144,0.0-38.0-2.0,"""event"",""trial"",""time""
""fullscreenenter"",""1"",""2247""
","
","
","""event"",""trial"",""time""
""fullscreenenter"",""1"",""2247""
","
",,null,run_exp/static/images/task_images/land.jpg,null,,,,,,,101,,,6,,,,,,,,,,,,,,
dig,121,459150,0.0-38.0-3.0,"""event"",""trial"",""time""
""fullscreenenter"",""1"",""2247""
","
","
","""event"",""trial"",""time""
""fullscreenenter"",""1"",""2247""
","
",,,,,,,,,,,,"[{""stimulus"":""run_exp/static/images/task_images/dig.jpg"",""time"":0.19999999925494194},{""stimulus"":""run_exp/static/images/task_images/land.jpg"",""time"":676.3000000007451},{""stimulus"":""run_exp/static/images/task_images/dig.jpg"",""time"":1343.1000000014901}]",[],6,,,,,,,,,,,,,,
harvest,122,460161,0.0-38.0-4.0,"""event"",""trial"",""time""
""fullscreenenter"",""1"",""2247""
","
","
","""event"",""trial"",""time""
""fullscreenenter"",""1"",""2247""
","
",,null,run_exp/static/images/task_images/gems/101.jpg,null,,,,,,,87,,,6,,,,,101,0.858827573,0.861386139,,,,,,,
decision,123,460433,0.0-38.0-5.0,"""event"",""trial"",""time""
""fullscreenenter"",""1"",""2247""
","
","
","""event"",""trial"",""time""
""fullscreenenter"",""1"",""2247""
","
",,271.1,run_exp/static/images/task_images/land.jpg,65,,,,,,,87,,,6,,,,,,,,141657,1,0,FALSE,,,
dig,124,463168,0.0-39.0-0.0,"""event"",""trial"",""time""
""fullscreenenter"",""1"",""2247""
","
","
","""event"",""trial"",""time""
""fullscreenenter"",""1"",""2247""
","
",,,,,,,,,,,,"[{""stimulus"":""run_exp/static/images/task_images/dig.jpg"",""time"":0},{""stimulus"":""run_exp/static/images/task_images/land.jpg"",""time"":918.1999999992549},{""stimulus"":""run_exp/static/images/task_images/dig.jpg"",""time"":1829}]",[],6,,,,,,,,,,,,,,
harvest,125,464175,0.0-39.0-1.0,"""event"",""trial"",""time""
""fullscreenenter"",""1"",""2247""
","
","
","""event"",""trial"",""time""
""fullscreenenter"",""1"",""2247""
","
",,null,run_exp/static/images/task_images/gems/87.jpg,null,,,,,,,62,,,6,,,,,87,0.716720925,0.712643678,,,,,,,
decision,126,464454,0.0-39.0-2.0,"""event"",""trial"",""time""
""fullscreenenter"",""1"",""2247""
","
","
","""event"",""trial"",""time""
""fullscreenenter"",""1"",""2247""
","
",,277.9,run_exp/static/images/task_images/land.jpg,76,,,,,,,62,,,6,,,,,,,,145678,1,1,TRUE,,,
travel,127,474181,0.0-40.0-0.0,"""event"",""trial"",""time""
""fullscreenenter"",""1"",""2247""
","
","
","""event"",""trial"",""time""
""fullscreenenter"",""1"",""2247""
","
",,,,,,,,,,,,"[{""stimulus"":""run_exp/static/images/task_images/rocket-01.jpg"",""time"":0},{""stimulus"":""run_exp/static/images/task_images/rocket-02.jpg"",""time"":1085.199999999255},{""stimulus"":""run_exp/static/images/task_images/rocket-03.jpg"",""time"":2168.800000000745},{""stimulus"":""run_exp/static/images/task_images/rocket-04.jpg"",""time"":3241.300000000745},{""stimulus"":""run_exp/static/images/task_images/rocket-05.jpg"",""time"":4324.89999999851},{""stimulus"":""run_exp/static/images/task_images/rocket-06.jpg"",""time"":5405.099999997765},{""stimulus"":""run_exp/static/images/task_images/rocket-07.jpg"",""time"":6488},{""stimulus"":""run_exp/static/images/task_images/rocket-08.jpg"",""time"":7565.099999997765},{""stimulus"":""run_exp/static/images/task_images/rocket-09.jpg"",""time"":8645.099999997765}]",[],6,,,,,,,,,,,,,,
alien_welcome,128,479189,0.0-40.0-1.0,"""event"",""trial"",""time""
""fullscreenenter"",""1"",""2247""
","
","
","""event"",""trial"",""time""
""fullscreenenter"",""1"",""2247""
","
",,null,run_exp/static/images/task_images/aliens/old_aliens/planet/alien_planet-28.jpg,null,,,,,,,,,,,,,28,"77,58,27,34,47,45,28,4,56,40,53,44,64,79,3,10,21,66,7,19,14,50,22,71,26,25,67,51,68,54,60,30,15,72,69,75,46,31,20,17,35,78,42,2,74,80,65,13,37,11,33,5,52,73,38,63,36",,,,,,,,,,
land,129,479694,0.0-40.0-2.0,"""event"",""trial"",""time""
""fullscreenenter"",""1"",""2247""
","
","
","""event"",""trial"",""time""
""fullscreenenter"",""1"",""2247""
","
",,null,run_exp/static/images/task_images/land.jpg,null,,,,,,,90,,,7,,,,,,,,,,,,,,
dig,130,481704,0.0-40.0-3.0,"""event"",""trial"",""time""
""fullscreenenter"",""1"",""2247""
","
","
","""event"",""trial"",""time""
""fullscreenenter"",""1"",""2247""
","
",,,,,,,,,,,,"[{""stimulus"":""run_exp/static/images/task_images/dig.jpg"",""time"":0.29999999701976776},{""stimulus"":""run_exp/static/images/task_images/land.jpg"",""time"":674.0999999977648},{""stimulus"":""run_exp/static/images/task_images/dig.jpg"",""time"":1344.2999999970198}]",[],7,,,,,,,,,,,,,,
harvest,131,482711,0.0-40.0-4.0,"""event"",""trial"",""time""
""fullscreenenter"",""1"",""2247""
","
","
","""event"",""trial"",""time""
""fullscreenenter"",""1"",""2247""
","
",,null,run_exp/static/images/task_images/gems/90.jpg,null,,,,,,,72,,,7,,,,,90,0.794679012,0.8,,,,,,,
decision,132,483089,0.0-40.0-5.0,"""event"",""trial"",""time""
""fullscreenenter"",""1"",""2247""
","
","
","""event"",""trial"",""time""
""fullscreenenter"",""1"",""2247""
","
",,376.8,run_exp/static/images/task_images/land.jpg,76,,,,,,,72,,,7,,,,,,,,164313,1,0,TRUE,,,
travel,133,492716,0.0-41.0-0.0,"""event"",""trial"",""time""
""fullscreenenter"",""1"",""2247""
","
","
","""event"",""trial"",""time""
""fullscreenenter"",""1"",""2247""
","
",,,,,,,,,,,,"[{""stimulus"":""run_exp/static/images/task_images/rocket-01.jpg"",""time"":0.09999999776482582},{""stimulus"":""run_exp/static/images/task_images/rocket-02.jpg"",""time"":1073.3999999985099},{""stimulus"":""run_exp/static/images/task_images/rocket-03.jpg"",""time"":2141.89999999851},{""stimulus"":""run_exp/static/images/task_images/rocket-04.jpg"",""time"":3209.5},{""stimulus"":""run_exp/static/images/task_images/rocket-05.jpg"",""time"":4281.599999997765},{""stimulus"":""run_exp/static/images/task_images/rocket-06.jpg"",""time"":5355.699999999255},{""stimulus"":""run_exp/static/images/task_images/rocket-07.jpg"",""time"":6419.39999999851},{""stimulus"":""run_exp/static/images/task_images/rocket-08.jpg"",""time"":7489.89999999851},{""stimulus"":""run_exp/static/images/task_images/rocket-09.jpg"",""time"":8553.5}]",[],7,,,,,,,,,,,,,,
alien_welcome,134,497725,0.0-41.0-1.0,"""event"",""trial"",""time""
""fullscreenenter"",""1"",""2247""
","
","
","""event"",""trial"",""time""
""fullscreenenter"",""1"",""2247""
","
",,null,run_exp/static/images/task_images/aliens/old_aliens/planet/alien_planet-4.jpg,null,,,,,,,,,,,,,4,"77,58,27,34,47,45,28,4,56,40,53,44,64,79,3,10,21,66,7,19,14,50,22,71,26,25,67,51,68,54,60,30,15,72,69,75,46,31,20,17,35,78,42,2,74,80,65,13,37,11,33,5,52,73,38,63,36",,,,,,,,,,
land,135,498229,0.0-41.0-2.0,"""event"",""trial"",""time""
""fullscreenenter"",""1"",""2247""
","
","
","""event"",""trial"",""time""
""fullscreenenter"",""1"",""2247""
","
",,null,run_exp/static/images/task_images/land.jpg,null,,,,,,,105,,,8,,,,,,,,,,,,,,
dig,136,500241,0.0-41.0-3.0,"""event"",""trial"",""time""
""fullscreenenter"",""1"",""2247""
","
","
","""event"",""trial"",""time""
""fullscreenenter"",""1"",""2247""
","
",,,,,,,,,,,,"[{""stimulus"":""run_exp/static/images/task_images/dig.jpg"",""time"":0.30000000074505806},{""stimulus"":""run_exp/static/images/task_images/land.jpg"",""time"":670.1999999992549},{""stimulus"":""run_exp/static/images/task_images/dig.jpg"",""time"":1343.3999999985099}]",[],8,,,,,,,,,,,,,,
harvest,137,501245,0.0-41.0-4.0,"""event"",""trial"",""time""
""fullscreenenter"",""1"",""2247""
","
","
","""event"",""trial"",""time""
""fullscreenenter"",""1"",""2247""
","
",,null,run_exp/static/images/task_images/gems/105.jpg,null,,,,,,,83,,,8,,,,,105,0.789601076,0.79047619,,,,,,,
decision,138,501626,0.0-41.0-5.0,"""event"",""trial"",""time""
""fullscreenenter"",""1"",""2247""
","
","
","""event"",""trial"",""time""
""fullscreenenter"",""1"",""2247""
","
",,379,run_exp/static/images/task_images/land.jpg,65,,,,,,,83,,,8,,,,,,,,182850,1,0,FALSE,,,
dig,139,504253,0.0-42.0-0.0,"""event"",""trial"",""time""
""fullscreenenter"",""1"",""2247""
","
","
","""event"",""trial"",""time""
""fullscreenenter"",""1"",""2247""
","
",,,,,,,,,,,,"[{""stimulus"":""run_exp/static/images/task_images/dig.jpg"",""time"":0.09999999776482582},{""stimulus"":""run_exp/static/images/task_images/land.jpg"",""time"":880.8999999985099},{""stimulus"":""run_exp/static/images/task_images/dig.jpg"",""time"":1753.3999999985099}]",[],8,,,,,,,,,,,,,,
harvest,140,505260,0.0-42.0-1.0,"""event"",""trial"",""time""
""fullscreenenter"",""1"",""2247""
","
","
","""event"",""trial"",""time""
""fullscreenenter"",""1"",""2247""
","
",,null,run_exp/static/images/task_images/gems/83.jpg,null,,,,,,,52,,,8,,,,,83,0.631436612,0.626506024,,,,,,,
decision,141,505516,0.0-42.0-2.0,"""event"",""trial"",""time""
""fullscreenenter"",""1"",""2247""
","
","
","""event"",""trial"",""time""
""fullscreenenter"",""1"",""2247""
","
",,254.6,run_exp/static/images/task_images/land.jpg,76,,,,,,,52,,,8,,,,,,,,186740,1,1,TRUE,,,
travel,142,515261,0.0-43.0-0.0,"""event"",""trial"",""time""
""fullscreenenter"",""1"",""2247""
","
","
","""event"",""trial"",""time""
""fullscreenenter"",""1"",""2247""
","
",,,,,,,,,,,,"[{""stimulus"":""run_exp/static/images/task_images/rocket-01.jpg"",""time"":0},{""stimulus"":""run_exp/static/images/task_images/rocket-02.jpg"",""time"":1085.199999999255},{""stimulus"":""run_exp/static/images/task_images/rocket-03.jpg"",""time"":2165.800000000745},{""stimulus"":""run_exp/static/images/task_images/rocket-04.jpg"",""time"":3258.5},{""stimulus"":""run_exp/static/images/task_images/rocket-05.jpg"",""time"":4333.5},{""stimulus"":""run_exp/static/images/task_images/rocket-06.jpg"",""time"":5413.5},{""stimulus"":""run_exp/static/images/task_images/rocket-07.jpg"",""time"":6497.39999999851},{""stimulus"":""run_exp/static/images/task_images/rocket-08.jpg"",""time"":7582.39999999851},{""stimulus"":""run_exp/static/images/task_images/rocket-09.jpg"",""time"":8662.39999999851}]",[],8,,,,,,,,,,,,,,
alien_welcome,143,520268,0.0-43.0-1.0,"""event"",""trial"",""time""
""fullscreenenter"",""1"",""2247""
","
","
","""event"",""trial"",""time""
""fullscreenenter"",""1"",""2247""
","
",,null,run_exp/static/images/task_images/aliens/old_aliens/planet/alien_planet-56.jpg,null,,,,,,,,,,,,,56,"77,58,27,34,47,45,28,4,56,40,53,44,64,79,3,10,21,66,7,19,14,50,22,71,26,25,67,51,68,54,60,30,15,72,69,75,46,31,20,17,35,78,42,2,74,80,65,13,37,11,33,5,52,73,38,63,36",,,,,,,,,,
land,144,520774,0.0-43.0-2.0,"""event"",""trial"",""time""
""fullscreenenter"",""1"",""2247""
","
","
","""event"",""trial"",""time""
""fullscreenenter"",""1"",""2247""
","
",,null,run_exp/static/images/task_images/land.jpg,null,,,,,,,93,,,9,,,,,,,,,,,,,,
dig,145,522781,0.0-43.0-3.0,"""event"",""trial"",""time""
""fullscreenenter"",""1"",""2247""
","
","
","""event"",""trial"",""time""
""fullscreenenter"",""1"",""2247""
","
",,,,,,,,,,,,"[{""stimulus"":""run_exp/static/images/task_images/dig.jpg"",""time"":0.4000000022351742},{""stimulus"":""run_exp/static/images/task_images/land.jpg"",""time"":673.6999999992549},{""stimulus"":""run_exp/static/images/task_images/dig.jpg"",""time"":1342.6000000014901}]",[],9,,,,,,,,,,,,,,
harvest,146,523790,0.0-43.0-4.0,"""event"",""trial"",""time""
""fullscreenenter"",""1"",""2247""
","
","
","""event"",""trial"",""time""
""fullscreenenter"",""1"",""2247""
","
",,null,run_exp/static/images/task_images/gems/93.jpg,null,,,,,,,21,,,9,,,,,93,0.22463877,0.225806452,,,,,,,
decision,147,524011,0.0-43.0-5.0,"""event"",""trial"",""time""
""fullscreenenter"",""1"",""2247""
","
","
","""event"",""trial"",""time""
""fullscreenenter"",""1"",""2247""
","
",,219.8,run_exp/static/images/task_images/land.jpg,76,,,,,,,21,,,9,,,,,,,,205235,1,0,TRUE,,,
travel,148,533800,0.0-44.0-0.0,"""event"",""trial"",""time""
""fullscreenenter"",""1"",""2247""
","
","
","""event"",""trial"",""time""
""fullscreenenter"",""1"",""2247""
","
",,,,,,,,,,,,"[{""stimulus"":""run_exp/static/images/task_images/rocket-01.jpg"",""time"":0.20000000298023224},{""stimulus"":""run_exp/static/images/task_images/rocket-02.jpg"",""time"":1095.9000000022352},{""stimulus"":""run_exp/static/images/task_images/rocket-03.jpg"",""time"":2179.400000002235},{""stimulus"":""run_exp/static/images/task_images/rocket-04.jpg"",""time"":3265.2000000029802},{""stimulus"":""run_exp/static/images/task_images/rocket-05.jpg"",""time"":4351.300000000745},{""stimulus"":""run_exp/static/images/task_images/rocket-06.jpg"",""time"":5443.800000000745},{""stimulus"":""run_exp/static/images/task_images/rocket-07.jpg"",""time"":6522.800000000745},{""stimulus"":""run_exp/static/images/task_images/rocket-08.jpg"",""time"":7611.70000000298},{""stimulus"":""run_exp/static/images/task_images/rocket-09.jpg"",""time"":8697.60000000149}]",[],9,,,,,,,,,,,,,,
alien_welcome,149,538804,0.0-44.0-1.0,"""event"",""trial"",""time""
""fullscreenenter"",""1"",""2247""
","
","
","""event"",""trial"",""time""
""fullscreenenter"",""1"",""2247""
","
",,null,run_exp/static/images/task_images/aliens/old_aliens/planet/alien_planet-40.jpg,null,,,,,,,,,,,,,40,"77,58,27,34,47,45,28,4,56,40,53,44,64,79,3,10,21,66,7,19,14,50,22,71,26,25,67,51,68,54,60,30,15,72,69,75,46,31,20,17,35,78,42,2,74,80,65,13,37,11,33,5,52,73,38,63,36",,,,,,,,,,
land,150,539309,0.0-44.0-2.0,"""event"",""trial"",""time""
""fullscreenenter"",""1"",""2247""
","
","
","""event"",""trial"",""time""
""fullscreenenter"",""1"",""2247""
","
",,null,run_exp/static/images/task_images/land.jpg,null,,,,,,,104,,,10,,,,,,,,,,,,,,
dig,151,541319,0.0-44.0-3.0,"""event"",""trial"",""time""
""fullscreenenter"",""1"",""2247""
","
","
","""event"",""trial"",""time""
""fullscreenenter"",""1"",""2247""
","
",,,,,,,,,,,,"[{""stimulus"":""run_exp/static/images/task_images/dig.jpg"",""time"":0.30000000074505806},{""stimulus"":""run_exp/static/images/task_images/land.jpg"",""time"":673.9000000022352},{""stimulus"":""run_exp/static/images/task_images/dig.jpg"",""time"":1335.9000000022352}]",[],10,,,,,,,,,,,,,,
harvest,152,542326,0.0-44.0-4.0,"""event"",""trial"",""time""
""fullscreenenter"",""1"",""2247""
","
","
","""event"",""trial"",""time""
""fullscreenenter"",""1"",""2247""
","
",,null,run_exp/static/images/task_images/gems/104.jpg,null,,,,,,,21,,,10,,,,,104,0.198755439,0.201923077,,,,,,,
decision,153,542652,0.0-44.0-5.0,"""event"",""trial"",""time""
""fullscreenenter"",""1"",""2247""
","
","
","""event"",""trial"",""time""
""fullscreenenter"",""1"",""2247""
","
",,324.1,run_exp/static/images/task_images/land.jpg,65,,,,,,,21,,,10,,,,,,,,223876,1,0,FALSE,,,
dig,154,545333,0.0-45.0-0.0,"""event"",""trial"",""time""
""fullscreenenter"",""1"",""2247""
","
","
","""event"",""trial"",""time""
""fullscreenenter"",""1"",""2247""
","
",,,,,,,,,,,,"[{""stimulus"":""run_exp/static/images/task_images/dig.jpg"",""time"":0.10000000149011612},{""stimulus"":""run_exp/static/images/task_images/land.jpg"",""time"":893.6000000014901},{""stimulus"":""run_exp/static/images/task_images/dig.jpg"",""time"":1794.5}]",[],10,,,,,,,,,,,,,,
harvest,155,546340,0.0-45.0-1.0,"""event"",""trial"",""time""
""fullscreenenter"",""1"",""2247""
","
","
","""event"",""trial"",""time""
""fullscreenenter"",""1"",""2247""
","
",,null,run_exp/static/images/task_images/gems/21.jpg,null,,,,,,,3,,,10,,,,,21,0.165518596,0.142857143,,,,,,,
decision,156,546613,0.0-45.0-2.0,"""event"",""trial"",""time""
""fullscreenenter"",""1"",""2247""
","
","
","""event"",""trial"",""time""
""fullscreenenter"",""1"",""2247""
","
",,271.2,run_exp/static/images/task_images/land.jpg,76,,,,,,,3,,,10,,,,,,,,227837,1,1,TRUE,,,
travel,157,556343,0.0-46.0-0.0,"""event"",""trial"",""time""
""fullscreenenter"",""1"",""2247""
","
","
","""event"",""trial"",""time""
""fullscreenenter"",""1"",""2247""
","
",,,,,,,,,,,,"[{""stimulus"":""run_exp/static/images/task_images/rocket-01.jpg"",""time"":0.10000000149011612},{""stimulus"":""run_exp/static/images/task_images/rocket-02.jpg"",""time"":1087.4000000022352},{""stimulus"":""run_exp/static/images/task_images/rocket-03.jpg"",""time"":2165.400000002235},{""stimulus"":""run_exp/static/images/task_images/rocket-04.jpg"",""time"":3250},{""stimulus"":""run_exp/static/images/task_images/rocket-05.jpg"",""time"":4325.400000002235},{""stimulus"":""run_exp/static/images/task_images/rocket-06.jpg"",""time"":5407.699999999255},{""stimulus"":""run_exp/static/images/task_images/rocket-07.jpg"",""time"":6486.800000000745},{""stimulus"":""run_exp/static/images/task_images/rocket-08.jpg"",""time"":7565.400000002235},{""stimulus"":""run_exp/static/images/task_images/rocket-09.jpg"",""time"":8646.10000000149}]",[],10,,,,,,,,,,,,,,
alien_welcome,158,561352,0.0-46.0-1.0,"""event"",""trial"",""time""
""fullscreenenter"",""1"",""2247""
","
","
","""event"",""trial"",""time""
""fullscreenenter"",""1"",""2247""
","
",,null,run_exp/static/images/task_images/aliens/old_aliens/planet/alien_planet-53.jpg,null,,,,,,,,,,,,,53,"77,58,27,34,47,45,28,4,56,40,53,44,64,79,3,10,21,66,7,19,14,50,22,71,26,25,67,51,68,54,60,30,15,72,69,75,46,31,20,17,35,78,42,2,74,80,65,13,37,11,33,5,52,73,38,63,36",,,,,,,,,,
land,159,561860,0.0-46.0-2.0,"""event"",""trial"",""time""
""fullscreenenter"",""1"",""2247""
","
","
","""event"",""trial"",""time""
""fullscreenenter"",""1"",""2247""
","
",,null,run_exp/static/images/task_images/land.jpg,null,,,,,,,106,,,11,,,,,,,,,,,,,,
dig,160,563872,0.0-46.0-3.0,"""event"",""trial"",""time""
""fullscreenenter"",""1"",""2247""
","
","
","""event"",""trial"",""time""
""fullscreenenter"",""1"",""2247""
","
",,,,,,,,,,,,"[{""stimulus"":""run_exp/static/images/task_images/dig.jpg"",""time"":0.30000000074505806},{""stimulus"":""run_exp/static/images/task_images/land.jpg"",""time"":671.5},{""stimulus"":""run_exp/static/images/task_images/dig.jpg"",""time"":1343.300000000745}]",[],11,,,,,,,,,,,,,,
harvest,161,564876,0.0-46.0-4.0,"""event"",""trial"",""time""
""fullscreenenter"",""1"",""2247""
","
","
","""event"",""trial"",""time""
""fullscreenenter"",""1"",""2247""
","
",,null,run_exp/static/images/task_images/gems/106.jpg,null,,,,,,,31,,,11,,,,,106,0.288009821,0.29245283,,,,,,,
decision,162,565192,0.0-46.0-5.0,"""event"",""trial"",""time""
""fullscreenenter"",""1"",""2247""
","
","
","""event"",""trial"",""time""
""fullscreenenter"",""1"",""2247""
","
",,314.8,run_exp/static/images/task_images/land.jpg,65,,,,,,,31,,,11,,,,,,,,246416,1,0,FALSE,,,
dig,163,567888,0.0-47.0-0.0,"""event"",""trial"",""time""
""fullscreenenter"",""1"",""2247""
","
","
","""event"",""trial"",""time""
""fullscreenenter"",""1"",""2247""
","
",,,,,,,,,,,,"[{""stimulus"":""run_exp/static/images/task_images/dig.jpg"",""time"":0.10000000149011612},{""stimulus"":""run_exp/static/images/task_images/land.jpg"",""time"":898.1999999992549},{""stimulus"":""run_exp/static/images/task_images/dig.jpg"",""time"":1794.6000000014901}]",[],11,,,,,,,,,,,,,,
harvest,164,568892,0.0-47.0-1.0,"""event"",""trial"",""time""
""fullscreenenter"",""1"",""2247""
","
","
","""event"",""trial"",""time""
""fullscreenenter"",""1"",""2247""
","
",,null,run_exp/static/images/task_images/gems/31.jpg,null,,,,,,,6,,,11,,,,,31,0.196493012,0.193548387,,,,,,,
decision,165,569207,0.0-47.0-2.0,"""event"",""trial"",""time""
""fullscreenenter"",""1"",""2247""
","
","
","""event"",""trial"",""time""
""fullscreenenter"",""1"",""2247""
","
",,313.5,run_exp/static/images/task_images/land.jpg,76,,,,,,,6,,,11,,,,,,,,250431,1,1,TRUE,,,
travel,166,578899,0.0-48.0-0.0,"""event"",""trial"",""time""
""fullscreenenter"",""1"",""2247""
","
","
","""event"",""trial"",""time""
""fullscreenenter"",""1"",""2247""
","
",,,,,,,,,,,,"[{""stimulus"":""run_exp/static/images/task_images/rocket-01.jpg"",""time"":0.20000000298023224},{""stimulus"":""run_exp/static/images/task_images/rocket-02.jpg"",""time"":1081.1000000014901},{""stimulus"":""run_exp/static/images/task_images/rocket-03.jpg"",""time"":2162.5},{""stimulus"":""run_exp/static/images/task_images/rocket-04.jpg"",""time"":3236},{""stimulus"":""run_exp/static/images/task_images/rocket-05.jpg"",""time"":4317.900000002235},{""stimulus"":""run_exp/static/images/task_images/rocket-06.jpg"",""time"":5388},{""stimulus"":""run_exp/static/images/task_images/rocket-07.jpg"",""time"":6464.900000002235},{""stimulus"":""run_exp/static/images/task_images/rocket-08.jpg"",""time"":7537.900000002235},{""stimulus"":""run_exp/static/images/task_images/rocket-09.jpg"",""time"":8617.900000002235}]",[],11,,,,,,,,,,,,,,
alien_welcome,167,583908,0.0-48.0-1.0,"""event"",""trial"",""time""
""fullscreenenter"",""1"",""2247""
","
","
","""event"",""trial"",""time""
""fullscreenenter"",""1"",""2247""
","
",,null,run_exp/static/images/task_images/aliens/old_aliens/planet/alien_planet-44.jpg,null,,,,,,,,,,,,,44,"77,58,27,34,47,45,28,4,56,40,53,44,64,79,3,10,21,66,7,19,14,50,22,71,26,25,67,51,68,54,60,30,15,72,69,75,46,31,20,17,35,78,42,2,74,80,65,13,37,11,33,5,52,73,38,63,36",,,,,,,,,,
land,168,584412,0.0-48.0-2.0,"""event"",""trial"",""time""
""fullscreenenter"",""1"",""2247""
","
","
","""event"",""trial"",""time""
""fullscreenenter"",""1"",""2247""
","
",,null,run_exp/static/images/task_images/land.jpg,null,,,,,,,105,,,12,,,,,,,,,,,,,,
dig,169,586423,0.0-48.0-3.0,"""event"",""trial"",""time""
""fullscreenenter"",""1"",""2247""
","
","
","""event"",""trial"",""time""
""fullscreenenter"",""1"",""2247""
","
",,,,,,,,,,,,"[{""stimulus"":""run_exp/static/images/task_images/dig.jpg"",""time"":0.30000000074505806},{""stimulus"":""run_exp/static/images/task_images/land.jpg"",""time"":670.0999999977648},{""stimulus"":""run_exp/static/images/task_images/dig.jpg"",""time"":1335.199999999255}]",[],12,,,,,,,,,,,,,,
harvest,170,587429,0.0-48.0-4.0,"""event"",""trial"",""time""
""fullscreenenter"",""1"",""2247""
","
","
","""event"",""trial"",""time""
""fullscreenenter"",""1"",""2247""
","
",,null,run_exp/static/images/task_images/gems/105.jpg,null,,,,,,,19,,,12,,,,,105,0.177016332,0.180952381,,,,,,,
decision,171,587852,0.0-48.0-5.0,"""event"",""trial"",""time""
""fullscreenenter"",""1"",""2247""
","
","
","""event"",""trial"",""time""
""fullscreenenter"",""1"",""2247""
","
",,421.2,run_exp/static/images/task_images/land.jpg,65,,,,,,,19,,,12,,,,,,,,269076,1,0,FALSE,,,
dig,172,590439,0.0-49.0-0.0,"""event"",""trial"",""time""
""fullscreenenter"",""1"",""2247""
","
","
","""event"",""trial"",""time""
""fullscreenenter"",""1"",""2247""
","
",,,,,,,,,,,,"[{""stimulus"":""run_exp/static/images/task_images/dig.jpg"",""time"":0.09999999776482582},{""stimulus"":""run_exp/static/images/task_images/land.jpg"",""time"":865.1999999992549},{""stimulus"":""run_exp/static/images/task_images/dig.jpg"",""time"":1725.699999999255}]",[],12,,,,,,,,,,,,,,
harvest,173,591448,0.0-49.0-1.0,"""event"",""trial"",""time""
""fullscreenenter"",""1"",""2247""
","
","
","""event"",""trial"",""time""
""fullscreenenter"",""1"",""2247""
","
",,null,run_exp/static/images/task_images/gems/19.jpg,null,,,,,,,4,,,12,,,,,19,0.198738552,0.210526316,,,,,,,
decision,174,591760,0.0-49.0-2.0,"""event"",""trial"",""time""
""fullscreenenter"",""1"",""2247""
","
","
","""event"",""trial"",""time""
""fullscreenenter"",""1"",""2247""
","
",,310.8,run_exp/static/images/task_images/land.jpg,76,,,,,,,4,,,12,,,,,,,,272984,1,1,TRUE,,,
travel,175,601451,0.0-50.0-0.0,"""event"",""trial"",""time""
""fullscreenenter"",""1"",""2247""
","
","
","""event"",""trial"",""time""
""fullscreenenter"",""1"",""2247""
","
",,,,,,,,,,,,"[{""stimulus"":""run_exp/static/images/task_images/rocket-01.jpg"",""time"":0.10000000149011612},{""stimulus"":""run_exp/static/images/task_images/rocket-02.jpg"",""time"":1083.6000000014901},{""stimulus"":""run_exp/static/images/task_images/rocket-03.jpg"",""time"":2165.300000000745},{""stimulus"":""run_exp/static/images/task_images/rocket-04.jpg"",""time"":3232.5},{""stimulus"":""run_exp/static/images/task_images/rocket-05.jpg"",""time"":4316.20000000298},{""stimulus"":""run_exp/static/images/task_images/rocket-06.jpg"",""time"":5386.10000000149},{""stimulus"":""run_exp/static/images/task_images/rocket-07.jpg"",""time"":6467},{""stimulus"":""run_exp/static/images/task_images/rocket-08.jpg"",""time"":7541.300000000745},{""stimulus"":""run_exp/static/images/task_images/rocket-09.jpg"",""time"":8617.800000000745}]",[],12,,,,,,,,,,,,,,
alien_welcome,176,606459,0.0-50.0-1.0,"""event"",""trial"",""time""
""fullscreenenter"",""1"",""2247""
","
","
","""event"",""trial"",""time""
""fullscreenenter"",""1"",""2247""
","
",,null,run_exp/static/images/task_images/aliens/old_aliens/planet/alien_planet-64.jpg,null,,,,,,,,,,,,,64,"77,58,27,34,47,45,28,4,56,40,53,44,64,79,3,10,21,66,7,19,14,50,22,71,26,25,67,51,68,54,60,30,15,72,69,75,46,31,20,17,35,78,42,2,74,80,65,13,37,11,33,5,52,73,38,63,36",,,,,,,,,,
land,177,606968,0.0-50.0-2.0,"""event"",""trial"",""time""
""fullscreenenter"",""1"",""2247""
","
","
","""event"",""trial"",""time""
""fullscreenenter"",""1"",""2247""
","
",,null,run_exp/static/images/task_images/land.jpg,null,,,,,,,99,,,13,,,,,,,,,,,,,,
dig,178,608984,0.0-50.0-3.0,"""event"",""trial"",""time""
""fullscreenenter"",""1"",""2247""
","
","
","""event"",""trial"",""time""
""fullscreenenter"",""1"",""2247""
","
",,,,,,,,,,,,"[{""stimulus"":""run_exp/static/images/task_images/dig.jpg"",""time"":0.30000000074505806},{""stimulus"":""run_exp/static/images/task_images/land.jpg"",""time"":676.1999999992549},{""stimulus"":""run_exp/static/images/task_images/dig.jpg"",""time"":1339.300000000745}]",[],13,,,,,,,,,,,,,,
harvest,179,609988,0.0-50.0-4.0,"""event"",""trial"",""time""
""fullscreenenter"",""1"",""2247""
","
","
","""event"",""trial"",""time""
""fullscreenenter"",""1"",""2247""
","
",,null,run_exp/static/images/task_images/gems/99.jpg,null,,,,,,,26,,,13,,,,,99,0.266128685,0.262626263,,,,,,,
decision,180,610422,0.0-50.0-5.0,"""event"",""trial"",""time""
""fullscreenenter"",""1"",""2247""
","
","
","""event"",""trial"",""time""
""fullscreenenter"",""1"",""2247""
","
",,432.8,run_exp/static/images/task_images/land.jpg,65,,,,,,,26,,,13,,,,,,,,291646,1,0,FALSE,,,
dig,181,613000,0.0-51.0-0.0,"""event"",""trial"",""time""
""fullscreenenter"",""1"",""2247""
","
","
","""event"",""trial"",""time""
""fullscreenenter"",""1"",""2247""
","
",,,,,,,,,,,,"[{""stimulus"":""run_exp/static/images/task_images/dig.jpg"",""time"":0.10000000149011612},{""stimulus"":""run_exp/static/images/task_images/land.jpg"",""time"":858.6000000014901},{""stimulus"":""run_exp/static/images/task_images/dig.jpg"",""time"":1714.199999999255}]",[],13,,,,,,,,,,,,,,
harvest,182,614006,0.0-51.0-1.0,"""event"",""trial"",""time""
""fullscreenenter"",""1"",""2247""
","
","
","""event"",""trial"",""time""
""fullscreenenter"",""1"",""2247""
","
",,null,run_exp/static/images/task_images/gems/26.jpg,null,,,,,,,6,,,13,,,,,26,0.227850773,0.230769231,,,,,,,
decision,183,614077,0.0-51.0-2.0,"""event"",""trial"",""time""
""fullscreenenter"",""1"",""2247""
","
","
","""event"",""trial"",""time""
""fullscreenenter"",""1"",""2247""
","
",,69.3,run_exp/static/images/task_images/land.jpg,76,,,,,,,6,,,13,,,,,,,,295301,1,1,TRUE,,,
travel,184,624016,0.0-52.0-0.0,"""event"",""trial"",""time""
""fullscreenenter"",""1"",""2247""
","
","
","""event"",""trial"",""time""
""fullscreenenter"",""1"",""2247""
","
",,,,,,,,,,,,"[{""stimulus"":""run_exp/static/images/task_images/rocket-01.jpg"",""time"":0.10000000149011612},{""stimulus"":""run_exp/static/images/task_images/rocket-02.jpg"",""time"":1108},{""stimulus"":""run_exp/static/images/task_images/rocket-03.jpg"",""time"":2212.60000000149},{""stimulus"":""run_exp/static/images/task_images/rocket-04.jpg"",""time"":3318.699999999255},{""stimulus"":""run_exp/static/images/task_images/rocket-05.jpg"",""time"":4419.300000000745},{""stimulus"":""run_exp/static/images/task_images/rocket-06.jpg"",""time"":5524.199999999255},{""stimulus"":""run_exp/static/images/task_images/rocket-07.jpg"",""time"":6619.199999999255},{""stimulus"":""run_exp/static/images/task_images/rocket-08.jpg"",""time"":7728},{""stimulus"":""run_exp/static/images/task_images/rocket-09.jpg"",""time"":8826.60000000149}]",[],13,,,,,,,,,,,,,,
alien_welcome,185,629023,0.0-52.0-1.0,"""event"",""trial"",""time""
""fullscreenenter"",""1"",""2247""
","
","
","""event"",""trial"",""time""
""fullscreenenter"",""1"",""2247""
","
",,null,run_exp/static/images/task_images/aliens/old_aliens/planet/alien_planet-79.jpg,null,,,,,,,,,,,,,79,"77,58,27,34,47,45,28,4,56,40,53,44,64,79,3,10,21,66,7,19,14,50,22,71,26,25,67,51,68,54,60,30,15,72,69,75,46,31,20,17,35,78,42,2,74,80,65,13,37,11,33,5,52,73,38,63,36",,,,,,,,,,
land,186,629535,0.0-52.0-2.0,"""event"",""trial"",""time""
""fullscreenenter"",""1"",""2247""
","
","
","""event"",""trial"",""time""
""fullscreenenter"",""1"",""2247""
","
",,null,run_exp/static/images/task_images/land.jpg,null,,,,,,,113,,,14,,,,,,,,,,,,,,
dig,187,631549,0.0-52.0-3.0,"""event"",""trial"",""time""
""fullscreenenter"",""1"",""2247""
","
","
","""event"",""trial"",""time""
""fullscreenenter"",""1"",""2247""
","
",,,,,,,,,,,,"[{""stimulus"":""run_exp/static/images/task_images/dig.jpg"",""time"":0.3999999985098839},{""stimulus"":""run_exp/static/images/task_images/land.jpg"",""time"":673.6999999992549},{""stimulus"":""run_exp/static/images/task_images/dig.jpg"",""time"":1338}]",[],14,,,,,,,,,,,,,,
harvest,188,632556,0.0-52.0-4.0,"""event"",""trial"",""time""
""fullscreenenter"",""1"",""2247""
","
","
","""event"",""trial"",""time""
""fullscreenenter"",""1"",""2247""
","
",,null,run_exp/static/images/task_images/gems/113.jpg,null,,,,,,,92,,,14,,,,,113,0.810444457,0.814159292,,,,,,,
decision,189,632892,0.0-52.0-5.0,"""event"",""trial"",""time""
""fullscreenenter"",""1"",""2247""
","
","
","""event"",""trial"",""time""
""fullscreenenter"",""1"",""2247""
","
",,334.4,run_exp/static/images/task_images/land.jpg,65,,,,,,,92,,,14,,,,,,,,314116,1,0,TRUE,,,
end_of_block_continue,190,641909,0.0-53.0-0.0,"""event"",""trial"",""time""
""fullscreenenter"",""1"",""2247""
","
","
","""event"",""trial"",""time""
""fullscreenenter"",""1"",""2247""
","
",,null,run_exp/static/audio/clip_32_block_end.m4a,,,,,,,null,,,,,,,,,,,,,,,,,,
alien_welcome,191,646923,0.0-54.0-0.0,"""event"",""trial"",""time""
""fullscreenenter"",""1"",""2247""
","
","
","""event"",""trial"",""time""
""fullscreenenter"",""1"",""2247""
","
",,null,run_exp/static/images/task_images/aliens/old_aliens/planet/alien_planet-3.jpg,null,,,,,,,,,,,,,3,"77,58,27,34,47,45,28,4,56,40,53,44,64,79,3,10,21,66,7,19,14,50,22,71,26,25,67,51,68,54,60,30,15,72,69,75,46,31,20,17,35,78,42,2,74,80,65,13,37,11,33,5,52,73,38,63,36",,,,,,,,,,
land,192,647428,0.0-54.0-1.0,"""event"",""trial"",""time""
""fullscreenenter"",""1"",""2247""
","
","
","""event"",""trial"",""time""
""fullscreenenter"",""1"",""2247""
","
",,null,run_exp/static/images/task_images/land.jpg,null,,,,,,,99,,,15,,,,,,,,,,,,,,
dig,193,649438,0.0-54.0-2.0,"""event"",""trial"",""time""
""fullscreenenter"",""1"",""2247""
","
","
","""event"",""trial"",""time""
""fullscreenenter"",""1"",""2247""
","
",,,,,,,,,,,,"[{""stimulus"":""run_exp/static/images/task_images/dig.jpg"",""time"":0.29999999701976776},{""stimulus"":""run_exp/static/images/task_images/land.jpg"",""time"":669.5999999977648},{""stimulus"":""run_exp/static/images/task_images/dig.jpg"",""time"":1342.199999999255}]",[],15,,,,,,,,,,,,,,
harvest,194,650445,0.0-54.0-3.0,"""event"",""trial"",""time""
""fullscreenenter"",""1"",""2247""
","
","
","""event"",""trial"",""time""
""fullscreenenter"",""1"",""2247""
","
",,null,run_exp/static/images/task_images/gems/99.jpg,null,,,,,,,8,,,15,,,,,99,0.085748789,0.080808081,,,,,,,
decision,195,651206,0.0-54.0-4.0,"""event"",""trial"",""time""
""fullscreenenter"",""1"",""2247""
","
","
","""event"",""trial"",""time""
""fullscreenenter"",""1"",""2247""
","
",,758.8,run_exp/static/images/task_images/land.jpg,76,,,,,,,8,,,15,,,,,,,,9294,2,0,TRUE,,,
travel,196,660454,0.0-55.0-0.0,"""event"",""trial"",""time""
""fullscreenenter"",""1"",""2247""
","
","
","""event"",""trial"",""time""
""fullscreenenter"",""1"",""2247""
","
",,,,,,,,,,,,"[{""stimulus"":""run_exp/static/images/task_images/rocket-01.jpg"",""time"":0.09999999776482582},{""stimulus"":""run_exp/static/images/task_images/rocket-02.jpg"",""time"":1033.5},{""stimulus"":""run_exp/static/images/task_images/rocket-03.jpg"",""time"":2059.099999997765},{""stimulus"":""run_exp/static/images/task_images/rocket-04.jpg"",""time"":3082.599999997765},{""stimulus"":""run_exp/static/images/task_images/rocket-05.jpg"",""time"":4109.599999997765},{""stimulus"":""run_exp/static/images/task_images/rocket-06.jpg"",""time"":5139.199999999255},{""stimulus"":""run_exp/static/images/task_images/rocket-07.jpg"",""time"":6166.5},{""stimulus"":""run_exp/static/images/task_images/rocket-08.jpg"",""time"":7186.39999999851},{""stimulus"":""run_exp/static/images/task_images/rocket-09.jpg"",""time"":8214.099999997765}]",[],15,,,,,,,,,,,,,,
alien_welcome,197,665459,0.0-55.0-1.0,"""event"",""trial"",""time""
""fullscreenenter"",""1"",""2247""
","
","
","""event"",""trial"",""time""
""fullscreenenter"",""1"",""2247""
","
",,null,run_exp/static/images/task_images/aliens/old_aliens/planet/alien_planet-10.jpg,null,,,,,,,,,,,,,10,"77,58,27,34,47,45,28,4,56,40,53,44,64,79,3,10,21,66,7,19,14,50,22,71,26,25,67,51,68,54,60,30,15,72,69,75,46,31,20,17,35,78,42,2,74,80,65,13,37,11,33,5,52,73,38,63,36",,,,,,,,,,
land,198,665963,0.0-55.0-2.0,"""event"",""trial"",""time""
""fullscreenenter"",""1"",""2247""
","
","
","""event"",""trial"",""time""
""fullscreenenter"",""1"",""2247""
","
",,null,run_exp/static/images/task_images/land.jpg,null,,,,,,,96,,,16,,,,,,,,,,,,,,
dig,199,667975,0.0-55.0-3.0,"""event"",""trial"",""time""
""fullscreenenter"",""1"",""2247""
","
","
","""event"",""trial"",""time""
""fullscreenenter"",""1"",""2247""
","
",,,,,,,,,,,,"[{""stimulus"":""run_exp/static/images/task_images/dig.jpg"",""time"":0.30000000074505806},{""stimulus"":""run_exp/static/images/task_images/land.jpg"",""time"":673.3000000007451},{""stimulus"":""run_exp/static/images/task_images/dig.jpg"",""time"":1336.9000000022352}]",[],16,,,,,,,,,,,,,,
harvest,200,668978,0.0-55.0-4.0,"""event"",""trial"",""time""
""fullscreenenter"",""1"",""2247""
","
","
","""event"",""trial"",""time""
""fullscreenenter"",""1"",""2247""
","
",,null,run_exp/static/images/task_images/gems/96.jpg,null,,,,,,,19,,,16,,,,,96,0.199849832,0.197916667,,,,,,,
decision,201,669574,0.0-55.0-5.0,"""event"",""trial"",""time""
""fullscreenenter"",""1"",""2247""
","
","
","""event"",""trial"",""time""
""fullscreenenter"",""1"",""2247""
","
",,594.3,run_exp/static/images/task_images/land.jpg,65,,,,,,,19,,,16,,,,,,,,27662,2,0,FALSE,,,
dig,202,671988,0.0-56.0-0.0,"""event"",""trial"",""time""
""fullscreenenter"",""1"",""2247""
","
","
","""event"",""trial"",""time""
""fullscreenenter"",""1"",""2247""
","
",,,,,,,,,,,,"[{""stimulus"":""run_exp/static/images/task_images/dig.jpg"",""time"":0.10000000149011612},{""stimulus"":""run_exp/static/images/task_images/land.jpg"",""time"":803},{""stimulus"":""run_exp/static/images/task_images/dig.jpg"",""time"":1612.5}]",[],16,,,,,,,,,,,,,,
harvest,203,672995,0.0-56.0-1.0,"""event"",""trial"",""time""
""fullscreenenter"",""1"",""2247""
","
","
","""event"",""trial"",""time""
""fullscreenenter"",""1"",""2247""
","
",,null,run_exp/static/images/task_images/gems/19.jpg,null,,,,,,,4,,,16,,,,,19,0.230826085,0.210526316,,,,,,,
decision,204,673154,0.0-56.0-2.0,"""event"",""trial"",""time""
""fullscreenenter"",""1"",""2247""
","
","
","""event"",""trial"",""time""
""fullscreenenter"",""1"",""2247""
","
",,157.8,run_exp/static/images/task_images/land.jpg,76,,,,,,,4,,,16,,,,,,,,31242,2,1,TRUE,,,
travel,205,683003,0.0-57.0-0.0,"""event"",""trial"",""time""
""fullscreenenter"",""1"",""2247""
","
","
","""event"",""trial"",""time""
""fullscreenenter"",""1"",""2247""
","
",,,,,,,,,,,,"[{""stimulus"":""run_exp/static/images/task_images/rocket-01.jpg"",""time"":0.10000000149011612},{""stimulus"":""run_exp/static/images/task_images/rocket-02.jpg"",""time"":1105.2000000029802},{""stimulus"":""run_exp/static/images/task_images/rocket-03.jpg"",""time"":2189.900000002235},{""stimulus"":""run_exp/static/images/task_images/rocket-04.jpg"",""time"":3284.7000000029802},{""stimulus"":""run_exp/static/images/task_images/rocket-05.jpg"",""time"":4381.300000000745},{""stimulus"":""run_exp/static/images/task_images/rocket-06.jpg"",""time"":5470.60000000149},{""stimulus"":""run_exp/static/images/task_images/rocket-07.jpg"",""time"":6564.5},{""stimulus"":""run_exp/static/images/task_images/rocket-08.jpg"",""time"":7657.20000000298},{""stimulus"":""run_exp/static/images/task_images/rocket-09.jpg"",""time"":8753.20000000298}]",[],16,,,,,,,,,,,,,,
alien_welcome,206,688011,0.0-57.0-1.0,"""event"",""trial"",""time""
""fullscreenenter"",""1"",""2247""
","
","
","""event"",""trial"",""time""
""fullscreenenter"",""1"",""2247""
","
",,null,run_exp/static/images/task_images/aliens/old_aliens/planet/alien_planet-21.jpg,null,,,,,,,,,,,,,21,"77,58,27,34,47,45,28,4,56,40,53,44,64,79,3,10,21,66,7,19,14,50,22,71,26,25,67,51,68,54,60,30,15,72,69,75,46,31,20,17,35,78,42,2,74,80,65,13,37,11,33,5,52,73,38,63,36",,,,,,,,,,
land,207,688517,0.0-57.0-2.0,"""event"",""trial"",""time""
""fullscreenenter"",""1"",""2247""
","
","
","""event"",""trial"",""time""
""fullscreenenter"",""1"",""2247""
","
",,null,run_exp/static/images/task_images/land.jpg,null,,,,,,,105,,,17,,,,,,,,,,,,,,
dig,208,690526,0.0-57.0-3.0,"""event"",""trial"",""time""
""fullscreenenter"",""1"",""2247""
","
","
","""event"",""trial"",""time""
""fullscreenenter"",""1"",""2247""
","
",,,,,,,,,,,,"[{""stimulus"":""run_exp/static/images/task_images/dig.jpg"",""time"":0.3999999985098839},{""stimulus"":""run_exp/static/images/task_images/land.jpg"",""time"":678.5},{""stimulus"":""run_exp/static/images/task_images/dig.jpg"",""time"":1342.5999999977648}]",[],17,,,,,,,,,,,,,,
harvest,209,691531,0.0-57.0-4.0,"""event"",""trial"",""time""
""fullscreenenter"",""1"",""2247""
","
","
","""event"",""trial"",""time""
""fullscreenenter"",""1"",""2247""
","
",,null,run_exp/static/images/task_images/gems/105.jpg,null,,,,,,,22,,,17,,,,,105,0.204761941,0.20952381,,,,,,,
decision,210,692329,0.0-57.0-5.0,"""event"",""trial"",""time""
""fullscreenenter"",""1"",""2247""
","
","
","""event"",""trial"",""time""
""fullscreenenter"",""1"",""2247""
","
",,796.2,run_exp/static/images/task_images/land.jpg,65,,,,,,,22,,,17,,,,,,,,50417,2,0,FALSE,,,
dig,211,694542,0.0-58.0-0.0,"""event"",""trial"",""time""
""fullscreenenter"",""1"",""2247""
","
","
","""event"",""trial"",""time""
""fullscreenenter"",""1"",""2247""
","
",,,,,,,,,,,,"[{""stimulus"":""run_exp/static/images/task_images/dig.jpg"",""time"":0.09999999776482582},{""stimulus"":""run_exp/static/images/task_images/land.jpg"",""time"":743.5999999977648},{""stimulus"":""run_exp/static/images/task_images/dig.jpg"",""time"":1475.0999999977648}]",[],17,,,,,,,,,,,,,,
harvest,212,695546,0.0-58.0-1.0,"""event"",""trial"",""time""
""fullscreenenter"",""1"",""2247""
","
","
","""event"",""trial"",""time""
""fullscreenenter"",""1"",""2247""
","
",,null,run_exp/static/images/task_images/gems/22.jpg,null,,,,,,,3,,,17,,,,,22,0.128019246,0.136363636,,,,,,,
decision,213,695549,0.0-58.0-2.0,"""event"",""trial"",""time""
""fullscreenenter"",""1"",""2247""
","
","
","""event"",""trial"",""time""
""fullscreenenter"",""1"",""2247""
","
",,0.400000002,run_exp/static/images/task_images/land.jpg,76,,,,,,,3,,,17,,,,,,,,53637,2,1,TRUE,,,
travel,214,705557,0.0-59.0-0.0,"""event"",""trial"",""time""
""fullscreenenter"",""1"",""2247""
","
","
","""event"",""trial"",""time""
""fullscreenenter"",""1"",""2247""
","
",,,,,,,,,,,,"[{""stimulus"":""run_exp/static/images/task_images/rocket-01.jpg"",""time"":0.19999999925494194},{""stimulus"":""run_exp/static/images/task_images/rocket-02.jpg"",""time"":1114.6000000014901},{""stimulus"":""run_exp/static/images/task_images/rocket-03.jpg"",""time"":2231.5},{""stimulus"":""run_exp/static/images/task_images/rocket-04.jpg"",""time"":3339.400000002235},{""stimulus"":""run_exp/static/images/task_images/rocket-05.jpg"",""time"":4451.60000000149},{""stimulus"":""run_exp/static/images/task_images/rocket-06.jpg"",""time"":5566.300000000745},{""stimulus"":""run_exp/static/images/task_images/rocket-07.jpg"",""time"":6676.400000002235},{""stimulus"":""run_exp/static/images/task_images/rocket-08.jpg"",""time"":7782.60000000149},{""stimulus"":""run_exp/static/images/task_images/rocket-09.jpg"",""time"":8895.5}]",[],17,,,,,,,,,,,,,,
alien_welcome,215,710563,0.0-59.0-1.0,"""event"",""trial"",""time""
""fullscreenenter"",""1"",""2247""
","
","
","""event"",""trial"",""time""
""fullscreenenter"",""1"",""2247""
","
",,null,run_exp/static/images/task_images/aliens/old_aliens/planet/alien_planet-66.jpg,null,,,,,,,,,,,,,66,"77,58,27,34,47,45,28,4,56,40,53,44,64,79,3,10,21,66,7,19,14,50,22,71,26,25,67,51,68,54,60,30,15,72,69,75,46,31,20,17,35,78,42,2,74,80,65,13,37,11,33,5,52,73,38,63,36",,,,,,,,,,
land,216,711070,0.0-59.0-2.0,"""event"",""trial"",""time""
""fullscreenenter"",""1"",""2247""
","
","
","""event"",""trial"",""time""
""fullscreenenter"",""1"",""2247""
","
",,null,run_exp/static/images/task_images/land.jpg,null,,,,,,,103,,,18,,,,,,,,,,,,,,
dig,217,713081,0.0-59.0-3.0,"""event"",""trial"",""time""
""fullscreenenter"",""1"",""2247""
","
","
","""event"",""trial"",""time""
""fullscreenenter"",""1"",""2247""
","
",,,,,,,,,,,,"[{""stimulus"":""run_exp/static/images/task_images/dig.jpg"",""time"":0.3999999985098839},{""stimulus"":""run_exp/static/images/task_images/land.jpg"",""time"":676.3000000007451},{""stimulus"":""run_exp/static/images/task_images/dig.jpg"",""time"":1338.800000000745}]",[],18,,,,,,,,,,,,,,
harvest,218,714094,0.0-59.0-4.0,"""event"",""trial"",""time""
""fullscreenenter"",""1"",""2247""
","
","
","""event"",""trial"",""time""
""fullscreenenter"",""1"",""2247""
","
",,null,run_exp/static/images/task_images/gems/103.jpg,null,,,,,,,83,,,18,,,,,103,0.807029112,0.805825243,,,,,,,
decision,219,714496,0.0-59.0-5.0,"""event"",""trial"",""time""
""fullscreenenter"",""1"",""2247""
","
","
","""event"",""trial"",""time""
""fullscreenenter"",""1"",""2247""
","
",,400.1,run_exp/static/images/task_images/land.jpg,76,,,,,,,83,,,18,,,,,,,,72584,2,0,TRUE,,,
travel,220,724097,0.0-60.0-0.0,"""event"",""trial"",""time""
""fullscreenenter"",""1"",""2247""
","
","
","""event"",""trial"",""time""
""fullscreenenter"",""1"",""2247""
","
",,,,,,,,,,,,"[{""stimulus"":""run_exp/static/images/task_images/rocket-01.jpg"",""time"":0.20000000298023224},{""stimulus"":""run_exp/static/images/task_images/rocket-02.jpg"",""time"":1071.300000000745},{""stimulus"":""run_exp/static/images/task_images/rocket-03.jpg"",""time"":2134.60000000149},{""stimulus"":""run_exp/static/images/task_images/rocket-04.jpg"",""time"":3208},{""stimulus"":""run_exp/static/images/task_images/rocket-05.jpg"",""time"":4270.70000000298},{""stimulus"":""run_exp/static/images/task_images/rocket-06.jpg"",""time"":5339.300000000745},{""stimulus"":""run_exp/static/images/task_images/rocket-07.jpg"",""time"":6398.60000000149},{""stimulus"":""run_exp/static/images/task_images/rocket-08.jpg"",""time"":7475.300000000745},{""stimulus"":""run_exp/static/images/task_images/rocket-09.jpg"",""time"":8534.60000000149}]",[],18,,,,,,,,,,,,,,
alien_welcome,221,729110,0.0-60.0-1.0,"""event"",""trial"",""time""
""fullscreenenter"",""1"",""2247""
","
","
","""event"",""trial"",""time""
""fullscreenenter"",""1"",""2247""
","
",,null,run_exp/static/images/task_images/aliens/old_aliens/planet/alien_planet-7.jpg,null,,,,,,,,,,,,,7,"77,58,27,34,47,45,28,4,56,40,53,44,64,79,3,10,21,66,7,19,14,50,22,71,26,25,67,51,68,54,60,30,15,72,69,75,46,31,20,17,35,78,42,2,74,80,65,13,37,11,33,5,52,73,38,63,36",,,,,,,,,,
land,222,729617,0.0-60.0-2.0,"""event"",""trial"",""time""
""fullscreenenter"",""1"",""2247""
","
","
","""event"",""trial"",""time""
""fullscreenenter"",""1"",""2247""
","
",,null,run_exp/static/images/task_images/land.jpg,null,,,,,,,105,,,19,,,,,,,,,,,,,,
dig,223,731627,0.0-60.0-3.0,"""event"",""trial"",""time""
""fullscreenenter"",""1"",""2247""
","
","
","""event"",""trial"",""time""
""fullscreenenter"",""1"",""2247""
","
",,,,,,,,,,,,"[{""stimulus"":""run_exp/static/images/task_images/dig.jpg"",""time"":0.30000000074505806},{""stimulus"":""run_exp/static/images/task_images/land.jpg"",""time"":670.8000000007451},{""stimulus"":""run_exp/static/images/task_images/dig.jpg"",""time"":1335.300000000745}]",[],19,,,,,,,,,,,,,,
harvest,224,732634,0.0-60.0-4.0,"""event"",""trial"",""time""
""fullscreenenter"",""1"",""2247""
","
","
","""event"",""trial"",""time""
""fullscreenenter"",""1"",""2247""
","
",,null,run_exp/static/images/task_images/gems/105.jpg,null,,,,,,,86,,,19,,,,,105,0.821673152,0.819047619,,,,,,,
decision,225,733058,0.0-60.0-5.0,"""event"",""trial"",""time""
""fullscreenenter"",""1"",""2247""
","
","
","""event"",""trial"",""time""
""fullscreenenter"",""1"",""2247""
","
",,422.5,run_exp/static/images/task_images/land.jpg,76,,,,,,,86,,,19,,,,,,,,91146,2,0,TRUE,,,
travel,226,742644,0.0-61.0-0.0,"""event"",""trial"",""time""
""fullscreenenter"",""1"",""2247""
","
","
","""event"",""trial"",""time""
""fullscreenenter"",""1"",""2247""
","
",,,,,,,,,,,,"[{""stimulus"":""run_exp/static/images/task_images/rocket-01.jpg"",""time"":0.20000000298023224},{""stimulus"":""run_exp/static/images/task_images/rocket-02.jpg"",""time"":1065.5},{""stimulus"":""run_exp/static/images/task_images/rocket-03.jpg"",""time"":2129.400000002235},{""stimulus"":""run_exp/static/images/task_images/rocket-04.jpg"",""time"":3193.300000000745},{""stimulus"":""run_exp/static/images/task_images/rocket-05.jpg"",""time"":4262},{""stimulus"":""run_exp/static/images/task_images/rocket-06.jpg"",""time"":5326.60000000149},{""stimulus"":""run_exp/static/images/task_images/rocket-07.jpg"",""time"":6391.20000000298},{""stimulus"":""run_exp/static/images/task_images/rocket-08.jpg"",""time"":7454.10000000149},{""stimulus"":""run_exp/static/images/task_images/rocket-09.jpg"",""time"":8519.900000002235}]",[],19,,,,,,,,,,,,,,
alien_welcome,227,747654,0.0-61.0-1.0,"""event"",""trial"",""time""
""fullscreenenter"",""1"",""2247""
","
","
","""event"",""trial"",""time""
""fullscreenenter"",""1"",""2247""
","
",,null,run_exp/static/images/task_images/aliens/old_aliens/planet/alien_planet-19.jpg,null,,,,,,,,,,,,,19,"77,58,27,34,47,45,28,4,56,40,53,44,64,79,3,10,21,66,7,19,14,50,22,71,26,25,67,51,68,54,60,30,15,72,69,75,46,31,20,17,35,78,42,2,74,80,65,13,37,11,33,5,52,73,38,63,36",,,,,,,,,,
land,228,748166,0.0-61.0-2.0,"""event"",""trial"",""time""
""fullscreenenter"",""1"",""2247""
","
","
","""event"",""trial"",""time""
""fullscreenenter"",""1"",""2247""
","
",,null,run_exp/static/images/task_images/land.jpg,null,,,,,,,98,,,20,,,,,,,,,,,,,,
