trial_type,trial_index,time_elapsed,internal_node_id,interactions,blur_events,focus_events,fullscreenenter_events,fullscreenexit_events,success,rt,stimulus,key_press,prompt,subject_id,participant_id,age,gender,button_pressed,next_reward,animation_sequence,responses,planet,curr_prac_trial,n_prac_rounds,alien,aliens,reward_received,decay_rate_actual,decay_rate_exp,time_in_block,block_num,prt,last_trial_on_planet,button_html,bonus,num_failures
pavlovia,0,2,0.0-0.0,"""event"",""trial"",""time""
""fullscreenenter"",""1"",""1861""
","
","
","""event"",""trial"",""time""
""fullscreenenter"",""1"",""1861""
","
",,,,,,,,,,,,,,,,,,,,,,,,,,,,
fullscreen,1,2841,0.0-1.0,"""event"",""trial"",""time""
""fullscreenenter"",""1"",""1861""
","
","
","""event"",""trial"",""time""
""fullscreenenter"",""1"",""1861""
","
",TRUE,,,,,,,,,,,,,,,,,,,,,,,,,,,
instruc_welcome,2,12554,0.0-2.0,"""event"",""trial"",""time""
""fullscreenenter"",""1"",""1861""
","
","
","""event"",""trial"",""time""
""fullscreenenter"",""1"",""1861""
","
",,null,run_exp/static/audio/clip_1_welcome.m4a,null,"<p>Howdy! In this experiment, you’ll be an explorer traveling through space to collect space treasure.</p><p>Your mission is to collect as much treasure as possible.</p><br><br><p><img src='run_exp/static/images/task_images/opening_img-01.jpg' height='300' width='auto'></p>",9741,3964,25,Male,,,,,,,,,,,,,,,,,,,
audio-keyboard-response,3,29134,0.0-3.0,"""event"",""trial"",""time""
""fullscreenenter"",""1"",""1861""
","
","
","""event"",""trial"",""time""
""fullscreenenter"",""1"",""1861""
","
",,null,run_exp/static/audio/clip_2_move.m4a,null,,,,,,,,,,,,,,,,,,,,,,,,
welcome_dec,4,30020,0.0-4.0,"""event"",""trial"",""time""
""fullscreenenter"",""1"",""1861""
","
","
","""event"",""trial"",""time""
""fullscreenenter"",""1"",""1861""
","
",,884,"<p>Howdy! In this experiment, you’ll be an explorer traveling through space to collect space treasure.</p><p>Your mission is to collect as much treasure as possible.</p><br><br><p><img src='run_exp/static/images/task_images/opening_img-01.jpg' height='300' width='auto'></p>",,,,,,,1,,,,,,,,,,,,,,,,,,
html-keyboard-response,5,30368,0.0-5.0,"""event"",""trial"",""time""
""fullscreenenter"",""1"",""1861""
","
","
","""event"",""trial"",""time""
""fullscreenenter"",""1"",""1861""
","
",,348,"<p>Howdy! In this experiment, you’ll be an explorer traveling through space to collect space treasure.</p><p>Your mission is to collect as much treasure as possible.</p><br><br><p><img src='run_exp/static/images/task_images/opening_img-01.jpg' height='300' width='auto'></p><button class=""jspsych-html-btn-unchosen""><img src=""run_exp/static/images/task_images/planet-01.jpg"" height=""50""></button><button class=""jspsych-html-btn-chosen""><img src=""run_exp/static/images/task_images/planet-02.jpg"" height=""50""></button><p><b>[press the space bar to lock in your answer]<b><br></p>",32,,,,,,,,,,,,,,,,,,,,,,,,
instruc_goal,6,40434,0.0-6.0-0.0,"""event"",""trial"",""time""
""fullscreenenter"",""1"",""1861""
","
","
","""event"",""trial"",""time""
""fullscreenenter"",""1"",""1861""
","
",,null,run_exp/static/audio/clip_3_goal.m4a,null,"<p> As a space explorer, you’ll visit different planets to dig for space treasure, these pink gems.</p> <p> The more treasure you dig up, the more bonus money you’ll win! </p><br><br><p><img src='run_exp/static/images/task_images/pink_gem.jpg' height='300' width='auto'></p>",,,,,,,,,,,,,,,,,,,,,,,
instruc_goal,7,40989,0.0-6.0-1.0,"""event"",""trial"",""time""
""fullscreenenter"",""1"",""1861""
","
","
","""event"",""trial"",""time""
""fullscreenenter"",""1"",""1861""
","
",,555,"<p> As a space explorer, you’ll visit different planets to dig for space treasure, these pink gems.</p> <p> The more treasure you dig up, the more bonus money you’ll win! </p><br><br><p><img src='run_exp/static/images/task_images/pink_gem.jpg' height='300' width='auto'></p>",,,,,,,1,,,,,,,,,,,,,,,,,,
html-keyboard-response,8,41431,0.0-6.0-2.0,"""event"",""trial"",""time""
""fullscreenenter"",""1"",""1861""
","
","
","""event"",""trial"",""time""
""fullscreenenter"",""1"",""1861""
","
",,442,"<p> As a space explorer, you’ll visit different planets to dig for space treasure, these pink gems.</p> <p> The more treasure you dig up, the more bonus money you’ll win! </p><br><br><p><img src='run_exp/static/images/task_images/pink_gem.jpg' height='300' width='auto'></p><button class=""jspsych-html-btn-unchosen""><img src=""run_exp/static/images/task_images/planet-01.jpg"" height=""50""></button><button class=""jspsych-html-btn-chosen""><img src=""run_exp/static/images/task_images/planet-02.jpg"" height=""50""></button><p><b>[press the space bar to lock in your answer]<b><br></p>",32,,,,,,,,,,,,,,,,,,,,,,,,
instruc_dig,9,57434,0.0-7.0-0.0,"""event"",""trial"",""time""
""fullscreenenter"",""1"",""1861""
","
","
","""event"",""trial"",""time""
""fullscreenenter"",""1"",""1861""
","
",,null,run_exp/static/audio/clip_4_dig.m4a,null,,,,,,,100,,,,,,,,,,,,,,,,,
instruc_dig_try,10,58400,0.0-7.0-1.0,"""event"",""trial"",""time""
""fullscreenenter"",""1"",""1861""
","
","
","""event"",""trial"",""time""
""fullscreenenter"",""1"",""1861""
","
",,966,"<p> When you’ve arrived at a new planet, you will dig once. </p> <p>Then, you get to decide if you want to stay on the planet and dig again or travel to a new planet and dig there.</p> <p> To stay and dig, press the letter <strong>‘A’</strong> on your keyboard. Try pressing it now! </p><p><img src='run_exp/static/images/task_images/land.jpg'  height='700' width='auto'></p>",65,"<p> When you’ve arrived at a new planet, you will dig once. </p> <p>Then, you get to decide if you want to stay on the planet and dig again or travel to a new planet and dig there.</p> <p> To stay and dig, press the letter <strong>‘A’</strong> on your keyboard. Try pressing it now! </p><p><img src='run_exp/static/images/task_images/land.jpg'  height='700' width='auto'></p>",,,,,,100,,,,,,,,,,,,,,,,,
dig_prac,11,60415,0.0-7.0-2.0,"""event"",""trial"",""time""
""fullscreenenter"",""1"",""1861""
","
","
","""event"",""trial"",""time""
""fullscreenenter"",""1"",""1861""
","
",,,,,,,,,,,,"[{""stimulus"":""run_exp/static/images/task_images/dig.jpg"",""time"":1},{""stimulus"":""run_exp/static/images/task_images/land.jpg"",""time"":670},{""stimulus"":""run_exp/static/images/task_images/dig.jpg"",""time"":1340}]",[],,,,,,,,,,,,,,,
instruc_travel,12,96654,0.0-7.0-3.0,"""event"",""trial"",""time""
""fullscreenenter"",""1"",""1861""
","
","
","""event"",""trial"",""time""
""fullscreenenter"",""1"",""1861""
","
",,null,run_exp/static/audio/clip_5_travel.m4a,null,"<p>Every time you dig up gems, there are less gems on the planet, so the more you dig on a planet the fewer gems you’ll get with each dig.</p><p>When gems are running low, you may want to travel to a new planet. </p> <p>  Planets are very far apart in this galaxy, so it will take some time to travel between them. </p> <br><p>There are lots and lots of planets for you to visit, so you won’t be able to return to any planets you’ve seen before. </p><br><p>To leave this planet and travel to a new one, press the letter <strong>‘L’</strong> on your keyboard. Try pressing it now! </p><p><img src='run_exp/static/images/task_images/rocket-01.jpg'  height='600' width='auto'></p>",,,,,,,,,,,,,,,,,,,,,,,
instruc_travel_try,13,97208,0.0-7.0-4.0,"""event"",""trial"",""time""
""fullscreenenter"",""1"",""1861""
""blur"",""14"",""102491""
""focus"",""14"",""106616""
","""event"",""trial"",""time""
""blur"",""14"",""102491""
","""event"",""trial"",""time""
""focus"",""14"",""106616""
","""event"",""trial"",""time""
""fullscreenenter"",""1"",""1861""
","
",,552,"<p>Every time you dig up gems, there are less gems on the planet, so the more you dig on a planet the fewer gems you’ll get with each dig.</p><p>When gems are running low, you may want to travel to a new planet. </p> <p>  Planets are very far apart in this galaxy, so it will take some time to travel between them. </p> <br><p>There are lots and lots of planets for you to visit, so you won’t be able to return to any planets you’ve seen before. </p><br><p>To leave this planet and travel to a new one, press the letter <strong>‘L’</strong> on your keyboard. Try pressing it now! </p><p><img src='run_exp/static/images/task_images/rocket-01.jpg'  height='600' width='auto'></p>",76,"<p>Every time you dig up gems, there are less gems on the planet, so the more you dig on a planet the fewer gems you’ll get with each dig.</p><p>When gems are running low, you may want to travel to a new planet. </p> <p>  Planets are very far apart in this galaxy, so it will take some time to travel between them. </p> <br><p>There are lots and lots of planets for you to visit, so you won’t be able to return to any planets you’ve seen before. </p><br><p>To leave this planet and travel to a new one, press the letter <strong>‘L’</strong> on your keyboard. Try pressing it now! </p><p><img src='run_exp/static/images/task_images/rocket-01.jpg'  height='600' width='auto'></p>",,,,,,,,,,,,,,,,,,,,,,,
travel_prac,14,107223,0.0-7.0-5.0,"""event"",""trial"",""time""
""fullscreenenter"",""1"",""1861""
""blur"",""14"",""102491""
""focus"",""14"",""106616""
","""event"",""trial"",""time""
""blur"",""14"",""102491""
","""event"",""trial"",""time""
""focus"",""14"",""106616""
","""event"",""trial"",""time""
""fullscreenenter"",""1"",""1861""
","
",,,,,,,,,,,,"[{""stimulus"":""run_exp/static/images/task_images/rocket-01.jpg"",""time"":0},{""stimulus"":""run_exp/static/images/task_images/rocket-02.jpg"",""time"":1125},{""stimulus"":""run_exp/static/images/task_images/rocket-03.jpg"",""time"":2228},{""stimulus"":""run_exp/static/images/task_images/rocket-04.jpg"",""time"":3347},{""stimulus"":""run_exp/static/images/task_images/rocket-05.jpg"",""time"":4449},{""stimulus"":""run_exp/static/images/task_images/rocket-06.jpg"",""time"":5568},{""stimulus"":""run_exp/static/images/task_images/rocket-07.jpg"",""time"":6668},{""stimulus"":""run_exp/static/images/task_images/rocket-08.jpg"",""time"":7791},{""stimulus"":""run_exp/static/images/task_images/rocket-09.jpg"",""time"":8896}]",[],0,,,,,,,,,,,,,,
instruc_alien_greet,15,134394,0.0-7.0-6.0,"""event"",""trial"",""time""
""fullscreenenter"",""1"",""1861""
""blur"",""14"",""102491""
""focus"",""14"",""106616""
","""event"",""trial"",""time""
""blur"",""14"",""102491""
","""event"",""trial"",""time""
""focus"",""14"",""106616""
","""event"",""trial"",""time""
""fullscreenenter"",""1"",""1861""
","
",,null,run_exp/static/audio/clip_6_alien.m4a,null,"<p>When you arrive at a new planet, the alien who owns the treasure mine on that planet will greet you!</p><p>The better an alien takes care of their mine the easier it is to dig for gems. Some aliens take better care of their mine than others. So, you won’t get exactly the same amount of gems on each planet.</p><p>What the alien looks like does not tell you anything about how many gems there are on the planet.</p><br><p><img src=""run_exp/static/images/task_images/aliens/instructions_aliens/planet/alien_planet-1.jpg""  height=""600"" width=""auto""></p>",,,,,,,,,,,,,,,,,,,,,,,
instruc_alien_greet,16,137249,0.0-7.0-7.0,"""event"",""trial"",""time""
""fullscreenenter"",""1"",""1861""
""blur"",""14"",""102491""
""focus"",""14"",""106616""
","""event"",""trial"",""time""
""blur"",""14"",""102491""
","""event"",""trial"",""time""
""focus"",""14"",""106616""
","""event"",""trial"",""time""
""fullscreenenter"",""1"",""1861""
","
",,2855,"<p>When you arrive at a new planet, the alien who owns the treasure mine on that planet will greet you!</p><p>The better an alien takes care of their mine the easier it is to dig for gems. Some aliens take better care of their mine than others. So, you won’t get exactly the same amount of gems on each planet.</p><p>What the alien looks like does not tell you anything about how many gems there are on the planet.</p><br><p><img src=""run_exp/static/images/task_images/aliens/instructions_aliens/planet/alien_planet-1.jpg""  height=""600"" width=""auto""></p>",,,,,,,1,,,,,,,,,,,,,,,,,,
html-keyboard-response,17,137552,0.0-7.0-8.0,"""event"",""trial"",""time""
""fullscreenenter"",""1"",""1861""
""blur"",""14"",""102491""
""focus"",""14"",""106616""
","""event"",""trial"",""time""
""blur"",""14"",""102491""
","""event"",""trial"",""time""
""focus"",""14"",""106616""
","""event"",""trial"",""time""
""fullscreenenter"",""1"",""1861""
","
",,302,"<p>When you arrive at a new planet, the alien who owns the treasure mine on that planet will greet you!</p><p>The better an alien takes care of their mine the easier it is to dig for gems. Some aliens take better care of their mine than others. So, you won’t get exactly the same amount of gems on each planet.</p><p>What the alien looks like does not tell you anything about how many gems there are on the planet.</p><br><p><img src=""run_exp/static/images/task_images/aliens/instructions_aliens/planet/alien_planet-1.jpg""  height=""600"" width=""auto""></p><button class=""jspsych-html-btn-unchosen""><img src=""run_exp/static/images/task_images/planet-01.jpg"" height=""50""></button><button class=""jspsych-html-btn-chosen""><img src=""run_exp/static/images/task_images/planet-02.jpg"" height=""50""></button><p><b>[press the space bar to lock in your answer]<b><br></p>",32,,,,,,,,,,,,,,,,,,,,,,,,
time_out,18,148634,0.0-8.0-0.0,"""event"",""trial"",""time""
""fullscreenenter"",""1"",""1861""
""blur"",""14"",""102491""
""focus"",""14"",""106616""
","""event"",""trial"",""time""
""blur"",""14"",""102491""
","""event"",""trial"",""time""
""focus"",""14"",""106616""
","""event"",""trial"",""time""
""fullscreenenter"",""1"",""1861""
","
",,null,run_exp/static/audio/clip_7_timeout.m4a,null,"<p>If you don't make your choice fast enough, you’ll have to wait a few seconds before you can make another one.</p><p>You can’t dig for more gems or travel to new planets. You just have to sit and wait.</p><br><p><img src='run_exp/static/images/task_images/time_out.jpg'  height='600' width='auto'></p>",,,,,,,,,,,,,,,,,,,,,,,
time_out,19,149533,0.0-8.0-1.0,"""event"",""trial"",""time""
""fullscreenenter"",""1"",""1861""
""blur"",""14"",""102491""
""focus"",""14"",""106616""
","""event"",""trial"",""time""
""blur"",""14"",""102491""
","""event"",""trial"",""time""
""focus"",""14"",""106616""
","""event"",""trial"",""time""
""fullscreenenter"",""1"",""1861""
","
",,899,"<p>If you don't make your choice fast enough, you’ll have to wait a few seconds before you can make another one.</p><p>You can’t dig for more gems or travel to new planets. You just have to sit and wait.</p><br><p><img src='run_exp/static/images/task_images/time_out.jpg'  height='600' width='auto'></p>",,,,,,,1,,,,,,,,,,,,,,,,,,
html-keyboard-response,20,149648,0.0-8.0-2.0,"""event"",""trial"",""time""
""fullscreenenter"",""1"",""1861""
""blur"",""14"",""102491""
""focus"",""14"",""106616""
","""event"",""trial"",""time""
""blur"",""14"",""102491""
","""event"",""trial"",""time""
""focus"",""14"",""106616""
","""event"",""trial"",""time""
""fullscreenenter"",""1"",""1861""
","
",,114,"<p>If you don't make your choice fast enough, you’ll have to wait a few seconds before you can make another one.</p><p>You can’t dig for more gems or travel to new planets. You just have to sit and wait.</p><br><p><img src='run_exp/static/images/task_images/time_out.jpg'  height='600' width='auto'></p><button class=""jspsych-html-btn-unchosen""><img src=""run_exp/static/images/task_images/planet-01.jpg"" height=""50""></button><button class=""jspsych-html-btn-chosen""><img src=""run_exp/static/images/task_images/planet-02.jpg"" height=""50""></button><p><b>[press the space bar to lock in your answer]<b><br></p>",32,,,,,,,,,,,,,,,,,,,,,,,,
instruc_break,21,165314,0.0-9.0-0.0,"""event"",""trial"",""time""
""fullscreenenter"",""1"",""1861""
""blur"",""14"",""102491""
""focus"",""14"",""106616""
","""event"",""trial"",""time""
""blur"",""14"",""102491""
","""event"",""trial"",""time""
""focus"",""14"",""106616""
","""event"",""trial"",""time""
""fullscreenenter"",""1"",""1861""
","
",,null,run_exp/static/audio/clip_8_break.m4a,null,"<p> After digging and traveling for a while, you’ll be able to take a break at home base. </p><p>The game will last 20 minutes no matter what.</p><p>You will visit home base every 5 minutes, so, you will visit home base three times during the game.</p><br><p><img src='run_exp/static/images/task_images/home_base.jpg' height='600' width='auto'></p>",,,,,,,,,,,,,,,,,,,,,,,
instruc_break,22,166050,0.0-9.0-1.0,"""event"",""trial"",""time""
""fullscreenenter"",""1"",""1861""
""blur"",""14"",""102491""
""focus"",""14"",""106616""
","""event"",""trial"",""time""
""blur"",""14"",""102491""
","""event"",""trial"",""time""
""focus"",""14"",""106616""
","""event"",""trial"",""time""
""fullscreenenter"",""1"",""1861""
","
",,734,"<p> After digging and traveling for a while, you’ll be able to take a break at home base. </p><p>The game will last 20 minutes no matter what.</p><p>You will visit home base every 5 minutes, so, you will visit home base three times during the game.</p><br><p><img src='run_exp/static/images/task_images/home_base.jpg' height='600' width='auto'></p>",,,,,,,1,,,,,,,,,,,,,,,,,,
html-keyboard-response,23,166256,0.0-9.0-2.0,"""event"",""trial"",""time""
""fullscreenenter"",""1"",""1861""
""blur"",""14"",""102491""
""focus"",""14"",""106616""
""blur"",""24"",""170414""
""focus"",""24"",""170948""
","""event"",""trial"",""time""
""blur"",""14"",""102491""
""blur"",""24"",""170414""
","""event"",""trial"",""time""
""focus"",""14"",""106616""
""focus"",""24"",""170948""
","""event"",""trial"",""time""
""fullscreenenter"",""1"",""1861""
","
",,206,"<p> After digging and traveling for a while, you’ll be able to take a break at home base. </p><p>The game will last 20 minutes no matter what.</p><p>You will visit home base every 5 minutes, so, you will visit home base three times during the game.</p><br><p><img src='run_exp/static/images/task_images/home_base.jpg' height='600' width='auto'></p><button class=""jspsych-html-btn-unchosen""><img src=""run_exp/static/images/task_images/planet-01.jpg"" height=""50""></button><button class=""jspsych-html-btn-chosen""><img src=""run_exp/static/images/task_images/planet-02.jpg"" height=""50""></button><p><b>[press the space bar to lock in your answer]<b><br></p>",32,,,,,,,,,,,,,,,,,,,,,,,,
instruc_prac_game,24,176374,0.0-10.0-0.0,"""event"",""trial"",""time""
""fullscreenenter"",""1"",""1861""
""blur"",""14"",""102491""
""focus"",""14"",""106616""
""blur"",""24"",""170414""
""focus"",""24"",""170948""
","""event"",""trial"",""time""
""blur"",""14"",""102491""
""blur"",""24"",""170414""
","""event"",""trial"",""time""
""focus"",""14"",""106616""
""focus"",""24"",""170948""
","""event"",""trial"",""time""
""fullscreenenter"",""1"",""1861""
","
",,null,run_exp/static/audio/clip_9_practice.m4a,null,"<p> Are you ready to play a practice game? </p> <p>In this practice game, you'll be digging up barrels of gems. But, in the real game, you'll be digging up the gems themselves. </p>",,,,,,,,,,,,,,,,,,,,,,,
html-button-response,25,177502,0.0-10.0-1.0,"""event"",""trial"",""time""
""fullscreenenter"",""1"",""1861""
""blur"",""14"",""102491""
""focus"",""14"",""106616""
""blur"",""24"",""170414""
""focus"",""24"",""170948""
","""event"",""trial"",""time""
""blur"",""14"",""102491""
""blur"",""24"",""170414""
","""event"",""trial"",""time""
""focus"",""14"",""106616""
""focus"",""24"",""170948""
","""event"",""trial"",""time""
""fullscreenenter"",""1"",""1861""
","
",,1127,"<p> Are you ready to play a practice game? </p> <p>In this practice game, you'll be digging up barrels of gems. But, in the real game, you'll be digging up the gems themselves. </p>",,,,,,,0,,,,,,,,,,,,,,,,,,
alien_welcome_prac,26,182515,0.0-11.0-0.0,"""event"",""trial"",""time""
""fullscreenenter"",""1"",""1861""
""blur"",""14"",""102491""
""focus"",""14"",""106616""
""blur"",""24"",""170414""
""focus"",""24"",""170948""
","""event"",""trial"",""time""
""blur"",""14"",""102491""
""blur"",""24"",""170414""
","""event"",""trial"",""time""
""focus"",""14"",""106616""
""focus"",""24"",""170948""
","""event"",""trial"",""time""
""fullscreenenter"",""1"",""1861""
","
",,null,run_exp/static/images/task_images/aliens/practice_aliens/planet/alien_planet-5.jpg,null,,,,,,,,,,,,,,,,,,,,,,,,
land_prac,27,183016,0.0-11.0-1.0,"""event"",""trial"",""time""
""fullscreenenter"",""1"",""1861""
""blur"",""14"",""102491""
""focus"",""14"",""106616""
""blur"",""24"",""170414""
""focus"",""24"",""170948""
","""event"",""trial"",""time""
""blur"",""14"",""102491""
""blur"",""24"",""170414""
","""event"",""trial"",""time""
""focus"",""14"",""106616""
""focus"",""24"",""170948""
","""event"",""trial"",""time""
""fullscreenenter"",""1"",""1861""
","
",,null,run_exp/static/images/task_images/land.jpg,null,,,,,,,94,,,0,,,,,,,,,,,,,,
dig_prac,28,185020,0.0-11.0-2.0,"""event"",""trial"",""time""
""fullscreenenter"",""1"",""1861""
""blur"",""14"",""102491""
""focus"",""14"",""106616""
""blur"",""24"",""170414""
""focus"",""24"",""170948""
","""event"",""trial"",""time""
""blur"",""14"",""102491""
""blur"",""24"",""170414""
","""event"",""trial"",""time""
""focus"",""14"",""106616""
""focus"",""24"",""170948""
","""event"",""trial"",""time""
""fullscreenenter"",""1"",""1861""
","
",,,,,,,,,,,,"[{""stimulus"":""run_exp/static/images/task_images/dig.jpg"",""time"":0},{""stimulus"":""run_exp/static/images/task_images/land.jpg"",""time"":678},{""stimulus"":""run_exp/static/images/task_images/dig.jpg"",""time"":1349}]",[],,,,,,,,,,,,,,,
harvest_prac,29,186028,0.0-11.0-3.0,"""event"",""trial"",""time""
""fullscreenenter"",""1"",""1861""
""blur"",""14"",""102491""
""focus"",""14"",""106616""
""blur"",""24"",""170414""
""focus"",""24"",""170948""
","""event"",""trial"",""time""
""blur"",""14"",""102491""
""blur"",""24"",""170414""
","""event"",""trial"",""time""
""focus"",""14"",""106616""
""focus"",""24"",""170948""
","""event"",""trial"",""time""
""fullscreenenter"",""1"",""1861""
","
",,null,run_exp/static/images/task_images/barrel_text.jpg,null,,,,,,,,,,,,,,,,,,,,,,,,
decision_prac,30,187424,0.0-11.0-4.0,"""event"",""trial"",""time""
""fullscreenenter"",""1"",""1861""
""blur"",""14"",""102491""
""focus"",""14"",""106616""
""blur"",""24"",""170414""
""focus"",""24"",""170948""
","""event"",""trial"",""time""
""blur"",""14"",""102491""
""blur"",""24"",""170414""
","""event"",""trial"",""time""
""focus"",""14"",""106616""
""focus"",""24"",""170948""
","""event"",""trial"",""time""
""fullscreenenter"",""1"",""1861""
","
",,1396,run_exp/static/images/task_images/land.jpg,65,,,,,,,,,,,1,,,,,,,,,,,,,
dig_prac,31,189433,0.0-12.0-0.0,"""event"",""trial"",""time""
""fullscreenenter"",""1"",""1861""
""blur"",""14"",""102491""
""focus"",""14"",""106616""
""blur"",""24"",""170414""
""focus"",""24"",""170948""
","""event"",""trial"",""time""
""blur"",""14"",""102491""
""blur"",""24"",""170414""
","""event"",""trial"",""time""
""focus"",""14"",""106616""
""focus"",""24"",""170948""
","""event"",""trial"",""time""
""fullscreenenter"",""1"",""1861""
","
",,,,,,,,,,,,"[{""stimulus"":""run_exp/static/images/task_images/dig.jpg"",""time"":0},{""stimulus"":""run_exp/static/images/task_images/land.jpg"",""time"":681},{""stimulus"":""run_exp/static/images/task_images/dig.jpg"",""time"":1338}]",[],,,,,,,,,,,,,,,
harvest_prac,32,190438,0.0-12.0-1.0,"""event"",""trial"",""time""
""fullscreenenter"",""1"",""1861""
""blur"",""14"",""102491""
""focus"",""14"",""106616""
""blur"",""24"",""170414""
""focus"",""24"",""170948""
","""event"",""trial"",""time""
""blur"",""14"",""102491""
""blur"",""24"",""170414""
","""event"",""trial"",""time""
""focus"",""14"",""106616""
""focus"",""24"",""170948""
","""event"",""trial"",""time""
""fullscreenenter"",""1"",""1861""
","
",,null,run_exp/static/images/task_images/barrel_text.jpg,null,,,,,,,,,,,,,,,,,,,,,,,,
decision_prac,33,190656,0.0-12.0-2.0,"""event"",""trial"",""time""
""fullscreenenter"",""1"",""1861""
""blur"",""14"",""102491""
""focus"",""14"",""106616""
""blur"",""24"",""170414""
""focus"",""24"",""170948""
","""event"",""trial"",""time""
""blur"",""14"",""102491""
""blur"",""24"",""170414""
","""event"",""trial"",""time""
""focus"",""14"",""106616""
""focus"",""24"",""170948""
","""event"",""trial"",""time""
""fullscreenenter"",""1"",""1861""
","
",,218,run_exp/static/images/task_images/land.jpg,65,,,,,,,,,,,2,,,,,,,,,,,,,
dig_prac,34,192660,0.0-13.0-0.0,"""event"",""trial"",""time""
""fullscreenenter"",""1"",""1861""
""blur"",""14"",""102491""
""focus"",""14"",""106616""
""blur"",""24"",""170414""
""focus"",""24"",""170948""
","""event"",""trial"",""time""
""blur"",""14"",""102491""
""blur"",""24"",""170414""
","""event"",""trial"",""time""
""focus"",""14"",""106616""
""focus"",""24"",""170948""
","""event"",""trial"",""time""
""fullscreenenter"",""1"",""1861""
","
",,,,,,,,,,,,"[{""stimulus"":""run_exp/static/images/task_images/dig.jpg"",""time"":0},{""stimulus"":""run_exp/static/images/task_images/land.jpg"",""time"":676},{""stimulus"":""run_exp/static/images/task_images/dig.jpg"",""time"":1348}]",[],,,,,,,,,,,,,,,
harvest_prac,35,193668,0.0-13.0-1.0,"""event"",""trial"",""time""
""fullscreenenter"",""1"",""1861""
""blur"",""14"",""102491""
""focus"",""14"",""106616""
""blur"",""24"",""170414""
""focus"",""24"",""170948""
","""event"",""trial"",""time""
""blur"",""14"",""102491""
""blur"",""24"",""170414""
","""event"",""trial"",""time""
""focus"",""14"",""106616""
""focus"",""24"",""170948""
","""event"",""trial"",""time""
""fullscreenenter"",""1"",""1861""
","
",,null,run_exp/static/images/task_images/barrel_text.jpg,null,,,,,,,,,,,,,,,,,,,,,,,,
decision_prac,36,194104,0.0-13.0-2.0,"""event"",""trial"",""time""
""fullscreenenter"",""1"",""1861""
""blur"",""14"",""102491""
""focus"",""14"",""106616""
""blur"",""24"",""170414""
""focus"",""24"",""170948""
","""event"",""trial"",""time""
""blur"",""14"",""102491""
""blur"",""24"",""170414""
","""event"",""trial"",""time""
""focus"",""14"",""106616""
""focus"",""24"",""170948""
","""event"",""trial"",""time""
""fullscreenenter"",""1"",""1861""
","
",,436,run_exp/static/images/task_images/land.jpg,65,,,,,,,,,,,3,,,,,,,,,,,,,
dig_prac,37,196122,0.0-14.0-0.0,"""event"",""trial"",""time""
""fullscreenenter"",""1"",""1861""
""blur"",""14"",""102491""
""focus"",""14"",""106616""
""blur"",""24"",""170414""
""focus"",""24"",""170948""
","""event"",""trial"",""time""
""blur"",""14"",""102491""
""blur"",""24"",""170414""
","""event"",""trial"",""time""
""focus"",""14"",""106616""
""focus"",""24"",""170948""
","""event"",""trial"",""time""
""fullscreenenter"",""1"",""1861""
","
",,,,,,,,,,,,"[{""stimulus"":""run_exp/static/images/task_images/dig.jpg"",""time"":0},{""stimulus"":""run_exp/static/images/task_images/land.jpg"",""time"":682},{""stimulus"":""run_exp/static/images/task_images/dig.jpg"",""time"":1348}]",[],,,,,,,,,,,,,,,
harvest_prac,38,197129,0.0-14.0-1.0,"""event"",""trial"",""time""
""fullscreenenter"",""1"",""1861""
""blur"",""14"",""102491""
""focus"",""14"",""106616""
""blur"",""24"",""170414""
""focus"",""24"",""170948""
","""event"",""trial"",""time""
""blur"",""14"",""102491""
""blur"",""24"",""170414""
","""event"",""trial"",""time""
""focus"",""14"",""106616""
""focus"",""24"",""170948""
","""event"",""trial"",""time""
""fullscreenenter"",""1"",""1861""
","
",,null,run_exp/static/images/task_images/barrel_text.jpg,null,,,,,,,,,,,,,,,,,,,,,,,,
decision_prac,39,197520,0.0-14.0-2.0,"""event"",""trial"",""time""
""fullscreenenter"",""1"",""1861""
""blur"",""14"",""102491""
""focus"",""14"",""106616""
""blur"",""24"",""170414""
""focus"",""24"",""170948""
","""event"",""trial"",""time""
""blur"",""14"",""102491""
""blur"",""24"",""170414""
","""event"",""trial"",""time""
""focus"",""14"",""106616""
""focus"",""24"",""170948""
","""event"",""trial"",""time""
""fullscreenenter"",""1"",""1861""
","
",,391,run_exp/static/images/task_images/land.jpg,65,,,,,,,,,,,4,,,,,,,,,,,,,
dig_prac,40,199523,0.0-15.0-0.0,"""event"",""trial"",""time""
""fullscreenenter"",""1"",""1861""
""blur"",""14"",""102491""
""focus"",""14"",""106616""
""blur"",""24"",""170414""
""focus"",""24"",""170948""
","""event"",""trial"",""time""
""blur"",""14"",""102491""
""blur"",""24"",""170414""
","""event"",""trial"",""time""
""focus"",""14"",""106616""
""focus"",""24"",""170948""
","""event"",""trial"",""time""
""fullscreenenter"",""1"",""1861""
","
",,,,,,,,,,,,"[{""stimulus"":""run_exp/static/images/task_images/dig.jpg"",""time"":0},{""stimulus"":""run_exp/static/images/task_images/land.jpg"",""time"":679},{""stimulus"":""run_exp/static/images/task_images/dig.jpg"",""time"":1349}]",[],,,,,,,,,,,,,,,
harvest_prac,41,200528,0.0-15.0-1.0,"""event"",""trial"",""time""
""fullscreenenter"",""1"",""1861""
""blur"",""14"",""102491""
""focus"",""14"",""106616""
""blur"",""24"",""170414""
""focus"",""24"",""170948""
","""event"",""trial"",""time""
""blur"",""14"",""102491""
""blur"",""24"",""170414""
","""event"",""trial"",""time""
""focus"",""14"",""106616""
""focus"",""24"",""170948""
","""event"",""trial"",""time""
""fullscreenenter"",""1"",""1861""
","
",,null,run_exp/static/images/task_images/barrel_text.jpg,null,,,,,,,,,,,,,,,,,,,,,,,,
decision_prac,42,201056,0.0-15.0-2.0,"""event"",""trial"",""time""
""fullscreenenter"",""1"",""1861""
""blur"",""14"",""102491""
""focus"",""14"",""106616""
""blur"",""24"",""170414""
""focus"",""24"",""170948""
","""event"",""trial"",""time""
""blur"",""14"",""102491""
""blur"",""24"",""170414""
","""event"",""trial"",""time""
""focus"",""14"",""106616""
""focus"",""24"",""170948""
","""event"",""trial"",""time""
""fullscreenenter"",""1"",""1861""
","
",,528,run_exp/static/images/task_images/land.jpg,65,,,,,,,,,,,,1,,,,,,,,,,,,
quiz_instruc,43,203666,0.0-16.0-0.0,"""event"",""trial"",""time""
""fullscreenenter"",""1"",""1861""
""blur"",""14"",""102491""
""focus"",""14"",""106616""
""blur"",""24"",""170414""
""focus"",""24"",""170948""
""blur"",""44"",""206876""
""focus"",""44"",""207464""
","""event"",""trial"",""time""
""blur"",""14"",""102491""
""blur"",""24"",""170414""
""blur"",""44"",""206876""
","""event"",""trial"",""time""
""focus"",""14"",""106616""
""focus"",""24"",""170948""
""focus"",""44"",""207464""
","""event"",""trial"",""time""
""fullscreenenter"",""1"",""1861""
","
",,2609,run_exp/static/audio/clip_10_quiz.m4a,,,,,,,0,,,,,,,,,,,,,,,,,,
instruc_repeat,44,246414,0.0-16.0-1.0,"""event"",""trial"",""time""
""fullscreenenter"",""1"",""1861""
""blur"",""14"",""102491""
""focus"",""14"",""106616""
""blur"",""24"",""170414""
""focus"",""24"",""170948""
""blur"",""44"",""206876""
""focus"",""44"",""207464""
","""event"",""trial"",""time""
""blur"",""14"",""102491""
""blur"",""24"",""170414""
""blur"",""44"",""206876""
","""event"",""trial"",""time""
""focus"",""14"",""106616""
""focus"",""24"",""170948""
""focus"",""44"",""207464""
","""event"",""trial"",""time""
""fullscreenenter"",""1"",""1861""
","
",,null,"<p> Are you ready to play a practice game? </p> <p>In this practice game, you'll be digging up barrels of gems. But, in the real game, you'll be digging up the gems themselves. </p>",null,"<p>In this game, your goal is to collect as many gems as you can. That’s how you will win bonus money. </p> <p>The entire game will last 20 minutes no matter how many gems you collect or how many planets you visit. </p><p>To stay on a planet and dig again, press the letter A on your keyboard. To leave for a new planet, press the letter L.</p><p>The more you dig on a planet, the fewer gems you’ll get with each dig which is why you might consider leaving for a new planet. </p><p>When you arrive at a new planet, you’ll be greeted by an alien. What the alien looks like does not tell you anything about how much treasure is on the planet. </p>",,,,,,,,,,,,,,,,,,,,,,,
instruc_repeat_continue,45,247593,0.0-16.0-2.0,"""event"",""trial"",""time""
""fullscreenenter"",""1"",""1861""
""blur"",""14"",""102491""
""focus"",""14"",""106616""
""blur"",""24"",""170414""
""focus"",""24"",""170948""
""blur"",""44"",""206876""
""focus"",""44"",""207464""
","""event"",""trial"",""time""
""blur"",""14"",""102491""
""blur"",""24"",""170414""
""blur"",""44"",""206876""
","""event"",""trial"",""time""
""focus"",""14"",""106616""
""focus"",""24"",""170948""
""focus"",""44"",""207464""
","""event"",""trial"",""time""
""fullscreenenter"",""1"",""1861""
","
",,1178,"<p> Are you ready to play a practice game? </p> <p>In this practice game, you'll be digging up barrels of gems. But, in the real game, you'll be digging up the gems themselves. </p>",,,,,,,0,,,,,,,,,,,,,,,,,,
quiz_q_1_ask,46,250492,0.0-16.0-3.0,"""event"",""trial"",""time""
""fullscreenenter"",""1"",""1861""
""blur"",""14"",""102491""
""focus"",""14"",""106616""
""blur"",""24"",""170414""
""focus"",""24"",""170948""
""blur"",""44"",""206876""
""focus"",""44"",""207464""
","""event"",""trial"",""time""
""blur"",""14"",""102491""
""blur"",""24"",""170414""
""blur"",""44"",""206876""
","""event"",""trial"",""time""
""focus"",""14"",""106616""
""focus"",""24"",""170948""
""focus"",""44"",""207464""
","""event"",""trial"",""time""
""fullscreenenter"",""1"",""1861""
","
",,2896,run_exp/static/audio/clip_11_q1_ask.m4a,,,,,,,2,,,,,,,,,,,,,,,,,,
quiz_q_1_fb_correct,47,254334,0.0-17.0-0.0,"""event"",""trial"",""time""
""fullscreenenter"",""1"",""1861""
""blur"",""14"",""102491""
""focus"",""14"",""106616""
""blur"",""24"",""170414""
""focus"",""24"",""170948""
""blur"",""44"",""206876""
""focus"",""44"",""207464""
","""event"",""trial"",""time""
""blur"",""14"",""102491""
""blur"",""24"",""170414""
""blur"",""44"",""206876""
","""event"",""trial"",""time""
""focus"",""14"",""106616""
""focus"",""24"",""170948""
""focus"",""44"",""207464""
","""event"",""trial"",""time""
""fullscreenenter"",""1"",""1861""
","
",,null,run_exp/static/audio/clip_12_q1_correct.m4a,null,<p>That’s correct. You win extra money by collecting more gems.</p>,,,,,,,,,,,,,,,,,,,,,,,
quiz_q_2_ask,48,256113,0.0-17.0-1.0,"""event"",""trial"",""time""
""fullscreenenter"",""1"",""1861""
""blur"",""14"",""102491""
""focus"",""14"",""106616""
""blur"",""24"",""170414""
""focus"",""24"",""170948""
""blur"",""44"",""206876""
""focus"",""44"",""207464""
","""event"",""trial"",""time""
""blur"",""14"",""102491""
""blur"",""24"",""170414""
""blur"",""44"",""206876""
","""event"",""trial"",""time""
""focus"",""14"",""106616""
""focus"",""24"",""170948""
""focus"",""44"",""207464""
","""event"",""trial"",""time""
""fullscreenenter"",""1"",""1861""
","
",,1778,run_exp/static/audio/clip_14_q2_ask.m4a,,,,,,,1,,,,,,,,,,,,,,,,,,
quiz_q_2_fb_correct,49,260114,0.0-18.0-0.0,"""event"",""trial"",""time""
""fullscreenenter"",""1"",""1861""
""blur"",""14"",""102491""
""focus"",""14"",""106616""
""blur"",""24"",""170414""
""focus"",""24"",""170948""
""blur"",""44"",""206876""
""focus"",""44"",""207464""
","""event"",""trial"",""time""
""blur"",""14"",""102491""
""blur"",""24"",""170414""
""blur"",""44"",""206876""
","""event"",""trial"",""time""
""focus"",""14"",""106616""
""focus"",""24"",""170948""
""focus"",""44"",""207464""
","""event"",""trial"",""time""
""fullscreenenter"",""1"",""1861""
","
",,null,run_exp/static/audio/clip_15_q2_correct.m4a,null,<p>That’s correct. The experiment is 20 minutes no matter what.</p>,,,,,,,,,,,,,,,,,,,,,,,
quiz_q_3_ask,50,262167,0.0-18.0-1.0,"""event"",""trial"",""time""
""fullscreenenter"",""1"",""1861""
""blur"",""14"",""102491""
""focus"",""14"",""106616""
""blur"",""24"",""170414""
""focus"",""24"",""170948""
""blur"",""44"",""206876""
""focus"",""44"",""207464""
","""event"",""trial"",""time""
""blur"",""14"",""102491""
""blur"",""24"",""170414""
""blur"",""44"",""206876""
","""event"",""trial"",""time""
""focus"",""14"",""106616""
""focus"",""24"",""170948""
""focus"",""44"",""207464""
","""event"",""trial"",""time""
""fullscreenenter"",""1"",""1861""
","
",,2053,run_exp/static/audio/clip_17_q3_ask.m4a,,,,,,,1,,,,,,,,,,,,,,,,,,
quiz_q_3_fb_correct,51,266154,0.0-19.0-0.0,"""event"",""trial"",""time""
""fullscreenenter"",""1"",""1861""
""blur"",""14"",""102491""
""focus"",""14"",""106616""
""blur"",""24"",""170414""
""focus"",""24"",""170948""
""blur"",""44"",""206876""
""focus"",""44"",""207464""
","""event"",""trial"",""time""
""blur"",""14"",""102491""
""blur"",""24"",""170414""
""blur"",""44"",""206876""
","""event"",""trial"",""time""
""focus"",""14"",""106616""
""focus"",""24"",""170948""
""focus"",""44"",""207464""
","""event"",""trial"",""time""
""fullscreenenter"",""1"",""1861""
","
",,null,run_exp/static/audio/clip_18_q3_correct.m4a,null,<p> That’s correct. You press the letter L to travel to a new planet.</p>,,,,,,,,,,,,,,,,,,,,,,,
quiz_q_4_ask,52,268389,0.0-19.0-1.0,"""event"",""trial"",""time""
""fullscreenenter"",""1"",""1861""
""blur"",""14"",""102491""
""focus"",""14"",""106616""
""blur"",""24"",""170414""
""focus"",""24"",""170948""
""blur"",""44"",""206876""
""focus"",""44"",""207464""
","""event"",""trial"",""time""
""blur"",""14"",""102491""
""blur"",""24"",""170414""
""blur"",""44"",""206876""
","""event"",""trial"",""time""
""focus"",""14"",""106616""
""focus"",""24"",""170948""
""focus"",""44"",""207464""
","""event"",""trial"",""time""
""fullscreenenter"",""1"",""1861""
","
",,2234,run_exp/static/audio/clip_20_q4_ask.m4a,,,,,,,0,,,,,,,,,,,,,,,,,,
quiz_q_4_fb_correct,53,273714,0.0-20.0-0.0,"""event"",""trial"",""time""
""fullscreenenter"",""1"",""1861""
""blur"",""14"",""102491""
""focus"",""14"",""106616""
""blur"",""24"",""170414""
""focus"",""24"",""170948""
""blur"",""44"",""206876""
""focus"",""44"",""207464""
","""event"",""trial"",""time""
""blur"",""14"",""102491""
""blur"",""24"",""170414""
""blur"",""44"",""206876""
","""event"",""trial"",""time""
""focus"",""14"",""106616""
""focus"",""24"",""170948""
""focus"",""44"",""207464""
","""event"",""trial"",""time""
""fullscreenenter"",""1"",""1861""
","
",,null,run_exp/static/audio/clip_21_q4_correct.m4a,null,<p> That’s correct. The more you dig on a planet the fewer gems you’ll get with each dig. </p>,,,,,,,,,,,,,,,,,,,,,,,
quiz_q_5_ask,54,275589,0.0-20.0-1.0,"""event"",""trial"",""time""
""fullscreenenter"",""1"",""1861""
""blur"",""14"",""102491""
""focus"",""14"",""106616""
""blur"",""24"",""170414""
""focus"",""24"",""170948""
""blur"",""44"",""206876""
""focus"",""44"",""207464""
","""event"",""trial"",""time""
""blur"",""14"",""102491""
""blur"",""24"",""170414""
""blur"",""44"",""206876""
","""event"",""trial"",""time""
""focus"",""14"",""106616""
""focus"",""24"",""170948""
""focus"",""44"",""207464""
","""event"",""trial"",""time""
""fullscreenenter"",""1"",""1861""
","
",,1874,run_exp/static/audio/clip_23_q5_ask.m4a,,,,,,,1,,,,,,,,,,,,,,,,,,
quiz_q_5_fb_correct,55,280593,0.0-21.0-0.0,"""event"",""trial"",""time""
""fullscreenenter"",""1"",""1861""
""blur"",""14"",""102491""
""focus"",""14"",""106616""
""blur"",""24"",""170414""
""focus"",""24"",""170948""
""blur"",""44"",""206876""
""focus"",""44"",""207464""
","""event"",""trial"",""time""
""blur"",""14"",""102491""
""blur"",""24"",""170414""
""blur"",""44"",""206876""
","""event"",""trial"",""time""
""focus"",""14"",""106616""
""focus"",""24"",""170948""
""focus"",""44"",""207464""
","""event"",""trial"",""time""
""fullscreenenter"",""1"",""1861""
","
",,null,run_exp/static/audio/clip_24_q5_correct.m4a,null,<p> That’s correct. The alien tells you nothing about how much treasure is on the planet.</p>,,,,,,,,,,,,,,,,,,,,,,,
quiz_correct,56,284053,0.0-22.0-0.0,"""event"",""trial"",""time""
""fullscreenenter"",""1"",""1861""
""blur"",""14"",""102491""
""focus"",""14"",""106616""
""blur"",""24"",""170414""
""focus"",""24"",""170948""
""blur"",""44"",""206876""
""focus"",""44"",""207464""
","""event"",""trial"",""time""
""blur"",""14"",""102491""
""blur"",""24"",""170414""
""blur"",""44"",""206876""
","""event"",""trial"",""time""
""focus"",""14"",""106616""
""focus"",""24"",""170948""
""focus"",""44"",""207464""
","""event"",""trial"",""time""
""fullscreenenter"",""1"",""1861""
","
",,null,run_exp/static/audio/clip_26_correct_quiz.m4a,null,,,,,,,,,,,,,,,,,,,,,,,,
quiz_correct_continue,57,284737,0.0-22.0-1.0,"""event"",""trial"",""time""
""fullscreenenter"",""1"",""1861""
""blur"",""14"",""102491""
""focus"",""14"",""106616""
""blur"",""24"",""170414""
""focus"",""24"",""170948""
""blur"",""44"",""206876""
""focus"",""44"",""207464""
","""event"",""trial"",""time""
""blur"",""14"",""102491""
""blur"",""24"",""170414""
""blur"",""44"",""206876""
","""event"",""trial"",""time""
""focus"",""14"",""106616""
""focus"",""24"",""170948""
""focus"",""44"",""207464""
","""event"",""trial"",""time""
""fullscreenenter"",""1"",""1861""
","
",,684,<p>Good job! You're now ready to move on to the real game!</p>,,,,,,,0,,,,,,,,,,,,,,,,,,
audio-keyboard-response,58,294853,0.0-22.0-2.0,"""event"",""trial"",""time""
""fullscreenenter"",""1"",""1861""
""blur"",""14"",""102491""
""focus"",""14"",""106616""
""blur"",""24"",""170414""
""focus"",""24"",""170948""
""blur"",""44"",""206876""
""focus"",""44"",""207464""
","""event"",""trial"",""time""
""blur"",""14"",""102491""
""blur"",""24"",""170414""
""blur"",""44"",""206876""
","""event"",""trial"",""time""
""focus"",""14"",""106616""
""focus"",""24"",""170948""
""focus"",""44"",""207464""
","""event"",""trial"",""time""
""fullscreenenter"",""1"",""1861""
","
",,null,run_exp/static/audio/clip_28_real_game.m4a,null,,,,,,,,,,,,,,,,,,,,,,,,
instruc_begin_exp_contine,59,295619,0.0-22.0-3.0,"""event"",""trial"",""time""
""fullscreenenter"",""1"",""1861""
""blur"",""14"",""102491""
""focus"",""14"",""106616""
""blur"",""24"",""170414""
""focus"",""24"",""170948""
""blur"",""44"",""206876""
""focus"",""44"",""207464""
""blur"",""60"",""298104""
""focus"",""60"",""298472""
","""event"",""trial"",""time""
""blur"",""14"",""102491""
""blur"",""24"",""170414""
""blur"",""44"",""206876""
""blur"",""60"",""298104""
","""event"",""trial"",""time""
""focus"",""14"",""106616""
""focus"",""24"",""170948""
""focus"",""44"",""207464""
""focus"",""60"",""298472""
","""event"",""trial"",""time""
""fullscreenenter"",""1"",""1861""
","
",,766,"<p>Now that you know how  to dig for space treasure and travel to new planets,you can start exploring! </p><p>Do you want to go over the instructions again or get started with the real game?</p>",,,,,,,1,,,,,,1,,,,,,,,,,,,
alien_welcome,60,300621,0.0-23.0-0.0,"""event"",""trial"",""time""
""fullscreenenter"",""1"",""1861""
""blur"",""14"",""102491""
""focus"",""14"",""106616""
""blur"",""24"",""170414""
""focus"",""24"",""170948""
""blur"",""44"",""206876""
""focus"",""44"",""207464""
""blur"",""60"",""298104""
""focus"",""60"",""298472""
","""event"",""trial"",""time""
""blur"",""14"",""102491""
""blur"",""24"",""170414""
""blur"",""44"",""206876""
""blur"",""60"",""298104""
","""event"",""trial"",""time""
""focus"",""14"",""106616""
""focus"",""24"",""170948""
""focus"",""44"",""207464""
""focus"",""60"",""298472""
","""event"",""trial"",""time""
""fullscreenenter"",""1"",""1861""
","
",,null,run_exp/static/images/task_images/aliens/old_aliens/planet/alien_planet-53.jpg,null,,,,,,,,,,,,,53,"53,79,61,13,69,71,68,4,40,76,74,30,50,33,38,19,57,6,5,1,64,11,22,48,39,34,17,80,21,41,56,16,25,35,49",,,,,,,,,,
land,61,301126,0.0-23.0-1.0,"""event"",""trial"",""time""
""fullscreenenter"",""1"",""1861""
""blur"",""14"",""102491""
""focus"",""14"",""106616""
""blur"",""24"",""170414""
""focus"",""24"",""170948""
""blur"",""44"",""206876""
""focus"",""44"",""207464""
""blur"",""60"",""298104""
""focus"",""60"",""298472""
","""event"",""trial"",""time""
""blur"",""14"",""102491""
""blur"",""24"",""170414""
""blur"",""44"",""206876""
""blur"",""60"",""298104""
","""event"",""trial"",""time""
""focus"",""14"",""106616""
""focus"",""24"",""170948""
""focus"",""44"",""207464""
""focus"",""60"",""298472""
","""event"",""trial"",""time""
""fullscreenenter"",""1"",""1861""
","
",,null,run_exp/static/images/task_images/land.jpg,null,,,,,,,97,,,1,,,,,,,,,,,,,,
dig,62,303134,0.0-23.0-2.0,"""event"",""trial"",""time""
""fullscreenenter"",""1"",""1861""
""blur"",""14"",""102491""
""focus"",""14"",""106616""
""blur"",""24"",""170414""
""focus"",""24"",""170948""
""blur"",""44"",""206876""
""focus"",""44"",""207464""
""blur"",""60"",""298104""
""focus"",""60"",""298472""
","""event"",""trial"",""time""
""blur"",""14"",""102491""
""blur"",""24"",""170414""
""blur"",""44"",""206876""
""blur"",""60"",""298104""
","""event"",""trial"",""time""
""focus"",""14"",""106616""
""focus"",""24"",""170948""
""focus"",""44"",""207464""
""focus"",""60"",""298472""
","""event"",""trial"",""time""
""fullscreenenter"",""1"",""1861""
","
",,,,,,,,,,,,"[{""stimulus"":""run_exp/static/images/task_images/dig.jpg"",""time"":0},{""stimulus"":""run_exp/static/images/task_images/land.jpg"",""time"":669},{""stimulus"":""run_exp/static/images/task_images/dig.jpg"",""time"":1338}]",[],1,,,,,,,,,,,,,,
harvest,63,304139,0.0-23.0-3.0,"""event"",""trial"",""time""
""fullscreenenter"",""1"",""1861""
""blur"",""14"",""102491""
""focus"",""14"",""106616""
""blur"",""24"",""170414""
""focus"",""24"",""170948""
""blur"",""44"",""206876""
""focus"",""44"",""207464""
""blur"",""60"",""298104""
""focus"",""60"",""298472""
","""event"",""trial"",""time""
""blur"",""14"",""102491""
""blur"",""24"",""170414""
""blur"",""44"",""206876""
""blur"",""60"",""298104""
","""event"",""trial"",""time""
""focus"",""14"",""106616""
""focus"",""24"",""170948""
""focus"",""44"",""207464""
""focus"",""60"",""298472""
","""event"",""trial"",""time""
""fullscreenenter"",""1"",""1861""
","
",,null,run_exp/static/images/task_images/gems/97.jpg,null,,,,,,,21,,,1,,,,,97,0.219620215,0.216494845,,,,,,,
decision,64,304279,0.0-23.0-4.0,"""event"",""trial"",""time""
""fullscreenenter"",""1"",""1861""
""blur"",""14"",""102491""
""focus"",""14"",""106616""
""blur"",""24"",""170414""
""focus"",""24"",""170948""
""blur"",""44"",""206876""
""focus"",""44"",""207464""
""blur"",""60"",""298104""
""focus"",""60"",""298472""
","""event"",""trial"",""time""
""blur"",""14"",""102491""
""blur"",""24"",""170414""
""blur"",""44"",""206876""
""blur"",""60"",""298104""
","""event"",""trial"",""time""
""focus"",""14"",""106616""
""focus"",""24"",""170948""
""focus"",""44"",""207464""
""focus"",""60"",""298472""
","""event"",""trial"",""time""
""fullscreenenter"",""1"",""1861""
","
",,140,run_exp/static/images/task_images/land.jpg,65,,,,,,,21,,,1,,,,,,,,8660,1,0,FALSE,,,
dig,65,307142,0.0-24.0-0.0,"""event"",""trial"",""time""
""fullscreenenter"",""1"",""1861""
""blur"",""14"",""102491""
""focus"",""14"",""106616""
""blur"",""24"",""170414""
""focus"",""24"",""170948""
""blur"",""44"",""206876""
""focus"",""44"",""207464""
""blur"",""60"",""298104""
""focus"",""60"",""298472""
","""event"",""trial"",""time""
""blur"",""14"",""102491""
""blur"",""24"",""170414""
""blur"",""44"",""206876""
""blur"",""60"",""298104""
","""event"",""trial"",""time""
""focus"",""14"",""106616""
""focus"",""24"",""170948""
""focus"",""44"",""207464""
""focus"",""60"",""298472""
","""event"",""trial"",""time""
""fullscreenenter"",""1"",""1861""
","
",,,,,,,,,,,,"[{""stimulus"":""run_exp/static/images/task_images/dig.jpg"",""time"":0},{""stimulus"":""run_exp/static/images/task_images/land.jpg"",""time"":962},{""stimulus"":""run_exp/static/images/task_images/dig.jpg"",""time"":1919}]",[],1,,,,,,,,,,,,,,
harvest,66,308148,0.0-24.0-1.0,"""event"",""trial"",""time""
""fullscreenenter"",""1"",""1861""
""blur"",""14"",""102491""
""focus"",""14"",""106616""
""blur"",""24"",""170414""
""focus"",""24"",""170948""
""blur"",""44"",""206876""
""focus"",""44"",""207464""
""blur"",""60"",""298104""
""focus"",""60"",""298472""
","""event"",""trial"",""time""
""blur"",""14"",""102491""
""blur"",""24"",""170414""
""blur"",""44"",""206876""
""blur"",""60"",""298104""
","""event"",""trial"",""time""
""focus"",""14"",""106616""
""focus"",""24"",""170948""
""focus"",""44"",""207464""
""focus"",""60"",""298472""
","""event"",""trial"",""time""
""fullscreenenter"",""1"",""1861""
","
",,null,run_exp/static/images/task_images/gems/21.jpg,null,,,,,,,4,,,1,,,,,21,0.202565063,0.19047619,,,,,,,
decision,67,308207,0.0-24.0-2.0,"""event"",""trial"",""time""
""fullscreenenter"",""1"",""1861""
""blur"",""14"",""102491""
""focus"",""14"",""106616""
""blur"",""24"",""170414""
""focus"",""24"",""170948""
""blur"",""44"",""206876""
""focus"",""44"",""207464""
""blur"",""60"",""298104""
""focus"",""60"",""298472""
","""event"",""trial"",""time""
""blur"",""14"",""102491""
""blur"",""24"",""170414""
""blur"",""44"",""206876""
""blur"",""60"",""298104""
","""event"",""trial"",""time""
""focus"",""14"",""106616""
""focus"",""24"",""170948""
""focus"",""44"",""207464""
""focus"",""60"",""298472""
","""event"",""trial"",""time""
""fullscreenenter"",""1"",""1861""
","
",,60,run_exp/static/images/task_images/land.jpg,65,,,,,,,4,,,1,,,,,,,,12587,1,1,FALSE,,,
dig,68,311164,0.0-25.0-0.0,"""event"",""trial"",""time""
""fullscreenenter"",""1"",""1861""
""blur"",""14"",""102491""
""focus"",""14"",""106616""
""blur"",""24"",""170414""
""focus"",""24"",""170948""
""blur"",""44"",""206876""
""focus"",""44"",""207464""
""blur"",""60"",""298104""
""focus"",""60"",""298472""
","""event"",""trial"",""time""
""blur"",""14"",""102491""
""blur"",""24"",""170414""
""blur"",""44"",""206876""
""blur"",""60"",""298104""
","""event"",""trial"",""time""
""focus"",""14"",""106616""
""focus"",""24"",""170948""
""focus"",""44"",""207464""
""focus"",""60"",""298472""
","""event"",""trial"",""time""
""fullscreenenter"",""1"",""1861""
","
",,,,,,,,,,,,"[{""stimulus"":""run_exp/static/images/task_images/dig.jpg"",""time"":0},{""stimulus"":""run_exp/static/images/task_images/land.jpg"",""time"":992},{""stimulus"":""run_exp/static/images/task_images/dig.jpg"",""time"":1968}]",[],1,,,,,,,,,,,,,,
harvest,69,312171,0.0-25.0-1.0,"""event"",""trial"",""time""
""fullscreenenter"",""1"",""1861""
""blur"",""14"",""102491""
""focus"",""14"",""106616""
""blur"",""24"",""170414""
""focus"",""24"",""170948""
""blur"",""44"",""206876""
""focus"",""44"",""207464""
""blur"",""60"",""298104""
""focus"",""60"",""298472""
","""event"",""trial"",""time""
""blur"",""14"",""102491""
""blur"",""24"",""170414""
""blur"",""44"",""206876""
""blur"",""60"",""298104""
","""event"",""trial"",""time""
""focus"",""14"",""106616""
""focus"",""24"",""170948""
""focus"",""44"",""207464""
""focus"",""60"",""298472""
","""event"",""trial"",""time""
""fullscreenenter"",""1"",""1861""
","
",,null,run_exp/static/images/task_images/gems/4.jpg,null,,,,,,,1,,,1,,,,,4,0.198174114,0.25,,,,,,,
decision,70,312823,0.0-25.0-2.0,"""event"",""trial"",""time""
""fullscreenenter"",""1"",""1861""
""blur"",""14"",""102491""
""focus"",""14"",""106616""
""blur"",""24"",""170414""
""focus"",""24"",""170948""
""blur"",""44"",""206876""
""focus"",""44"",""207464""
""blur"",""60"",""298104""
""focus"",""60"",""298472""
","""event"",""trial"",""time""
""blur"",""14"",""102491""
""blur"",""24"",""170414""
""blur"",""44"",""206876""
""blur"",""60"",""298104""
","""event"",""trial"",""time""
""focus"",""14"",""106616""
""focus"",""24"",""170948""
""focus"",""44"",""207464""
""focus"",""60"",""298472""
","""event"",""trial"",""time""
""fullscreenenter"",""1"",""1861""
","
",,652,run_exp/static/images/task_images/land.jpg,65,,,,,,,1,,,1,,,,,,,,17203,1,2,FALSE,,,
dig,71,315183,0.0-26.0-0.0,"""event"",""trial"",""time""
""fullscreenenter"",""1"",""1861""
""blur"",""14"",""102491""
""focus"",""14"",""106616""
""blur"",""24"",""170414""
""focus"",""24"",""170948""
""blur"",""44"",""206876""
""focus"",""44"",""207464""
""blur"",""60"",""298104""
""focus"",""60"",""298472""
","""event"",""trial"",""time""
""blur"",""14"",""102491""
""blur"",""24"",""170414""
""blur"",""44"",""206876""
""blur"",""60"",""298104""
","""event"",""trial"",""time""
""focus"",""14"",""106616""
""focus"",""24"",""170948""
""focus"",""44"",""207464""
""focus"",""60"",""298472""
","""event"",""trial"",""time""
""fullscreenenter"",""1"",""1861""
","
",,,,,,,,,,,,"[{""stimulus"":""run_exp/static/images/task_images/dig.jpg"",""time"":0},{""stimulus"":""run_exp/static/images/task_images/land.jpg"",""time"":797},{""stimulus"":""run_exp/static/images/task_images/dig.jpg"",""time"":1577}]",[],1,,,,,,,,,,,,,,
harvest,72,316186,0.0-26.0-1.0,"""event"",""trial"",""time""
""fullscreenenter"",""1"",""1861""
""blur"",""14"",""102491""
""focus"",""14"",""106616""
""blur"",""24"",""170414""
""focus"",""24"",""170948""
""blur"",""44"",""206876""
""focus"",""44"",""207464""
""blur"",""60"",""298104""
""focus"",""60"",""298472""
","""event"",""trial"",""time""
""blur"",""14"",""102491""
""blur"",""24"",""170414""
""blur"",""44"",""206876""
""blur"",""60"",""298104""
","""event"",""trial"",""time""
""focus"",""14"",""106616""
""focus"",""24"",""170948""
""focus"",""44"",""207464""
""focus"",""60"",""298472""
","""event"",""trial"",""time""
""fullscreenenter"",""1"",""1861""
","
",,null,run_exp/static/images/task_images/gems/1.jpg,null,,,,,,,0,,,1,,,,,1,0.279635964,0,,,,,,,
decision,73,316511,0.0-26.0-2.0,"""event"",""trial"",""time""
""fullscreenenter"",""1"",""1861""
""blur"",""14"",""102491""
""focus"",""14"",""106616""
""blur"",""24"",""170414""
""focus"",""24"",""170948""
""blur"",""44"",""206876""
""focus"",""44"",""207464""
""blur"",""60"",""298104""
""focus"",""60"",""298472""
","""event"",""trial"",""time""
""blur"",""14"",""102491""
""blur"",""24"",""170414""
""blur"",""44"",""206876""
""blur"",""60"",""298104""
","""event"",""trial"",""time""
""focus"",""14"",""106616""
""focus"",""24"",""170948""
""focus"",""44"",""207464""
""focus"",""60"",""298472""
","""event"",""trial"",""time""
""fullscreenenter"",""1"",""1861""
","
",,325,run_exp/static/images/task_images/land.jpg,65,,,,,,,0,,,1,,,,,,,,20891,1,3,FALSE,,,
dig,74,319201,0.0-27.0-0.0,"""event"",""trial"",""time""
""fullscreenenter"",""1"",""1861""
""blur"",""14"",""102491""
""focus"",""14"",""106616""
""blur"",""24"",""170414""
""focus"",""24"",""170948""
""blur"",""44"",""206876""
""focus"",""44"",""207464""
""blur"",""60"",""298104""
""focus"",""60"",""298472""
","""event"",""trial"",""time""
""blur"",""14"",""102491""
""blur"",""24"",""170414""
""blur"",""44"",""206876""
""blur"",""60"",""298104""
","""event"",""trial"",""time""
""focus"",""14"",""106616""
""focus"",""24"",""170948""
""focus"",""44"",""207464""
""focus"",""60"",""298472""
","""event"",""trial"",""time""
""fullscreenenter"",""1"",""1861""
","
",,,,,,,,,,,,"[{""stimulus"":""run_exp/static/images/task_images/dig.jpg"",""time"":1},{""stimulus"":""run_exp/static/images/task_images/land.jpg"",""time"":901},{""stimulus"":""run_exp/static/images/task_images/dig.jpg"",""time"":1794}]",[],1,,,,,,,,,,,,,,
harvest,75,320208,0.0-27.0-1.0,"""event"",""trial"",""time""
""fullscreenenter"",""1"",""1861""
""blur"",""14"",""102491""
""focus"",""14"",""106616""
""blur"",""24"",""170414""
""focus"",""24"",""170948""
""blur"",""44"",""206876""
""focus"",""44"",""207464""
""blur"",""60"",""298104""
""focus"",""60"",""298472""
","""event"",""trial"",""time""
""blur"",""14"",""102491""
""blur"",""24"",""170414""
""blur"",""44"",""206876""
""blur"",""60"",""298104""
","""event"",""trial"",""time""
""focus"",""14"",""106616""
""focus"",""24"",""170948""
""focus"",""44"",""207464""
""focus"",""60"",""298472""
","""event"",""trial"",""time""
""fullscreenenter"",""1"",""1861""
","
",,null,run_exp/static/images/task_images/gems/0.jpg,null,,,,,,,0,,,1,,,,,0,0.192860879,NaN,,,,,,,
decision,76,320503,0.0-27.0-2.0,"""event"",""trial"",""time""
""fullscreenenter"",""1"",""1861""
""blur"",""14"",""102491""
""focus"",""14"",""106616""
""blur"",""24"",""170414""
""focus"",""24"",""170948""
""blur"",""44"",""206876""
""focus"",""44"",""207464""
""blur"",""60"",""298104""
""focus"",""60"",""298472""
","""event"",""trial"",""time""
""blur"",""14"",""102491""
""blur"",""24"",""170414""
""blur"",""44"",""206876""
""blur"",""60"",""298104""
","""event"",""trial"",""time""
""focus"",""14"",""106616""
""focus"",""24"",""170948""
""focus"",""44"",""207464""
""focus"",""60"",""298472""
","""event"",""trial"",""time""
""fullscreenenter"",""1"",""1861""
","
",,294,run_exp/static/images/task_images/land.jpg,76,,,,,,,0,,,1,,,,,,,,24883,1,4,TRUE,,,
travel,77,330208,0.0-28.0-0.0,"""event"",""trial"",""time""
""fullscreenenter"",""1"",""1861""
""blur"",""14"",""102491""
""focus"",""14"",""106616""
""blur"",""24"",""170414""
""focus"",""24"",""170948""
""blur"",""44"",""206876""
""focus"",""44"",""207464""
""blur"",""60"",""298104""
""focus"",""60"",""298472""
","""event"",""trial"",""time""
""blur"",""14"",""102491""
""blur"",""24"",""170414""
""blur"",""44"",""206876""
""blur"",""60"",""298104""
","""event"",""trial"",""time""
""focus"",""14"",""106616""
""focus"",""24"",""170948""
""focus"",""44"",""207464""
""focus"",""60"",""298472""
","""event"",""trial"",""time""
""fullscreenenter"",""1"",""1861""
","
",,,,,,,,,,,,"[{""stimulus"":""run_exp/static/images/task_images/rocket-01.jpg"",""time"":0},{""stimulus"":""run_exp/static/images/task_images/rocket-02.jpg"",""time"":1092},{""stimulus"":""run_exp/static/images/task_images/rocket-03.jpg"",""time"":2162},{""stimulus"":""run_exp/static/images/task_images/rocket-04.jpg"",""time"":3248},{""stimulus"":""run_exp/static/images/task_images/rocket-05.jpg"",""time"":4320},{""stimulus"":""run_exp/static/images/task_images/rocket-06.jpg"",""time"":5405},{""stimulus"":""run_exp/static/images/task_images/rocket-07.jpg"",""time"":6475},{""stimulus"":""run_exp/static/images/task_images/rocket-08.jpg"",""time"":7546},{""stimulus"":""run_exp/static/images/task_images/rocket-09.jpg"",""time"":8634}]",[],1,,,,,,,,,,,,,,
alien_welcome,78,335222,0.0-28.0-1.0,"""event"",""trial"",""time""
""fullscreenenter"",""1"",""1861""
""blur"",""14"",""102491""
""focus"",""14"",""106616""
""blur"",""24"",""170414""
""focus"",""24"",""170948""
""blur"",""44"",""206876""
""focus"",""44"",""207464""
""blur"",""60"",""298104""
""focus"",""60"",""298472""
","""event"",""trial"",""time""
""blur"",""14"",""102491""
""blur"",""24"",""170414""
""blur"",""44"",""206876""
""blur"",""60"",""298104""
","""event"",""trial"",""time""
""focus"",""14"",""106616""
""focus"",""24"",""170948""
""focus"",""44"",""207464""
""focus"",""60"",""298472""
","""event"",""trial"",""time""
""fullscreenenter"",""1"",""1861""
","
",,null,run_exp/static/images/task_images/aliens/old_aliens/planet/alien_planet-79.jpg,null,,,,,,,,,,,,,79,"53,79,61,13,69,71,68,4,40,76,74,30,50,33,38,19,57,6,5,1,64,11,22,48,39,34,17,80,21,41,56,16,25,35,49",,,,,,,,,,
land,79,335733,0.0-28.0-2.0,"""event"",""trial"",""time""
""fullscreenenter"",""1"",""1861""
""blur"",""14"",""102491""
""focus"",""14"",""106616""
""blur"",""24"",""170414""
""focus"",""24"",""170948""
""blur"",""44"",""206876""
""focus"",""44"",""207464""
""blur"",""60"",""298104""
""focus"",""60"",""298472""
","""event"",""trial"",""time""
""blur"",""14"",""102491""
""blur"",""24"",""170414""
""blur"",""44"",""206876""
""blur"",""60"",""298104""
","""event"",""trial"",""time""
""focus"",""14"",""106616""
""focus"",""24"",""170948""
""focus"",""44"",""207464""
""focus"",""60"",""298472""
","""event"",""trial"",""time""
""fullscreenenter"",""1"",""1861""
","
",,null,run_exp/static/images/task_images/land.jpg,null,,,,,,,93,,,2,,,,,,,,,,,,,,
dig,80,337746,0.0-28.0-3.0,"""event"",""trial"",""time""
""fullscreenenter"",""1"",""1861""
""blur"",""14"",""102491""
""focus"",""14"",""106616""
""blur"",""24"",""170414""
""focus"",""24"",""170948""
""blur"",""44"",""206876""
""focus"",""44"",""207464""
""blur"",""60"",""298104""
""focus"",""60"",""298472""
","""event"",""trial"",""time""
""blur"",""14"",""102491""
""blur"",""24"",""170414""
""blur"",""44"",""206876""
""blur"",""60"",""298104""
","""event"",""trial"",""time""
""focus"",""14"",""106616""
""focus"",""24"",""170948""
""focus"",""44"",""207464""
""focus"",""60"",""298472""
","""event"",""trial"",""time""
""fullscreenenter"",""1"",""1861""
","
",,,,,,,,,,,,"[{""stimulus"":""run_exp/static/images/task_images/dig.jpg"",""time"":0},{""stimulus"":""run_exp/static/images/task_images/land.jpg"",""time"":671},{""stimulus"":""run_exp/static/images/task_images/dig.jpg"",""time"":1342}]",[],2,,,,,,,,,,,,,,
harvest,81,338754,0.0-28.0-4.0,"""event"",""trial"",""time""
""fullscreenenter"",""1"",""1861""
""blur"",""14"",""102491""
""focus"",""14"",""106616""
""blur"",""24"",""170414""
""focus"",""24"",""170948""
""blur"",""44"",""206876""
""focus"",""44"",""207464""
""blur"",""60"",""298104""
""focus"",""60"",""298472""
","""event"",""trial"",""time""
""blur"",""14"",""102491""
""blur"",""24"",""170414""
""blur"",""44"",""206876""
""blur"",""60"",""298104""
","""event"",""trial"",""time""
""focus"",""14"",""106616""
""focus"",""24"",""170948""
""focus"",""44"",""207464""
""focus"",""60"",""298472""
","""event"",""trial"",""time""
""fullscreenenter"",""1"",""1861""
","
",,null,run_exp/static/images/task_images/gems/93.jpg,null,,,,,,,22,,,2,,,,,93,0.233640616,0.23655914,,,,,,,
decision,82,338952,0.0-28.0-5.0,"""event"",""trial"",""time""
""fullscreenenter"",""1"",""1861""
""blur"",""14"",""102491""
""focus"",""14"",""106616""
""blur"",""24"",""170414""
""focus"",""24"",""170948""
""blur"",""44"",""206876""
""focus"",""44"",""207464""
""blur"",""60"",""298104""
""focus"",""60"",""298472""
","""event"",""trial"",""time""
""blur"",""14"",""102491""
""blur"",""24"",""170414""
""blur"",""44"",""206876""
""blur"",""60"",""298104""
","""event"",""trial"",""time""
""focus"",""14"",""106616""
""focus"",""24"",""170948""
""focus"",""44"",""207464""
""focus"",""60"",""298472""
","""event"",""trial"",""time""
""fullscreenenter"",""1"",""1861""
","
",,197,run_exp/static/images/task_images/land.jpg,65,,,,,,,22,,,2,,,,,,,,43332,1,0,FALSE,,,
dig,83,341771,0.0-29.0-0.0,"""event"",""trial"",""time""
""fullscreenenter"",""1"",""1861""
""blur"",""14"",""102491""
""focus"",""14"",""106616""
""blur"",""24"",""170414""
""focus"",""24"",""170948""
""blur"",""44"",""206876""
""focus"",""44"",""207464""
""blur"",""60"",""298104""
""focus"",""60"",""298472""
","""event"",""trial"",""time""
""blur"",""14"",""102491""
""blur"",""24"",""170414""
""blur"",""44"",""206876""
""blur"",""60"",""298104""
","""event"",""trial"",""time""
""focus"",""14"",""106616""
""focus"",""24"",""170948""
""focus"",""44"",""207464""
""focus"",""60"",""298472""
","""event"",""trial"",""time""
""fullscreenenter"",""1"",""1861""
","
",,,,,,,,,,,,"[{""stimulus"":""run_exp/static/images/task_images/dig.jpg"",""time"":0},{""stimulus"":""run_exp/static/images/task_images/land.jpg"",""time"":935},{""stimulus"":""run_exp/static/images/task_images/dig.jpg"",""time"":1873}]",[],2,,,,,,,,,,,,,,
harvest,84,342776,0.0-29.0-1.0,"""event"",""trial"",""time""
""fullscreenenter"",""1"",""1861""
""blur"",""14"",""102491""
""focus"",""14"",""106616""
""blur"",""24"",""170414""
""focus"",""24"",""170948""
""blur"",""44"",""206876""
""focus"",""44"",""207464""
""blur"",""60"",""298104""
""focus"",""60"",""298472""
","""event"",""trial"",""time""
""blur"",""14"",""102491""
""blur"",""24"",""170414""
""blur"",""44"",""206876""
""blur"",""60"",""298104""
","""event"",""trial"",""time""
""focus"",""14"",""106616""
""focus"",""24"",""170948""
""focus"",""44"",""207464""
""focus"",""60"",""298472""
","""event"",""trial"",""time""
""fullscreenenter"",""1"",""1861""
","
",,null,run_exp/static/images/task_images/gems/22.jpg,null,,,,,,,6,,,2,,,,,22,0.277617369,0.272727273,,,,,,,
decision,85,343120,0.0-29.0-2.0,"""event"",""trial"",""time""
""fullscreenenter"",""1"",""1861""
""blur"",""14"",""102491""
""focus"",""14"",""106616""
""blur"",""24"",""170414""
""focus"",""24"",""170948""
""blur"",""44"",""206876""
""focus"",""44"",""207464""
""blur"",""60"",""298104""
""focus"",""60"",""298472""
","""event"",""trial"",""time""
""blur"",""14"",""102491""
""blur"",""24"",""170414""
""blur"",""44"",""206876""
""blur"",""60"",""298104""
","""event"",""trial"",""time""
""focus"",""14"",""106616""
""focus"",""24"",""170948""
""focus"",""44"",""207464""
""focus"",""60"",""298472""
","""event"",""trial"",""time""
""fullscreenenter"",""1"",""1861""
","
",,344,run_exp/static/images/task_images/land.jpg,65,,,,,,,6,,,2,,,,,,,,47500,1,1,FALSE,,,
dig,86,345792,0.0-30.0-0.0,"""event"",""trial"",""time""
""fullscreenenter"",""1"",""1861""
""blur"",""14"",""102491""
""focus"",""14"",""106616""
""blur"",""24"",""170414""
""focus"",""24"",""170948""
""blur"",""44"",""206876""
""focus"",""44"",""207464""
""blur"",""60"",""298104""
""focus"",""60"",""298472""
","""event"",""trial"",""time""
""blur"",""14"",""102491""
""blur"",""24"",""170414""
""blur"",""44"",""206876""
""blur"",""60"",""298104""
","""event"",""trial"",""time""
""focus"",""14"",""106616""
""focus"",""24"",""170948""
""focus"",""44"",""207464""
""focus"",""60"",""298472""
","""event"",""trial"",""time""
""fullscreenenter"",""1"",""1861""
","
",,,,,,,,,,,,"[{""stimulus"":""run_exp/static/images/task_images/dig.jpg"",""time"":0},{""stimulus"":""run_exp/static/images/task_images/land.jpg"",""time"":900},{""stimulus"":""run_exp/static/images/task_images/dig.jpg"",""time"":1777}]",[],2,,,,,,,,,,,,,,
harvest,87,346801,0.0-30.0-1.0,"""event"",""trial"",""time""
""fullscreenenter"",""1"",""1861""
""blur"",""14"",""102491""
""focus"",""14"",""106616""
""blur"",""24"",""170414""
""focus"",""24"",""170948""
""blur"",""44"",""206876""
""focus"",""44"",""207464""
""blur"",""60"",""298104""
""focus"",""60"",""298472""
","""event"",""trial"",""time""
""blur"",""14"",""102491""
""blur"",""24"",""170414""
""blur"",""44"",""206876""
""blur"",""60"",""298104""
","""event"",""trial"",""time""
""focus"",""14"",""106616""
""focus"",""24"",""170948""
""focus"",""44"",""207464""
""focus"",""60"",""298472""
","""event"",""trial"",""time""
""fullscreenenter"",""1"",""1861""
","
",,null,run_exp/static/images/task_images/gems/6.jpg,null,,,,,,,1,,,2,,,,,6,0.187956065,0.166666667,,,,,,,
decision,88,346864,0.0-30.0-2.0,"""event"",""trial"",""time""
""fullscreenenter"",""1"",""1861""
""blur"",""14"",""102491""
""focus"",""14"",""106616""
""blur"",""24"",""170414""
""focus"",""24"",""170948""
""blur"",""44"",""206876""
""focus"",""44"",""207464""
""blur"",""60"",""298104""
""focus"",""60"",""298472""
","""event"",""trial"",""time""
""blur"",""14"",""102491""
""blur"",""24"",""170414""
""blur"",""44"",""206876""
""blur"",""60"",""298104""
","""event"",""trial"",""time""
""focus"",""14"",""106616""
""focus"",""24"",""170948""
""focus"",""44"",""207464""
""focus"",""60"",""298472""
","""event"",""trial"",""time""
""fullscreenenter"",""1"",""1861""
","
",,63,run_exp/static/images/task_images/land.jpg,76,,,,,,,1,,,2,,,,,,,,51244,1,2,TRUE,,,
travel,89,356815,0.0-31.0-0.0,"""event"",""trial"",""time""
""fullscreenenter"",""1"",""1861""
""blur"",""14"",""102491""
""focus"",""14"",""106616""
""blur"",""24"",""170414""
""focus"",""24"",""170948""
""blur"",""44"",""206876""
""focus"",""44"",""207464""
""blur"",""60"",""298104""
""focus"",""60"",""298472""
","""event"",""trial"",""time""
""blur"",""14"",""102491""
""blur"",""24"",""170414""
""blur"",""44"",""206876""
""blur"",""60"",""298104""
","""event"",""trial"",""time""
""focus"",""14"",""106616""
""focus"",""24"",""170948""
""focus"",""44"",""207464""
""focus"",""60"",""298472""
","""event"",""trial"",""time""
""fullscreenenter"",""1"",""1861""
","
",,,,,,,,,,,,"[{""stimulus"":""run_exp/static/images/task_images/rocket-01.jpg"",""time"":1},{""stimulus"":""run_exp/static/images/task_images/rocket-02.jpg"",""time"":1117},{""stimulus"":""run_exp/static/images/task_images/rocket-03.jpg"",""time"":2220},{""stimulus"":""run_exp/static/images/task_images/rocket-04.jpg"",""time"":3322},{""stimulus"":""run_exp/static/images/task_images/rocket-05.jpg"",""time"":4423},{""stimulus"":""run_exp/static/images/task_images/rocket-06.jpg"",""time"":5526},{""stimulus"":""run_exp/static/images/task_images/rocket-07.jpg"",""time"":6628},{""stimulus"":""run_exp/static/images/task_images/rocket-08.jpg"",""time"":7731},{""stimulus"":""run_exp/static/images/task_images/rocket-09.jpg"",""time"":8848}]",[],2,,,,,,,,,,,,,,
alien_welcome,90,361822,0.0-31.0-1.0,"""event"",""trial"",""time""
""fullscreenenter"",""1"",""1861""
""blur"",""14"",""102491""
""focus"",""14"",""106616""
""blur"",""24"",""170414""
""focus"",""24"",""170948""
""blur"",""44"",""206876""
""focus"",""44"",""207464""
""blur"",""60"",""298104""
""focus"",""60"",""298472""
","""event"",""trial"",""time""
""blur"",""14"",""102491""
""blur"",""24"",""170414""
""blur"",""44"",""206876""
""blur"",""60"",""298104""
","""event"",""trial"",""time""
""focus"",""14"",""106616""
""focus"",""24"",""170948""
""focus"",""44"",""207464""
""focus"",""60"",""298472""
","""event"",""trial"",""time""
""fullscreenenter"",""1"",""1861""
","
",,null,run_exp/static/images/task_images/aliens/old_aliens/planet/alien_planet-61.jpg,null,,,,,,,,,,,,,61,"53,79,61,13,69,71,68,4,40,76,74,30,50,33,38,19,57,6,5,1,64,11,22,48,39,34,17,80,21,41,56,16,25,35,49",,,,,,,,,,
land,91,362333,0.0-31.0-2.0,"""event"",""trial"",""time""
""fullscreenenter"",""1"",""1861""
""blur"",""14"",""102491""
""focus"",""14"",""106616""
""blur"",""24"",""170414""
""focus"",""24"",""170948""
""blur"",""44"",""206876""
""focus"",""44"",""207464""
""blur"",""60"",""298104""
""focus"",""60"",""298472""
","""event"",""trial"",""time""
""blur"",""14"",""102491""
""blur"",""24"",""170414""
""blur"",""44"",""206876""
""blur"",""60"",""298104""
","""event"",""trial"",""time""
""focus"",""14"",""106616""
""focus"",""24"",""170948""
""focus"",""44"",""207464""
""focus"",""60"",""298472""
","""event"",""trial"",""time""
""fullscreenenter"",""1"",""1861""
","
",,null,run_exp/static/images/task_images/land.jpg,null,,,,,,,101,,,3,,,,,,,,,,,,,,
dig,92,364338,0.0-31.0-3.0,"""event"",""trial"",""time""
""fullscreenenter"",""1"",""1861""
""blur"",""14"",""102491""
""focus"",""14"",""106616""
""blur"",""24"",""170414""
""focus"",""24"",""170948""
""blur"",""44"",""206876""
""focus"",""44"",""207464""
""blur"",""60"",""298104""
""focus"",""60"",""298472""
","""event"",""trial"",""time""
""blur"",""14"",""102491""
""blur"",""24"",""170414""
""blur"",""44"",""206876""
""blur"",""60"",""298104""
","""event"",""trial"",""time""
""focus"",""14"",""106616""
""focus"",""24"",""170948""
""focus"",""44"",""207464""
""focus"",""60"",""298472""
","""event"",""trial"",""time""
""fullscreenenter"",""1"",""1861""
","
",,,,,,,,,,,,"[{""stimulus"":""run_exp/static/images/task_images/dig.jpg"",""time"":0},{""stimulus"":""run_exp/static/images/task_images/land.jpg"",""time"":668},{""stimulus"":""run_exp/static/images/task_images/dig.jpg"",""time"":1337}]",[],3,,,,,,,,,,,,,,
harvest,93,365345,0.0-31.0-4.0,"""event"",""trial"",""time""
""fullscreenenter"",""1"",""1861""
""blur"",""14"",""102491""
""focus"",""14"",""106616""
""blur"",""24"",""170414""
""focus"",""24"",""170948""
""blur"",""44"",""206876""
""focus"",""44"",""207464""
""blur"",""60"",""298104""
""focus"",""60"",""298472""
","""event"",""trial"",""time""
""blur"",""14"",""102491""
""blur"",""24"",""170414""
""blur"",""44"",""206876""
""blur"",""60"",""298104""
","""event"",""trial"",""time""
""focus"",""14"",""106616""
""focus"",""24"",""170948""
""focus"",""44"",""207464""
""focus"",""60"",""298472""
","""event"",""trial"",""time""
""fullscreenenter"",""1"",""1861""
","
",,null,run_exp/static/images/task_images/gems/101.jpg,null,,,,,,,48,,,3,,,,,101,0.479628651,0.475247525,,,,,,,
decision,94,365720,0.0-31.0-5.0,"""event"",""trial"",""time""
""fullscreenenter"",""1"",""1861""
""blur"",""14"",""102491""
""focus"",""14"",""106616""
""blur"",""24"",""170414""
""focus"",""24"",""170948""
""blur"",""44"",""206876""
""focus"",""44"",""207464""
""blur"",""60"",""298104""
""focus"",""60"",""298472""
","""event"",""trial"",""time""
""blur"",""14"",""102491""
""blur"",""24"",""170414""
""blur"",""44"",""206876""
""blur"",""60"",""298104""
","""event"",""trial"",""time""
""focus"",""14"",""106616""
""focus"",""24"",""170948""
""focus"",""44"",""207464""
""focus"",""60"",""298472""
","""event"",""trial"",""time""
""fullscreenenter"",""1"",""1861""
","
",,374,run_exp/static/images/task_images/land.jpg,65,,,,,,,48,,,3,,,,,,,,70100,1,0,FALSE,,,
dig,95,368357,0.0-32.0-0.0,"""event"",""trial"",""time""
""fullscreenenter"",""1"",""1861""
""blur"",""14"",""102491""
""focus"",""14"",""106616""
""blur"",""24"",""170414""
""focus"",""24"",""170948""
""blur"",""44"",""206876""
""focus"",""44"",""207464""
""blur"",""60"",""298104""
""focus"",""60"",""298472""
","""event"",""trial"",""time""
""blur"",""14"",""102491""
""blur"",""24"",""170414""
""blur"",""44"",""206876""
""blur"",""60"",""298104""
","""event"",""trial"",""time""
""focus"",""14"",""106616""
""focus"",""24"",""170948""
""focus"",""44"",""207464""
""focus"",""60"",""298472""
","""event"",""trial"",""time""
""fullscreenenter"",""1"",""1861""
","
",,,,,,,,,,,,"[{""stimulus"":""run_exp/static/images/task_images/dig.jpg"",""time"":0},{""stimulus"":""run_exp/static/images/task_images/land.jpg"",""time"":882},{""stimulus"":""run_exp/static/images/task_images/dig.jpg"",""time"":1756}]",[],3,,,,,,,,,,,,,,
harvest,96,369361,0.0-32.0-1.0,"""event"",""trial"",""time""
""fullscreenenter"",""1"",""1861""
""blur"",""14"",""102491""
""focus"",""14"",""106616""
""blur"",""24"",""170414""
""focus"",""24"",""170948""
""blur"",""44"",""206876""
""focus"",""44"",""207464""
""blur"",""60"",""298104""
""focus"",""60"",""298472""
","""event"",""trial"",""time""
""blur"",""14"",""102491""
""blur"",""24"",""170414""
""blur"",""44"",""206876""
""blur"",""60"",""298104""
","""event"",""trial"",""time""
""focus"",""14"",""106616""
""focus"",""24"",""170948""
""focus"",""44"",""207464""
""focus"",""60"",""298472""
","""event"",""trial"",""time""
""fullscreenenter"",""1"",""1861""
","
",,null,run_exp/static/images/task_images/gems/48.jpg,null,,,,,,,24,,,3,,,,,48,0.495290611,0.5,,,,,,,
decision,97,369504,0.0-32.0-2.0,"""event"",""trial"",""time""
""fullscreenenter"",""1"",""1861""
""blur"",""14"",""102491""
""focus"",""14"",""106616""
""blur"",""24"",""170414""
""focus"",""24"",""170948""
""blur"",""44"",""206876""
""focus"",""44"",""207464""
""blur"",""60"",""298104""
""focus"",""60"",""298472""
","""event"",""trial"",""time""
""blur"",""14"",""102491""
""blur"",""24"",""170414""
""blur"",""44"",""206876""
""blur"",""60"",""298104""
","""event"",""trial"",""time""
""focus"",""14"",""106616""
""focus"",""24"",""170948""
""focus"",""44"",""207464""
""focus"",""60"",""298472""
","""event"",""trial"",""time""
""fullscreenenter"",""1"",""1861""
","
",,143,run_exp/static/images/task_images/land.jpg,65,,,,,,,24,,,3,,,,,,,,73884,1,1,FALSE,,,
dig,98,372364,0.0-33.0-0.0,"""event"",""trial"",""time""
""fullscreenenter"",""1"",""1861""
""blur"",""14"",""102491""
""focus"",""14"",""106616""
""blur"",""24"",""170414""
""focus"",""24"",""170948""
""blur"",""44"",""206876""
""focus"",""44"",""207464""
""blur"",""60"",""298104""
""focus"",""60"",""298472""
","""event"",""trial"",""time""
""blur"",""14"",""102491""
""blur"",""24"",""170414""
""blur"",""44"",""206876""
""blur"",""60"",""298104""
","""event"",""trial"",""time""
""focus"",""14"",""106616""
""focus"",""24"",""170948""
""focus"",""44"",""207464""
""focus"",""60"",""298472""
","""event"",""trial"",""time""
""fullscreenenter"",""1"",""1861""
","
",,,,,,,,,,,,"[{""stimulus"":""run_exp/static/images/task_images/dig.jpg"",""time"":0},{""stimulus"":""run_exp/static/images/task_images/land.jpg"",""time"":957},{""stimulus"":""run_exp/static/images/task_images/dig.jpg"",""time"":1916}]",[],3,,,,,,,,,,,,,,
harvest,99,373372,0.0-33.0-1.0,"""event"",""trial"",""time""
""fullscreenenter"",""1"",""1861""
""blur"",""14"",""102491""
""focus"",""14"",""106616""
""blur"",""24"",""170414""
""focus"",""24"",""170948""
""blur"",""44"",""206876""
""focus"",""44"",""207464""
""blur"",""60"",""298104""
""focus"",""60"",""298472""
","""event"",""trial"",""time""
""blur"",""14"",""102491""
""blur"",""24"",""170414""
""blur"",""44"",""206876""
""blur"",""60"",""298104""
","""event"",""trial"",""time""
""focus"",""14"",""106616""
""focus"",""24"",""170948""
""focus"",""44"",""207464""
""focus"",""60"",""298472""
","""event"",""trial"",""time""
""fullscreenenter"",""1"",""1861""
","
",,null,run_exp/static/images/task_images/gems/24.jpg,null,,,,,,,11,,,3,,,,,24,0.477235719,0.458333333,,,,,,,
decision,100,373376,0.0-33.0-2.0,"""event"",""trial"",""time""
""fullscreenenter"",""1"",""1861""
""blur"",""14"",""102491""
""focus"",""14"",""106616""
""blur"",""24"",""170414""
""focus"",""24"",""170948""
""blur"",""44"",""206876""
""focus"",""44"",""207464""
""blur"",""60"",""298104""
""focus"",""60"",""298472""
","""event"",""trial"",""time""
""blur"",""14"",""102491""
""blur"",""24"",""170414""
""blur"",""44"",""206876""
""blur"",""60"",""298104""
","""event"",""trial"",""time""
""focus"",""14"",""106616""
""focus"",""24"",""170948""
""focus"",""44"",""207464""
""focus"",""60"",""298472""
","""event"",""trial"",""time""
""fullscreenenter"",""1"",""1861""
","
",,4,run_exp/static/images/task_images/land.jpg,65,,,,,,,11,,,3,,,,,,,,77756,1,2,FALSE,,,
dig,101,376386,0.0-34.0-0.0,"""event"",""trial"",""time""
""fullscreenenter"",""1"",""1861""
""blur"",""14"",""102491""
""focus"",""14"",""106616""
""blur"",""24"",""170414""
""focus"",""24"",""170948""
""blur"",""44"",""206876""
""focus"",""44"",""207464""
""blur"",""60"",""298104""
""focus"",""60"",""298472""
","""event"",""trial"",""time""
""blur"",""14"",""102491""
""blur"",""24"",""170414""
""blur"",""44"",""206876""
""blur"",""60"",""298104""
","""event"",""trial"",""time""
""focus"",""14"",""106616""
""focus"",""24"",""170948""
""focus"",""44"",""207464""
""focus"",""60"",""298472""
","""event"",""trial"",""time""
""fullscreenenter"",""1"",""1861""
","
",,,,,,,,,,,,"[{""stimulus"":""run_exp/static/images/task_images/dig.jpg"",""time"":0},{""stimulus"":""run_exp/static/images/task_images/land.jpg"",""time"":1013},{""stimulus"":""run_exp/static/images/task_images/dig.jpg"",""time"":2004}]",[],3,,,,,,,,,,,,,,
harvest,102,377394,0.0-34.0-1.0,"""event"",""trial"",""time""
""fullscreenenter"",""1"",""1861""
""blur"",""14"",""102491""
""focus"",""14"",""106616""
""blur"",""24"",""170414""
""focus"",""24"",""170948""
""blur"",""44"",""206876""
""focus"",""44"",""207464""
""blur"",""60"",""298104""
""focus"",""60"",""298472""
","""event"",""trial"",""time""
""blur"",""14"",""102491""
""blur"",""24"",""170414""
""blur"",""44"",""206876""
""blur"",""60"",""298104""
","""event"",""trial"",""time""
""focus"",""14"",""106616""
""focus"",""24"",""170948""
""focus"",""44"",""207464""
""focus"",""60"",""298472""
","""event"",""trial"",""time""
""fullscreenenter"",""1"",""1861""
","
",,null,run_exp/static/images/task_images/gems/11.jpg,null,,,,,,,5,,,3,,,,,11,0.499517663,0.454545455,,,,,,,
decision,103,377520,0.0-34.0-2.0,"""event"",""trial"",""time""
""fullscreenenter"",""1"",""1861""
""blur"",""14"",""102491""
""focus"",""14"",""106616""
""blur"",""24"",""170414""
""focus"",""24"",""170948""
""blur"",""44"",""206876""
""focus"",""44"",""207464""
""blur"",""60"",""298104""
""focus"",""60"",""298472""
","""event"",""trial"",""time""
""blur"",""14"",""102491""
""blur"",""24"",""170414""
""blur"",""44"",""206876""
""blur"",""60"",""298104""
","""event"",""trial"",""time""
""focus"",""14"",""106616""
""focus"",""24"",""170948""
""focus"",""44"",""207464""
""focus"",""60"",""298472""
","""event"",""trial"",""time""
""fullscreenenter"",""1"",""1861""
","
",,125,run_exp/static/images/task_images/land.jpg,65,,,,,,,5,,,3,,,,,,,,81900,1,3,FALSE,,,
dig,104,380397,0.0-35.0-0.0,"""event"",""trial"",""time""
""fullscreenenter"",""1"",""1861""
""blur"",""14"",""102491""
""focus"",""14"",""106616""
""blur"",""24"",""170414""
""focus"",""24"",""170948""
""blur"",""44"",""206876""
""focus"",""44"",""207464""
""blur"",""60"",""298104""
""focus"",""60"",""298472""
","""event"",""trial"",""time""
""blur"",""14"",""102491""
""blur"",""24"",""170414""
""blur"",""44"",""206876""
""blur"",""60"",""298104""
","""event"",""trial"",""time""
""focus"",""14"",""106616""
""focus"",""24"",""170948""
""focus"",""44"",""207464""
""focus"",""60"",""298472""
","""event"",""trial"",""time""
""fullscreenenter"",""1"",""1861""
","
",,,,,,,,,,,,"[{""stimulus"":""run_exp/static/images/task_images/dig.jpg"",""time"":0},{""stimulus"":""run_exp/static/images/task_images/land.jpg"",""time"":959},{""stimulus"":""run_exp/static/images/task_images/dig.jpg"",""time"":1918}]",[],3,,,,,,,,,,,,,,
harvest,105,381404,0.0-35.0-1.0,"""event"",""trial"",""time""
""fullscreenenter"",""1"",""1861""
""blur"",""14"",""102491""
""focus"",""14"",""106616""
""blur"",""24"",""170414""
""focus"",""24"",""170948""
""blur"",""44"",""206876""
""focus"",""44"",""207464""
""blur"",""60"",""298104""
""focus"",""60"",""298472""
","""event"",""trial"",""time""
""blur"",""14"",""102491""
""blur"",""24"",""170414""
""blur"",""44"",""206876""
""blur"",""60"",""298104""
","""event"",""trial"",""time""
""focus"",""14"",""106616""
""focus"",""24"",""170948""
""focus"",""44"",""207464""
""focus"",""60"",""298472""
","""event"",""trial"",""time""
""fullscreenenter"",""1"",""1861""
","
",,null,run_exp/static/images/task_images/gems/5.jpg,null,,,,,,,2,,,3,,,,,5,0.430633783,0.4,,,,,,,
decision,106,381424,0.0-35.0-2.0,"""event"",""trial"",""time""
""fullscreenenter"",""1"",""1861""
""blur"",""14"",""102491""
""focus"",""14"",""106616""
""blur"",""24"",""170414""
""focus"",""24"",""170948""
""blur"",""44"",""206876""
""focus"",""44"",""207464""
""blur"",""60"",""298104""
""focus"",""60"",""298472""
","""event"",""trial"",""time""
""blur"",""14"",""102491""
""blur"",""24"",""170414""
""blur"",""44"",""206876""
""blur"",""60"",""298104""
","""event"",""trial"",""time""
""focus"",""14"",""106616""
""focus"",""24"",""170948""
""focus"",""44"",""207464""
""focus"",""60"",""298472""
","""event"",""trial"",""time""
""fullscreenenter"",""1"",""1861""
","
",,20,run_exp/static/images/task_images/land.jpg,76,,,,,,,2,,,3,,,,,,,,85804,1,4,TRUE,,,
travel,107,391409,0.0-36.0-0.0,"""event"",""trial"",""time""
""fullscreenenter"",""1"",""1861""
""blur"",""14"",""102491""
""focus"",""14"",""106616""
""blur"",""24"",""170414""
""focus"",""24"",""170948""
""blur"",""44"",""206876""
""focus"",""44"",""207464""
""blur"",""60"",""298104""
""focus"",""60"",""298472""
","""event"",""trial"",""time""
""blur"",""14"",""102491""
""blur"",""24"",""170414""
""blur"",""44"",""206876""
""blur"",""60"",""298104""
","""event"",""trial"",""time""
""focus"",""14"",""106616""
""focus"",""24"",""170948""
""focus"",""44"",""207464""
""focus"",""60"",""298472""
","""event"",""trial"",""time""
""fullscreenenter"",""1"",""1861""
","
",,,,,,,,,,,,"[{""stimulus"":""run_exp/static/images/task_images/rocket-01.jpg"",""time"":1},{""stimulus"":""run_exp/static/images/task_images/rocket-02.jpg"",""time"":1124},{""stimulus"":""run_exp/static/images/task_images/rocket-03.jpg"",""time"":2227},{""stimulus"":""run_exp/static/images/task_images/rocket-04.jpg"",""time"":3330},{""stimulus"":""run_exp/static/images/task_images/rocket-05.jpg"",""time"":4446},{""stimulus"":""run_exp/static/images/task_images/rocket-06.jpg"",""time"":5547},{""stimulus"":""run_exp/static/images/task_images/rocket-07.jpg"",""time"":6649},{""stimulus"":""run_exp/static/images/task_images/rocket-08.jpg"",""time"":7767},{""stimulus"":""run_exp/static/images/task_images/rocket-09.jpg"",""time"":8868}]",[],3,,,,,,,,,,,,,,
alien_welcome,108,396418,0.0-36.0-1.0,"""event"",""trial"",""time""
""fullscreenenter"",""1"",""1861""
""blur"",""14"",""102491""
""focus"",""14"",""106616""
""blur"",""24"",""170414""
""focus"",""24"",""170948""
""blur"",""44"",""206876""
""focus"",""44"",""207464""
""blur"",""60"",""298104""
""focus"",""60"",""298472""
","""event"",""trial"",""time""
""blur"",""14"",""102491""
""blur"",""24"",""170414""
""blur"",""44"",""206876""
""blur"",""60"",""298104""
","""event"",""trial"",""time""
""focus"",""14"",""106616""
""focus"",""24"",""170948""
""focus"",""44"",""207464""
""focus"",""60"",""298472""
","""event"",""trial"",""time""
""fullscreenenter"",""1"",""1861""
","
",,null,run_exp/static/images/task_images/aliens/old_aliens/planet/alien_planet-13.jpg,null,,,,,,,,,,,,,13,"53,79,61,13,69,71,68,4,40,76,74,30,50,33,38,19,57,6,5,1,64,11,22,48,39,34,17,80,21,41,56,16,25,35,49",,,,,,,,,,
land,109,396931,0.0-36.0-2.0,"""event"",""trial"",""time""
""fullscreenenter"",""1"",""1861""
""blur"",""14"",""102491""
""focus"",""14"",""106616""
""blur"",""24"",""170414""
""focus"",""24"",""170948""
""blur"",""44"",""206876""
""focus"",""44"",""207464""
""blur"",""60"",""298104""
""focus"",""60"",""298472""
","""event"",""trial"",""time""
""blur"",""14"",""102491""
""blur"",""24"",""170414""
""blur"",""44"",""206876""
""blur"",""60"",""298104""
","""event"",""trial"",""time""
""focus"",""14"",""106616""
""focus"",""24"",""170948""
""focus"",""44"",""207464""
""focus"",""60"",""298472""
","""event"",""trial"",""time""
""fullscreenenter"",""1"",""1861""
","
",,null,run_exp/static/images/task_images/land.jpg,null,,,,,,,103,,,4,,,,,,,,,,,,,,
dig,110,398944,0.0-36.0-3.0,"""event"",""trial"",""time""
""fullscreenenter"",""1"",""1861""
""blur"",""14"",""102491""
""focus"",""14"",""106616""
""blur"",""24"",""170414""
""focus"",""24"",""170948""
""blur"",""44"",""206876""
""focus"",""44"",""207464""
""blur"",""60"",""298104""
""focus"",""60"",""298472""
","""event"",""trial"",""time""
""blur"",""14"",""102491""
""blur"",""24"",""170414""
""blur"",""44"",""206876""
""blur"",""60"",""298104""
","""event"",""trial"",""time""
""focus"",""14"",""106616""
""focus"",""24"",""170948""
""focus"",""44"",""207464""
""focus"",""60"",""298472""
","""event"",""trial"",""time""
""fullscreenenter"",""1"",""1861""
","
",,,,,,,,,,,,"[{""stimulus"":""run_exp/static/images/task_images/dig.jpg"",""time"":0},{""stimulus"":""run_exp/static/images/task_images/land.jpg"",""time"":671},{""stimulus"":""run_exp/static/images/task_images/dig.jpg"",""time"":1342}]",[],4,,,,,,,,,,,,,,
harvest,111,399950,0.0-36.0-4.0,"""event"",""trial"",""time""
""fullscreenenter"",""1"",""1861""
""blur"",""14"",""102491""
""focus"",""14"",""106616""
""blur"",""24"",""170414""
""focus"",""24"",""170948""
""blur"",""44"",""206876""
""focus"",""44"",""207464""
""blur"",""60"",""298104""
""focus"",""60"",""298472""
","""event"",""trial"",""time""
""blur"",""14"",""102491""
""blur"",""24"",""170414""
""blur"",""44"",""206876""
""blur"",""60"",""298104""
","""event"",""trial"",""time""
""focus"",""14"",""106616""
""focus"",""24"",""170948""
""focus"",""44"",""207464""
""focus"",""60"",""298472""
","""event"",""trial"",""time""
""fullscreenenter"",""1"",""1861""
","
",,null,run_exp/static/images/task_images/gems/103.jpg,null,,,,,,,45,,,4,,,,,103,0.441685634,0.436893204,,,,,,,
decision,112,400408,0.0-36.0-5.0,"""event"",""trial"",""time""
""fullscreenenter"",""1"",""1861""
""blur"",""14"",""102491""
""focus"",""14"",""106616""
""blur"",""24"",""170414""
""focus"",""24"",""170948""
""blur"",""44"",""206876""
""focus"",""44"",""207464""
""blur"",""60"",""298104""
""focus"",""60"",""298472""
","""event"",""trial"",""time""
""blur"",""14"",""102491""
""blur"",""24"",""170414""
""blur"",""44"",""206876""
""blur"",""60"",""298104""
","""event"",""trial"",""time""
""focus"",""14"",""106616""
""focus"",""24"",""170948""
""focus"",""44"",""207464""
""focus"",""60"",""298472""
","""event"",""trial"",""time""
""fullscreenenter"",""1"",""1861""
","
",,457,run_exp/static/images/task_images/land.jpg,65,,,,,,,45,,,4,,,,,,,,104788,1,0,FALSE,,,
dig,113,402964,0.0-37.0-0.0,"""event"",""trial"",""time""
""fullscreenenter"",""1"",""1861""
""blur"",""14"",""102491""
""focus"",""14"",""106616""
""blur"",""24"",""170414""
""focus"",""24"",""170948""
""blur"",""44"",""206876""
""focus"",""44"",""207464""
""blur"",""60"",""298104""
""focus"",""60"",""298472""
","""event"",""trial"",""time""
""blur"",""14"",""102491""
""blur"",""24"",""170414""
""blur"",""44"",""206876""
""blur"",""60"",""298104""
","""event"",""trial"",""time""
""focus"",""14"",""106616""
""focus"",""24"",""170948""
""focus"",""44"",""207464""
""focus"",""60"",""298472""
","""event"",""trial"",""time""
""fullscreenenter"",""1"",""1861""
","
",,,,,,,,,,,,"[{""stimulus"":""run_exp/static/images/task_images/dig.jpg"",""time"":1},{""stimulus"":""run_exp/static/images/task_images/land.jpg"",""time"":851},{""stimulus"":""run_exp/static/images/task_images/dig.jpg"",""time"":1711}]",[],4,,,,,,,,,,,,,,
harvest,114,403968,0.0-37.0-1.0,"""event"",""trial"",""time""
""fullscreenenter"",""1"",""1861""
""blur"",""14"",""102491""
""focus"",""14"",""106616""
""blur"",""24"",""170414""
""focus"",""24"",""170948""
""blur"",""44"",""206876""
""focus"",""44"",""207464""
""blur"",""60"",""298104""
""focus"",""60"",""298472""
","""event"",""trial"",""time""
""blur"",""14"",""102491""
""blur"",""24"",""170414""
""blur"",""44"",""206876""
""blur"",""60"",""298104""
","""event"",""trial"",""time""
""focus"",""14"",""106616""
""focus"",""24"",""170948""
""focus"",""44"",""207464""
""focus"",""60"",""298472""
","""event"",""trial"",""time""
""fullscreenenter"",""1"",""1861""
","
",,null,run_exp/static/images/task_images/gems/45.jpg,null,,,,,,,25,,,4,,,,,45,0.552282698,0.555555556,,,,,,,
decision,115,404056,0.0-37.0-2.0,"""event"",""trial"",""time""
""fullscreenenter"",""1"",""1861""
""blur"",""14"",""102491""
""focus"",""14"",""106616""
""blur"",""24"",""170414""
""focus"",""24"",""170948""
""blur"",""44"",""206876""
""focus"",""44"",""207464""
""blur"",""60"",""298104""
""focus"",""60"",""298472""
","""event"",""trial"",""time""
""blur"",""14"",""102491""
""blur"",""24"",""170414""
""blur"",""44"",""206876""
""blur"",""60"",""298104""
","""event"",""trial"",""time""
""focus"",""14"",""106616""
""focus"",""24"",""170948""
""focus"",""44"",""207464""
""focus"",""60"",""298472""
","""event"",""trial"",""time""
""fullscreenenter"",""1"",""1861""
","
",,88,run_exp/static/images/task_images/land.jpg,65,,,,,,,25,,,4,,,,,,,,108436,1,1,FALSE,,,
dig,116,406982,0.0-38.0-0.0,"""event"",""trial"",""time""
""fullscreenenter"",""1"",""1861""
""blur"",""14"",""102491""
""focus"",""14"",""106616""
""blur"",""24"",""170414""
""focus"",""24"",""170948""
""blur"",""44"",""206876""
""focus"",""44"",""207464""
""blur"",""60"",""298104""
""focus"",""60"",""298472""
","""event"",""trial"",""time""
""blur"",""14"",""102491""
""blur"",""24"",""170414""
""blur"",""44"",""206876""
""blur"",""60"",""298104""
","""event"",""trial"",""time""
""focus"",""14"",""106616""
""focus"",""24"",""170948""
""focus"",""44"",""207464""
""focus"",""60"",""298472""
","""event"",""trial"",""time""
""fullscreenenter"",""1"",""1861""
","
",,,,,,,,,,,,"[{""stimulus"":""run_exp/static/images/task_images/dig.jpg"",""time"":0},{""stimulus"":""run_exp/static/images/task_images/land.jpg"",""time"":977},{""stimulus"":""run_exp/static/images/task_images/dig.jpg"",""time"":1950}]",[],4,,,,,,,,,,,,,,
harvest,117,407986,0.0-38.0-1.0,"""event"",""trial"",""time""
""fullscreenenter"",""1"",""1861""
""blur"",""14"",""102491""
""focus"",""14"",""106616""
""blur"",""24"",""170414""
""focus"",""24"",""170948""
""blur"",""44"",""206876""
""focus"",""44"",""207464""
""blur"",""60"",""298104""
""focus"",""60"",""298472""
","""event"",""trial"",""time""
""blur"",""14"",""102491""
""blur"",""24"",""170414""
""blur"",""44"",""206876""
""blur"",""60"",""298104""
","""event"",""trial"",""time""
""focus"",""14"",""106616""
""focus"",""24"",""170948""
""focus"",""44"",""207464""
""focus"",""60"",""298472""
","""event"",""trial"",""time""
""fullscreenenter"",""1"",""1861""
","
",,null,run_exp/static/images/task_images/gems/25.jpg,null,,,,,,,12,,,4,,,,,25,0.463657929,0.48,,,,,,,
decision,118,408312,0.0-38.0-2.0,"""event"",""trial"",""time""
""fullscreenenter"",""1"",""1861""
""blur"",""14"",""102491""
""focus"",""14"",""106616""
""blur"",""24"",""170414""
""focus"",""24"",""170948""
""blur"",""44"",""206876""
""focus"",""44"",""207464""
""blur"",""60"",""298104""
""focus"",""60"",""298472""
","""event"",""trial"",""time""
""blur"",""14"",""102491""
""blur"",""24"",""170414""
""blur"",""44"",""206876""
""blur"",""60"",""298104""
","""event"",""trial"",""time""
""focus"",""14"",""106616""
""focus"",""24"",""170948""
""focus"",""44"",""207464""
""focus"",""60"",""298472""
","""event"",""trial"",""time""
""fullscreenenter"",""1"",""1861""
","
",,326,run_exp/static/images/task_images/land.jpg,65,,,,,,,12,,,4,,,,,,,,112692,1,2,FALSE,,,
dig,119,410988,0.0-39.0-0.0,"""event"",""trial"",""time""
""fullscreenenter"",""1"",""1861""
""blur"",""14"",""102491""
""focus"",""14"",""106616""
""blur"",""24"",""170414""
""focus"",""24"",""170948""
""blur"",""44"",""206876""
""focus"",""44"",""207464""
""blur"",""60"",""298104""
""focus"",""60"",""298472""
","""event"",""trial"",""time""
""blur"",""14"",""102491""
""blur"",""24"",""170414""
""blur"",""44"",""206876""
""blur"",""60"",""298104""
","""event"",""trial"",""time""
""focus"",""14"",""106616""
""focus"",""24"",""170948""
""focus"",""44"",""207464""
""focus"",""60"",""298472""
","""event"",""trial"",""time""
""fullscreenenter"",""1"",""1861""
","
",,,,,,,,,,,,"[{""stimulus"":""run_exp/static/images/task_images/dig.jpg"",""time"":0},{""stimulus"":""run_exp/static/images/task_images/land.jpg"",""time"":901},{""stimulus"":""run_exp/static/images/task_images/dig.jpg"",""time"":1797}]",[],4,,,,,,,,,,,,,,
harvest,120,411995,0.0-39.0-1.0,"""event"",""trial"",""time""
""fullscreenenter"",""1"",""1861""
""blur"",""14"",""102491""
""focus"",""14"",""106616""
""blur"",""24"",""170414""
""focus"",""24"",""170948""
""blur"",""44"",""206876""
""focus"",""44"",""207464""
""blur"",""60"",""298104""
""focus"",""60"",""298472""
","""event"",""trial"",""time""
""blur"",""14"",""102491""
""blur"",""24"",""170414""
""blur"",""44"",""206876""
""blur"",""60"",""298104""
","""event"",""trial"",""time""
""focus"",""14"",""106616""
""focus"",""24"",""170948""
""focus"",""44"",""207464""
""focus"",""60"",""298472""
","""event"",""trial"",""time""
""fullscreenenter"",""1"",""1861""
","
",,null,run_exp/static/images/task_images/gems/12.jpg,null,,,,,,,6,,,4,,,,,12,0.520447113,0.5,,,,,,,
decision,121,412000,0.0-39.0-2.0,"""event"",""trial"",""time""
""fullscreenenter"",""1"",""1861""
""blur"",""14"",""102491""
""focus"",""14"",""106616""
""blur"",""24"",""170414""
""focus"",""24"",""170948""
""blur"",""44"",""206876""
""focus"",""44"",""207464""
""blur"",""60"",""298104""
""focus"",""60"",""298472""
","""event"",""trial"",""time""
""blur"",""14"",""102491""
""blur"",""24"",""170414""
""blur"",""44"",""206876""
""blur"",""60"",""298104""
","""event"",""trial"",""time""
""focus"",""14"",""106616""
""focus"",""24"",""170948""
""focus"",""44"",""207464""
""focus"",""60"",""298472""
","""event"",""trial"",""time""
""fullscreenenter"",""1"",""1861""
","
",,4,run_exp/static/images/task_images/land.jpg,65,,,,,,,6,,,4,,,,,,,,116380,1,3,FALSE,,,
dig,122,414998,0.0-40.0-0.0,"""event"",""trial"",""time""
""fullscreenenter"",""1"",""1861""
""blur"",""14"",""102491""
""focus"",""14"",""106616""
""blur"",""24"",""170414""
""focus"",""24"",""170948""
""blur"",""44"",""206876""
""focus"",""44"",""207464""
""blur"",""60"",""298104""
""focus"",""60"",""298472""
","""event"",""trial"",""time""
""blur"",""14"",""102491""
""blur"",""24"",""170414""
""blur"",""44"",""206876""
""blur"",""60"",""298104""
","""event"",""trial"",""time""
""focus"",""14"",""106616""
""focus"",""24"",""170948""
""focus"",""44"",""207464""
""focus"",""60"",""298472""
","""event"",""trial"",""time""
""fullscreenenter"",""1"",""1861""
","
",,,,,,,,,,,,"[{""stimulus"":""run_exp/static/images/task_images/dig.jpg"",""time"":0},{""stimulus"":""run_exp/static/images/task_images/land.jpg"",""time"":1001},{""stimulus"":""run_exp/static/images/task_images/dig.jpg"",""time"":2007}]",[],4,,,,,,,,,,,,,,
harvest,123,416006,0.0-40.0-1.0,"""event"",""trial"",""time""
""fullscreenenter"",""1"",""1861""
""blur"",""14"",""102491""
""focus"",""14"",""106616""
""blur"",""24"",""170414""
""focus"",""24"",""170948""
""blur"",""44"",""206876""
""focus"",""44"",""207464""
""blur"",""60"",""298104""
""focus"",""60"",""298472""
","""event"",""trial"",""time""
""blur"",""14"",""102491""
""blur"",""24"",""170414""
""blur"",""44"",""206876""
""blur"",""60"",""298104""
","""event"",""trial"",""time""
""focus"",""14"",""106616""
""focus"",""24"",""170948""
""focus"",""44"",""207464""
""focus"",""60"",""298472""
","""event"",""trial"",""time""
""fullscreenenter"",""1"",""1861""
","
",,null,run_exp/static/images/task_images/gems/6.jpg,null,,,,,,,3,,,4,,,,,6,0.485583071,0.5,,,,,,,
decision,124,416368,0.0-40.0-2.0,"""event"",""trial"",""time""
""fullscreenenter"",""1"",""1861""
""blur"",""14"",""102491""
""focus"",""14"",""106616""
""blur"",""24"",""170414""
""focus"",""24"",""170948""
""blur"",""44"",""206876""
""focus"",""44"",""207464""
""blur"",""60"",""298104""
""focus"",""60"",""298472""
","""event"",""trial"",""time""
""blur"",""14"",""102491""
""blur"",""24"",""170414""
""blur"",""44"",""206876""
""blur"",""60"",""298104""
","""event"",""trial"",""time""
""focus"",""14"",""106616""
""focus"",""24"",""170948""
""focus"",""44"",""207464""
""focus"",""60"",""298472""
","""event"",""trial"",""time""
""fullscreenenter"",""1"",""1861""
","
",,362,run_exp/static/images/task_images/land.jpg,65,,,,,,,3,,,4,,,,,,,,120748,1,4,FALSE,,,
dig,125,419022,0.0-41.0-0.0,"""event"",""trial"",""time""
""fullscreenenter"",""1"",""1861""
""blur"",""14"",""102491""
""focus"",""14"",""106616""
""blur"",""24"",""170414""
""focus"",""24"",""170948""
""blur"",""44"",""206876""
""focus"",""44"",""207464""
""blur"",""60"",""298104""
""focus"",""60"",""298472""
","""event"",""trial"",""time""
""blur"",""14"",""102491""
""blur"",""24"",""170414""
""blur"",""44"",""206876""
""blur"",""60"",""298104""
","""event"",""trial"",""time""
""focus"",""14"",""106616""
""focus"",""24"",""170948""
""focus"",""44"",""207464""
""focus"",""60"",""298472""
","""event"",""trial"",""time""
""fullscreenenter"",""1"",""1861""
","
",,,,,,,,,,,,"[{""stimulus"":""run_exp/static/images/task_images/dig.jpg"",""time"":1},{""stimulus"":""run_exp/static/images/task_images/land.jpg"",""time"":883},{""stimulus"":""run_exp/static/images/task_images/dig.jpg"",""time"":1760}]",[],4,,,,,,,,,,,,,,
harvest,126,420027,0.0-41.0-1.0,"""event"",""trial"",""time""
""fullscreenenter"",""1"",""1861""
""blur"",""14"",""102491""
""focus"",""14"",""106616""
""blur"",""24"",""170414""
""focus"",""24"",""170948""
""blur"",""44"",""206876""
""focus"",""44"",""207464""
""blur"",""60"",""298104""
""focus"",""60"",""298472""
","""event"",""trial"",""time""
""blur"",""14"",""102491""
""blur"",""24"",""170414""
""blur"",""44"",""206876""
""blur"",""60"",""298104""
","""event"",""trial"",""time""
""focus"",""14"",""106616""
""focus"",""24"",""170948""
""focus"",""44"",""207464""
""focus"",""60"",""298472""
","""event"",""trial"",""time""
""fullscreenenter"",""1"",""1861""
","
",,null,run_exp/static/images/task_images/gems/3.jpg,null,,,,,,,2,,,4,,,,,3,0.513253423,0.666666667,,,,,,,
decision,127,420224,0.0-41.0-2.0,"""event"",""trial"",""time""
""fullscreenenter"",""1"",""1861""
""blur"",""14"",""102491""
""focus"",""14"",""106616""
""blur"",""24"",""170414""
""focus"",""24"",""170948""
""blur"",""44"",""206876""
""focus"",""44"",""207464""
""blur"",""60"",""298104""
""focus"",""60"",""298472""
","""event"",""trial"",""time""
""blur"",""14"",""102491""
""blur"",""24"",""170414""
""blur"",""44"",""206876""
