trial_type,trial_index,time_elapsed,internal_node_id,interactions,blur_events,focus_events,fullscreenenter_events,fullscreenexit_events,success,rt,stimulus,key_press,prompt,subject_id,participant_id,age,gender,button_pressed,next_reward,animation_sequence,responses,planet,curr_prac_trial,n_prac_rounds,alien,aliens,reward_received,decay_rate_actual,decay_rate_exp,time_in_block,block_num,prt,last_trial_on_planet,button_html,bonus,num_failures
pavlovia,0,3,0.0-0.0,"""event"",""trial"",""time""
""fullscreenenter"",""1"",""6696""
","
","
","""event"",""trial"",""time""
""fullscreenenter"",""1"",""6696""
","
",,,,,,,,,,,,,,,,,,,,,,,,,,,,
fullscreen,1,7641,0.0-1.0,"""event"",""trial"",""time""
""fullscreenenter"",""1"",""6696""
","
","
","""event"",""trial"",""time""
""fullscreenenter"",""1"",""6696""
","
",TRUE,,,,,,,,,,,,,,,,,,,,,,,,,,,
instruc_welcome,2,17451,0.0-2.0,"""event"",""trial"",""time""
""fullscreenenter"",""1"",""6696""
","
","
","""event"",""trial"",""time""
""fullscreenenter"",""1"",""6696""
","
",,null,run_exp/static/audio/clip_1_welcome.m4a,null,"<p>Howdy! In this experiment, you’ll be an explorer traveling through space to collect space treasure.</p><p>Your mission is to collect as much treasure as possible.</p><br><br><p><img src='run_exp/static/images/task_images/opening_img-01.jpg' height='300' width='auto'></p>",9870,4162,20.67,Male,,,,,,,,,,,,,,,,,,,
audio-keyboard-response,3,34032,0.0-3.0,"""event"",""trial"",""time""
""fullscreenenter"",""1"",""6696""
","
","
","""event"",""trial"",""time""
""fullscreenenter"",""1"",""6696""
","
",,null,run_exp/static/audio/clip_2_move.m4a,null,,,,,,,,,,,,,,,,,,,,,,,,
welcome_dec,4,38678,0.0-4.0,"""event"",""trial"",""time""
""fullscreenenter"",""1"",""6696""
","
","
","""event"",""trial"",""time""
""fullscreenenter"",""1"",""6696""
","
",,4638.3,"<p>Howdy! In this experiment, you’ll be an explorer traveling through space to collect space treasure.</p><p>Your mission is to collect as much treasure as possible.</p><br><br><p><img src='run_exp/static/images/task_images/opening_img-01.jpg' height='300' width='auto'></p>",,,,,,,1,,,,,,,,,,,,,,,,,,
html-keyboard-response,5,41458,0.0-5.0,"""event"",""trial"",""time""
""fullscreenenter"",""1"",""6696""
","
","
","""event"",""trial"",""time""
""fullscreenenter"",""1"",""6696""
","
",,2775.6,"<p>Howdy! In this experiment, you’ll be an explorer traveling through space to collect space treasure.</p><p>Your mission is to collect as much treasure as possible.</p><br><br><p><img src='run_exp/static/images/task_images/opening_img-01.jpg' height='300' width='auto'></p><button class=""jspsych-html-btn-unchosen""><img src=""run_exp/static/images/task_images/planet-01.jpg"" height=""50""></button><button class=""jspsych-html-btn-chosen""><img src=""run_exp/static/images/task_images/planet-02.jpg"" height=""50""></button><p><b>[press the space bar to lock in your answer]<b><br></p>",32,,,,,,,,,,,,,,,,,,,,,,,,
instruc_goal,6,51531,0.0-6.0-0.0,"""event"",""trial"",""time""
""fullscreenenter"",""1"",""6696""
","
","
","""event"",""trial"",""time""
""fullscreenenter"",""1"",""6696""
","
",,null,run_exp/static/audio/clip_3_goal.m4a,null,"<p> As a space explorer, you’ll visit different planets to dig for space treasure, these pink gems.</p> <p> The more treasure you dig up, the more bonus money you’ll win! </p><br><br><p><img src='run_exp/static/images/task_images/pink_gem.jpg' height='300' width='auto'></p>",,,,,,,,,,,,,,,,,,,,,,,
instruc_goal,7,53974,0.0-6.0-1.0,"""event"",""trial"",""time""
""fullscreenenter"",""1"",""6696""
","
","
","""event"",""trial"",""time""
""fullscreenenter"",""1"",""6696""
","
",,2438.3,"<p> As a space explorer, you’ll visit different planets to dig for space treasure, these pink gems.</p> <p> The more treasure you dig up, the more bonus money you’ll win! </p><br><br><p><img src='run_exp/static/images/task_images/pink_gem.jpg' height='300' width='auto'></p>",,,,,,,1,,,,,,,,,,,,,,,,,,
html-keyboard-response,8,54248,0.0-6.0-2.0,"""event"",""trial"",""time""
""fullscreenenter"",""1"",""6696""
","
","
","""event"",""trial"",""time""
""fullscreenenter"",""1"",""6696""
","
",,270.3,"<p> As a space explorer, you’ll visit different planets to dig for space treasure, these pink gems.</p> <p> The more treasure you dig up, the more bonus money you’ll win! </p><br><br><p><img src='run_exp/static/images/task_images/pink_gem.jpg' height='300' width='auto'></p><button class=""jspsych-html-btn-unchosen""><img src=""run_exp/static/images/task_images/planet-01.jpg"" height=""50""></button><button class=""jspsych-html-btn-chosen""><img src=""run_exp/static/images/task_images/planet-02.jpg"" height=""50""></button><p><b>[press the space bar to lock in your answer]<b><br></p>",32,,,,,,,,,,,,,,,,,,,,,,,,
instruc_dig,9,70271,0.0-7.0-0.0,"""event"",""trial"",""time""
""fullscreenenter"",""1"",""6696""
","
","
","""event"",""trial"",""time""
""fullscreenenter"",""1"",""6696""
","
",,null,run_exp/static/audio/clip_4_dig.m4a,null,,,,,,,100,,,,,,,,,,,,,,,,,
instruc_dig_try,10,70351,0.0-7.0-1.0,"""event"",""trial"",""time""
""fullscreenenter"",""1"",""6696""
","
","
","""event"",""trial"",""time""
""fullscreenenter"",""1"",""6696""
","
",,74.69999999,"<p> When you’ve arrived at a new planet, you will dig once. </p> <p>Then, you get to decide if you want to stay on the planet and dig again or travel to a new planet and dig there.</p> <p> To stay and dig, press the letter <strong>‘A’</strong> on your keyboard. Try pressing it now! </p><p><img src='run_exp/static/images/task_images/land.jpg'  height='700' width='auto'></p>",65,"<p> When you’ve arrived at a new planet, you will dig once. </p> <p>Then, you get to decide if you want to stay on the planet and dig again or travel to a new planet and dig there.</p> <p> To stay and dig, press the letter <strong>‘A’</strong> on your keyboard. Try pressing it now! </p><p><img src='run_exp/static/images/task_images/land.jpg'  height='700' width='auto'></p>",,,,,,100,,,,,,,,,,,,,,,,,
dig_prac,11,72373,0.0-7.0-2.0,"""event"",""trial"",""time""
""fullscreenenter"",""1"",""6696""
","
","
","""event"",""trial"",""time""
""fullscreenenter"",""1"",""6696""
","
",,,,,,,,,,,,"[{""stimulus"":""run_exp/static/images/task_images/dig.jpg"",""time"":0.7000000476837158},{""stimulus"":""run_exp/static/images/task_images/land.jpg"",""time"":670.4000000357628},{""stimulus"":""run_exp/static/images/task_images/dig.jpg"",""time"":1336.800000011921}]",[],,,,,,,,,,,,,,,
instruc_travel,12,108611,0.0-7.0-3.0,"""event"",""trial"",""time""
""fullscreenenter"",""1"",""6696""
","
","
","""event"",""trial"",""time""
""fullscreenenter"",""1"",""6696""
","
",,null,run_exp/static/audio/clip_5_travel.m4a,null,"<p>Every time you dig up gems, there are less gems on the planet, so the more you dig on a planet the fewer gems you’ll get with each dig.</p><p>When gems are running low, you may want to travel to a new planet. </p> <p>  Planets are very far apart in this galaxy, so it will take some time to travel between them. </p> <br><p>There are lots and lots of planets for you to visit, so you won’t be able to return to any planets you’ve seen before. </p><br><p>To leave this planet and travel to a new one, press the letter <strong>‘L’</strong> on your keyboard. Try pressing it now! </p><p><img src='run_exp/static/images/task_images/rocket-01.jpg'  height='600' width='auto'></p>",,,,,,,,,,,,,,,,,,,,,,,
instruc_travel_try,13,112428,0.0-7.0-4.0,"""event"",""trial"",""time""
""fullscreenenter"",""1"",""6696""
","
","
","""event"",""trial"",""time""
""fullscreenenter"",""1"",""6696""
","
",,3812,"<p>Every time you dig up gems, there are less gems on the planet, so the more you dig on a planet the fewer gems you’ll get with each dig.</p><p>When gems are running low, you may want to travel to a new planet. </p> <p>  Planets are very far apart in this galaxy, so it will take some time to travel between them. </p> <br><p>There are lots and lots of planets for you to visit, so you won’t be able to return to any planets you’ve seen before. </p><br><p>To leave this planet and travel to a new one, press the letter <strong>‘L’</strong> on your keyboard. Try pressing it now! </p><p><img src='run_exp/static/images/task_images/rocket-01.jpg'  height='600' width='auto'></p>",76,"<p>Every time you dig up gems, there are less gems on the planet, so the more you dig on a planet the fewer gems you’ll get with each dig.</p><p>When gems are running low, you may want to travel to a new planet. </p> <p>  Planets are very far apart in this galaxy, so it will take some time to travel between them. </p> <br><p>There are lots and lots of planets for you to visit, so you won’t be able to return to any planets you’ve seen before. </p><br><p>To leave this planet and travel to a new one, press the letter <strong>‘L’</strong> on your keyboard. Try pressing it now! </p><p><img src='run_exp/static/images/task_images/rocket-01.jpg'  height='600' width='auto'></p>",,,,,,,,,,,,,,,,,,,,,,,
travel_prac,14,122432,0.0-7.0-5.0,"""event"",""trial"",""time""
""fullscreenenter"",""1"",""6696""
","
","
","""event"",""trial"",""time""
""fullscreenenter"",""1"",""6696""
","
",,,,,,,,,,,,"[{""stimulus"":""run_exp/static/images/task_images/rocket-01.jpg"",""time"":0.5999999642372131},{""stimulus"":""run_exp/static/images/task_images/rocket-02.jpg"",""time"":1113.8999999761581},{""stimulus"":""run_exp/static/images/task_images/rocket-03.jpg"",""time"":2224.399999976158},{""stimulus"":""run_exp/static/images/task_images/rocket-04.jpg"",""time"":3336.800000011921},{""stimulus"":""run_exp/static/images/task_images/rocket-05.jpg"",""time"":4447.899999976158},{""stimulus"":""run_exp/static/images/task_images/rocket-06.jpg"",""time"":5559.199999988079},{""stimulus"":""run_exp/static/images/task_images/rocket-07.jpg"",""time"":6669},{""stimulus"":""run_exp/static/images/task_images/rocket-08.jpg"",""time"":7783.699999988079},{""stimulus"":""run_exp/static/images/task_images/rocket-09.jpg"",""time"":8891}]",[],0,,,,,,,,,,,,,,
instruc_alien_greet,15,149611,0.0-7.0-6.0,"""event"",""trial"",""time""
""fullscreenenter"",""1"",""6696""
","
","
","""event"",""trial"",""time""
""fullscreenenter"",""1"",""6696""
","
",,null,run_exp/static/audio/clip_6_alien.m4a,null,"<p>When you arrive at a new planet, the alien who owns the treasure mine on that planet will greet you!</p><p>The better an alien takes care of their mine the easier it is to dig for gems. Some aliens take better care of their mine than others. So, you won’t get exactly the same amount of gems on each planet.</p><p>What the alien looks like does not tell you anything about how many gems there are on the planet.</p><br><p><img src=""run_exp/static/images/task_images/aliens/instructions_aliens/planet/alien_planet-1.jpg""  height=""600"" width=""auto""></p>",,,,,,,,,,,,,,,,,,,,,,,
instruc_alien_greet,16,152633,0.0-7.0-7.0,"""event"",""trial"",""time""
""fullscreenenter"",""1"",""6696""
","
","
","""event"",""trial"",""time""
""fullscreenenter"",""1"",""6696""
","
",,3015.3,"<p>When you arrive at a new planet, the alien who owns the treasure mine on that planet will greet you!</p><p>The better an alien takes care of their mine the easier it is to dig for gems. Some aliens take better care of their mine than others. So, you won’t get exactly the same amount of gems on each planet.</p><p>What the alien looks like does not tell you anything about how many gems there are on the planet.</p><br><p><img src=""run_exp/static/images/task_images/aliens/instructions_aliens/planet/alien_planet-1.jpg""  height=""600"" width=""auto""></p>",,,,,,,1,,,,,,,,,,,,,,,,,,
html-keyboard-response,17,154314,0.0-7.0-8.0,"""event"",""trial"",""time""
""fullscreenenter"",""1"",""6696""
","
","
","""event"",""trial"",""time""
""fullscreenenter"",""1"",""6696""
","
",,1677.8,"<p>When you arrive at a new planet, the alien who owns the treasure mine on that planet will greet you!</p><p>The better an alien takes care of their mine the easier it is to dig for gems. Some aliens take better care of their mine than others. So, you won’t get exactly the same amount of gems on each planet.</p><p>What the alien looks like does not tell you anything about how many gems there are on the planet.</p><br><p><img src=""run_exp/static/images/task_images/aliens/instructions_aliens/planet/alien_planet-1.jpg""  height=""600"" width=""auto""></p><button class=""jspsych-html-btn-unchosen""><img src=""run_exp/static/images/task_images/planet-01.jpg"" height=""50""></button><button class=""jspsych-html-btn-chosen""><img src=""run_exp/static/images/task_images/planet-02.jpg"" height=""50""></button><p><b>[press the space bar to lock in your answer]<b><br></p>",32,,,,,,,,,,,,,,,,,,,,,,,,
time_out,18,165391,0.0-8.0-0.0,"""event"",""trial"",""time""
""fullscreenenter"",""1"",""6696""
","
","
","""event"",""trial"",""time""
""fullscreenenter"",""1"",""6696""
","
",,null,run_exp/static/audio/clip_7_timeout.m4a,null,"<p>If you don't make your choice fast enough, you’ll have to wait a few seconds before you can make another one.</p><p>You can’t dig for more gems or travel to new planets. You just have to sit and wait.</p><br><p><img src='run_exp/static/images/task_images/time_out.jpg'  height='600' width='auto'></p>",,,,,,,,,,,,,,,,,,,,,,,
time_out,19,176216,0.0-8.0-1.0,"""event"",""trial"",""time""
""fullscreenenter"",""1"",""6696""
","
","
","""event"",""trial"",""time""
""fullscreenenter"",""1"",""6696""
","
",,10820.1,"<p>If you don't make your choice fast enough, you’ll have to wait a few seconds before you can make another one.</p><p>You can’t dig for more gems or travel to new planets. You just have to sit and wait.</p><br><p><img src='run_exp/static/images/task_images/time_out.jpg'  height='600' width='auto'></p>",,,,,,,1,,,,,,,,,,,,,,,,,,
html-keyboard-response,20,176463,0.0-8.0-2.0,"""event"",""trial"",""time""
""fullscreenenter"",""1"",""6696""
","
","
","""event"",""trial"",""time""
""fullscreenenter"",""1"",""6696""
","
",,242.3,"<p>If you don't make your choice fast enough, you’ll have to wait a few seconds before you can make another one.</p><p>You can’t dig for more gems or travel to new planets. You just have to sit and wait.</p><br><p><img src='run_exp/static/images/task_images/time_out.jpg'  height='600' width='auto'></p><button class=""jspsych-html-btn-unchosen""><img src=""run_exp/static/images/task_images/planet-01.jpg"" height=""50""></button><button class=""jspsych-html-btn-chosen""><img src=""run_exp/static/images/task_images/planet-02.jpg"" height=""50""></button><p><b>[press the space bar to lock in your answer]<b><br></p>",32,,,,,,,,,,,,,,,,,,,,,,,,
instruc_break,21,192100,0.0-9.0-0.0,"""event"",""trial"",""time""
""fullscreenenter"",""1"",""6696""
","
","
","""event"",""trial"",""time""
""fullscreenenter"",""1"",""6696""
","
",,null,run_exp/static/audio/clip_8_break.m4a,null,"<p> After digging and traveling for a while, you’ll be able to take a break at home base. </p><p>The game will last 20 minutes no matter what.</p><p>You will visit home base every 5 minutes, so, you will visit home base three times during the game.</p><br><p><img src='run_exp/static/images/task_images/home_base.jpg' height='600' width='auto'></p>",,,,,,,,,,,,,,,,,,,,,,,
instruc_break,22,197402,0.0-9.0-1.0,"""event"",""trial"",""time""
""fullscreenenter"",""1"",""6696""
","
","
","""event"",""trial"",""time""
""fullscreenenter"",""1"",""6696""
","
",,5296.8,"<p> After digging and traveling for a while, you’ll be able to take a break at home base. </p><p>The game will last 20 minutes no matter what.</p><p>You will visit home base every 5 minutes, so, you will visit home base three times during the game.</p><br><p><img src='run_exp/static/images/task_images/home_base.jpg' height='600' width='auto'></p>",,,,,,,1,,,,,,,,,,,,,,,,,,
html-keyboard-response,23,199349,0.0-9.0-2.0,"""event"",""trial"",""time""
""fullscreenenter"",""1"",""6696""
","
","
","""event"",""trial"",""time""
""fullscreenenter"",""1"",""6696""
","
",,1943.1,"<p> After digging and traveling for a while, you’ll be able to take a break at home base. </p><p>The game will last 20 minutes no matter what.</p><p>You will visit home base every 5 minutes, so, you will visit home base three times during the game.</p><br><p><img src='run_exp/static/images/task_images/home_base.jpg' height='600' width='auto'></p><button class=""jspsych-html-btn-unchosen""><img src=""run_exp/static/images/task_images/planet-01.jpg"" height=""50""></button><button class=""jspsych-html-btn-chosen""><img src=""run_exp/static/images/task_images/planet-02.jpg"" height=""50""></button><p><b>[press the space bar to lock in your answer]<b><br></p>",32,,,,,,,,,,,,,,,,,,,,,,,,
instruc_prac_game,24,209500,0.0-10.0-0.0,"""event"",""trial"",""time""
""fullscreenenter"",""1"",""6696""
","
","
","""event"",""trial"",""time""
""fullscreenenter"",""1"",""6696""
","
",,null,run_exp/static/audio/clip_9_practice.m4a,null,"<p> Are you ready to play a practice game? </p> <p>In this practice game, you'll be digging up barrels of gems. But, in the real game, you'll be digging up the gems themselves. </p>",,,,,,,,,,,,,,,,,,,,,,,
html-button-response,25,211364,0.0-10.0-1.0,"""event"",""trial"",""time""
""fullscreenenter"",""1"",""6696""
","
","
","""event"",""trial"",""time""
""fullscreenenter"",""1"",""6696""
","
",,1860,"<p> Are you ready to play a practice game? </p> <p>In this practice game, you'll be digging up barrels of gems. But, in the real game, you'll be digging up the gems themselves. </p>",,,,,,,0,,,,,,,,,,,,,,,,,,
alien_welcome_prac,26,216374,0.0-11.0-0.0,"""event"",""trial"",""time""
""fullscreenenter"",""1"",""6696""
","
","
","""event"",""trial"",""time""
""fullscreenenter"",""1"",""6696""
","
",,null,run_exp/static/images/task_images/aliens/practice_aliens/planet/alien_planet-5.jpg,null,,,,,,,,,,,,,,,,,,,,,,,,
land_prac,27,216879,0.0-11.0-1.0,"""event"",""trial"",""time""
""fullscreenenter"",""1"",""6696""
","
","
","""event"",""trial"",""time""
""fullscreenenter"",""1"",""6696""
","
",,null,run_exp/static/images/task_images/land.jpg,null,,,,,,,94,,,0,,,,,,,,,,,,,,
dig_prac,28,218886,0.0-11.0-2.0,"""event"",""trial"",""time""
""fullscreenenter"",""1"",""6696""
","
","
","""event"",""trial"",""time""
""fullscreenenter"",""1"",""6696""
","
",,,,,,,,,,,,"[{""stimulus"":""run_exp/static/images/task_images/dig.jpg"",""time"":0.5999999642372131},{""stimulus"":""run_exp/static/images/task_images/land.jpg"",""time"":672.0999999642372},{""stimulus"":""run_exp/static/images/task_images/dig.jpg"",""time"":1336.3999999761581}]",[],,,,,,,,,,,,,,,
harvest_prac,29,219892,0.0-11.0-3.0,"""event"",""trial"",""time""
""fullscreenenter"",""1"",""6696""
","
","
","""event"",""trial"",""time""
""fullscreenenter"",""1"",""6696""
","
",,null,run_exp/static/images/task_images/barrel_text.jpg,null,,,,,,,,,,,,,,,,,,,,,,,,
decision_prac,30,222896,0.0-11.0-4.0,"""event"",""trial"",""time""
""fullscreenenter"",""1"",""6696""
","
","
","""event"",""trial"",""time""
""fullscreenenter"",""1"",""6696""
","
",,null,run_exp/static/images/task_images/land.jpg,null,,,,,,,,,,,1,,,,,,,,,,,,,
time_out,31,224906,0.0-12.0-0.0,"""event"",""trial"",""time""
""fullscreenenter"",""1"",""6696""
","
","
","""event"",""trial"",""time""
""fullscreenenter"",""1"",""6696""
","
",,null,run_exp/static/images/task_images/time_out.jpg,null,,,,,,,,,,,,,,,,,,,,,,,,
decision_prac,32,225664,0.0-12.0-1.0,"""event"",""trial"",""time""
""fullscreenenter"",""1"",""6696""
","
","
","""event"",""trial"",""time""
""fullscreenenter"",""1"",""6696""
","
",,754.3,run_exp/static/images/task_images/land.jpg,65,,,,,,,,,,,2,,,,,,,,,,,,,
dig_prac,33,227673,0.0-13.0-0.0,"""event"",""trial"",""time""
""fullscreenenter"",""1"",""6696""
","
","
","""event"",""trial"",""time""
""fullscreenenter"",""1"",""6696""
","
",,,,,,,,,,,,"[{""stimulus"":""run_exp/static/images/task_images/dig.jpg"",""time"":0.5},{""stimulus"":""run_exp/static/images/task_images/land.jpg"",""time"":669.8000000119209},{""stimulus"":""run_exp/static/images/task_images/dig.jpg"",""time"":1337.199999988079}]",[],,,,,,,,,,,,,,,
harvest_prac,34,228677,0.0-13.0-1.0,"""event"",""trial"",""time""
""fullscreenenter"",""1"",""6696""
","
","
","""event"",""trial"",""time""
""fullscreenenter"",""1"",""6696""
","
",,null,run_exp/static/images/task_images/barrel_text.jpg,null,,,,,,,,,,,,,,,,,,,,,,,,
decision_prac,35,229687,0.0-13.0-2.0,"""event"",""trial"",""time""
""fullscreenenter"",""1"",""6696""
","
","
","""event"",""trial"",""time""
""fullscreenenter"",""1"",""6696""
","
",,1007.8,run_exp/static/images/task_images/land.jpg,65,,,,,,,,,,,3,,,,,,,,,,,,,
dig_prac,36,231698,0.0-14.0-0.0,"""event"",""trial"",""time""
""fullscreenenter"",""1"",""6696""
","
","
","""event"",""trial"",""time""
""fullscreenenter"",""1"",""6696""
","
",,,,,,,,,,,,"[{""stimulus"":""run_exp/static/images/task_images/dig.jpg"",""time"":0.6000000238418579},{""stimulus"":""run_exp/static/images/task_images/land.jpg"",""time"":670.4000000357628},{""stimulus"":""run_exp/static/images/task_images/dig.jpg"",""time"":1336.800000011921}]",[],,,,,,,,,,,,,,,
harvest_prac,37,232701,0.0-14.0-1.0,"""event"",""trial"",""time""
""fullscreenenter"",""1"",""6696""
","
","
","""event"",""trial"",""time""
""fullscreenenter"",""1"",""6696""
","
",,null,run_exp/static/images/task_images/barrel_text.jpg,null,,,,,,,,,,,,,,,,,,,,,,,,
decision_prac,38,233089,0.0-14.0-2.0,"""event"",""trial"",""time""
""fullscreenenter"",""1"",""6696""
","
","
","""event"",""trial"",""time""
""fullscreenenter"",""1"",""6696""
","
",,385.1,run_exp/static/images/task_images/land.jpg,76,,,,,,,,,,,4,,,,,,,,,,,,,
travel,39,242710,0.0-15.0-0.0,"""event"",""trial"",""time""
""fullscreenenter"",""1"",""6696""
","
","
","""event"",""trial"",""time""
""fullscreenenter"",""1"",""6696""
","
",,,,,,,,,,,,"[{""stimulus"":""run_exp/static/images/task_images/rocket-01.jpg"",""time"":0.6000000238418579},{""stimulus"":""run_exp/static/images/task_images/rocket-02.jpg"",""time"":1072.2000000476837},{""stimulus"":""run_exp/static/images/task_images/rocket-03.jpg"",""time"":2138.5},{""stimulus"":""run_exp/static/images/task_images/rocket-04.jpg"",""time"":3207.7000000476837},{""stimulus"":""run_exp/static/images/task_images/rocket-05.jpg"",""time"":4274.900000035763},{""stimulus"":""run_exp/static/images/task_images/rocket-06.jpg"",""time"":5342.200000047684},{""stimulus"":""run_exp/static/images/task_images/rocket-07.jpg"",""time"":6410.800000011921},{""stimulus"":""run_exp/static/images/task_images/rocket-08.jpg"",""time"":7480.100000023842},{""stimulus"":""run_exp/static/images/task_images/rocket-09.jpg"",""time"":8547.100000023842}]",[],0,,,,,,,,,,,,,,
alien_welcome_prac,40,247731,0.0-15.0-1.0,"""event"",""trial"",""time""
""fullscreenenter"",""1"",""6696""
","
","
","""event"",""trial"",""time""
""fullscreenenter"",""1"",""6696""
","
",,null,run_exp/static/images/task_images/aliens/practice_aliens/planet/alien_planet-4.jpg,null,,,,,,,,,,,,,,,,,,,,,,,,
land_prac,41,248236,0.0-15.0-2.0,"""event"",""trial"",""time""
""fullscreenenter"",""1"",""6696""
","
","
","""event"",""trial"",""time""
""fullscreenenter"",""1"",""6696""
","
",,null,run_exp/static/images/task_images/land.jpg,null,,,,,,,104,,,0,,,,,,,,,,,,,,
dig_prac,42,250243,0.0-15.0-3.0,"""event"",""trial"",""time""
""fullscreenenter"",""1"",""6696""
","
","
","""event"",""trial"",""time""
""fullscreenenter"",""1"",""6696""
","
",,,,,,,,,,,,"[{""stimulus"":""run_exp/static/images/task_images/dig.jpg"",""time"":0.19999998807907104},{""stimulus"":""run_exp/static/images/task_images/land.jpg"",""time"":670.8999999761581},{""stimulus"":""run_exp/static/images/task_images/dig.jpg"",""time"":1336.199999988079}]",[],,,,,,,,,,,,,,,
harvest_prac,43,251247,0.0-15.0-4.0,"""event"",""trial"",""time""
""fullscreenenter"",""1"",""6696""
","
","
","""event"",""trial"",""time""
""fullscreenenter"",""1"",""6696""
","
",,null,run_exp/static/images/task_images/barrel_text.jpg,null,,,,,,,,,,,,,,,,,,,,,,,,
decision_prac,44,251258,0.0-15.0-5.0,"""event"",""trial"",""time""
""fullscreenenter"",""1"",""6696""
","
","
","""event"",""trial"",""time""
""fullscreenenter"",""1"",""6696""
","
",,9.399999976,run_exp/static/images/task_images/land.jpg,65,,,,,,,,,,,,1,,,,,,,,,,,,
quiz_instruc,45,256299,0.0-16.0-0.0,"""event"",""trial"",""time""
""fullscreenenter"",""1"",""6696""
","
","
","""event"",""trial"",""time""
""fullscreenenter"",""1"",""6696""
","
",,5036.9,run_exp/static/audio/clip_10_quiz.m4a,,,,,,,0,,,,,,,,,,,,,,,,,,
instruc_repeat,46,299070,0.0-16.0-1.0,"""event"",""trial"",""time""
""fullscreenenter"",""1"",""6696""
","
","
","""event"",""trial"",""time""
""fullscreenenter"",""1"",""6696""
","
",,null,"<p> Are you ready to play a practice game? </p> <p>In this practice game, you'll be digging up barrels of gems. But, in the real game, you'll be digging up the gems themselves. </p>",null,"<p>In this game, your goal is to collect as many gems as you can. That’s how you will win bonus money. </p> <p>The entire game will last 20 minutes no matter how many gems you collect or how many planets you visit. </p><p>To stay on a planet and dig again, press the letter A on your keyboard. To leave for a new planet, press the letter L.</p><p>The more you dig on a planet, the fewer gems you’ll get with each dig which is why you might consider leaving for a new planet. </p><p>When you arrive at a new planet, you’ll be greeted by an alien. What the alien looks like does not tell you anything about how much treasure is on the planet. </p>",,,,,,,,,,,,,,,,,,,,,,,
instruc_repeat_continue,47,299900,0.0-16.0-2.0,"""event"",""trial"",""time""
""fullscreenenter"",""1"",""6696""
","
","
","""event"",""trial"",""time""
""fullscreenenter"",""1"",""6696""
","
",,825.7,"<p> Are you ready to play a practice game? </p> <p>In this practice game, you'll be digging up barrels of gems. But, in the real game, you'll be digging up the gems themselves. </p>",,,,,,,0,,,,,,,,,,,,,,,,,,
quiz_q_1_ask,48,303918,0.0-16.0-3.0,"""event"",""trial"",""time""
""fullscreenenter"",""1"",""6696""
","
","
","""event"",""trial"",""time""
""fullscreenenter"",""1"",""6696""
","
",,4014.3,run_exp/static/audio/clip_11_q1_ask.m4a,,,,,,,2,,,,,,,,,,,,,,,,,,
quiz_q_1_fb_correct,49,307790,0.0-17.0-0.0,"""event"",""trial"",""time""
""fullscreenenter"",""1"",""6696""
","
","
","""event"",""trial"",""time""
""fullscreenenter"",""1"",""6696""
","
",,null,run_exp/static/audio/clip_12_q1_correct.m4a,null,<p>That’s correct. You win extra money by collecting more gems.</p>,,,,,,,,,,,,,,,,,,,,,,,
quiz_q_2_ask,50,311950,0.0-17.0-1.0,"""event"",""trial"",""time""
""fullscreenenter"",""1"",""6696""
","
","
","""event"",""trial"",""time""
""fullscreenenter"",""1"",""6696""
","
",,4156.1,run_exp/static/audio/clip_14_q2_ask.m4a,,,,,,,1,,,,,,,,,,,,,,,,,,
quiz_q_2_fb_correct,51,315970,0.0-18.0-0.0,"""event"",""trial"",""time""
""fullscreenenter"",""1"",""6696""
","
","
","""event"",""trial"",""time""
""fullscreenenter"",""1"",""6696""
","
",,null,run_exp/static/audio/clip_15_q2_correct.m4a,null,<p>That’s correct. The experiment is 20 minutes no matter what.</p>,,,,,,,,,,,,,,,,,,,,,,,
quiz_q_3_ask,52,319504,0.0-18.0-1.0,"""event"",""trial"",""time""
""fullscreenenter"",""1"",""6696""
","
","
","""event"",""trial"",""time""
""fullscreenenter"",""1"",""6696""
","
",,3530.6,run_exp/static/audio/clip_17_q3_ask.m4a,,,,,,,1,,,,,,,,,,,,,,,,,,
quiz_q_3_fb_correct,53,323510,0.0-19.0-0.0,"""event"",""trial"",""time""
""fullscreenenter"",""1"",""6696""
","
","
","""event"",""trial"",""time""
""fullscreenenter"",""1"",""6696""
","
",,null,run_exp/static/audio/clip_18_q3_correct.m4a,null,<p> That’s correct. You press the letter L to travel to a new planet.</p>,,,,,,,,,,,,,,,,,,,,,,,
quiz_q_4_ask,54,327480,0.0-19.0-1.0,"""event"",""trial"",""time""
""fullscreenenter"",""1"",""6696""
","
","
","""event"",""trial"",""time""
""fullscreenenter"",""1"",""6696""
","
",,3966.8,run_exp/static/audio/clip_20_q4_ask.m4a,,,,,,,0,,,,,,,,,,,,,,,,,,
quiz_q_4_fb_correct,55,332810,0.0-20.0-0.0,"""event"",""trial"",""time""
""fullscreenenter"",""1"",""6696""
","
","
","""event"",""trial"",""time""
""fullscreenenter"",""1"",""6696""
","
",,null,run_exp/static/audio/clip_21_q4_correct.m4a,null,<p> That’s correct. The more you dig on a planet the fewer gems you’ll get with each dig. </p>,,,,,,,,,,,,,,,,,,,,,,,
quiz_q_5_ask,56,335113,0.0-20.0-1.0,"""event"",""trial"",""time""
""fullscreenenter"",""1"",""6696""
","
","
","""event"",""trial"",""time""
""fullscreenenter"",""1"",""6696""
","
",,2298.6,run_exp/static/audio/clip_23_q5_ask.m4a,,,,,,,1,,,,,,,,,,,,,,,,,,
quiz_q_5_fb_correct,57,340150,0.0-21.0-0.0,"""event"",""trial"",""time""
""fullscreenenter"",""1"",""6696""
","
","
","""event"",""trial"",""time""
""fullscreenenter"",""1"",""6696""
","
",,null,run_exp/static/audio/clip_24_q5_correct.m4a,null,<p> That’s correct. The alien tells you nothing about how much treasure is on the planet.</p>,,,,,,,,,,,,,,,,,,,,,,,
quiz_correct,58,343630,0.0-22.0-0.0,"""event"",""trial"",""time""
""fullscreenenter"",""1"",""6696""
","
","
","""event"",""trial"",""time""
""fullscreenenter"",""1"",""6696""
","
",,null,run_exp/static/audio/clip_26_correct_quiz.m4a,null,,,,,,,,,,,,,,,,,,,,,,,,
quiz_correct_continue,59,344904,0.0-22.0-1.0,"""event"",""trial"",""time""
""fullscreenenter"",""1"",""6696""
","
","
","""event"",""trial"",""time""
""fullscreenenter"",""1"",""6696""
","
",,1271,<p>Good job! You're now ready to move on to the real game!</p>,,,,,,,0,,,,,,,,,,,,,,,,,,
audio-keyboard-response,60,355030,0.0-22.0-2.0,"""event"",""trial"",""time""
""fullscreenenter"",""1"",""6696""
","
","
","""event"",""trial"",""time""
""fullscreenenter"",""1"",""6696""
","
",,null,run_exp/static/audio/clip_28_real_game.m4a,null,,,,,,,,,,,,,,,,,,,,,,,,
instruc_begin_exp_contine,61,356096,0.0-22.0-3.0,"""event"",""trial"",""time""
""fullscreenenter"",""1"",""6696""
","
","
","""event"",""trial"",""time""
""fullscreenenter"",""1"",""6696""
","
",,1062.6,"<p>Now that you know how  to dig for space treasure and travel to new planets,you can start exploring! </p><p>Do you want to go over the instructions again or get started with the real game?</p>",,,,,,,1,,,,,,1,,,,,,,,,,,,
alien_welcome,62,361105,0.0-23.0-0.0,"""event"",""trial"",""time""
""fullscreenenter"",""1"",""6696""
","
","
","""event"",""trial"",""time""
""fullscreenenter"",""1"",""6696""
","
",,null,run_exp/static/images/task_images/aliens/old_aliens/planet/alien_planet-60.jpg,null,,,,,,,,,,,,,60,"60,74,29,50,11,69,63,57,56,53,2,26,42,64,43,73,72,27,34,7,79,71,35,3,62,31,33,14,8,46,9,40,39",,,,,,,,,,
land,63,361608,0.0-23.0-1.0,"""event"",""trial"",""time""
""fullscreenenter"",""1"",""6696""
","
","
","""event"",""trial"",""time""
""fullscreenenter"",""1"",""6696""
","
",,null,run_exp/static/images/task_images/land.jpg,null,,,,,,,108,,,1,,,,,,,,,,,,,,
dig,64,363616,0.0-23.0-2.0,"""event"",""trial"",""time""
""fullscreenenter"",""1"",""6696""
","
","
","""event"",""trial"",""time""
""fullscreenenter"",""1"",""6696""
","
",,,,,,,,,,,,"[{""stimulus"":""run_exp/static/images/task_images/dig.jpg"",""time"":0.5999999642372131},{""stimulus"":""run_exp/static/images/task_images/land.jpg"",""time"":669.8999999761581},{""stimulus"":""run_exp/static/images/task_images/dig.jpg"",""time"":1337}]",[],1,,,,,,,,,,,,,,
harvest,65,364620,0.0-23.0-3.0,"""event"",""trial"",""time""
""fullscreenenter"",""1"",""6696""
","
","
","""event"",""trial"",""time""
""fullscreenenter"",""1"",""6696""
","
",,null,run_exp/static/images/task_images/gems/108.jpg,null,,,,,,,28,,,1,,,,,108,0.26306446,0.259259259,,,,,,,
decision,66,365048,0.0-23.0-4.0,"""event"",""trial"",""time""
""fullscreenenter"",""1"",""6696""
","
","
","""event"",""trial"",""time""
""fullscreenenter"",""1"",""6696""
","
",,424.9,run_exp/static/images/task_images/land.jpg,65,,,,,,,28,,,1,,,,,,,,8948,1,0,FALSE,,,
dig,67,367634,0.0-24.0-0.0,"""event"",""trial"",""time""
""fullscreenenter"",""1"",""6696""
","
","
","""event"",""trial"",""time""
""fullscreenenter"",""1"",""6696""
","
",,,,,,,,,,,,"[{""stimulus"":""run_exp/static/images/task_images/dig.jpg"",""time"":0.5999999642372131},{""stimulus"":""run_exp/static/images/task_images/land.jpg"",""time"":860.6999999880791},{""stimulus"":""run_exp/static/images/task_images/dig.jpg"",""time"":1718.199999988079}]",[],1,,,,,,,,,,,,,,
harvest,68,368636,0.0-24.0-1.0,"""event"",""trial"",""time""
""fullscreenenter"",""1"",""6696""
","
","
","""event"",""trial"",""time""
""fullscreenenter"",""1"",""6696""
","
",,null,run_exp/static/images/task_images/gems/28.jpg,null,,,,,,,5,,,1,,,,,28,0.179846481,0.178571429,,,,,,,
decision,69,368953,0.0-24.0-2.0,"""event"",""trial"",""time""
""fullscreenenter"",""1"",""6696""
","
","
","""event"",""trial"",""time""
""fullscreenenter"",""1"",""6696""
","
",,314.4,run_exp/static/images/task_images/land.jpg,65,,,,,,,5,,,1,,,,,,,,12852,1,1,FALSE,,,
dig,70,371649,0.0-25.0-0.0,"""event"",""trial"",""time""
""fullscreenenter"",""1"",""6696""
","
","
","""event"",""trial"",""time""
""fullscreenenter"",""1"",""6696""
","
",,,,,,,,,,,,"[{""stimulus"":""run_exp/static/images/task_images/dig.jpg"",""time"":0.5999999642372131},{""stimulus"":""run_exp/static/images/task_images/land.jpg"",""time"":899.0999999642372},{""stimulus"":""run_exp/static/images/task_images/dig.jpg"",""time"":1793.199999988079}]",[],1,,,,,,,,,,,,,,
harvest,71,372654,0.0-25.0-1.0,"""event"",""trial"",""time""
""fullscreenenter"",""1"",""6696""
","
","
","""event"",""trial"",""time""
""fullscreenenter"",""1"",""6696""
","
",,null,run_exp/static/images/task_images/gems/5.jpg,null,,,,,,,1,,,1,,,,,5,0.161090515,0.2,,,,,,,
decision,72,372945,0.0-25.0-2.0,"""event"",""trial"",""time""
""fullscreenenter"",""1"",""6696""
","
","
","""event"",""trial"",""time""
""fullscreenenter"",""1"",""6696""
","
",,288.7,run_exp/static/images/task_images/land.jpg,65,,,,,,,1,,,1,,,,,,,,16844,1,2,FALSE,,,
dig,73,375663,0.0-26.0-0.0,"""event"",""trial"",""time""
""fullscreenenter"",""1"",""6696""
","
","
","""event"",""trial"",""time""
""fullscreenenter"",""1"",""6696""
","
",,,,,,,,,,,,"[{""stimulus"":""run_exp/static/images/task_images/dig.jpg"",""time"":0.5},{""stimulus"":""run_exp/static/images/task_images/land.jpg"",""time"":905.8999999761581},{""stimulus"":""run_exp/static/images/task_images/dig.jpg"",""time"":1809.3999999761581}]",[],1,,,,,,,,,,,,,,
harvest,74,376668,0.0-26.0-1.0,"""event"",""trial"",""time""
""fullscreenenter"",""1"",""6696""
","
","
","""event"",""trial"",""time""
""fullscreenenter"",""1"",""6696""
","
",,null,run_exp/static/images/task_images/gems/1.jpg,null,,,,,,,0,,,1,,,,,1,0.208608513,0,,,,,,,
decision,75,376942,0.0-26.0-2.0,"""event"",""trial"",""time""
""fullscreenenter"",""1"",""6696""
","
","
","""event"",""trial"",""time""
""fullscreenenter"",""1"",""6696""
","
",,271.2,run_exp/static/images/task_images/land.jpg,76,,,,,,,0,,,1,,,,,,,,20841,1,3,TRUE,,,
travel,76,386671,0.0-27.0-0.0,"""event"",""trial"",""time""
""fullscreenenter"",""1"",""6696""
","
","
","""event"",""trial"",""time""
""fullscreenenter"",""1"",""6696""
","
",,,,,,,,,,,,"[{""stimulus"":""run_exp/static/images/task_images/rocket-01.jpg"",""time"":0.5},{""stimulus"":""run_exp/static/images/task_images/rocket-02.jpg"",""time"":1083.699999988079},{""stimulus"":""run_exp/static/images/task_images/rocket-03.jpg"",""time"":2164.900000035763},{""stimulus"":""run_exp/static/images/task_images/rocket-04.jpg"",""time"":3242.300000011921},{""stimulus"":""run_exp/static/images/task_images/rocket-05.jpg"",""time"":4324.699999988079},{""stimulus"":""run_exp/static/images/task_images/rocket-06.jpg"",""time"":5404.100000023842},{""stimulus"":""run_exp/static/images/task_images/rocket-07.jpg"",""time"":6482.5},{""stimulus"":""run_exp/static/images/task_images/rocket-08.jpg"",""time"":7564.300000011921},{""stimulus"":""run_exp/static/images/task_images/rocket-09.jpg"",""time"":8643.600000023842}]",[],1,,,,,,,,,,,,,,
alien_welcome,77,391674,0.0-27.0-1.0,"""event"",""trial"",""time""
""fullscreenenter"",""1"",""6696""
","
","
","""event"",""trial"",""time""
""fullscreenenter"",""1"",""6696""
","
",,null,run_exp/static/images/task_images/aliens/old_aliens/planet/alien_planet-74.jpg,null,,,,,,,,,,,,,74,"60,74,29,50,11,69,63,57,56,53,2,26,42,64,43,73,72,27,34,7,79,71,35,3,62,31,33,14,8,46,9,40,39",,,,,,,,,,
land,78,392178,0.0-27.0-2.0,"""event"",""trial"",""time""
""fullscreenenter"",""1"",""6696""
","
","
","""event"",""trial"",""time""
""fullscreenenter"",""1"",""6696""
","
",,null,run_exp/static/images/task_images/land.jpg,null,,,,,,,95,,,2,,,,,,,,,,,,,,
dig,79,394184,0.0-27.0-3.0,"""event"",""trial"",""time""
""fullscreenenter"",""1"",""6696""
","
","
","""event"",""trial"",""time""
""fullscreenenter"",""1"",""6696""
","
",,,,,,,,,,,,"[{""stimulus"":""run_exp/static/images/task_images/dig.jpg"",""time"":0.09999996423721313},{""stimulus"":""run_exp/static/images/task_images/land.jpg"",""time"":670.0999999642372},{""stimulus"":""run_exp/static/images/task_images/dig.jpg"",""time"":1336}]",[],2,,,,,,,,,,,,,,
harvest,80,395188,0.0-27.0-4.0,"""event"",""trial"",""time""
""fullscreenenter"",""1"",""6696""
","
","
","""event"",""trial"",""time""
""fullscreenenter"",""1"",""6696""
","
",,null,run_exp/static/images/task_images/gems/95.jpg,null,,,,,,,21,,,2,,,,,95,0.215939374,0.221052632,,,,,,,
decision,81,395471,0.0-27.0-5.0,"""event"",""trial"",""time""
""fullscreenenter"",""1"",""6696""
","
","
","""event"",""trial"",""time""
""fullscreenenter"",""1"",""6696""
","
",,280,run_exp/static/images/task_images/land.jpg,65,,,,,,,21,,,2,,,,,,,,39370,1,0,FALSE,,,
dig,82,398198,0.0-28.0-0.0,"""event"",""trial"",""time""
""fullscreenenter"",""1"",""6696""
","
","
","""event"",""trial"",""time""
""fullscreenenter"",""1"",""6696""
","
",,,,,,,,,,,,"[{""stimulus"":""run_exp/static/images/task_images/dig.jpg"",""time"":0.40000003576278687},{""stimulus"":""run_exp/static/images/task_images/land.jpg"",""time"":908.5},{""stimulus"":""run_exp/static/images/task_images/dig.jpg"",""time"":1816.2000000476837}]",[],2,,,,,,,,,,,,,,
harvest,83,399203,0.0-28.0-1.0,"""event"",""trial"",""time""
""fullscreenenter"",""1"",""6696""
","
","
","""event"",""trial"",""time""
""fullscreenenter"",""1"",""6696""
","
",,null,run_exp/static/images/task_images/gems/21.jpg,null,,,,,,,6,,,2,,,,,21,0.270694015,0.285714286,,,,,,,
decision,84,399451,0.0-28.0-2.0,"""event"",""trial"",""time""
""fullscreenenter"",""1"",""6696""
","
","
","""event"",""trial"",""time""
""fullscreenenter"",""1"",""6696""
","
",,245.1,run_exp/static/images/task_images/land.jpg,65,,,,,,,6,,,2,,,,,,,,43350,1,1,FALSE,,,
dig,85,402216,0.0-29.0-0.0,"""event"",""trial"",""time""
""fullscreenenter"",""1"",""6696""
","
","
","""event"",""trial"",""time""
""fullscreenenter"",""1"",""6696""
","
",,,,,,,,,,,,"[{""stimulus"":""run_exp/static/images/task_images/dig.jpg"",""time"":0.5},{""stimulus"":""run_exp/static/images/task_images/land.jpg"",""time"":922.3000000119209},{""stimulus"":""run_exp/static/images/task_images/dig.jpg"",""time"":1838.699999988079}]",[],2,,,,,,,,,,,,,,
harvest,86,403221,0.0-29.0-1.0,"""event"",""trial"",""time""
""fullscreenenter"",""1"",""6696""
","
","
","""event"",""trial"",""time""
""fullscreenenter"",""1"",""6696""
","
",,null,run_exp/static/images/task_images/gems/6.jpg,null,,,,,,,1,,,2,,,,,6,0.21035924,0.166666667,,,,,,,
decision,87,403365,0.0-29.0-2.0,"""event"",""trial"",""time""
""fullscreenenter"",""1"",""6696""
","
","
","""event"",""trial"",""time""
""fullscreenenter"",""1"",""6696""
","
",,141.2,run_exp/static/images/task_images/land.jpg,65,,,,,,,1,,,2,,,,,,,,47264,1,2,FALSE,,,
dig,88,406231,0.0-30.0-0.0,"""event"",""trial"",""time""
""fullscreenenter"",""1"",""6696""
","
","
","""event"",""trial"",""time""
""fullscreenenter"",""1"",""6696""
","
",,,,,,,,,,,,"[{""stimulus"":""run_exp/static/images/task_images/dig.jpg"",""time"":0.5},{""stimulus"":""run_exp/static/images/task_images/land.jpg"",""time"":954.5},{""stimulus"":""run_exp/static/images/task_images/dig.jpg"",""time"":1907.1000000238419}]",[],2,,,,,,,,,,,,,,
harvest,89,407235,0.0-30.0-1.0,"""event"",""trial"",""time""
""fullscreenenter"",""1"",""6696""
","
","
","""event"",""trial"",""time""
""fullscreenenter"",""1"",""6696""
","
",,null,run_exp/static/images/task_images/gems/1.jpg,null,,,,,,,0,,,2,,,,,1,0.251936494,0,,,,,,,
decision,90,408070,0.0-30.0-2.0,"""event"",""trial"",""time""
""fullscreenenter"",""1"",""6696""
","
","
","""event"",""trial"",""time""
""fullscreenenter"",""1"",""6696""
","
",,831.5,run_exp/static/images/task_images/land.jpg,76,,,,,,,0,,,2,,,,,,,,51969,1,3,TRUE,,,
travel,91,417238,0.0-31.0-0.0,"""event"",""trial"",""time""
""fullscreenenter"",""1"",""6696""
","
","
","""event"",""trial"",""time""
""fullscreenenter"",""1"",""6696""
","
",,,,,,,,,,,,"[{""stimulus"":""run_exp/static/images/task_images/rocket-01.jpg"",""time"":0.09999996423721313},{""stimulus"":""run_exp/static/images/task_images/rocket-02.jpg"",""time"":1019.5999999642372},{""stimulus"":""run_exp/static/images/task_images/rocket-03.jpg"",""time"":2037.199999988079},{""stimulus"":""run_exp/static/images/task_images/rocket-04.jpg"",""time"":3056.5},{""stimulus"":""run_exp/static/images/task_images/rocket-05.jpg"",""time"":4073.899999976158},{""stimulus"":""run_exp/static/images/task_images/rocket-06.jpg"",""time"":5091.699999988079},{""stimulus"":""run_exp/static/images/task_images/rocket-07.jpg"",""time"":6109.899999976158},{""stimulus"":""run_exp/static/images/task_images/rocket-08.jpg"",""time"":7128.699999988079},{""stimulus"":""run_exp/static/images/task_images/rocket-09.jpg"",""time"":8148.800000011921}]",[],2,,,,,,,,,,,,,,
alien_welcome,92,422243,0.0-31.0-1.0,"""event"",""trial"",""time""
""fullscreenenter"",""1"",""6696""
","
","
","""event"",""trial"",""time""
""fullscreenenter"",""1"",""6696""
","
",,null,run_exp/static/images/task_images/aliens/old_aliens/planet/alien_planet-29.jpg,null,,,,,,,,,,,,,29,"60,74,29,50,11,69,63,57,56,53,2,26,42,64,43,73,72,27,34,7,79,71,35,3,62,31,33,14,8,46,9,40,39",,,,,,,,,,
land,93,422746,0.0-31.0-2.0,"""event"",""trial"",""time""
""fullscreenenter"",""1"",""6696""
","
","
","""event"",""trial"",""time""
""fullscreenenter"",""1"",""6696""
","
",,null,run_exp/static/images/task_images/land.jpg,null,,,,,,,101,,,3,,,,,,,,,,,,,,
dig,94,424753,0.0-31.0-3.0,"""event"",""trial"",""time""
""fullscreenenter"",""1"",""6696""
","
","
","""event"",""trial"",""time""
""fullscreenenter"",""1"",""6696""
","
",,,,,,,,,,,,"[{""stimulus"":""run_exp/static/images/task_images/dig.jpg"",""time"":0.699999988079071},{""stimulus"":""run_exp/static/images/task_images/land.jpg"",""time"":670.6000000238419},{""stimulus"":""run_exp/static/images/task_images/dig.jpg"",""time"":1336.9000000357628}]",[],3,,,,,,,,,,,,,,
harvest,95,425756,0.0-31.0-4.0,"""event"",""trial"",""time""
""fullscreenenter"",""1"",""6696""
","
","
","""event"",""trial"",""time""
""fullscreenenter"",""1"",""6696""
","
",,null,run_exp/static/images/task_images/gems/101.jpg,null,,,,,,,47,,,3,,,,,101,0.466215154,0.465346535,,,,,,,
decision,96,426039,0.0-31.0-5.0,"""event"",""trial"",""time""
""fullscreenenter"",""1"",""6696""
","
","
","""event"",""trial"",""time""
""fullscreenenter"",""1"",""6696""
","
",,280.3,run_exp/static/images/task_images/land.jpg,65,,,,,,,47,,,3,,,,,,,,69938,1,0,FALSE,,,
dig,97,428771,0.0-32.0-0.0,"""event"",""trial"",""time""
""fullscreenenter"",""1"",""6696""
","
","
","""event"",""trial"",""time""
""fullscreenenter"",""1"",""6696""
","
",,,,,,,,,,,,"[{""stimulus"":""run_exp/static/images/task_images/dig.jpg"",""time"":0.5},{""stimulus"":""run_exp/static/images/task_images/land.jpg"",""time"":909.6000000238419},{""stimulus"":""run_exp/static/images/task_images/dig.jpg"",""time"":1815.6000000238419}]",[],3,,,,,,,,,,,,,,
harvest,98,429776,0.0-32.0-1.0,"""event"",""trial"",""time""
""fullscreenenter"",""1"",""6696""
","
","
","""event"",""trial"",""time""
""fullscreenenter"",""1"",""6696""
","
",,null,run_exp/static/images/task_images/gems/47.jpg,null,,,,,,,27,,,3,,,,,47,0.572582586,0.574468085,,,,,,,
decision,99,430012,0.0-32.0-2.0,"""event"",""trial"",""time""
""fullscreenenter"",""1"",""6696""
","
","
","""event"",""trial"",""time""
""fullscreenenter"",""1"",""6696""
","
",,232.8,run_exp/static/images/task_images/land.jpg,65,,,,,,,27,,,3,,,,,,,,73911,1,1,FALSE,,,
dig,100,432789,0.0-33.0-0.0,"""event"",""trial"",""time""
""fullscreenenter"",""1"",""6696""
","
","
","""event"",""trial"",""time""
""fullscreenenter"",""1"",""6696""
","
",,,,,,,,,,,,"[{""stimulus"":""run_exp/static/images/task_images/dig.jpg"",""time"":0.5},{""stimulus"":""run_exp/static/images/task_images/land.jpg"",""time"":925.5999999642372},{""stimulus"":""run_exp/static/images/task_images/dig.jpg"",""time"":1847.7999999523163}]",[],3,,,,,,,,,,,,,,
harvest,101,433793,0.0-33.0-1.0,"""event"",""trial"",""time""
""fullscreenenter"",""1"",""6696""
","
","
","""event"",""trial"",""time""
""fullscreenenter"",""1"",""6696""
","
",,null,run_exp/static/images/task_images/gems/27.jpg,null,,,,,,,12,,,3,,,,,27,0.448599868,0.444444444,,,,,,,
decision,102,434125,0.0-33.0-2.0,"""event"",""trial"",""time""
""fullscreenenter"",""1"",""6696""
","
","
","""event"",""trial"",""time""
""fullscreenenter"",""1"",""6696""
","
",,329.7,run_exp/static/images/task_images/land.jpg,65,,,,,,,12,,,3,,,,,,,,78024,1,2,FALSE,,,
dig,103,436804,0.0-34.0-0.0,"""event"",""trial"",""time""
""fullscreenenter"",""1"",""6696""
","
","
","""event"",""trial"",""time""
""fullscreenenter"",""1"",""6696""
","
",,,,,,,,,,,,"[{""stimulus"":""run_exp/static/images/task_images/dig.jpg"",""time"":0.3999999761581421},{""stimulus"":""run_exp/static/images/task_images/land.jpg"",""time"":894.3000000119209},{""stimulus"":""run_exp/static/images/task_images/dig.jpg"",""time"":1783.800000011921}]",[],3,,,,,,,,,,,,,,
harvest,104,437808,0.0-34.0-1.0,"""event"",""trial"",""time""
""fullscreenenter"",""1"",""6696""
","
","
","""event"",""trial"",""time""
""fullscreenenter"",""1"",""6696""
","
",,null,run_exp/static/images/task_images/gems/12.jpg,null,,,,,,,7,,,3,,,,,12,0.542383137,0.583333333,,,,,,,
decision,105,437965,0.0-34.0-2.0,"""event"",""trial"",""time""
""fullscreenenter"",""1"",""6696""
","
","
","""event"",""trial"",""time""
""fullscreenenter"",""1"",""6696""
","
",,154.7,run_exp/static/images/task_images/land.jpg,65,,,,,,,7,,,3,,,,,,,,81864,1,3,FALSE,,,
dig,106,440818,0.0-35.0-0.0,"""event"",""trial"",""time""
""fullscreenenter"",""1"",""6696""
","
","
","""event"",""trial"",""time""
""fullscreenenter"",""1"",""6696""
","
",,,,,,,,,,,,"[{""stimulus"":""run_exp/static/images/task_images/dig.jpg"",""time"":0.5},{""stimulus"":""run_exp/static/images/task_images/land.jpg"",""time"":952.2000000476837},{""stimulus"":""run_exp/static/images/task_images/dig.jpg"",""time"":1899.4000000357628}]",[],3,,,,,,,,,,,,,,
harvest,107,441823,0.0-35.0-1.0,"""event"",""trial"",""time""
""fullscreenenter"",""1"",""6696""
","
","
","""event"",""trial"",""time""
""fullscreenenter"",""1"",""6696""
","
",,null,run_exp/static/images/task_images/gems/7.jpg,null,,,,,,,4,,,3,,,,,7,0.53871703,0.571428571,,,,,,,
decision,108,442325,0.0-35.0-2.0,"""event"",""trial"",""time""
""fullscreenenter"",""1"",""6696""
","
","
","""event"",""trial"",""time""
""fullscreenenter"",""1"",""6696""
","
",,498.5,run_exp/static/images/task_images/land.jpg,76,,,,,,,4,,,3,,,,,,,,86224,1,4,TRUE,,,
travel,109,451831,0.0-36.0-0.0,"""event"",""trial"",""time""
""fullscreenenter"",""1"",""6696""
","
","
","""event"",""trial"",""time""
""fullscreenenter"",""1"",""6696""
","
",,,,,,,,,,,,"[{""stimulus"":""run_exp/static/images/task_images/rocket-01.jpg"",""time"":0.5},{""stimulus"":""run_exp/static/images/task_images/rocket-02.jpg"",""time"":1058.6000000238419},{""stimulus"":""run_exp/static/images/task_images/rocket-03.jpg"",""time"":2112.5},{""stimulus"":""run_exp/static/images/task_images/rocket-04.jpg"",""time"":3171},{""stimulus"":""run_exp/static/images/task_images/rocket-05.jpg"",""time"":4224.100000023842},{""stimulus"":""run_exp/static/images/task_images/rocket-06.jpg"",""time"":5279},{""stimulus"":""run_exp/static/images/task_images/rocket-07.jpg"",""time"":6333.5},{""stimulus"":""run_exp/static/images/task_images/rocket-08.jpg"",""time"":7388.699999988079},{""stimulus"":""run_exp/static/images/task_images/rocket-09.jpg"",""time"":8445.899999976158}]",[],3,,,,,,,,,,,,,,
alien_welcome,110,456836,0.0-36.0-1.0,"""event"",""trial"",""time""
""fullscreenenter"",""1"",""6696""
","
","
","""event"",""trial"",""time""
""fullscreenenter"",""1"",""6696""
","
",,null,run_exp/static/images/task_images/aliens/old_aliens/planet/alien_planet-50.jpg,null,,,,,,,,,,,,,50,"60,74,29,50,11,69,63,57,56,53,2,26,42,64,43,73,72,27,34,7,79,71,35,3,62,31,33,14,8,46,9,40,39",,,,,,,,,,
land,111,457339,0.0-36.0-2.0,"""event"",""trial"",""time""
""fullscreenenter"",""1"",""6696""
","
","
","""event"",""trial"",""time""
""fullscreenenter"",""1"",""6696""
","
",,null,run_exp/static/images/task_images/land.jpg,null,,,,,,,104,,,4,,,,,,,,,,,,,,
dig,112,459346,0.0-36.0-3.0,"""event"",""trial"",""time""
""fullscreenenter"",""1"",""6696""
","
","
","""event"",""trial"",""time""
""fullscreenenter"",""1"",""6696""
","
",,,,,,,,,,,,"[{""stimulus"":""run_exp/static/images/task_images/dig.jpg"",""time"":0.10000002384185791},{""stimulus"":""run_exp/static/images/task_images/land.jpg"",""time"":671.6000000238419},{""stimulus"":""run_exp/static/images/task_images/dig.jpg"",""time"":1336.6000000238419}]",[],4,,,,,,,,,,,,,,
harvest,113,460349,0.0-36.0-4.0,"""event"",""trial"",""time""
""fullscreenenter"",""1"",""6696""
","
","
","""event"",""trial"",""time""
""fullscreenenter"",""1"",""6696""
","
",,null,run_exp/static/images/task_images/gems/104.jpg,null,,,,,,,50,,,4,,,,,104,0.479715403,0.480769231,,,,,,,
decision,114,460587,0.0-36.0-5.0,"""event"",""trial"",""time""
""fullscreenenter"",""1"",""6696""
","
","
","""event"",""trial"",""time""
""fullscreenenter"",""1"",""6696""
","
",,236.8,run_exp/static/images/task_images/land.jpg,65,,,,,,,50,,,4,,,,,,,,104486,1,0,FALSE,,,
dig,115,463361,0.0-37.0-0.0,"""event"",""trial"",""time""
""fullscreenenter"",""1"",""6696""
","
","
","""event"",""trial"",""time""
""fullscreenenter"",""1"",""6696""
","
",,,,,,,,,,,,"[{""stimulus"":""run_exp/static/images/task_images/dig.jpg"",""time"":0.5},{""stimulus"":""run_exp/static/images/task_images/land.jpg"",""time"":924.6999999880791},{""stimulus"":""run_exp/static/images/task_images/dig.jpg"",""time"":1846.800000011921}]",[],4,,,,,,,,,,,,,,
harvest,116,464364,0.0-37.0-1.0,"""event"",""trial"",""time""
""fullscreenenter"",""1"",""6696""
","
","
","""event"",""trial"",""time""
""fullscreenenter"",""1"",""6696""
","
",,null,run_exp/static/images/task_images/gems/50.jpg,null,,,,,,,27,,,4,,,,,50,0.534435715,0.54,,,,,,,
decision,117,464610,0.0-37.0-2.0,"""event"",""trial"",""time""
""fullscreenenter"",""1"",""6696""
","
","
","""event"",""trial"",""time""
""fullscreenenter"",""1"",""6696""
","
",,243.5,run_exp/static/images/task_images/land.jpg,65,,,,,,,27,,,4,,,,,,,,108509,1,1,FALSE,,,
dig,118,467374,0.0-38.0-0.0,"""event"",""trial"",""time""
""fullscreenenter"",""1"",""6696""
","
","
","""event"",""trial"",""time""
""fullscreenenter"",""1"",""6696""
","
",,,,,,,,,,,,"[{""stimulus"":""run_exp/static/images/task_images/dig.jpg"",""time"":0.6000000238418579},{""stimulus"":""run_exp/static/images/task_images/land.jpg"",""time"":920.6000000238419},{""stimulus"":""run_exp/static/images/task_images/dig.jpg"",""time"":1840.6000000238419}]",[],4,,,,,,,,,,,,,,
harvest,119,468376,0.0-38.0-1.0,"""event"",""trial"",""time""
""fullscreenenter"",""1"",""6696""
","
","
","""event"",""trial"",""time""
""fullscreenenter"",""1"",""6696""
","
",,null,run_exp/static/images/task_images/gems/27.jpg,null,,,,,,,14,,,4,,,,,27,0.507232223,0.518518519,,,,,,,
decision,120,468874,0.0-38.0-2.0,"""event"",""trial"",""time""
""fullscreenenter"",""1"",""6696""
","
","
","""event"",""trial"",""time""
""fullscreenenter"",""1"",""6696""
","
",,495.5,run_exp/static/images/task_images/land.jpg,65,,,,,,,14,,,4,,,,,,,,112773,1,2,FALSE,,,
dig,121,471389,0.0-39.0-0.0,"""event"",""trial"",""time""
""fullscreenenter"",""1"",""6696""
","
","
","""event"",""trial"",""time""
""fullscreenenter"",""1"",""6696""
","
",,,,,,,,,,,,"[{""stimulus"":""run_exp/static/images/task_images/dig.jpg"",""time"":0.5},{""stimulus"":""run_exp/static/images/task_images/land.jpg"",""time"":836.4000000357628},{""stimulus"":""run_exp/static/images/task_images/dig.jpg"",""time"":1672.800000011921}]",[],4,,,,,,,,,,,,,,
harvest,122,472393,0.0-39.0-1.0,"""event"",""trial"",""time""
""fullscreenenter"",""1"",""6696""
","
","
","""event"",""trial"",""time""
""fullscreenenter"",""1"",""6696""
","
",,null,run_exp/static/images/task_images/gems/14.jpg,null,,,,,,,8,,,4,,,,,14,0.566317256,0.571428571,,,,,,,
decision,123,472884,0.0-39.0-2.0,"""event"",""trial"",""time""
""fullscreenenter"",""1"",""6696""
","
","
","""event"",""trial"",""time""
""fullscreenenter"",""1"",""6696""
","
",,487.9,run_exp/static/images/task_images/land.jpg,76,,,,,,,8,,,4,,,,,,,,116783,1,3,TRUE,,,
travel,124,482399,0.0-40.0-0.0,"""event"",""trial"",""time""
""fullscreenenter"",""1"",""6696""
","
","
","""event"",""trial"",""time""
""fullscreenenter"",""1"",""6696""
","
",,,,,,,,,,,,"[{""stimulus"":""run_exp/static/images/task_images/rocket-01.jpg"",""time"":0.5},{""stimulus"":""run_exp/static/images/task_images/rocket-02.jpg"",""time"":1060.5},{""stimulus"":""run_exp/static/images/task_images/rocket-03.jpg"",""time"":2114.899999976158},{""stimulus"":""run_exp/static/images/task_images/rocket-04.jpg"",""time"":3170.599999964237},{""stimulus"":""run_exp/static/images/task_images/rocket-05.jpg"",""time"":4226.300000011921},{""stimulus"":""run_exp/static/images/task_images/rocket-06.jpg"",""time"":5283.399999976158},{""stimulus"":""run_exp/static/images/task_images/rocket-07.jpg"",""time"":6338.300000011921},{""stimulus"":""run_exp/static/images/task_images/rocket-08.jpg"",""time"":7395.099999964237},{""stimulus"":""run_exp/static/images/task_images/rocket-09.jpg"",""time"":8452.800000011921}]",[],4,,,,,,,,,,,,,,
alien_welcome,125,487404,0.0-40.0-1.0,"""event"",""trial"",""time""
""fullscreenenter"",""1"",""6696""
","
","
","""event"",""trial"",""time""
""fullscreenenter"",""1"",""6696""
","
",,null,run_exp/static/images/task_images/aliens/old_aliens/planet/alien_planet-11.jpg,null,,,,,,,,,,,,,11,"60,74,29,50,11,69,63,57,56,53,2,26,42,64,43,73,72,27,34,7,79,71,35,3,62,31,33,14,8,46,9,40,39",,,,,,,,,,
land,126,487907,0.0-40.0-2.0,"""event"",""trial"",""time""
""fullscreenenter"",""1"",""6696""
","
","
","""event"",""trial"",""time""
""fullscreenenter"",""1"",""6696""
","
",,null,run_exp/static/images/task_images/land.jpg,null,,,,,,,91,,,5,,,,,,,,,,,,,,
dig,127,489912,0.0-40.0-3.0,"""event"",""trial"",""time""
""fullscreenenter"",""1"",""6696""
","
","
","""event"",""trial"",""time""
""fullscreenenter"",""1"",""6696""
","
",,,,,,,,,,,,"[{""stimulus"":""run_exp/static/images/task_images/dig.jpg"",""time"":0.5},{""stimulus"":""run_exp/static/images/task_images/land.jpg"",""time"":674.3000000119209},{""stimulus"":""run_exp/static/images/task_images/dig.jpg"",""time"":1336.800000011921}]",[],5,,,,,,,,,,,,,,
harvest,128,490916,0.0-40.0-4.0,"""event"",""trial"",""time""
""fullscreenenter"",""1"",""6696""
","
","
","""event"",""trial"",""time""
""fullscreenenter"",""1"",""6696""
","
",,null,run_exp/static/images/task_images/gems/91.jpg,null,,,,,,,46,,,5,,,,,91,0.503072087,0.505494505,,,,,,,
decision,129,491143,0.0-40.0-5.0,"""event"",""trial"",""time""
""fullscreenenter"",""1"",""6696""
","
","
","""event"",""trial"",""time""
""fullscreenenter"",""1"",""6696""
","
",,224.5,run_exp/static/images/task_images/land.jpg,65,,,,,,,46,,,5,,,,,,,,135043,1,0,FALSE,,,
dig,130,493929,0.0-41.0-0.0,"""event"",""trial"",""time""
""fullscreenenter"",""1"",""6696""
","
","
","""event"",""trial"",""time""
""fullscreenenter"",""1"",""6696""
","
",,,,,,,,,,,,"[{""stimulus"":""run_exp/static/images/task_images/dig.jpg"",""time"":0.5},{""stimulus"":""run_exp/static/images/task_images/land.jpg"",""time"":928.8999999761581},{""stimulus"":""run_exp/static/images/task_images/dig.jpg"",""time"":1852.8999999761581}]",[],5,,,,,,,,,,,,,,
harvest,131,494934,0.0-41.0-1.0,"""event"",""trial"",""time""
""fullscreenenter"",""1"",""6696""
","
","
","""event"",""trial"",""time""
""fullscreenenter"",""1"",""6696""
","
",,null,run_exp/static/images/task_images/gems/46.jpg,null,,,,,,,27,,,5,,,,,46,0.579172108,0.586956522,,,,,,,
decision,132,494952,0.0-41.0-2.0,"""event"",""trial"",""time""
""fullscreenenter"",""1"",""6696""
","
","
","""event"",""trial"",""time""
""fullscreenenter"",""1"",""6696""
","
",,15.5,run_exp/static/images/task_images/land.jpg,65,,,,,,,27,,,5,,,,,,,,138851,1,1,FALSE,,,
dig,133,497944,0.0-42.0-0.0,"""event"",""trial"",""time""
""fullscreenenter"",""1"",""6696""
","
","
","""event"",""trial"",""time""
""fullscreenenter"",""1"",""6696""
","
",,,,,,,,,,,,"[{""stimulus"":""run_exp/static/images/task_images/dig.jpg"",""time"":0.5},{""stimulus"":""run_exp/static/images/task_images/land.jpg"",""time"":997.8000000119209},{""stimulus"":""run_exp/static/images/task_images/dig.jpg"",""time"":1991.1000000238419}]",[],5,,,,,,,,,,,,,,
harvest,134,498948,0.0-42.0-1.0,"""event"",""trial"",""time""
""fullscreenenter"",""1"",""6696""
","
","
","""event"",""trial"",""time""
""fullscreenenter"",""1"",""6696""
","
",,null,run_exp/static/images/task_images/gems/27.jpg,null,,,,,,,15,,,5,,,,,27,0.56997253,0.555555556,,,,,,,
decision,135,499168,0.0-42.0-2.0,"""event"",""trial"",""time""
""fullscreenenter"",""1"",""6696""
","
","
","""event"",""trial"",""time""
""fullscreenenter"",""1"",""6696""
","
",,217.6,run_exp/static/images/task_images/land.jpg,65,,,,,,,15,,,5,,,,,,,,143067,1,2,FALSE,,,
dig,136,501959,0.0-43.0-0.0,"""event"",""trial"",""time""
""fullscreenenter"",""1"",""6696""
","
","
","""event"",""trial"",""time""
""fullscreenenter"",""1"",""6696""
","
",,,,,,,,,,,,"[{""stimulus"":""run_exp/static/images/task_images/dig.jpg"",""time"":0.40000003576278687},{""stimulus"":""run_exp/static/images/task_images/land.jpg"",""time"":931},{""stimulus"":""run_exp/static/images/task_images/dig.jpg"",""time"":1858.5}]",[],5,,,,,,,,,,,,,,
harvest,137,502962,0.0-43.0-1.0,"""event"",""trial"",""time""
""fullscreenenter"",""1"",""6696""
","
","
","""event"",""trial"",""time""
""fullscreenenter"",""1"",""6696""
","
",,null,run_exp/static/images/task_images/gems/15.jpg,null,,,,,,,7,,,5,,,,,15,0.447179939,0.466666667,,,,,,,
decision,138,503212,0.0-43.0-2.0,"""event"",""trial"",""time""
""fullscreenenter"",""1"",""6696""
","
","
","""event"",""trial"",""time""
""fullscreenenter"",""1"",""6696""
","
",,247.2,run_exp/static/images/task_images/land.jpg,65,,,,,,,7,,,5,,,,,,,,147111,1,3,FALSE,,,
dig,139,505974,0.0-44.0-0.0,"""event"",""trial"",""time""
""fullscreenenter"",""1"",""6696""
","
","
","""event"",""trial"",""time""
""fullscreenenter"",""1"",""6696""
","
",,,,,,,,,,,,"[{""stimulus"":""run_exp/static/images/task_images/dig.jpg"",""time"":0.6000000238418579},{""stimulus"":""run_exp/static/images/task_images/land.jpg"",""time"":920.4000000357628},{""stimulus"":""run_exp/static/images/task_images/dig.jpg"",""time"":1836.800000011921}]",[],5,,,,,,,,,,,,,,
harvest,140,506977,0.0-44.0-1.0,"""event"",""trial"",""time""
""fullscreenenter"",""1"",""6696""
","
","
","""event"",""trial"",""time""
""fullscreenenter"",""1"",""6696""
","
",,null,run_exp/static/images/task_images/gems/7.jpg,null,,,,,,,3,,,5,,,,,7,0.454634095,0.428571429,,,,,,,
decision,141,507017,0.0-44.0-2.0,"""event"",""trial"",""time""
""fullscreenenter"",""1"",""6696""
","
","
","""event"",""trial"",""time""
""fullscreenenter"",""1"",""6696""
","
",,36.89999998,run_exp/static/images/task_images/land.jpg,76,,,,,,,3,,,5,,,,,,,,150916,1,4,TRUE,,,
travel,142,516989,0.0-45.0-0.0,"""event"",""trial"",""time""
""fullscreenenter"",""1"",""6696""
","
","
","""event"",""trial"",""time""
""fullscreenenter"",""1"",""6696""
","
",,,,,,,,,,,,"[{""stimulus"":""run_exp/static/images/task_images/rocket-01.jpg"",""time"":0.3999999761581421},{""stimulus"":""run_exp/static/images/task_images/rocket-02.jpg"",""time"":1109.199999988079},{""stimulus"":""run_exp/static/images/task_images/rocket-03.jpg"",""time"":2219.300000011921},{""stimulus"":""run_exp/static/images/task_images/rocket-04.jpg"",""time"":3324.399999976158},{""stimulus"":""run_exp/static/images/task_images/rocket-05.jpg"",""time"":4434.800000011921},{""stimulus"":""run_exp/static/images/task_images/rocket-06.jpg"",""time"":5539.199999988079},{""stimulus"":""run_exp/static/images/task_images/rocket-07.jpg"",""time"":6644.599999964237},{""stimulus"":""run_exp/static/images/task_images/rocket-08.jpg"",""time"":7753},{""stimulus"":""run_exp/static/images/task_images/rocket-09.jpg"",""time"":8859.899999976158}]",[],5,,,,,,,,,,,,,,
alien_welcome,143,521992,0.0-45.0-1.0,"""event"",""trial"",""time""
""fullscreenenter"",""1"",""6696""
","
","
","""event"",""trial"",""time""
""fullscreenenter"",""1"",""6696""
","
",,null,run_exp/static/images/task_images/aliens/old_aliens/planet/alien_planet-69.jpg,null,,,,,,,,,,,,,69,"60,74,29,50,11,69,63,57,56,53,2,26,42,64,43,73,72,27,34,7,79,71,35,3,62,31,33,14,8,46,9,40,39",,,,,,,,,,
land,144,522496,0.0-45.0-2.0,"""event"",""trial"",""time""
""fullscreenenter"",""1"",""6696""
","
","
","""event"",""trial"",""time""
""fullscreenenter"",""1"",""6696""
","
",,null,run_exp/static/images/task_images/land.jpg,null,,,,,,,107,,,6,,,,,,,,,,,,,,
dig,145,524502,0.0-45.0-3.0,"""event"",""trial"",""time""
""fullscreenenter"",""1"",""6696""
","
","
","""event"",""trial"",""time""
""fullscreenenter"",""1"",""6696""
","
",,,,,,,,,,,,"[{""stimulus"":""run_exp/static/images/task_images/dig.jpg"",""time"":0.30000001192092896},{""stimulus"":""run_exp/static/images/task_images/land.jpg"",""time"":669.1000000238419},{""stimulus"":""run_exp/static/images/task_images/dig.jpg"",""time"":1337.699999988079}]",[],6,,,,,,,,,,,,,,
harvest,146,525506,0.0-45.0-4.0,"""event"",""trial"",""time""
""fullscreenenter"",""1"",""6696""
","
","
","""event"",""trial"",""time""
""fullscreenenter"",""1"",""6696""
","
",,null,run_exp/static/images/task_images/gems/107.jpg,null,,,,,,,94,,,6,,,,,107,0.881109307,0.878504673,,,,,,,
decision,147,525782,0.0-45.0-5.0,"""event"",""trial"",""time""
""fullscreenenter"",""1"",""6696""
","
","
","""event"",""trial"",""time""
""fullscreenenter"",""1"",""6696""
","
",,272.9,run_exp/static/images/task_images/land.jpg,65,,,,,,,94,,,6,,,,,,,,169681,1,0,FALSE,,,
dig,148,528518,0.0-46.0-0.0,"""event"",""trial"",""time""
""fullscreenenter"",""1"",""6696""
","
","
","""event"",""trial"",""time""
""fullscreenenter"",""1"",""6696""
","
",,,,,,,,,,,,"[{""stimulus"":""run_exp/static/images/task_images/dig.jpg"",""time"":0.5999999642372131},{""stimulus"":""run_exp/static/images/task_images/land.jpg"",""time"":912},{""stimulus"":""run_exp/static/images/task_images/dig.jpg"",""time"":1822.699999988079}]",[],6,,,,,,,,,,,,,,
harvest,149,529521,0.0-46.0-1.0,"""event"",""trial"",""time""
""fullscreenenter"",""1"",""6696""
","
","
","""event"",""trial"",""time""
""fullscreenenter"",""1"",""6696""
","
",,null,run_exp/static/images/task_images/gems/94.jpg,null,,,,,,,72,,,6,,,,,94,0.769876477,0.765957447,,,,,,,
decision,150,529817,0.0-46.0-2.0,"""event"",""trial"",""time""
""fullscreenenter"",""1"",""6696""
","
","
","""event"",""trial"",""time""
""fullscreenenter"",""1"",""6696""
","
",,292.5,run_exp/static/images/task_images/land.jpg,65,,,,,,,72,,,6,,,,,,,,173716,1,1,FALSE,,,
dig,151,532533,0.0-47.0-0.0,"""event"",""trial"",""time""
""fullscreenenter"",""1"",""6696""
","
","
","""event"",""trial"",""time""
""fullscreenenter"",""1"",""6696""
","
",,,,,,,,,,,,"[{""stimulus"":""run_exp/static/images/task_images/dig.jpg"",""time"":0.5},{""stimulus"":""run_exp/static/images/task_images/land.jpg"",""time"":904.8000000119209},{""stimulus"":""run_exp/static/images/task_images/dig.jpg"",""time"":1807.2000000476837}]",[],6,,,,,,,,,,,,,,
harvest,152,533537,0.0-47.0-1.0,"""event"",""trial"",""time""
""fullscreenenter"",""1"",""6696""
","
","
","""event"",""trial"",""time""
""fullscreenenter"",""1"",""6696""
","
",,null,run_exp/static/images/task_images/gems/72.jpg,null,,,,,,,59,,,6,,,,,72,0.817400362,0.819444444,,,,,,,
decision,153,533853,0.0-47.0-2.0,"""event"",""trial"",""time""
""fullscreenenter"",""1"",""6696""
","
","
","""event"",""trial"",""time""
""fullscreenenter"",""1"",""6696""
","
",,313.6,run_exp/static/images/task_images/land.jpg,65,,,,,,,59,,,6,,,,,,,,177752,1,2,FALSE,,,
dig,154,536548,0.0-48.0-0.0,"""event"",""trial"",""time""
""fullscreenenter"",""1"",""6696""
","
","
","""event"",""trial"",""time""
""fullscreenenter"",""1"",""6696""
","
",,,,,,,,,,,,"[{""stimulus"":""run_exp/static/images/task_images/dig.jpg"",""time"":0.6000000238418579},{""stimulus"":""run_exp/static/images/task_images/land.jpg"",""time"":899},{""stimulus"":""run_exp/static/images/task_images/dig.jpg"",""time"":1794.300000011921}]",[],6,,,,,,,,,,,,,,
harvest,155,537551,0.0-48.0-1.0,"""event"",""trial"",""time""
""fullscreenenter"",""1"",""6696""
","
","
","""event"",""trial"",""time""
""fullscreenenter"",""1"",""6696""
","
",,null,run_exp/static/images/task_images/gems/59.jpg,null,,,,,,,51,,,6,,,,,59,0.86006804,0.86440678,,,,,,,
decision,156,537834,0.0-48.0-2.0,"""event"",""trial"",""time""
""fullscreenenter"",""1"",""6696""
","
","
","""event"",""trial"",""time""
""fullscreenenter"",""1"",""6696""
","
",,280.2,run_exp/static/images/task_images/land.jpg,65,,,,,,,51,,,6,,,,,,,,181733,1,3,FALSE,,,
dig,157,540564,0.0-49.0-0.0,"""event"",""trial"",""time""
""fullscreenenter"",""1"",""6696""
","
","
","""event"",""trial"",""time""
""fullscreenenter"",""1"",""6696""
","
",,,,,,,,,,,,"[{""stimulus"":""run_exp/static/images/task_images/dig.jpg"",""time"":0.5},{""stimulus"":""run_exp/static/images/task_images/land.jpg"",""time"":908},{""stimulus"":""run_exp/static/images/task_images/dig.jpg"",""time"":1816.1000000238419}]",[],6,,,,,,,,,,,,,,
harvest,158,541566,0.0-49.0-1.0,"""event"",""trial"",""time""
""fullscreenenter"",""1"",""6696""
","
","
","""event"",""trial"",""time""
""fullscreenenter"",""1"",""6696""
","
",,null,run_exp/static/images/task_images/gems/51.jpg,null,,,,,,,41,,,6,,,,,51,0.806786773,0.803921569,,,,,,,
decision,159,541630,0.0-49.0-2.0,"""event"",""trial"",""time""
""fullscreenenter"",""1"",""6696""
","
","
","""event"",""trial"",""time""
""fullscreenenter"",""1"",""6696""
","
",,61.30000001,run_exp/static/images/task_images/land.jpg,65,,,,,,,41,,,6,,,,,,,,185529,1,4,FALSE,,,
dig,160,544578,0.0-50.0-0.0,"""event"",""trial"",""time""
""fullscreenenter"",""1"",""6696""
","
","
","""event"",""trial"",""time""
""fullscreenenter"",""1"",""6696""
","
",,,,,,,,,,,,"[{""stimulus"":""run_exp/static/images/task_images/dig.jpg"",""time"":0.5999999642372131},{""stimulus"":""run_exp/static/images/task_images/land.jpg"",""time"":982},{""stimulus"":""run_exp/static/images/task_images/dig.jpg"",""time"":1961.300000011921}]",[],6,,,,,,,,,,,,,,
harvest,161,545582,0.0-50.0-1.0,"""event"",""trial"",""time""
""fullscreenenter"",""1"",""6696""
","
","
","""event"",""trial"",""time""
""fullscreenenter"",""1"",""6696""
","
",,null,run_exp/static/images/task_images/gems/41.jpg,null,,,,,,,32,,,6,,,,,41,0.782325077,0.780487805,,,,,,,
decision,162,545826,0.0-50.0-2.0,"""event"",""trial"",""time""
""fullscreenenter"",""1"",""6696""
","
","
","""event"",""trial"",""time""
""fullscreenenter"",""1"",""6696""
","
",,241.8,run_exp/static/images/task_images/land.jpg,65,,,,,,,32,,,6,,,,,,,,189725,1,5,FALSE,,,
dig,163,548594,0.0-51.0-0.0,"""event"",""trial"",""time""
""fullscreenenter"",""1"",""6696""
","
","
","""event"",""trial"",""time""
""fullscreenenter"",""1"",""6696""
","
",,,,,,,,,,,,"[{""stimulus"":""run_exp/static/images/task_images/dig.jpg"",""time"":0.5},{""stimulus"":""run_exp/static/images/task_images/land.jpg"",""time"":923.5},{""stimulus"":""run_exp/static/images/task_images/dig.jpg"",""time"":1842.7000000476837}]",[],6,,,,,,,,,,,,,,
harvest,164,549597,0.0-51.0-1.0,"""event"",""trial"",""time""
""fullscreenenter"",""1"",""6696""
","
","
","""event"",""trial"",""time""
""fullscreenenter"",""1"",""6696""
","
",,null,run_exp/static/images/task_images/gems/32.jpg,null,,,,,,,27,,,6,,,,,32,0.84241865,0.84375,,,,,,,
decision,165,549816,0.0-51.0-2.0,"""event"",""trial"",""time""
""fullscreenenter"",""1"",""6696""
","
","
","""event"",""trial"",""time""
""fullscreenenter"",""1"",""6696""
","
",,216.3,run_exp/static/images/task_images/land.jpg,65,,,,,,,27,,,6,,,,,,,,193715,1,6,FALSE,,,
dig,166,552610,0.0-52.0-0.0,"""event"",""trial"",""time""
""fullscreenenter"",""1"",""6696""
","
","
","""event"",""trial"",""time""
""fullscreenenter"",""1"",""6696""
","
",,,,,,,,,,,,"[{""stimulus"":""run_exp/static/images/task_images/dig.jpg"",""time"":0.5},{""stimulus"":""run_exp/static/images/task_images/land.jpg"",""time"":930.5},{""stimulus"":""run_exp/static/images/task_images/dig.jpg"",""time"":1857.6000000238419}]",[],6,,,,,,,,,,,,,,
harvest,167,553616,0.0-52.0-1.0,"""event"",""trial"",""time""
""fullscreenenter"",""1"",""6696""
","
","
","""event"",""trial"",""time""
""fullscreenenter"",""1"",""6696""
","
",,null,run_exp/static/images/task_images/gems/27.jpg,null,,,,,,,24,,,6,,,,,27,0.871680471,0.888888889,,,,,,,
decision,168,553651,0.0-52.0-2.0,"""event"",""trial"",""time""
""fullscreenenter"",""1"",""6696""
","
","
","""event"",""trial"",""time""
""fullscreenenter"",""1"",""6696""
","
",,32.89999998,run_exp/static/images/task_images/land.jpg,65,,,,,,,24,,,6,,,,,,,,197550,1,7,FALSE,,,
dig,169,556629,0.0-53.0-0.0,"""event"",""trial"",""time""
""fullscreenenter"",""1"",""6696""
","
","
","""event"",""trial"",""time""
""fullscreenenter"",""1"",""6696""
","
",,,,,,,,,,,,"[{""stimulus"":""run_exp/static/images/task_images/dig.jpg"",""time"":0.3999999761581421},{""stimulus"":""run_exp/static/images/task_images/land.jpg"",""time"":990.8999999761581},{""stimulus"":""run_exp/static/images/task_images/dig.jpg"",""time"":1980.2999999523163}]",[],6,,,,,,,,,,,,,,
harvest,170,557634,0.0-53.0-1.0,"""event"",""trial"",""time""
""fullscreenenter"",""1"",""6696""
","
","
","""event"",""trial"",""time""
""fullscreenenter"",""1"",""6696""
","
",,null,run_exp/static/images/task_images/gems/24.jpg,null,,,,,,,19,,,6,,,,,24,0.786762734,0.791666667,,,,,,,
decision,171,557645,0.0-53.0-2.0,"""event"",""trial"",""time""
""fullscreenenter"",""1"",""6696""
","
","
","""event"",""trial"",""time""
""fullscreenenter"",""1"",""6696""
","
",,7.899999976,run_exp/static/images/task_images/land.jpg,65,,,,,,,19,,,6,,,,,,,,201544,1,8,FALSE,,,
dig,172,560648,0.0-54.0-0.0,"""event"",""trial"",""time""
""fullscreenenter"",""1"",""6696""
","
","
","""event"",""trial"",""time""
""fullscreenenter"",""1"",""6696""
","
",,,,,,,,,,,,"[{""stimulus"":""run_exp/static/images/task_images/dig.jpg"",""time"":0.5999999642372131},{""stimulus"":""run_exp/static/images/task_images/land.jpg"",""time"":1000.3999999761581},{""stimulus"":""run_exp/static/images/task_images/dig.jpg"",""time"":1999}]",[],6,,,,,,,,,,,,,,
harvest,173,561652,0.0-54.0-1.0,"""event"",""trial"",""time""
""fullscreenenter"",""1"",""6696""
","
","
","""event"",""trial"",""time""
""fullscreenenter"",""1"",""6696""
","
",,null,run_exp/static/images/task_images/gems/19.jpg,null,,,,,,,16,,,6,,,,,19,0.831254907,0.842105263,,,,,,,
decision,174,561794,0.0-54.0-2.0,"""event"",""trial"",""time""
""fullscreenenter"",""1"",""6696""
","
","
","""event"",""trial"",""time""
""fullscreenenter"",""1"",""6696""
","
",,139.2,run_exp/static/images/task_images/land.jpg,65,,,,,,,16,,,6,,,,,,,,205693,1,9,FALSE,,,
dig,175,564663,0.0-55.0-0.0,"""event"",""trial"",""time""
""fullscreenenter"",""1"",""6696""
","
","
","""event"",""trial"",""time""
""fullscreenenter"",""1"",""6696""
","
",,,,,,,,,,,,"[{""stimulus"":""run_exp/static/images/task_images/dig.jpg"",""time"":0.5},{""stimulus"":""run_exp/static/images/task_images/land.jpg"",""time"":955.6999999880791},{""stimulus"":""run_exp/static/images/task_images/dig.jpg"",""time"":1910.5999999642372}]",[],6,,,,,,,,,,,,,,
harvest,176,565667,0.0-55.0-1.0,"""event"",""trial"",""time""
""fullscreenenter"",""1"",""6696""
","
","
","""event"",""trial"",""time""
""fullscreenenter"",""1"",""6696""
","
",,null,run_exp/static/images/task_images/gems/16.jpg,null,,,,,,,13,,,6,,,,,16,0.831802364,0.8125,,,,,,,
decision,177,565793,0.0-55.0-2.0,"""event"",""trial"",""time""
""fullscreenenter"",""1"",""6696""
","
","
","""event"",""trial"",""time""
""fullscreenenter"",""1"",""6696""
","
",,123.8,run_exp/static/images/task_images/land.jpg,76,,,,,,,13,,,6,,,,,,,,209692,1,10,TRUE,,,
travel,178,575678,0.0-56.0-0.0,"""event"",""trial"",""time""
""fullscreenenter"",""1"",""6696""
","
","
","""event"",""trial"",""time""
""fullscreenenter"",""1"",""6696""
","
",,,,,,,,,,,,"[{""stimulus"":""run_exp/static/images/task_images/rocket-01.jpg"",""time"":0.5},{""stimulus"":""run_exp/static/images/task_images/rocket-02.jpg"",""time"":1103.3999999761581},{""stimulus"":""run_exp/static/images/task_images/rocket-03.jpg"",""time"":2196.099999964237},{""stimulus"":""run_exp/static/images/task_images/rocket-04.jpg"",""time"":3292.800000011921},{""stimulus"":""run_exp/static/images/task_images/rocket-05.jpg"",""time"":4393.5},{""stimulus"":""run_exp/static/images/task_images/rocket-06.jpg"",""time"":5489.300000011921},{""stimulus"":""run_exp/static/images/task_images/rocket-07.jpg"",""time"":6585.399999976158},{""stimulus"":""run_exp/static/images/task_images/rocket-08.jpg"",""time"":7683.899999976158},{""stimulus"":""run_exp/static/images/task_images/rocket-09.jpg"",""time"":8778.399999976158}]",[],6,,,,,,,,,,,,,,
alien_welcome,179,580682,0.0-56.0-1.0,"""event"",""trial"",""time""
""fullscreenenter"",""1"",""6696""
","
","
","""event"",""trial"",""time""
""fullscreenenter"",""1"",""6696""
","
",,null,run_exp/static/images/task_images/aliens/old_aliens/planet/alien_planet-63.jpg,null,,,,,,,,,,,,,63,"60,74,29,50,11,69,63,57,56,53,2,26,42,64,43,73,72,27,34,7,79,71,35,3,62,31,33,14,8,46,9,40,39",,,,,,,,,,
land,180,581185,0.0-56.0-2.0,"""event"",""trial"",""time""
""fullscreenenter"",""1"",""6696""
","
","
","""event"",""trial"",""time""
""fullscreenenter"",""1"",""6696""
","
",,null,run_exp/static/images/task_images/land.jpg,null,,,,,,,97,,,7,,,,,,,,,,,,,,
dig,181,583191,0.0-56.0-3.0,"""event"",""trial"",""time""
""fullscreenenter"",""1"",""6696""
","
","
","""event"",""trial"",""time""
""fullscreenenter"",""1"",""6696""
","
",,,,,,,,,,,,"[{""stimulus"":""run_exp/static/images/task_images/dig.jpg"",""time"":0.6000000238418579},{""stimulus"":""run_exp/static/images/task_images/land.jpg"",""time"":669.6999999880791},{""stimulus"":""run_exp/static/images/task_images/dig.jpg"",""time"":1336.800000011921}]",[],7,,,,,,,,,,,,,,
harvest,182,584195,0.0-56.0-4.0,"""event"",""trial"",""time""
""fullscreenenter"",""1"",""6696""
","
","
","""event"",""trial"",""time""
""fullscreenenter"",""1"",""6696""
","
",,null,run_exp/static/images/task_images/gems/97.jpg,null,,,,,,,75,,,7,,,,,97,0.775895898,0.773195876,,,,,,,
decision,183,584521,0.0-56.0-5.0,"""event"",""trial"",""time""
""fullscreenenter"",""1"",""6696""
","
","
","""event"",""trial"",""time""
""fullscreenenter"",""1"",""6696""
","
",,323.1,run_exp/static/images/task_images/land.jpg,65,,,,,,,75,,,7,,,,,,,,228420,1,0,FALSE,,,
dig,184,587207,0.0-57.0-0.0,"""event"",""trial"",""time""
""fullscreenenter"",""1"",""6696""
","
","
","""event"",""trial"",""time""
""fullscreenenter"",""1"",""6696""
","
",,,,,,,,,,,,"[{""stimulus"":""run_exp/static/images/task_images/dig.jpg"",""time"":0.5},{""stimulus"":""run_exp/static/images/task_images/land.jpg"",""time"":896},{""stimulus"":""run_exp/static/images/task_images/dig.jpg"",""time"":1786.7000000476837}]",[],7,,,,,,,,,,,,,,
harvest,185,588212,0.0-57.0-1.0,"""event"",""trial"",""time""
""fullscreenenter"",""1"",""6696""
","
","
","""event"",""trial"",""time""
""fullscreenenter"",""1"",""6696""
","
",,null,run_exp/static/images/task_images/gems/75.jpg,null,,,,,,,59,,,7,,,,,75,0.786387601,0.786666667,,,,,,,
decision,186,588424,0.0-57.0-2.0,"""event"",""trial"",""time""
""fullscreenenter"",""1"",""6696""
","
","
","""event"",""trial"",""time""
""fullscreenenter"",""1"",""6696""
","
",,209.6,run_exp/static/images/task_images/land.jpg,65,,,,,,,59,,,7,,,,,,,,232323,1,1,FALSE,,,
dig,187,591225,0.0-58.0-0.0,"""event"",""trial"",""time""
""fullscreenenter"",""1"",""6696""
","
","
","""event"",""trial"",""time""
""fullscreenenter"",""1"",""6696""
","
",,,,,,,,,,,,"[{""stimulus"":""run_exp/static/images/task_images/dig.jpg"",""time"":0.5},{""stimulus"":""run_exp/static/images/task_images/land.jpg"",""time"":932.4000000357628},{""stimulus"":""run_exp/static/images/task_images/dig.jpg"",""time"":1862.699999988079}]",[],7,,,,,,,,,,,,,,
harvest,188,592230,0.0-58.0-1.0,"""event"",""trial"",""time""
""fullscreenenter"",""1"",""6696""
","
","
","""event"",""trial"",""time""
""fullscreenenter"",""1"",""6696""
","
",,null,run_exp/static/images/task_images/gems/59.jpg,null,,,,,,,47,,,7,,,,,59,0.788661627,0.796610169,,,,,,,
decision,189,592694,0.0-58.0-2.0,"""event"",""trial"",""time""
""fullscreenenter"",""1"",""6696""
","
","
","""event"",""trial"",""time""
""fullscreenenter"",""1"",""6696""
","
",,461.4,run_exp/static/images/task_images/land.jpg,65,,,,,,,47,,,7,,,,,,,,236593,1,2,FALSE,,,
dig,190,595243,0.0-59.0-0.0,"""event"",""trial"",""time""
""fullscreenenter"",""1"",""6696""
","
","
","""event"",""trial"",""time""
""fullscreenenter"",""1"",""6696""
","
",,,,,,,,,,,,"[{""stimulus"":""run_exp/static/images/task_images/dig.jpg"",""time"":0.5},{""stimulus"":""run_exp/static/images/task_images/land.jpg"",""time"":849.6000000238419},{""stimulus"":""run_exp/static/images/task_images/dig.jpg"",""time"":1695}]",[],7,,,,,,,,,,,,,,
harvest,191,596247,0.0-59.0-1.0,"""event"",""trial"",""time""
""fullscreenenter"",""1"",""6696""
","
","
","""event"",""trial"",""time""
""fullscreenenter"",""1"",""6696""
","
",,null,run_exp/static/images/task_images/gems/47.jpg,null,,,,,,,35,,,7,,,,,47,0.736127102,0.744680851,,,,,,,
decision,192,596580,0.0-59.0-2.0,"""event"",""trial"",""time""
""fullscreenenter"",""1"",""6696""
","
","
","""event"",""trial"",""time""
""fullscreenenter"",""1"",""6696""
","
",,329.6,run_exp/static/images/task_images/land.jpg,65,,,,,,,35,,,7,,,,,,,,240479,1,3,FALSE,,,
dig,193,599264,0.0-60.0-0.0,"""event"",""trial"",""time""
""fullscreenenter"",""1"",""6696""
","
","
","""event"",""trial"",""time""
""fullscreenenter"",""1"",""6696""
","
",,,,,,,,,,,,"[{""stimulus"":""run_exp/static/images/task_images/dig.jpg"",""time"":0.5},{""stimulus"":""run_exp/static/images/task_images/land.jpg"",""time"":894.0999999642372},{""stimulus"":""run_exp/static/images/task_images/dig.jpg"",""time"":1782.3999999761581}]",[],7,,,,,,,,,,,,,,
harvest,194,600268,0.0-60.0-1.0,"""event"",""trial"",""time""
""fullscreenenter"",""1"",""6696""
","
","
","""event"",""trial"",""time""
""fullscreenenter"",""1"",""6696""
","
",,null,run_exp/static/images/task_images/gems/35.jpg,null,,,,,,,24,,,7,,,,,35,0.692002425,0.685714286,,,,,,,
decision,195,600567,0.0-60.0-2.0,"""event"",""trial"",""time""
""fullscreenenter"",""1"",""6696""
","
","
","""event"",""trial"",""time""
""fullscreenenter"",""1"",""6696""
","
",,296.6,run_exp/static/images/task_images/land.jpg,65,,,,,,,24,,,7,,,,,,,,244466,1,4,FALSE,,,
dig,196,603279,0.0-61.0-0.0,"""event"",""trial"",""time""
""fullscreenenter"",""1"",""6696""
","
","
","""event"",""trial"",""time""
""fullscreenenter"",""1"",""6696""
","
",,,,,,,,,,,,"[{""stimulus"":""run_exp/static/images/task_images/dig.jpg"",""time"":0.40000003576278687},{""stimulus"":""run_exp/static/images/task_images/land.jpg"",""time"":905.7000000476837},{""stimulus"":""run_exp/static/images/task_images/dig.jpg"",""time"":1803.800000011921}]",[],7,,,,,,,,,,,,,,
harvest,197,604282,0.0-61.0-1.0,"""event"",""trial"",""time""
""fullscreenenter"",""1"",""6696""
","
","
","""event"",""trial"",""time""
""fullscreenenter"",""1"",""6696""
","
",,null,run_exp/static/images/task_images/gems/24.jpg,null,,,,,,,21,,,7,,,,,24,0.886395401,0.875,,,,,,,
decision,198,604512,0.0-61.0-2.0,"""event"",""trial"",""time""
""fullscreenenter"",""1"",""6696""
","
","
","""event"",""trial"",""time""
""fullscreenenter"",""1"",""6696""
","
",,228.4,run_exp/static/images/task_images/land.jpg,65,,,,,,,21,,,7,,,,,,,,248412,1,5,FALSE,,,
dig,199,607294,0.0-62.0-0.0,"""event"",""trial"",""time""
""fullscreenenter"",""1"",""6696""
","
","
","""event"",""trial"",""time""
""fullscreenenter"",""1"",""6696""
","
",,,,,,,,,,,,"[{""stimulus"":""run_exp/static/images/task_images/dig.jpg"",""time"":0.5},{""stimulus"":""run_exp/static/images/task_images/land.jpg"",""time"":926.8999999761581},{""stimulus"":""run_exp/static/images/task_images/dig.jpg"",""time"":1851}]",[],7,,,,,,,,,,,,,,
harvest,200,608297,0.0-62.0-1.0,"""event"",""trial"",""time""
""fullscreenenter"",""1"",""6696""
","
","
","""event"",""trial"",""time""
""fullscreenenter"",""1"",""6696""
","
",,null,run_exp/static/images/task_images/gems/21.jpg,null,,,,,,,17,,,7,,,,,21,0.822570239,0.80952381,,,,,,,
decision,201,608726,0.0-62.0-2.0,"""event"",""trial"",""time""
""fullscreenenter"",""1"",""6696""
","
","
","""event"",""trial"",""time""
""fullscreenenter"",""1"",""6696""
","
",,426.3,run_exp/static/images/task_images/land.jpg,65,,,,,,,17,,,7,,,,,,,,252625,1,6,FALSE,,,
dig,202,611308,0.0-63.0-0.0,"""event"",""trial"",""time""
""fullscreenenter"",""1"",""6696""
","
","
","""event"",""trial"",""time""
""fullscreenenter"",""1"",""6696""
","
",,,,,,,,,,,,"[{""stimulus"":""run_exp/static/images/task_images/dig.jpg"",""time"":0.5},{""stimulus"":""run_exp/static/images/task_images/land.jpg"",""time"":859.9000000357628},{""stimulus"":""run_exp/static/images/task_images/dig.jpg"",""time"":1717.800000011921}]",[],7,,,,,,,,,,,,,,
harvest,203,612311,0.0-63.0-1.0,"""event"",""trial"",""time""
""fullscreenenter"",""1"",""6696""
","
","
","""event"",""trial"",""time""
""fullscreenenter"",""1"",""6696""
","
",,null,run_exp/static/images/task_images/gems/17.jpg,null,,,,,,,15,,,7,,,,,17,0.882702768,0.882352941,,,,,,,
decision,204,612535,0.0-63.0-2.0,"""event"",""trial"",""time""
""fullscreenenter"",""1"",""6696""
","
","
","""event"",""trial"",""time""
""fullscreenenter"",""1"",""6696""
","
",,220.8,run_exp/static/images/task_images/land.jpg,65,,,,,,,15,,,7,,,,,,,,256434,1,7,FALSE,,,
dig,205,615324,0.0-64.0-0.0,"""event"",""trial"",""time""
""fullscreenenter"",""1"",""6696""
","
","
","""event"",""trial"",""time""
""fullscreenenter"",""1"",""6696""
","
",,,,,,,,,,,,"[{""stimulus"":""run_exp/static/images/task_images/dig.jpg"",""time"":0.5},{""stimulus"":""run_exp/static/images/task_images/land.jpg"",""time"":929.2000000476837},{""stimulus"":""run_exp/static/images/task_images/dig.jpg"",""time"":1855.7000000476837}]",[],7,,,,,,,,,,,,,,
harvest,206,616328,0.0-64.0-1.0,"""event"",""trial"",""time""
""fullscreenenter"",""1"",""6696""
","
","
","""event"",""trial"",""time""
""fullscreenenter"",""1"",""6696""
","
",,null,run_exp/static/images/task_images/gems/15.jpg,null,,,,,,,12,,,7,,,,,15,0.787785514,0.8,,,,,,,
decision,207,616740,0.0-64.0-2.0,"""event"",""trial"",""time""
""fullscreenenter"",""1"",""6696""
","
","
","""event"",""trial"",""time""
""fullscreenenter"",""1"",""6696""
","
",,409.6,run_exp/static/images/task_images/land.jpg,76,,,,,,,12,,,7,,,,,,,,260639,1,8,TRUE,,,
travel,208,626336,0.0-65.0-0.0,"""event"",""trial"",""time""
""fullscreenenter"",""1"",""6696""
","
","
","""event"",""trial"",""time""
""fullscreenenter"",""1"",""6696""
","
",,,,,,,,,,,,"[{""stimulus"":""run_exp/static/images/task_images/rocket-01.jpg"",""time"":0.5},{""stimulus"":""run_exp/static/images/task_images/rocket-02.jpg"",""time"":1069.7000000476837},{""stimulus"":""run_exp/static/images/task_images/rocket-03.jpg"",""time"":2133.600000023842},{""stimulus"":""run_exp/static/images/task_images/rocket-04.jpg"",""time"":3197.600000023842},{""stimulus"":""run_exp/static/images/task_images/rocket-05.jpg"",""time"":4262.800000011921},{""stimulus"":""run_exp/static/images/task_images/rocket-06.jpg"",""time"":5328.700000047684},{""stimulus"":""run_exp/static/images/task_images/rocket-07.jpg"",""time"":6396.700000047684},{""stimulus"":""run_exp/static/images/task_images/rocket-08.jpg"",""time"":7459.600000023842},{""stimulus"":""run_exp/static/images/task_images/rocket-09.jpg"",""time"":8524.100000023842}]",[],7,,,,,,,,,,,,,,
alien_welcome,209,631341,0.0-65.0-1.0,"""event"",""trial"",""time""
""fullscreenenter"",""1"",""6696""
","
","
","""event"",""trial"",""time""
""fullscreenenter"",""1"",""6696""
","
",,null,run_exp/static/images/task_images/aliens/old_aliens/planet/alien_planet-57.jpg,null,,,,,,,,,,,,,57,"60,74,29,50,11,69,63,57,56,53,2,26,42,64,43,73,72,27,34,7,79,71,35,3,62,31,33,14,8,46,9,40,39",,,,,,,,,,
land,210,631847,0.0-65.0-2.0,"""event"",""trial"",""time""
""fullscreenenter"",""1"",""6696""
","
","
","""event"",""trial"",""time""
""fullscreenenter"",""1"",""6696""
","
",,null,run_exp/static/images/task_images/land.jpg,null,,,,,,,92,,,8,,,,,,,,,,,,,,
dig,211,633854,0.0-65.0-3.0,"""event"",""trial"",""time""
""fullscreenenter"",""1"",""6696""
","
","
","""event"",""trial"",""time""
""fullscreenenter"",""1"",""6696""
","
",,,,,,,,,,,,"[{""stimulus"":""run_exp/static/images/task_images/dig.jpg"",""time"":0.6000000238418579},{""stimulus"":""run_exp/static/images/task_images/land.jpg"",""time"":670.6000000238419},{""stimulus"":""run_exp/static/images/task_images/dig.jpg"",""time"":1336.699999988079}]",[],8,,,,,,,,,,,,,,
harvest,212,634858,0.0-65.0-4.0,"""event"",""trial"",""time""
""fullscreenenter"",""1"",""6696""
","
","
","""event"",""trial"",""time""
""fullscreenenter"",""1"",""6696""
","
",,null,run_exp/static/images/task_images/gems/92.jpg,null,,,,,,,76,,,8,,,,,92,0.828994509,0.826086957,,,,,,,
decision,213,634974,0.0-65.0-5.0,"""event"",""trial"",""time""
""fullscreenenter"",""1"",""6696""
","
","
","""event"",""trial"",""time""
""fullscreenenter"",""1"",""6696""
","
",,113.2,run_exp/static/images/task_images/land.jpg,65,,,,,,,76,,,8,,,,,,,,278873,1,0,FALSE,,,
dig,214,637871,0.0-66.0-0.0,"""event"",""trial"",""time""
""fullscreenenter"",""1"",""6696""
","
","
","""event"",""trial"",""time""
""fullscreenenter"",""1"",""6696""
","
",,,,,,,,,,,,"[{""stimulus"":""run_exp/static/images/task_images/dig.jpg"",""time"":0.3999999761581421},{""stimulus"":""run_exp/static/images/task_images/land.jpg"",""time"":966.0999999642372},{""stimulus"":""run_exp/static/images/task_images/dig.jpg"",""time"":1929.199999988079}]",[],8,,,,,,,,,,,,,,
harvest,215,638874,0.0-66.0-1.0,"""event"",""trial"",""time""
""fullscreenenter"",""1"",""6696""
","
","
","""event"",""trial"",""time""
""fullscreenenter"",""1"",""6696""
","
",,null,run_exp/static/images/task_images/gems/76.jpg,null,,,,,,,65,,,8,,,,,76,0.861645535,0.855263158,,,,,,,
decision,216,639128,0.0-66.0-2.0,"""event"",""trial"",""time""
""fullscreenenter"",""1"",""6696""
","
","
","""event"",""trial"",""time""
""fullscreenenter"",""1"",""6696""
","
",,251.4,run_exp/static/images/task_images/land.jpg,65,,,,,,,65,,,8,,,,,,,,283027,1,1,FALSE,,,
dig,217,641890,0.0-67.0-0.0,"""event"",""trial"",""time""
""fullscreenenter"",""1"",""6696""
","
","
","""event"",""trial"",""time""
""fullscreenenter"",""1"",""6696""
","
",,,,,,,,,,,,"[{""stimulus"":""run_exp/static/images/task_images/dig.jpg"",""time"":0.5},{""stimulus"":""run_exp/static/images/task_images/land.jpg"",""time"":919.1999999880791},{""stimulus"":""run_exp/static/images/task_images/dig.jpg"",""time"":1836}]",[],8,,,,,,,,,,,,,,
harvest,218,642893,0.0-67.0-1.0,"""event"",""trial"",""time""
""fullscreenenter"",""1"",""6696""
","
","
","""event"",""trial"",""time""
""fullscreenenter"",""1"",""6696""
","
",,null,run_exp/static/images/task_images/gems/65.jpg,null,,,,,,,55,,,8,,,,,65,0.841001648,0.846153846,,,,,,,
decision,219,643228,0.0-67.0-2.0,"""event"",""trial"",""time""
""fullscreenenter"",""1"",""6696""
","
","
","""event"",""trial"",""time""
""fullscreenenter"",""1"",""6696""
","
",,333,run_exp/static/images/task_images/land.jpg,65,,,,,,,55,,,8,,,,,,,,287127,1,2,FALSE,,,
dig,220,645907,0.0-68.0-0.0,"""event"",""trial"",""time""
""fullscreenenter"",""1"",""6696""
","
","
","""event"",""trial"",""time""
""fullscreenenter"",""1"",""6696""
","
",,,,,,,,,,,,"[{""stimulus"":""run_exp/static/images/task_images/dig.jpg"",""time"":0.3999999761581421},{""stimulus"":""run_exp/static/images/task_images/land.jpg"",""time"":891.3000000119209},{""stimulus"":""run_exp/static/images/task_images/dig.jpg"",""time"":1780.199999988079}]",[],8,,,,,,,,,,,,,,
harvest,221,646911,0.0-68.0-1.0,"""event"",""trial"",""time""
""fullscreenenter"",""1"",""6696""
","
","
","""event"",""trial"",""time""
""fullscreenenter"",""1"",""6696""
","
",,null,run_exp/static/images/task_images/gems/55.jpg,null,,,,,,,41,,,8,,,,,55,0.740693067,0.745454545,,,,,,,
decision,222,647402,0.0-68.0-2.0,"""event"",""trial"",""time""
""fullscreenenter"",""1"",""6696""
","
","
","""event"",""trial"",""time""
""fullscreenenter"",""1"",""6696""
","
",,488,run_exp/static/images/task_images/land.jpg,65,,,,,,,41,,,8,,,,,,,,291301,1,3,FALSE,,,
dig,223,649924,0.0-69.0-0.0,"""event"",""trial"",""time""
""fullscreenenter"",""1"",""6696""
","
","
","""event"",""trial"",""time""
""fullscreenenter"",""1"",""6696""
","
",,,,,,,,,,,,"[{""stimulus"":""run_exp/static/images/task_images/dig.jpg"",""time"":0.3999999761581421},{""stimulus"":""run_exp/static/images/task_images/land.jpg"",""time"":842},{""stimulus"":""run_exp/static/images/task_images/dig.jpg"",""time"":1677.300000011921}]",[],8,,,,,,,,,,,,,,
harvest,224,650927,0.0-69.0-1.0,"""event"",""trial"",""time""
""fullscreenenter"",""1"",""6696""
","
","
","""event"",""trial"",""time""
""fullscreenenter"",""1"",""6696""
","
",,null,run_exp/static/images/task_images/gems/41.jpg,null,,,,,,,32,,,8,,,,,41,0.780819642,0.780487805,,,,,,,
decision,225,650967,0.0-69.0-2.0,"""event"",""trial"",""time""
""fullscreenenter"",""1"",""6696""
","
","
","""event"",""trial"",""time""
""fullscreenenter"",""1"",""6696""
","
",,37.69999999,run_exp/static/images/task_images/land.jpg,65,,,,,,,32,,,8,,,,,,,,294866,1,4,FALSE,,,
dig,226,653941,0.0-70.0-0.0,"""event"",""trial"",""time""
""fullscreenenter"",""1"",""6696""
","
","
","""event"",""trial"",""time""
""fullscreenenter"",""1"",""6696""
","
",,,,,,,,,,,,"[{""stimulus"":""run_exp/static/images/task_images/dig.jpg"",""time"":0.6000000238418579},{""stimulus"":""run_exp/static/images/task_images/land.jpg"",""time"":992.1999999880791},{""stimulus"":""run_exp/static/images/task_images/dig.jpg"",""time"":1978.8999999761581}]",[],8,,,,,,,,,,,,,,
harvest,227,654945,0.0-70.0-1.0,"""event"",""trial"",""time""
""fullscreenenter"",""1"",""6696""
","
","
","""event"",""trial"",""time""
""fullscreenenter"",""1"",""6696""
","
",,null,run_exp/static/images/task_images/gems/32.jpg,null,,,,,,,23,,,8,,,,,32,0.73047655,0.71875,,,,,,,
decision,228,655259,0.0-70.0-2.0,"""event"",""trial"",""time""
""fullscreenenter"",""1"",""6696""
","
","
","""event"",""trial"",""time""
""fullscreenenter"",""1"",""6696""
","
",,311.7,run_exp/static/images/task_images/land.jpg,65,,,,,,,23,,,8,,,,,,,,299159,1,5,FALSE,,,
dig,229,657958,0.0-71.0-0.0,"""event"",""trial"",""time""
""fullscreenenter"",""1"",""6696""
","
","
","""event"",""trial"",""time""
""fullscreenenter"",""1"",""6696""
","
",,,,,,,,,,,,"[{""stimulus"":""run_exp/static/images/task_images/dig.jpg"",""time"":0.6000000238418579},{""stimulus"":""run_exp/static/images/task_images/land.jpg"",""time"":898.7000000476837},{""stimulus"":""run_exp/static/images/task_images/dig.jpg"",""time"":1795.9000000357628}]",[],8,,,,,,,,,,,,,,
harvest,230,658961,0.0-71.0-1.0,"""event"",""trial"",""time""
""fullscreenenter"",""1"",""6696""
","
","
","""event"",""trial"",""time""
""fullscreenenter"",""1"",""6696""
","
",,null,run_exp/static/images/task_images/gems/23.jpg,null,,,,,,,19,,,8,,,,,23,0.831083614,0.826086957,,,,,,,
decision,231,659082,0.0-71.0-2.0,"""event"",""trial"",""time""
""fullscreenenter"",""1"",""6696""
","
","
","""event"",""trial"",""time""
""fullscreenenter"",""1"",""6696""
","
",,117.8,run_exp/static/images/task_images/land.jpg,65,,,,,,,19,,,8,,,,,,,,302981,1,6,TRUE,,,
end_of_block_continue,232,667941,0.0-72.0-0.0,"""event"",""trial"",""time""
""fullscreenenter"",""1"",""6696""
","
","
","""event"",""trial"",""time""
""fullscreenenter"",""1"",""6696""
","
",,null,run_exp/static/audio/clip_32_block_end.m4a,,,,,,,null,,,,,,,,,,,,,,,,,,
alien_welcome,233,672956,0.0-73.0-0.0,"""event"",""trial"",""time""
""fullscreenenter"",""1"",""6696""
","
","
","""event"",""trial"",""time""
""fullscreenenter"",""1"",""6696""
","
",,null,run_exp/static/images/task_images/aliens/old_aliens/planet/alien_planet-56.jpg,null,,,,,,,,,,,,,56,"60,74,29,50,11,69,63,57,56,53,2,26,42,64,43,73,72,27,34,7,79,71,35,3,62,31,33,14,8,46,9,40,39",,,,,,,,,,
land,234,673461,0.0-73.0-1.0,"""event"",""trial"",""time""
""fullscreenenter"",""1"",""6696""
","
","
","""event"",""trial"",""time""
""fullscreenenter"",""1"",""6696""
","
",,null,run_exp/static/images/task_images/land.jpg,null,,,,,,,104,,,9,,,,,,,,,,,,,,
dig,235,675467,0.0-73.0-2.0,"""event"",""trial"",""time""
""fullscreenenter"",""1"",""6696""
","
","
","""event"",""trial"",""time""
""fullscreenenter"",""1"",""6696""
","
",,,,,,,,,,,,"[{""stimulus"":""run_exp/static/images/task_images/dig.jpg"",""time"":0.5999999642372131},{""stimulus"":""run_exp/static/images/task_images/land.jpg"",""time"":670},{""stimulus"":""run_exp/static/images/task_images/dig.jpg"",""time"":1336.699999988079}]",[],9,,,,,,,,,,,,,,
harvest,236,676471,0.0-73.0-3.0,"""event"",""trial"",""time""
""fullscreenenter"",""1"",""6696""
","
","
","""event"",""trial"",""time""
""fullscreenenter"",""1"",""6696""
","
",,null,run_exp/static/images/task_images/gems/104.jpg,null,,,,,,,16,,,9,,,,,104,0.157888184,0.153846154,,,,,,,
decision,237,676694,0.0-73.0-4.0,"""event"",""trial"",""time""
""fullscreenenter"",""1"",""6696""
","
","
","""event"",""trial"",""time""
""fullscreenenter"",""1"",""6696""
","
",,220,run_exp/static/images/task_images/land.jpg,65,,,,,,,16,,,9,,,,,,,,8741,2,0,FALSE,,,
dig,238,679484,0.0-74.0-0.0,"""event"",""trial"",""time""
""fullscreenenter"",""1"",""6696""
","
","
","""event"",""trial"",""time""
""fullscreenenter"",""1"",""6696""
","
",,,,,,,,,,,,"[{""stimulus"":""run_exp/static/images/task_images/dig.jpg"",""time"":0.40000003576278687},{""stimulus"":""run_exp/static/images/task_images/land.jpg"",""time"":928.7000000476837},{""stimulus"":""run_exp/static/images/task_images/dig.jpg"",""time"":1855.1000000238419}]",[],9,,,,,,,,,,,,,,
harvest,239,680487,0.0-74.0-1.0,"""event"",""trial"",""time""
""fullscreenenter"",""1"",""6696""
","
","
","""event"",""trial"",""time""
""fullscreenenter"",""1"",""6696""
","
",,null,run_exp/static/images/task_images/gems/16.jpg,null,,,,,,,4,,,9,,,,,16,0.269512939,0.25,,,,,,,
decision,240,680694,0.0-74.0-2.0,"""event"",""trial"",""time""
""fullscreenenter"",""1"",""6696""
","
","
","""event"",""trial"",""time""
""fullscreenenter"",""1"",""6696""
","
",,203.7,run_exp/static/images/task_images/land.jpg,65,,,,,,,4,,,9,,,,,,,,12741,2,1,FALSE,,,
dig,241,683503,0.0-75.0-0.0,"""event"",""trial"",""time""
""fullscreenenter"",""1"",""6696""
","
","
","""event"",""trial"",""time""
""fullscreenenter"",""1"",""6696""
","
",,,,,,,,,,,,"[{""stimulus"":""run_exp/static/images/task_images/dig.jpg"",""time"":0.3999999761581421},{""stimulus"":""run_exp/static/images/task_images/land.jpg"",""time"":934},{""stimulus"":""run_exp/static/images/task_images/dig.jpg"",""time"":1868.2999999523163}]",[],9,,,,,,,,,,,,,,
harvest,242,684508,0.0-75.0-1.0,"""event"",""trial"",""time""
""fullscreenenter"",""1"",""6696""
","
","
","""event"",""trial"",""time""
""fullscreenenter"",""1"",""6696""
","
",,null,run_exp/static/images/task_images/gems/4.jpg,null,,,,,,,1,,,9,,,,,4,0.207008285,0.25,,,,,,,
decision,243,684536,0.0-75.0-2.0,"""event"",""trial"",""time""
""fullscreenenter"",""1"",""6696""
","
","
","""event"",""trial"",""time""
""fullscreenenter"",""1"",""6696""
","
",,25.10000002,run_exp/static/images/task_images/land.jpg,76,,,,,,,1,,,9,,,,,,,,16583,2,2,TRUE,,,
travel,244,694521,0.0-76.0-0.0,"""event"",""trial"",""time""
""fullscreenenter"",""1"",""6696""
","
","
","""event"",""trial"",""time""
""fullscreenenter"",""1"",""6696""
","
",,,,,,,,,,,,"[{""stimulus"":""run_exp/static/images/task_images/rocket-01.jpg"",""time"":0.3999999761581421},{""stimulus"":""run_exp/static/images/task_images/rocket-02.jpg"",""time"":1112.199999988079},{""stimulus"":""run_exp/static/images/task_images/rocket-03.jpg"",""time"":2219.5},{""stimulus"":""run_exp/static/images/task_images/rocket-04.jpg"",""time"":3328.600000023842},{""stimulus"":""run_exp/static/images/task_images/rocket-05.jpg"",""time"":4434},{""stimulus"":""run_exp/static/images/task_images/rocket-06.jpg"",""time"":5543},{""stimulus"":""run_exp/static/images/task_images/rocket-07.jpg"",""time"":6651.300000011921},{""stimulus"":""run_exp/static/images/task_images/rocket-08.jpg"",""time"":7759.100000023842},{""stimulus"":""run_exp/static/images/task_images/rocket-09.jpg"",""time"":8866.399999976158}]",[],9,,,,,,,,,,,,,,
alien_welcome,245,699527,0.0-76.0-1.0,"""event"",""trial"",""time""
""fullscreenenter"",""1"",""6696""
","
","
","""event"",""trial"",""time""
""fullscreenenter"",""1"",""6696""
","
",,null,run_exp/static/images/task_images/aliens/old_aliens/planet/alien_planet-53.jpg,null,,,,,,,,,,,,,53,"60,74,29,50,11,69,63,57,56,53,2,26,42,64,43,73,72,27,34,7,79,71,35,3,62,31,33,14,8,46,9,40,39",,,,,,,,,,
land,246,700032,0.0-76.0-2.0,"""event"",""trial"",""time""
""fullscreenenter"",""1"",""6696""
","
","
","""event"",""trial"",""time""
""fullscreenenter"",""1"",""6696""
","
",,null,run_exp/static/images/task_images/land.jpg,null,,,,,,,98,,,10,,,,,,,,,,,,,,
dig,247,702037,0.0-76.0-3.0,"""event"",""trial"",""time""
""fullscreenenter"",""1"",""6696""
","
","
","""event"",""trial"",""time""
""fullscreenenter"",""1"",""6696""
","
",,,,,,,,,,,,"[{""stimulus"":""run_exp/static/images/task_images/dig.jpg"",""time"":0.19999998807907104},{""stimulus"":""run_exp/static/images/task_images/land.jpg"",""time"":669.4000000357628},{""stimulus"":""run_exp/static/images/task_images/dig.jpg"",""time"":1337.199999988079}]",[],10,,,,,,,,,,,,,,
harvest,248,703041,0.0-76.0-4.0,"""event"",""trial"",""time""
""fullscreenenter"",""1"",""6696""
","
","
","""event"",""trial"",""time""
""fullscreenenter"",""1"",""6696""
","
",,null,run_exp/static/images/task_images/gems/98.jpg,null,,,,,,,20,,,10,,,,,98,0.204240463,0.204081633,,,,,,,
decision,249,703300,0.0-76.0-5.0,"""event"",""trial"",""time""
""fullscreenenter"",""1"",""6696""
","
","
","""event"",""trial"",""time""
""fullscreenenter"",""1"",""6696""
","
",,256.2,run_exp/static/images/task_images/land.jpg,65,,,,,,,20,,,10,,,,,,,,35347,2,0,FALSE,,,
dig,250,706053,0.0-77.0-0.0,"""event"",""trial"",""time""
""fullscreenenter"",""1"",""6696""
","
","
","""event"",""trial"",""time""
""fullscreenenter"",""1"",""6696""
","
",,,,,,,,,,,,"[{""stimulus"":""run_exp/static/images/task_images/dig.jpg"",""time"":0.5},{""stimulus"":""run_exp/static/images/task_images/land.jpg"",""time"":916.1999999880791},{""stimulus"":""run_exp/static/images/task_images/dig.jpg"",""time"":1832.199999988079}]",[],10,,,,,,,,,,,,,,
harvest,251,707056,0.0-77.0-1.0,"""event"",""trial"",""time""
""fullscreenenter"",""1"",""6696""
","
","
","""event"",""trial"",""time""
""fullscreenenter"",""1"",""6696""
","
