trial_type,trial_index,time_elapsed,internal_node_id,interactions,blur_events,focus_events,fullscreenenter_events,fullscreenexit_events,success,rt,stimulus,key_press,prompt,subject_id,participant_id,age,gender,button_pressed,next_reward,animation_sequence,responses,planet,curr_prac_trial,n_prac_rounds,alien,aliens,reward_received,decay_rate_actual,decay_rate_exp,time_in_block,block_num,prt,last_trial_on_planet,button_html,bonus,num_failures
pavlovia,0,3,0.0-0.0,"""event"",""trial"",""time""
""fullscreenenter"",""1"",""50831""
","
","
","""event"",""trial"",""time""
""fullscreenenter"",""1"",""50831""
","
",,,,,,,,,,,,,,,,,,,,,,,,,,,,
fullscreen,1,51826,0.0-1.0,"""event"",""trial"",""time""
""fullscreenenter"",""1"",""50831""
","
","
","""event"",""trial"",""time""
""fullscreenenter"",""1"",""50831""
","
",TRUE,,,,,,,,,,,,,,,,,,,,,,,,,,,
instruc_welcome,2,61778,0.0-2.0,"""event"",""trial"",""time""
""fullscreenenter"",""1"",""50831""
","
","
","""event"",""trial"",""time""
""fullscreenenter"",""1"",""50831""
","
",,null,run_exp/static/audio/clip_1_welcome.m4a,null,"<p>Howdy! In this experiment, you’ll be an explorer traveling through space to collect space treasure.</p><p>Your mission is to collect as much treasure as possible.</p><br><br><p><img src='run_exp/static/images/task_images/opening_img-01.jpg' height='300' width='auto'></p>",7833,439,25.23,Male,,,,,,,,,,,,,,,,,,,
audio-keyboard-response,3,78353,0.0-3.0,"""event"",""trial"",""time""
""fullscreenenter"",""1"",""50831""
","
","
","""event"",""trial"",""time""
""fullscreenenter"",""1"",""50831""
","
",,null,run_exp/static/audio/clip_2_move.m4a,null,,,,,,,,,,,,,,,,,,,,,,,,
welcome_dec,4,87138,0.0-4.0,"""event"",""trial"",""time""
""fullscreenenter"",""1"",""50831""
","
","
","""event"",""trial"",""time""
""fullscreenenter"",""1"",""50831""
","
",,8782,"<p>Howdy! In this experiment, you’ll be an explorer traveling through space to collect space treasure.</p><p>Your mission is to collect as much treasure as possible.</p><br><br><p><img src='run_exp/static/images/task_images/opening_img-01.jpg' height='300' width='auto'></p>",,,,,,,0,,,,,,,,,,,,,,,,,,
html-keyboard-response,5,91011,0.0-5.0,"""event"",""trial"",""time""
""fullscreenenter"",""1"",""50831""
","
","
","""event"",""trial"",""time""
""fullscreenenter"",""1"",""50831""
","
",,3870.5,"<p>Howdy! In this experiment, you’ll be an explorer traveling through space to collect space treasure.</p><p>Your mission is to collect as much treasure as possible.</p><br><br><p><img src='run_exp/static/images/task_images/opening_img-01.jpg' height='300' width='auto'></p><button class=""jspsych-html-btn-chosen""><img src=""run_exp/static/images/task_images/planet-01.jpg"" height=""50""></button><button class=""jspsych-html-btn-unchosen""><img src=""run_exp/static/images/task_images/planet-02.jpg"" height=""50""></button><p><b>[press the space bar to lock in your answer]<b><br></p>",32,,,,,,,,,,,,,,,,,,,,,,,,
instruc_welcome,6,100948,0.0-6.0-0.0,"""event"",""trial"",""time""
""fullscreenenter"",""1"",""50831""
","
","
","""event"",""trial"",""time""
""fullscreenenter"",""1"",""50831""
","
",,null,run_exp/static/audio/clip_1_welcome.m4a,null,"<p>Howdy! In this experiment, you’ll be an explorer traveling through space to collect space treasure.</p><p>Your mission is to collect as much treasure as possible.</p><br><br><p><img src='run_exp/static/images/task_images/opening_img-01.jpg' height='300' width='auto'></p>",7833,439,25,Male,,,,,,,,,,,,,,,,,,,
audio-keyboard-response,7,117524,0.0-6.0-1.0,"""event"",""trial"",""time""
""fullscreenenter"",""1"",""50831""
","
","
","""event"",""trial"",""time""
""fullscreenenter"",""1"",""50831""
","
",,null,run_exp/static/audio/clip_2_move.m4a,null,,,,,,,,,,,,,,,,,,,,,,,,
welcome_dec,8,136375,0.0-6.0-2.0,"""event"",""trial"",""time""
""fullscreenenter"",""1"",""50831""
","
","
","""event"",""trial"",""time""
""fullscreenenter"",""1"",""50831""
","
",,18848.9,"<p>Howdy! In this experiment, you’ll be an explorer traveling through space to collect space treasure.</p><p>Your mission is to collect as much treasure as possible.</p><br><br><p><img src='run_exp/static/images/task_images/opening_img-01.jpg' height='300' width='auto'></p>",,,,,,,1,,,,,,,,,,,,,,,,,,
html-keyboard-response,9,138094,0.0-6.0-3.0,"""event"",""trial"",""time""
""fullscreenenter"",""1"",""50831""
","
","
","""event"",""trial"",""time""
""fullscreenenter"",""1"",""50831""
","
",,1715.9,"<p>Howdy! In this experiment, you’ll be an explorer traveling through space to collect space treasure.</p><p>Your mission is to collect as much treasure as possible.</p><br><br><p><img src='run_exp/static/images/task_images/opening_img-01.jpg' height='300' width='auto'></p><button class=""jspsych-html-btn-unchosen""><img src=""run_exp/static/images/task_images/planet-01.jpg"" height=""50""></button><button class=""jspsych-html-btn-chosen""><img src=""run_exp/static/images/task_images/planet-02.jpg"" height=""50""></button><p><b>[press the space bar to lock in your answer]<b><br></p>",32,,,,,,,,,,,,,,,,,,,,,,,,
instruc_goal,10,148371,0.0-7.0-0.0,"""event"",""trial"",""time""
""fullscreenenter"",""1"",""50831""
","
","
","""event"",""trial"",""time""
""fullscreenenter"",""1"",""50831""
","
",,null,run_exp/static/audio/clip_3_goal.m4a,null,"<p> As a space explorer, you’ll visit different planets to dig for space treasure, these pink gems.</p> <p> The more treasure you dig up, the more bonus money you’ll win! </p><br><br><p><img src='run_exp/static/images/task_images/pink_gem.jpg' height='300' width='auto'></p>",,,,,,,,,,,,,,,,,,,,,,,
instruc_goal,11,150759,0.0-7.0-1.0,"""event"",""trial"",""time""
""fullscreenenter"",""1"",""50831""
","
","
","""event"",""trial"",""time""
""fullscreenenter"",""1"",""50831""
","
",,2384.9,"<p> As a space explorer, you’ll visit different planets to dig for space treasure, these pink gems.</p> <p> The more treasure you dig up, the more bonus money you’ll win! </p><br><br><p><img src='run_exp/static/images/task_images/pink_gem.jpg' height='300' width='auto'></p>",,,,,,,1,,,,,,,,,,,,,,,,,,
html-keyboard-response,12,151262,0.0-7.0-2.0,"""event"",""trial"",""time""
""fullscreenenter"",""1"",""50831""
","
","
","""event"",""trial"",""time""
""fullscreenenter"",""1"",""50831""
","
",,502,"<p> As a space explorer, you’ll visit different planets to dig for space treasure, these pink gems.</p> <p> The more treasure you dig up, the more bonus money you’ll win! </p><br><br><p><img src='run_exp/static/images/task_images/pink_gem.jpg' height='300' width='auto'></p><button class=""jspsych-html-btn-unchosen""><img src=""run_exp/static/images/task_images/planet-01.jpg"" height=""50""></button><button class=""jspsych-html-btn-chosen""><img src=""run_exp/static/images/task_images/planet-02.jpg"" height=""50""></button><p><b>[press the space bar to lock in your answer]<b><br></p>",32,,,,,,,,,,,,,,,,,,,,,,,,
instruc_dig,13,167251,0.0-8.0-0.0,"""event"",""trial"",""time""
""fullscreenenter"",""1"",""50831""
","
","
","""event"",""trial"",""time""
""fullscreenenter"",""1"",""50831""
","
",,null,run_exp/static/audio/clip_4_dig.m4a,null,,,,,,,100,,,,,,,,,,,,,,,,,
instruc_dig_try,14,168537,0.0-8.0-1.0,"""event"",""trial"",""time""
""fullscreenenter"",""1"",""50831""
","
","
","""event"",""trial"",""time""
""fullscreenenter"",""1"",""50831""
","
",,1283.8,"<p> When you’ve arrived at a new planet, you will dig once. </p> <p>Then, you get to decide if you want to stay on the planet and dig again or travel to a new planet and dig there.</p> <p> To stay and dig, press the letter <strong>‘A’</strong> on your keyboard. Try pressing it now! </p><p><img src='run_exp/static/images/task_images/land.jpg'  height='700' width='auto'></p>",65,"<p> When you’ve arrived at a new planet, you will dig once. </p> <p>Then, you get to decide if you want to stay on the planet and dig again or travel to a new planet and dig there.</p> <p> To stay and dig, press the letter <strong>‘A’</strong> on your keyboard. Try pressing it now! </p><p><img src='run_exp/static/images/task_images/land.jpg'  height='700' width='auto'></p>",,,,,,100,,,,,,,,,,,,,,,,,
dig_prac,15,170552,0.0-8.0-2.0,"""event"",""trial"",""time""
""fullscreenenter"",""1"",""50831""
","
","
","""event"",""trial"",""time""
""fullscreenenter"",""1"",""50831""
","
",,,,,,,,,,,,"[{""stimulus"":""run_exp/static/images/task_images/dig.jpg"",""time"":0.4000000059604645},{""stimulus"":""run_exp/static/images/task_images/land.jpg"",""time"":670.7000000178814},{""stimulus"":""run_exp/static/images/task_images/dig.jpg"",""time"":1338.5}]",[],,,,,,,,,,,,,,,
instruc_travel,16,206783,0.0-8.0-3.0,"""event"",""trial"",""time""
""fullscreenenter"",""1"",""50831""
","
","
","""event"",""trial"",""time""
""fullscreenenter"",""1"",""50831""
","
",,null,run_exp/static/audio/clip_5_travel.m4a,null,"<p>Every time you dig up gems, there are less gems on the planet, so the more you dig on a planet the fewer gems you’ll get with each dig.</p><p>When gems are running low, you may want to travel to a new planet. </p> <p>  Planets are very far apart in this galaxy, so it will take some time to travel between them. </p> <br><p>There are lots and lots of planets for you to visit, so you won’t be able to return to any planets you’ve seen before. </p><br><p>To leave this planet and travel to a new one, press the letter <strong>‘L’</strong> on your keyboard. Try pressing it now! </p><p><img src='run_exp/static/images/task_images/rocket-01.jpg'  height='600' width='auto'></p>",,,,,,,,,,,,,,,,,,,,,,,
instruc_travel_try,17,206966,0.0-8.0-4.0,"""event"",""trial"",""time""
""fullscreenenter"",""1"",""50831""
","
","
","""event"",""trial"",""time""
""fullscreenenter"",""1"",""50831""
","
",,180.9,"<p>Every time you dig up gems, there are less gems on the planet, so the more you dig on a planet the fewer gems you’ll get with each dig.</p><p>When gems are running low, you may want to travel to a new planet. </p> <p>  Planets are very far apart in this galaxy, so it will take some time to travel between them. </p> <br><p>There are lots and lots of planets for you to visit, so you won’t be able to return to any planets you’ve seen before. </p><br><p>To leave this planet and travel to a new one, press the letter <strong>‘L’</strong> on your keyboard. Try pressing it now! </p><p><img src='run_exp/static/images/task_images/rocket-01.jpg'  height='600' width='auto'></p>",76,"<p>Every time you dig up gems, there are less gems on the planet, so the more you dig on a planet the fewer gems you’ll get with each dig.</p><p>When gems are running low, you may want to travel to a new planet. </p> <p>  Planets are very far apart in this galaxy, so it will take some time to travel between them. </p> <br><p>There are lots and lots of planets for you to visit, so you won’t be able to return to any planets you’ve seen before. </p><br><p>To leave this planet and travel to a new one, press the letter <strong>‘L’</strong> on your keyboard. Try pressing it now! </p><p><img src='run_exp/static/images/task_images/rocket-01.jpg'  height='600' width='auto'></p>",,,,,,,,,,,,,,,,,,,,,,,
travel_prac,18,216977,0.0-8.0-5.0,"""event"",""trial"",""time""
""fullscreenenter"",""1"",""50831""
","
","
","""event"",""trial"",""time""
""fullscreenenter"",""1"",""50831""
","
",,,,,,,,,,,,"[{""stimulus"":""run_exp/static/images/task_images/rocket-01.jpg"",""time"":0.29999998211860657},{""stimulus"":""run_exp/static/images/task_images/rocket-02.jpg"",""time"":1121.5999999940395},{""stimulus"":""run_exp/static/images/task_images/rocket-03.jpg"",""time"":2223.5},{""stimulus"":""run_exp/static/images/task_images/rocket-04.jpg"",""time"":3335.399999976158},{""stimulus"":""run_exp/static/images/task_images/rocket-05.jpg"",""time"":4449.5},{""stimulus"":""run_exp/static/images/task_images/rocket-06.jpg"",""time"":5561.699999988079},{""stimulus"":""run_exp/static/images/task_images/rocket-07.jpg"",""time"":6675.5},{""stimulus"":""run_exp/static/images/task_images/rocket-08.jpg"",""time"":7784},{""stimulus"":""run_exp/static/images/task_images/rocket-09.jpg"",""time"":8895.299999982119}]",[],0,,,,,,,,,,,,,,
instruc_alien_greet,19,244158,0.0-8.0-6.0,"""event"",""trial"",""time""
""fullscreenenter"",""1"",""50831""
","
","
","""event"",""trial"",""time""
""fullscreenenter"",""1"",""50831""
","
",,null,run_exp/static/audio/clip_6_alien.m4a,null,"<p>When you arrive at a new planet, the alien who owns the treasure mine on that planet will greet you!</p><p>The better an alien takes care of their mine the easier it is to dig for gems. Some aliens take better care of their mine than others. So, you won’t get exactly the same amount of gems on each planet.</p><p>What the alien looks like does not tell you anything about how many gems there are on the planet.</p><br><p><img src=""run_exp/static/images/task_images/aliens/instructions_aliens/planet/alien_planet-1.jpg""  height=""600"" width=""auto""></p>",,,,,,,,,,,,,,,,,,,,,,,
instruc_alien_greet,20,319286,0.0-8.0-7.0,"""event"",""trial"",""time""
""fullscreenenter"",""1"",""50831""
","
","
","""event"",""trial"",""time""
""fullscreenenter"",""1"",""50831""
","
",,75126.2,"<p>When you arrive at a new planet, the alien who owns the treasure mine on that planet will greet you!</p><p>The better an alien takes care of their mine the easier it is to dig for gems. Some aliens take better care of their mine than others. So, you won’t get exactly the same amount of gems on each planet.</p><p>What the alien looks like does not tell you anything about how many gems there are on the planet.</p><br><p><img src=""run_exp/static/images/task_images/aliens/instructions_aliens/planet/alien_planet-1.jpg""  height=""600"" width=""auto""></p>",,,,,,,1,,,,,,,,,,,,,,,,,,
html-keyboard-response,21,320955,0.0-8.0-8.0,"""event"",""trial"",""time""
""fullscreenenter"",""1"",""50831""
","
","
","""event"",""trial"",""time""
""fullscreenenter"",""1"",""50831""
","
",,1666.1,"<p>When you arrive at a new planet, the alien who owns the treasure mine on that planet will greet you!</p><p>The better an alien takes care of their mine the easier it is to dig for gems. Some aliens take better care of their mine than others. So, you won’t get exactly the same amount of gems on each planet.</p><p>What the alien looks like does not tell you anything about how many gems there are on the planet.</p><br><p><img src=""run_exp/static/images/task_images/aliens/instructions_aliens/planet/alien_planet-1.jpg""  height=""600"" width=""auto""></p><button class=""jspsych-html-btn-unchosen""><img src=""run_exp/static/images/task_images/planet-01.jpg"" height=""50""></button><button class=""jspsych-html-btn-chosen""><img src=""run_exp/static/images/task_images/planet-02.jpg"" height=""50""></button><p><b>[press the space bar to lock in your answer]<b><br></p>",32,,,,,,,,,,,,,,,,,,,,,,,,
time_out,22,332180,0.0-9.0-0.0,"""event"",""trial"",""time""
""fullscreenenter"",""1"",""50831""
","
","
","""event"",""trial"",""time""
""fullscreenenter"",""1"",""50831""
","
",,null,run_exp/static/audio/clip_7_timeout.m4a,null,"<p>If you don't make your choice fast enough, you’ll have to wait a few seconds before you can make another one.</p><p>You can’t dig for more gems or travel to new planets. You just have to sit and wait.</p><br><p><img src='run_exp/static/images/task_images/time_out.jpg'  height='600' width='auto'></p>",,,,,,,,,,,,,,,,,,,,,,,
time_out,23,337420,0.0-9.0-1.0,"""event"",""trial"",""time""
""fullscreenenter"",""1"",""50831""
","
","
","""event"",""trial"",""time""
""fullscreenenter"",""1"",""50831""
","
",,5234.5,"<p>If you don't make your choice fast enough, you’ll have to wait a few seconds before you can make another one.</p><p>You can’t dig for more gems or travel to new planets. You just have to sit and wait.</p><br><p><img src='run_exp/static/images/task_images/time_out.jpg'  height='600' width='auto'></p>",,,,,,,1,,,,,,,,,,,,,,,,,,
html-keyboard-response,24,338845,0.0-9.0-2.0,"""event"",""trial"",""time""
""fullscreenenter"",""1"",""50831""
","
","
","""event"",""trial"",""time""
""fullscreenenter"",""1"",""50831""
","
",,1422.6,"<p>If you don't make your choice fast enough, you’ll have to wait a few seconds before you can make another one.</p><p>You can’t dig for more gems or travel to new planets. You just have to sit and wait.</p><br><p><img src='run_exp/static/images/task_images/time_out.jpg'  height='600' width='auto'></p><button class=""jspsych-html-btn-unchosen""><img src=""run_exp/static/images/task_images/planet-01.jpg"" height=""50""></button><button class=""jspsych-html-btn-chosen""><img src=""run_exp/static/images/task_images/planet-02.jpg"" height=""50""></button><p><b>[press the space bar to lock in your answer]<b><br></p>",32,,,,,,,,,,,,,,,,,,,,,,,,
instruc_break,25,354495,0.0-10.0-0.0,"""event"",""trial"",""time""
""fullscreenenter"",""1"",""50831""
","
","
","""event"",""trial"",""time""
""fullscreenenter"",""1"",""50831""
","
",,null,run_exp/static/audio/clip_8_break.m4a,null,"<p> After digging and traveling for a while, you’ll be able to take a break at home base. </p><p>The game will last 20 minutes no matter what.</p><p>You will visit home base every 5 minutes, so, you will visit home base three times during the game.</p><br><p><img src='run_exp/static/images/task_images/home_base.jpg' height='600' width='auto'></p>",,,,,,,,,,,,,,,,,,,,,,,
instruc_break,26,356355,0.0-10.0-1.0,"""event"",""trial"",""time""
""fullscreenenter"",""1"",""50831""
","
","
","""event"",""trial"",""time""
""fullscreenenter"",""1"",""50831""
","
",,1856.6,"<p> After digging and traveling for a while, you’ll be able to take a break at home base. </p><p>The game will last 20 minutes no matter what.</p><p>You will visit home base every 5 minutes, so, you will visit home base three times during the game.</p><br><p><img src='run_exp/static/images/task_images/home_base.jpg' height='600' width='auto'></p>",,,,,,,1,,,,,,,,,,,,,,,,,,
html-keyboard-response,27,356686,0.0-10.0-2.0,"""event"",""trial"",""time""
""fullscreenenter"",""1"",""50831""
","
","
","""event"",""trial"",""time""
""fullscreenenter"",""1"",""50831""
","
",,329.7,"<p> After digging and traveling for a while, you’ll be able to take a break at home base. </p><p>The game will last 20 minutes no matter what.</p><p>You will visit home base every 5 minutes, so, you will visit home base three times during the game.</p><br><p><img src='run_exp/static/images/task_images/home_base.jpg' height='600' width='auto'></p><button class=""jspsych-html-btn-unchosen""><img src=""run_exp/static/images/task_images/planet-01.jpg"" height=""50""></button><button class=""jspsych-html-btn-chosen""><img src=""run_exp/static/images/task_images/planet-02.jpg"" height=""50""></button><p><b>[press the space bar to lock in your answer]<b><br></p>",32,,,,,,,,,,,,,,,,,,,,,,,,
instruc_prac_game,28,366804,0.0-11.0-0.0,"""event"",""trial"",""time""
""fullscreenenter"",""1"",""50831""
","
","
","""event"",""trial"",""time""
""fullscreenenter"",""1"",""50831""
","
",,null,run_exp/static/audio/clip_9_practice.m4a,null,"<p> Are you ready to play a practice game? </p> <p>In this practice game, you'll be digging up barrels of gems. But, in the real game, you'll be digging up the gems themselves. </p>",,,,,,,,,,,,,,,,,,,,,,,
html-button-response,29,368938,0.0-11.0-1.0,"""event"",""trial"",""time""
""fullscreenenter"",""1"",""50831""
","
","
","""event"",""trial"",""time""
""fullscreenenter"",""1"",""50831""
","
",,2132.4,"<p> Are you ready to play a practice game? </p> <p>In this practice game, you'll be digging up barrels of gems. But, in the real game, you'll be digging up the gems themselves. </p>",,,,,,,0,,,,,,,,,,,,,,,,,,
alien_welcome_prac,30,373950,0.0-12.0-0.0,"""event"",""trial"",""time""
""fullscreenenter"",""1"",""50831""
","
","
","""event"",""trial"",""time""
""fullscreenenter"",""1"",""50831""
","
",,null,run_exp/static/images/task_images/aliens/practice_aliens/planet/alien_planet-5.jpg,null,,,,,,,,,,,,,,,,,,,,,,,,
land_prac,31,374455,0.0-12.0-1.0,"""event"",""trial"",""time""
""fullscreenenter"",""1"",""50831""
","
","
","""event"",""trial"",""time""
""fullscreenenter"",""1"",""50831""
","
",,null,run_exp/static/images/task_images/land.jpg,null,,,,,,,92,,,0,,,,,,,,,,,,,,
dig_prac,32,376465,0.0-12.0-2.0,"""event"",""trial"",""time""
""fullscreenenter"",""1"",""50831""
","
","
","""event"",""trial"",""time""
""fullscreenenter"",""1"",""50831""
","
",,,,,,,,,,,,"[{""stimulus"":""run_exp/static/images/task_images/dig.jpg"",""time"":0.29999998211860657},{""stimulus"":""run_exp/static/images/task_images/land.jpg"",""time"":678.1999999880791},{""stimulus"":""run_exp/static/images/task_images/dig.jpg"",""time"":1342.5}]",[],,,,,,,,,,,,,,,
harvest_prac,33,377471,0.0-12.0-3.0,"""event"",""trial"",""time""
""fullscreenenter"",""1"",""50831""
","
","
","""event"",""trial"",""time""
""fullscreenenter"",""1"",""50831""
","
",,null,run_exp/static/images/task_images/barrel_text.jpg,null,,,,,,,,,,,,,,,,,,,,,,,,
decision_prac,34,380479,0.0-12.0-4.0,"""event"",""trial"",""time""
""fullscreenenter"",""1"",""50831""
","
","
","""event"",""trial"",""time""
""fullscreenenter"",""1"",""50831""
","
",,null,run_exp/static/images/task_images/land.jpg,null,,,,,,,,,,,1,,,,,,,,,,,,,
time_out,35,382484,0.0-13.0-0.0,"""event"",""trial"",""time""
""fullscreenenter"",""1"",""50831""
","
","
","""event"",""trial"",""time""
""fullscreenenter"",""1"",""50831""
","
",,null,run_exp/static/images/task_images/time_out.jpg,null,,,,,,,,,,,,,,,,,,,,,,,,
decision_prac,36,383619,0.0-13.0-1.0,"""event"",""trial"",""time""
""fullscreenenter"",""1"",""50831""
","
","
","""event"",""trial"",""time""
""fullscreenenter"",""1"",""50831""
","
",,1132.9,run_exp/static/images/task_images/land.jpg,65,,,,,,,,,,,2,,,,,,,,,,,,,
dig_prac,37,385629,0.0-14.0-0.0,"""event"",""trial"",""time""
""fullscreenenter"",""1"",""50831""
","
","
","""event"",""trial"",""time""
""fullscreenenter"",""1"",""50831""
","
",,,,,,,,,,,,"[{""stimulus"":""run_exp/static/images/task_images/dig.jpg"",""time"":0.29999998211860657},{""stimulus"":""run_exp/static/images/task_images/land.jpg"",""time"":669.7999999821186},{""stimulus"":""run_exp/static/images/task_images/dig.jpg"",""time"":1342.0999999940395}]",[],,,,,,,,,,,,,,,
harvest_prac,38,386641,0.0-14.0-1.0,"""event"",""trial"",""time""
""fullscreenenter"",""1"",""50831""
","
","
","""event"",""trial"",""time""
""fullscreenenter"",""1"",""50831""
","
",,null,run_exp/static/images/task_images/barrel_text.jpg,null,,,,,,,,,,,,,,,,,,,,,,,,
decision_prac,39,387426,0.0-14.0-2.0,"""event"",""trial"",""time""
""fullscreenenter"",""1"",""50831""
","
","
","""event"",""trial"",""time""
""fullscreenenter"",""1"",""50831""
","
",,784,run_exp/static/images/task_images/land.jpg,65,,,,,,,,,,,3,,,,,,,,,,,,,
dig_prac,40,389440,0.0-15.0-0.0,"""event"",""trial"",""time""
""fullscreenenter"",""1"",""50831""
","
","
","""event"",""trial"",""time""
""fullscreenenter"",""1"",""50831""
","
",,,,,,,,,,,,"[{""stimulus"":""run_exp/static/images/task_images/dig.jpg"",""time"":0.19999998807907104},{""stimulus"":""run_exp/static/images/task_images/land.jpg"",""time"":672.7999999821186},{""stimulus"":""run_exp/static/images/task_images/dig.jpg"",""time"":1338.4000000059605}]",[],,,,,,,,,,,,,,,
harvest_prac,41,390447,0.0-15.0-1.0,"""event"",""trial"",""time""
""fullscreenenter"",""1"",""50831""
","
","
","""event"",""trial"",""time""
""fullscreenenter"",""1"",""50831""
","
",,null,run_exp/static/images/task_images/barrel_text.jpg,null,,,,,,,,,,,,,,,,,,,,,,,,
decision_prac,42,390747,0.0-15.0-2.0,"""event"",""trial"",""time""
""fullscreenenter"",""1"",""50831""
","
","
","""event"",""trial"",""time""
""fullscreenenter"",""1"",""50831""
","
",,299.1,run_exp/static/images/task_images/land.jpg,65,,,,,,,,,,,4,,,,,,,,,,,,,
dig_prac,43,392761,0.0-16.0-0.0,"""event"",""trial"",""time""
""fullscreenenter"",""1"",""50831""
","
","
","""event"",""trial"",""time""
""fullscreenenter"",""1"",""50831""
","
",,,,,,,,,,,,"[{""stimulus"":""run_exp/static/images/task_images/dig.jpg"",""time"":0.09999999403953552},{""stimulus"":""run_exp/static/images/task_images/land.jpg"",""time"":674.6999999880791},{""stimulus"":""run_exp/static/images/task_images/dig.jpg"",""time"":1342.5999999940395}]",[],,,,,,,,,,,,,,,
harvest_prac,44,393765,0.0-16.0-1.0,"""event"",""trial"",""time""
""fullscreenenter"",""1"",""50831""
","
","
","""event"",""trial"",""time""
""fullscreenenter"",""1"",""50831""
","
",,null,run_exp/static/images/task_images/barrel_text.jpg,null,,,,,,,,,,,,,,,,,,,,,,,,
decision_prac,45,394065,0.0-16.0-2.0,"""event"",""trial"",""time""
""fullscreenenter"",""1"",""50831""
","
","
","""event"",""trial"",""time""
""fullscreenenter"",""1"",""50831""
","
",,299.4,run_exp/static/images/task_images/land.jpg,65,,,,,,,,,,,,1,,,,,,,,,,,,
quiz_instruc,46,405091,0.0-17.0-0.0,"""event"",""trial"",""time""
""fullscreenenter"",""1"",""50831""
","
","
","""event"",""trial"",""time""
""fullscreenenter"",""1"",""50831""
","
",,11022.8,run_exp/static/audio/clip_10_quiz.m4a,,,,,,,0,,,,,,,,,,,,,,,,,,
instruc_repeat,47,447850,0.0-17.0-1.0,"""event"",""trial"",""time""
""fullscreenenter"",""1"",""50831""
","
","
","""event"",""trial"",""time""
""fullscreenenter"",""1"",""50831""
","
",,null,"<p> Are you ready to play a practice game? </p> <p>In this practice game, you'll be digging up barrels of gems. But, in the real game, you'll be digging up the gems themselves. </p>",null,"<p>In this game, your goal is to collect as many gems as you can. That’s how you will win bonus money. </p> <p>The entire game will last 20 minutes no matter how many gems you collect or how many planets you visit. </p><p>To stay on a planet and dig again, press the letter A on your keyboard. To leave for a new planet, press the letter L.</p><p>The more you dig on a planet, the fewer gems you’ll get with each dig which is why you might consider leaving for a new planet. </p><p>When you arrive at a new planet, you’ll be greeted by an alien. What the alien looks like does not tell you anything about how much treasure is on the planet. </p>",,,,,,,,,,,,,,,,,,,,,,,
instruc_repeat_continue,48,457728,0.0-17.0-2.0,"""event"",""trial"",""time""
""fullscreenenter"",""1"",""50831""
","
","
","""event"",""trial"",""time""
""fullscreenenter"",""1"",""50831""
","
",,9876.2,"<p> Are you ready to play a practice game? </p> <p>In this practice game, you'll be digging up barrels of gems. But, in the real game, you'll be digging up the gems themselves. </p>",,,,,,,0,,,,,,,,,,,,,,,,,,
quiz_q_1_ask,49,465212,0.0-17.0-3.0,"""event"",""trial"",""time""
""fullscreenenter"",""1"",""50831""
","
","
","""event"",""trial"",""time""
""fullscreenenter"",""1"",""50831""
","
",,7481.2,run_exp/static/audio/clip_11_q1_ask.m4a,,,,,,,2,,,,,,,,,,,,,,,,,,
quiz_q_1_fb_correct,50,469056,0.0-18.0-0.0,"""event"",""trial"",""time""
""fullscreenenter"",""1"",""50831""
","
","
","""event"",""trial"",""time""
""fullscreenenter"",""1"",""50831""
","
",,null,run_exp/static/audio/clip_12_q1_correct.m4a,null,<p>That’s correct. You win extra money by collecting more gems.</p>,,,,,,,,,,,,,,,,,,,,,,,
quiz_q_2_ask,51,473329,0.0-18.0-1.0,"""event"",""trial"",""time""
""fullscreenenter"",""1"",""50831""
","
","
","""event"",""trial"",""time""
""fullscreenenter"",""1"",""50831""
","
",,4270.9,run_exp/static/audio/clip_14_q2_ask.m4a,,,,,,,1,,,,,,,,,,,,,,,,,,
quiz_q_2_fb_correct,52,477311,0.0-19.0-0.0,"""event"",""trial"",""time""
""fullscreenenter"",""1"",""50831""
","
","
","""event"",""trial"",""time""
""fullscreenenter"",""1"",""50831""
","
",,null,run_exp/static/audio/clip_15_q2_correct.m4a,null,<p>That’s correct. The experiment is 20 minutes no matter what.</p>,,,,,,,,,,,,,,,,,,,,,,,
quiz_q_3_ask,53,479362,0.0-19.0-1.0,"""event"",""trial"",""time""
""fullscreenenter"",""1"",""50831""
","
","
","""event"",""trial"",""time""
""fullscreenenter"",""1"",""50831""
","
",,2048.9,run_exp/static/audio/clip_17_q3_ask.m4a,,,,,,,1,,,,,,,,,,,,,,,,,,
quiz_q_3_fb_correct,54,483327,0.0-20.0-0.0,"""event"",""trial"",""time""
""fullscreenenter"",""1"",""50831""
","
","
","""event"",""trial"",""time""
""fullscreenenter"",""1"",""50831""
","
",,null,run_exp/static/audio/clip_18_q3_correct.m4a,null,<p> That’s correct. You press the letter L to travel to a new planet.</p>,,,,,,,,,,,,,,,,,,,,,,,
quiz_q_4_ask,55,497630,0.0-20.0-1.0,"""event"",""trial"",""time""
""fullscreenenter"",""1"",""50831""
","
","
","""event"",""trial"",""time""
""fullscreenenter"",""1"",""50831""
","
",,14301.4,run_exp/static/audio/clip_20_q4_ask.m4a,,,,,,,1,,,,,,,,,,,,,,,,,,
quiz_q_4_fb_incorrect,56,503446,0.0-21.0-0.0,"""event"",""trial"",""time""
""fullscreenenter"",""1"",""50831""
","
","
","""event"",""trial"",""time""
""fullscreenenter"",""1"",""50831""
","
",,null,run_exp/static/audio/clip_22_q4_incorrect.m4a,null,<p>That’s incorrect.  The more you dig on a planet the fewer gems you’ll get with each dig.</p>,,,,,,,,,,,,,,,,,,,,,,,
quiz_q_5_ask,57,505497,0.0-21.0-1.0,"""event"",""trial"",""time""
""fullscreenenter"",""1"",""50831""
","
","
","""event"",""trial"",""time""
""fullscreenenter"",""1"",""50831""
","
",,2043.3,run_exp/static/audio/clip_23_q5_ask.m4a,,,,,,,1,,,,,,,,,,,,,,,,,,
quiz_q_5_fb_correct,58,510485,0.0-22.0-0.0,"""event"",""trial"",""time""
""fullscreenenter"",""1"",""50831""
","
","
","""event"",""trial"",""time""
""fullscreenenter"",""1"",""50831""
","
",,null,run_exp/static/audio/clip_24_q5_correct.m4a,null,<p> That’s correct. The alien tells you nothing about how much treasure is on the planet.</p>,,,,,,,,,,,,,,,,,,,,,,,
quiz_incorrect,59,516032,0.0-23.0-0.0,"""event"",""trial"",""time""
""fullscreenenter"",""1"",""50831""
","
","
","""event"",""trial"",""time""
""fullscreenenter"",""1"",""50831""
","
",,null,run_exp/static/audio/clip_27_incorrect_quiz.m4a,null,,,,,,,,,,,,,,,,,,,,,,,,
quiz_incorrect_continue,60,516797,0.0-23.0-1.0,"""event"",""trial"",""time""
""fullscreenenter"",""1"",""50831""
","
","
","""event"",""trial"",""time""
""fullscreenenter"",""1"",""50831""
","
",,764.5,"<p>Oops, you missed some questions.</p><p>Now that you’ve heard the correct answers. Try the quiz again!</p>",,,,,,,0,,,,,,,,,,,,,,,,,,
quiz_q_1_ask,61,519648,0.0-23.0-2.0,"""event"",""trial"",""time""
""fullscreenenter"",""1"",""50831""
","
","
","""event"",""trial"",""time""
""fullscreenenter"",""1"",""50831""
","
",,2849.1,run_exp/static/audio/clip_11_q1_ask.m4a,,,,,,,2,,,,,,,,,,,,,,,,,,
quiz_q_1_fb_correct,62,523477,0.0-24.0-0.0,"""event"",""trial"",""time""
""fullscreenenter"",""1"",""50831""
","
","
","""event"",""trial"",""time""
""fullscreenenter"",""1"",""50831""
","
",,null,run_exp/static/audio/clip_12_q1_correct.m4a,null,<p>That’s correct. You win extra money by collecting more gems.</p>,,,,,,,,,,,,,,,,,,,,,,,
quiz_q_2_ask,63,529682,0.0-24.0-1.0,"""event"",""trial"",""time""
""fullscreenenter"",""1"",""50831""
","
","
","""event"",""trial"",""time""
""fullscreenenter"",""1"",""50831""
","
",,6203,run_exp/static/audio/clip_14_q2_ask.m4a,,,,,,,1,,,,,,,,,,,,,,,,,,
quiz_q_2_fb_correct,64,533674,0.0-25.0-0.0,"""event"",""trial"",""time""
""fullscreenenter"",""1"",""50831""
","
","
","""event"",""trial"",""time""
""fullscreenenter"",""1"",""50831""
","
",,null,run_exp/static/audio/clip_15_q2_correct.m4a,null,<p>That’s correct. The experiment is 20 minutes no matter what.</p>,,,,,,,,,,,,,,,,,,,,,,,
quiz_q_3_ask,65,535915,0.0-25.0-1.0,"""event"",""trial"",""time""
""fullscreenenter"",""1"",""50831""
","
","
","""event"",""trial"",""time""
""fullscreenenter"",""1"",""50831""
","
",,2239.5,run_exp/static/audio/clip_17_q3_ask.m4a,,,,,,,1,,,,,,,,,,,,,,,,,,
quiz_q_3_fb_correct,66,539883,0.0-26.0-0.0,"""event"",""trial"",""time""
""fullscreenenter"",""1"",""50831""
","
","
","""event"",""trial"",""time""
""fullscreenenter"",""1"",""50831""
","
",,null,run_exp/static/audio/clip_18_q3_correct.m4a,null,<p> That’s correct. You press the letter L to travel to a new planet.</p>,,,,,,,,,,,,,,,,,,,,,,,
quiz_q_4_ask,67,541416,0.0-26.0-1.0,"""event"",""trial"",""time""
""fullscreenenter"",""1"",""50831""
","
","
","""event"",""trial"",""time""
""fullscreenenter"",""1"",""50831""
","
",,1531.1,run_exp/static/audio/clip_20_q4_ask.m4a,,,,,,,0,,,,,,,,,,,,,,,,,,
quiz_q_4_fb_correct,68,546730,0.0-27.0-0.0,"""event"",""trial"",""time""
""fullscreenenter"",""1"",""50831""
","
","
","""event"",""trial"",""time""
""fullscreenenter"",""1"",""50831""
","
",,null,run_exp/static/audio/clip_21_q4_correct.m4a,null,<p> That’s correct. The more you dig on a planet the fewer gems you’ll get with each dig. </p>,,,,,,,,,,,,,,,,,,,,,,,
quiz_q_5_ask,69,548651,0.0-27.0-1.0,"""event"",""trial"",""time""
""fullscreenenter"",""1"",""50831""
","
","
","""event"",""trial"",""time""
""fullscreenenter"",""1"",""50831""
","
",,1918.1,run_exp/static/audio/clip_23_q5_ask.m4a,,,,,,,1,,,,,,,,,,,,,,,,,,
quiz_q_5_fb_correct,70,553642,0.0-28.0-0.0,"""event"",""trial"",""time""
""fullscreenenter"",""1"",""50831""
","
","
","""event"",""trial"",""time""
""fullscreenenter"",""1"",""50831""
","
",,null,run_exp/static/audio/clip_24_q5_correct.m4a,null,<p> That’s correct. The alien tells you nothing about how much treasure is on the planet.</p>,,,,,,,,,,,,,,,,,,,,,,,
quiz_correct,71,557098,0.0-29.0-0.0,"""event"",""trial"",""time""
""fullscreenenter"",""1"",""50831""
","
","
","""event"",""trial"",""time""
""fullscreenenter"",""1"",""50831""
","
",,null,run_exp/static/audio/clip_26_correct_quiz.m4a,null,,,,,,,,,,,,,,,,,,,,,,,,
quiz_correct_continue,72,558501,0.0-29.0-1.0,"""event"",""trial"",""time""
""fullscreenenter"",""1"",""50831""
""blur"",""73"",""560568""
""focus"",""73"",""561545""
","""event"",""trial"",""time""
""blur"",""73"",""560568""
","""event"",""trial"",""time""
""focus"",""73"",""561545""
","""event"",""trial"",""time""
""fullscreenenter"",""1"",""50831""
","
",,1401.8,<p>Good job! You're now ready to move on to the real game!</p>,,,,,,,0,,,,,,,,,,,,,,,,,,
audio-keyboard-response,73,568618,0.0-29.0-2.0,"""event"",""trial"",""time""
""fullscreenenter"",""1"",""50831""
""blur"",""73"",""560568""
""focus"",""73"",""561545""
","""event"",""trial"",""time""
""blur"",""73"",""560568""
","""event"",""trial"",""time""
""focus"",""73"",""561545""
","""event"",""trial"",""time""
""fullscreenenter"",""1"",""50831""
","
",,null,run_exp/static/audio/clip_28_real_game.m4a,null,,,,,,,,,,,,,,,,,,,,,,,,
instruc_begin_exp_contine,74,569751,0.0-29.0-3.0,"""event"",""trial"",""time""
""fullscreenenter"",""1"",""50831""
""blur"",""73"",""560568""
""focus"",""73"",""561545""
","""event"",""trial"",""time""
""blur"",""73"",""560568""
","""event"",""trial"",""time""
""focus"",""73"",""561545""
","""event"",""trial"",""time""
""fullscreenenter"",""1"",""50831""
","
",,1132.2,"<p>Now that you know how  to dig for space treasure and travel to new planets,you can start exploring! </p><p>Do you want to go over the instructions again or get started with the real game?</p>",,,,,,,1,,,,,,1,,,,,,,,,,,,
alien_welcome,75,574767,0.0-30.0-0.0,"""event"",""trial"",""time""
""fullscreenenter"",""1"",""50831""
""blur"",""73"",""560568""
""focus"",""73"",""561545""
","""event"",""trial"",""time""
""blur"",""73"",""560568""
","""event"",""trial"",""time""
""focus"",""73"",""561545""
","""event"",""trial"",""time""
""fullscreenenter"",""1"",""50831""
","
",,null,run_exp/static/images/task_images/aliens/old_aliens/planet/alien_planet-28.jpg,null,,,,,,,,,,,,,28,"28,74,25,35,29,14,10,32,51,11,61,39,62,9,33,16,4,53,18,13,66,68,8,65,12,30,54,41,67,79,21,56,19,46,77",,,,,,,,,,
land,76,575274,0.0-30.0-1.0,"""event"",""trial"",""time""
""fullscreenenter"",""1"",""50831""
""blur"",""73"",""560568""
""focus"",""73"",""561545""
","""event"",""trial"",""time""
""blur"",""73"",""560568""
","""event"",""trial"",""time""
""focus"",""73"",""561545""
","""event"",""trial"",""time""
""fullscreenenter"",""1"",""50831""
","
",,null,run_exp/static/images/task_images/land.jpg,null,,,,,,,102,,,1,,,,,,,,,,,,,,
dig,77,577282,0.0-30.0-2.0,"""event"",""trial"",""time""
""fullscreenenter"",""1"",""50831""
""blur"",""73"",""560568""
""focus"",""73"",""561545""
","""event"",""trial"",""time""
""blur"",""73"",""560568""
","""event"",""trial"",""time""
""focus"",""73"",""561545""
","""event"",""trial"",""time""
""fullscreenenter"",""1"",""50831""
","
",,,,,,,,,,,,"[{""stimulus"":""run_exp/static/images/task_images/dig.jpg"",""time"":0.30000001192092896},{""stimulus"":""run_exp/static/images/task_images/land.jpg"",""time"":672.3000000119209},{""stimulus"":""run_exp/static/images/task_images/dig.jpg"",""time"":1336.699999988079}]",[],1,,,,,,,,,,,,,,
harvest,78,578295,0.0-30.0-3.0,"""event"",""trial"",""time""
""fullscreenenter"",""1"",""50831""
""blur"",""73"",""560568""
""focus"",""73"",""561545""
","""event"",""trial"",""time""
""blur"",""73"",""560568""
","""event"",""trial"",""time""
""focus"",""73"",""561545""
","""event"",""trial"",""time""
""fullscreenenter"",""1"",""50831""
","
",,null,run_exp/static/images/task_images/gems/102.jpg,null,,,,,,,19,,,1,,,,,102,0.189216787,0.18627451,,,,,,,
decision,79,578687,0.0-30.0-4.0,"""event"",""trial"",""time""
""fullscreenenter"",""1"",""50831""
""blur"",""73"",""560568""
""focus"",""73"",""561545""
","""event"",""trial"",""time""
""blur"",""73"",""560568""
","""event"",""trial"",""time""
""focus"",""73"",""561545""
","""event"",""trial"",""time""
""fullscreenenter"",""1"",""50831""
","
",,389.8,run_exp/static/images/task_images/land.jpg,65,,,,,,,19,,,1,,,,,,,,8934,1,0,FALSE,,,
dig,80,581309,0.0-31.0-0.0,"""event"",""trial"",""time""
""fullscreenenter"",""1"",""50831""
""blur"",""73"",""560568""
""focus"",""73"",""561545""
","""event"",""trial"",""time""
""blur"",""73"",""560568""
","""event"",""trial"",""time""
""focus"",""73"",""561545""
","""event"",""trial"",""time""
""fullscreenenter"",""1"",""50831""
","
",,,,,,,,,,,,"[{""stimulus"":""run_exp/static/images/task_images/dig.jpg"",""time"":0.19999998807907104},{""stimulus"":""run_exp/static/images/task_images/land.jpg"",""time"":876.1999999880791},{""stimulus"":""run_exp/static/images/task_images/dig.jpg"",""time"":1746.199999988079}]",[],1,,,,,,,,,,,,,,
harvest,81,582314,0.0-31.0-1.0,"""event"",""trial"",""time""
""fullscreenenter"",""1"",""50831""
""blur"",""73"",""560568""
""focus"",""73"",""561545""
","""event"",""trial"",""time""
""blur"",""73"",""560568""
","""event"",""trial"",""time""
""focus"",""73"",""561545""
","""event"",""trial"",""time""
""fullscreenenter"",""1"",""50831""
","
",,null,run_exp/static/images/task_images/gems/19.jpg,null,,,,,,,6,,,1,,,,,19,0.340671809,0.315789474,,,,,,,
decision,82,582713,0.0-31.0-2.0,"""event"",""trial"",""time""
""fullscreenenter"",""1"",""50831""
""blur"",""73"",""560568""
""focus"",""73"",""561545""
","""event"",""trial"",""time""
""blur"",""73"",""560568""
","""event"",""trial"",""time""
""focus"",""73"",""561545""
","""event"",""trial"",""time""
""fullscreenenter"",""1"",""50831""
","
",,397.1,run_exp/static/images/task_images/land.jpg,65,,,,,,,6,,,1,,,,,,,,12960,1,1,FALSE,,,
dig,83,585325,0.0-32.0-0.0,"""event"",""trial"",""time""
""fullscreenenter"",""1"",""50831""
""blur"",""73"",""560568""
""focus"",""73"",""561545""
","""event"",""trial"",""time""
""blur"",""73"",""560568""
","""event"",""trial"",""time""
""focus"",""73"",""561545""
","""event"",""trial"",""time""
""fullscreenenter"",""1"",""50831""
","
",,,,,,,,,,,,"[{""stimulus"":""run_exp/static/images/task_images/dig.jpg"",""time"":0.20000001788139343},{""stimulus"":""run_exp/static/images/task_images/land.jpg"",""time"":872.7000000178814},{""stimulus"":""run_exp/static/images/task_images/dig.jpg"",""time"":1747}]",[],1,,,,,,,,,,,,,,
harvest,84,586335,0.0-32.0-1.0,"""event"",""trial"",""time""
""fullscreenenter"",""1"",""50831""
""blur"",""73"",""560568""
""focus"",""73"",""561545""
","""event"",""trial"",""time""
""blur"",""73"",""560568""
","""event"",""trial"",""time""
""focus"",""73"",""561545""
","""event"",""trial"",""time""
""fullscreenenter"",""1"",""50831""
","
",,null,run_exp/static/images/task_images/gems/6.jpg,null,,,,,,,1,,,1,,,,,6,0.165677064,0.166666667,,,,,,,
decision,85,586642,0.0-32.0-2.0,"""event"",""trial"",""time""
""fullscreenenter"",""1"",""50831""
""blur"",""73"",""560568""
""focus"",""73"",""561545""
","""event"",""trial"",""time""
""blur"",""73"",""560568""
","""event"",""trial"",""time""
""focus"",""73"",""561545""
","""event"",""trial"",""time""
""fullscreenenter"",""1"",""50831""
","
",,305.2,run_exp/static/images/task_images/land.jpg,65,,,,,,,1,,,1,,,,,,,,16889,1,2,FALSE,,,
dig,86,589348,0.0-33.0-0.0,"""event"",""trial"",""time""
""fullscreenenter"",""1"",""50831""
""blur"",""73"",""560568""
""focus"",""73"",""561545""
","""event"",""trial"",""time""
""blur"",""73"",""560568""
","""event"",""trial"",""time""
""focus"",""73"",""561545""
","""event"",""trial"",""time""
""fullscreenenter"",""1"",""50831""
","
",,,,,,,,,,,,"[{""stimulus"":""run_exp/static/images/task_images/dig.jpg"",""time"":0.09999999403953552},{""stimulus"":""run_exp/static/images/task_images/land.jpg"",""time"":902.5999999940395},{""stimulus"":""run_exp/static/images/task_images/dig.jpg"",""time"":1807.7000000178814}]",[],1,,,,,,,,,,,,,,
harvest,87,590357,0.0-33.0-1.0,"""event"",""trial"",""time""
""fullscreenenter"",""1"",""50831""
""blur"",""73"",""560568""
""focus"",""73"",""561545""
","""event"",""trial"",""time""
""blur"",""73"",""560568""
","""event"",""trial"",""time""
""focus"",""73"",""561545""
","""event"",""trial"",""time""
""fullscreenenter"",""1"",""50831""
","
",,null,run_exp/static/images/task_images/gems/1.jpg,null,,,,,,,0,,,1,,,,,1,0.168501638,0,,,,,,,
decision,88,590427,0.0-33.0-2.0,"""event"",""trial"",""time""
""fullscreenenter"",""1"",""50831""
""blur"",""73"",""560568""
""focus"",""73"",""561545""
","""event"",""trial"",""time""
""blur"",""73"",""560568""
","""event"",""trial"",""time""
""focus"",""73"",""561545""
","""event"",""trial"",""time""
""fullscreenenter"",""1"",""50831""
","
",,68.09999999,run_exp/static/images/task_images/land.jpg,76,,,,,,,0,,,1,,,,,,,,20674,1,3,TRUE,,,
travel,89,600366,0.0-34.0-0.0,"""event"",""trial"",""time""
""fullscreenenter"",""1"",""50831""
""blur"",""73"",""560568""
""focus"",""73"",""561545""
","""event"",""trial"",""time""
""blur"",""73"",""560568""
","""event"",""trial"",""time""
""focus"",""73"",""561545""
","""event"",""trial"",""time""
""fullscreenenter"",""1"",""50831""
","
",,,,,,,,,,,,"[{""stimulus"":""run_exp/static/images/task_images/rocket-01.jpg"",""time"":0.19999998807907104},{""stimulus"":""run_exp/static/images/task_images/rocket-02.jpg"",""time"":1109},{""stimulus"":""run_exp/static/images/task_images/rocket-03.jpg"",""time"":2212},{""stimulus"":""run_exp/static/images/task_images/rocket-04.jpg"",""time"":3316.9000000059605},{""stimulus"":""run_exp/static/images/task_images/rocket-05.jpg"",""time"":4419.199999988079},{""stimulus"":""run_exp/static/images/task_images/rocket-06.jpg"",""time"":5524.199999988079},{""stimulus"":""run_exp/static/images/task_images/rocket-07.jpg"",""time"":6624.199999988079},{""stimulus"":""run_exp/static/images/task_images/rocket-08.jpg"",""time"":7723.4000000059605},{""stimulus"":""run_exp/static/images/task_images/rocket-09.jpg"",""time"":8831.199999988079}]",[],1,,,,,,,,,,,,,,
alien_welcome,90,605373,0.0-34.0-1.0,"""event"",""trial"",""time""
""fullscreenenter"",""1"",""50831""
""blur"",""73"",""560568""
""focus"",""73"",""561545""
","""event"",""trial"",""time""
""blur"",""73"",""560568""
","""event"",""trial"",""time""
""focus"",""73"",""561545""
","""event"",""trial"",""time""
""fullscreenenter"",""1"",""50831""
","
",,null,run_exp/static/images/task_images/aliens/old_aliens/planet/alien_planet-74.jpg,null,,,,,,,,,,,,,74,"28,74,25,35,29,14,10,32,51,11,61,39,62,9,33,16,4,53,18,13,66,68,8,65,12,30,54,41,67,79,21,56,19,46,77",,,,,,,,,,
land,91,605883,0.0-34.0-2.0,"""event"",""trial"",""time""
""fullscreenenter"",""1"",""50831""
""blur"",""73"",""560568""
""focus"",""73"",""561545""
","""event"",""trial"",""time""
""blur"",""73"",""560568""
","""event"",""trial"",""time""
""focus"",""73"",""561545""
","""event"",""trial"",""time""
""fullscreenenter"",""1"",""50831""
","
",,null,run_exp/static/images/task_images/land.jpg,null,,,,,,,101,,,2,,,,,,,,,,,,,,
dig,92,607894,0.0-34.0-3.0,"""event"",""trial"",""time""
""fullscreenenter"",""1"",""50831""
""blur"",""73"",""560568""
""focus"",""73"",""561545""
","""event"",""trial"",""time""
""blur"",""73"",""560568""
","""event"",""trial"",""time""
""focus"",""73"",""561545""
","""event"",""trial"",""time""
""fullscreenenter"",""1"",""50831""
","
",,,,,,,,,,,,"[{""stimulus"":""run_exp/static/images/task_images/dig.jpg"",""time"":0.20000001788139343},{""stimulus"":""run_exp/static/images/task_images/land.jpg"",""time"":674.2000000178814},{""stimulus"":""run_exp/static/images/task_images/dig.jpg"",""time"":1342.6000000238419}]",[],2,,,,,,,,,,,,,,
harvest,93,608902,0.0-34.0-4.0,"""event"",""trial"",""time""
""fullscreenenter"",""1"",""50831""
""blur"",""73"",""560568""
""focus"",""73"",""561545""
","""event"",""trial"",""time""
""blur"",""73"",""560568""
","""event"",""trial"",""time""
""focus"",""73"",""561545""
","""event"",""trial"",""time""
""fullscreenenter"",""1"",""50831""
","
",,null,run_exp/static/images/task_images/gems/101.jpg,null,,,,,,,15,,,2,,,,,101,0.149666377,0.148514851,,,,,,,
decision,94,609197,0.0-34.0-5.0,"""event"",""trial"",""time""
""fullscreenenter"",""1"",""50831""
""blur"",""73"",""560568""
""focus"",""73"",""561545""
","""event"",""trial"",""time""
""blur"",""73"",""560568""
","""event"",""trial"",""time""
""focus"",""73"",""561545""
","""event"",""trial"",""time""
""fullscreenenter"",""1"",""50831""
","
",,293.2,run_exp/static/images/task_images/land.jpg,65,,,,,,,15,,,2,,,,,,,,39444,1,0,FALSE,,,
dig,95,611914,0.0-35.0-0.0,"""event"",""trial"",""time""
""fullscreenenter"",""1"",""50831""
""blur"",""73"",""560568""
""focus"",""73"",""561545""
","""event"",""trial"",""time""
""blur"",""73"",""560568""
","""event"",""trial"",""time""
""focus"",""73"",""561545""
","""event"",""trial"",""time""
""fullscreenenter"",""1"",""50831""
","
",,,,,,,,,,,,"[{""stimulus"":""run_exp/static/images/task_images/dig.jpg"",""time"":0.09999999403953552},{""stimulus"":""run_exp/static/images/task_images/land.jpg"",""time"":910.3999999761581},{""stimulus"":""run_exp/static/images/task_images/dig.jpg"",""time"":1814.3999999761581}]",[],2,,,,,,,,,,,,,,
harvest,96,612925,0.0-35.0-1.0,"""event"",""trial"",""time""
""fullscreenenter"",""1"",""50831""
""blur"",""73"",""560568""
""focus"",""73"",""561545""
","""event"",""trial"",""time""
""blur"",""73"",""560568""
","""event"",""trial"",""time""
""focus"",""73"",""561545""
","""event"",""trial"",""time""
""fullscreenenter"",""1"",""50831""
","
",,null,run_exp/static/images/task_images/gems/15.jpg,null,,,,,,,2,,,2,,,,,15,0.131288726,0.133333333,,,,,,,
decision,97,612959,0.0-35.0-2.0,"""event"",""trial"",""time""
""fullscreenenter"",""1"",""50831""
""blur"",""73"",""560568""
""focus"",""73"",""561545""
","""event"",""trial"",""time""
""blur"",""73"",""560568""
","""event"",""trial"",""time""
""focus"",""73"",""561545""
","""event"",""trial"",""time""
""fullscreenenter"",""1"",""50831""
","
",,32.30000001,run_exp/static/images/task_images/land.jpg,65,,,,,,,2,,,2,,,,,,,,43206,1,1,FALSE,,,
dig,98,615942,0.0-36.0-0.0,"""event"",""trial"",""time""
""fullscreenenter"",""1"",""50831""
""blur"",""73"",""560568""
""focus"",""73"",""561545""
","""event"",""trial"",""time""
""blur"",""73"",""560568""
","""event"",""trial"",""time""
""focus"",""73"",""561545""
","""event"",""trial"",""time""
""fullscreenenter"",""1"",""50831""
","
",,,,,,,,,,,,"[{""stimulus"":""run_exp/static/images/task_images/dig.jpg"",""time"":0.19999998807907104},{""stimulus"":""run_exp/static/images/task_images/land.jpg"",""time"":995.8000000119209},{""stimulus"":""run_exp/static/images/task_images/dig.jpg"",""time"":1985.300000011921}]",[],2,,,,,,,,,,,,,,
harvest,99,616947,0.0-36.0-1.0,"""event"",""trial"",""time""
""fullscreenenter"",""1"",""50831""
""blur"",""73"",""560568""
""focus"",""73"",""561545""
","""event"",""trial"",""time""
""blur"",""73"",""560568""
","""event"",""trial"",""time""
""focus"",""73"",""561545""
","""event"",""trial"",""time""
""fullscreenenter"",""1"",""50831""
","
",,null,run_exp/static/images/task_images/gems/2.jpg,null,,,,,,,0,,,2,,,,,2,0.173815093,0,,,,,,,
decision,100,617238,0.0-36.0-2.0,"""event"",""trial"",""time""
""fullscreenenter"",""1"",""50831""
""blur"",""73"",""560568""
""focus"",""73"",""561545""
","""event"",""trial"",""time""
""blur"",""73"",""560568""
","""event"",""trial"",""time""
""focus"",""73"",""561545""
","""event"",""trial"",""time""
""fullscreenenter"",""1"",""50831""
","
",,288.6,run_exp/static/images/task_images/land.jpg,65,,,,,,,0,,,2,,,,,,,,47485,1,2,FALSE,,,
dig,101,619954,0.0-37.0-0.0,"""event"",""trial"",""time""
""fullscreenenter"",""1"",""50831""
""blur"",""73"",""560568""
""focus"",""73"",""561545""
","""event"",""trial"",""time""
""blur"",""73"",""560568""
","""event"",""trial"",""time""
""focus"",""73"",""561545""
","""event"",""trial"",""time""
""fullscreenenter"",""1"",""50831""
","
",,,,,,,,,,,,"[{""stimulus"":""run_exp/static/images/task_images/dig.jpg"",""time"":0.19999998807907104},{""stimulus"":""run_exp/static/images/task_images/land.jpg"",""time"":906.1999999880791},{""stimulus"":""run_exp/static/images/task_images/dig.jpg"",""time"":1809.4000000059605}]",[],2,,,,,,,,,,,,,,
harvest,102,620965,0.0-37.0-1.0,"""event"",""trial"",""time""
""fullscreenenter"",""1"",""50831""
""blur"",""73"",""560568""
""focus"",""73"",""561545""
","""event"",""trial"",""time""
""blur"",""73"",""560568""
","""event"",""trial"",""time""
""focus"",""73"",""561545""
","""event"",""trial"",""time""
""fullscreenenter"",""1"",""50831""
","
",,null,run_exp/static/images/task_images/gems/0.jpg,null,,,,,,,0,,,2,,,,,0,0.230377391,NaN,,,,,,,
decision,103,621302,0.0-37.0-2.0,"""event"",""trial"",""time""
""fullscreenenter"",""1"",""50831""
""blur"",""73"",""560568""
""focus"",""73"",""561545""
""blur"",""104"",""626943""
""focus"",""104"",""629181""
","""event"",""trial"",""time""
""blur"",""73"",""560568""
""blur"",""104"",""626943""
","""event"",""trial"",""time""
""focus"",""73"",""561545""
""focus"",""104"",""629181""
","""event"",""trial"",""time""
""fullscreenenter"",""1"",""50831""
","
",,334.8,run_exp/static/images/task_images/land.jpg,76,,,,,,,0,,,2,,,,,,,,51549,1,3,TRUE,,,
travel,104,630974,0.0-38.0-0.0,"""event"",""trial"",""time""
""fullscreenenter"",""1"",""50831""
""blur"",""73"",""560568""
""focus"",""73"",""561545""
""blur"",""104"",""626943""
""focus"",""104"",""629181""
","""event"",""trial"",""time""
""blur"",""73"",""560568""
""blur"",""104"",""626943""
","""event"",""trial"",""time""
""focus"",""73"",""561545""
""focus"",""104"",""629181""
","""event"",""trial"",""time""
""fullscreenenter"",""1"",""50831""
","
",,,,,,,,,,,,"[{""stimulus"":""run_exp/static/images/task_images/rocket-01.jpg"",""time"":0.30000001192092896},{""stimulus"":""run_exp/static/images/task_images/rocket-02.jpg"",""time"":1081.7000000178814},{""stimulus"":""run_exp/static/images/task_images/rocket-03.jpg"",""time"":2154.2000000178814},{""stimulus"":""run_exp/static/images/task_images/rocket-04.jpg"",""time"":3225.0999999940395},{""stimulus"":""run_exp/static/images/task_images/rocket-05.jpg"",""time"":4299.200000017881},{""stimulus"":""run_exp/static/images/task_images/rocket-06.jpg"",""time"":5368.700000017881},{""stimulus"":""run_exp/static/images/task_images/rocket-07.jpg"",""time"":6444.5999999940395},{""stimulus"":""run_exp/static/images/task_images/rocket-08.jpg"",""time"":7514.4000000059605},{""stimulus"":""run_exp/static/images/task_images/rocket-09.jpg"",""time"":8593.09999999404}]",[],2,,,,,,,,,,,,,,
alien_welcome,105,635978,0.0-38.0-1.0,"""event"",""trial"",""time""
""fullscreenenter"",""1"",""50831""
""blur"",""73"",""560568""
""focus"",""73"",""561545""
""blur"",""104"",""626943""
""focus"",""104"",""629181""
","""event"",""trial"",""time""
""blur"",""73"",""560568""
""blur"",""104"",""626943""
","""event"",""trial"",""time""
""focus"",""73"",""561545""
""focus"",""104"",""629181""
","""event"",""trial"",""time""
""fullscreenenter"",""1"",""50831""
","
",,null,run_exp/static/images/task_images/aliens/old_aliens/planet/alien_planet-25.jpg,null,,,,,,,,,,,,,25,"28,74,25,35,29,14,10,32,51,11,61,39,62,9,33,16,4,53,18,13,66,68,8,65,12,30,54,41,67,79,21,56,19,46,77",,,,,,,,,,
land,106,636482,0.0-38.0-2.0,"""event"",""trial"",""time""
""fullscreenenter"",""1"",""50831""
""blur"",""73"",""560568""
""focus"",""73"",""561545""
""blur"",""104"",""626943""
""focus"",""104"",""629181""
","""event"",""trial"",""time""
""blur"",""73"",""560568""
""blur"",""104"",""626943""
","""event"",""trial"",""time""
""focus"",""73"",""561545""
""focus"",""104"",""629181""
","""event"",""trial"",""time""
""fullscreenenter"",""1"",""50831""
","
",,null,run_exp/static/images/task_images/land.jpg,null,,,,,,,102,,,3,,,,,,,,,,,,,,
dig,107,638490,0.0-38.0-3.0,"""event"",""trial"",""time""
""fullscreenenter"",""1"",""50831""
""blur"",""73"",""560568""
""focus"",""73"",""561545""
""blur"",""104"",""626943""
""focus"",""104"",""629181""
","""event"",""trial"",""time""
""blur"",""73"",""560568""
""blur"",""104"",""626943""
","""event"",""trial"",""time""
""focus"",""73"",""561545""
""focus"",""104"",""629181""
","""event"",""trial"",""time""
""fullscreenenter"",""1"",""50831""
","
",,,,,,,,,,,,"[{""stimulus"":""run_exp/static/images/task_images/dig.jpg"",""time"":0.30000001192092896},{""stimulus"":""run_exp/static/images/task_images/land.jpg"",""time"":675.0999999940395},{""stimulus"":""run_exp/static/images/task_images/dig.jpg"",""time"":1342.300000011921}]",[],3,,,,,,,,,,,,,,
harvest,108,639499,0.0-38.0-4.0,"""event"",""trial"",""time""
""fullscreenenter"",""1"",""50831""
""blur"",""73"",""560568""
""focus"",""73"",""561545""
""blur"",""104"",""626943""
""focus"",""104"",""629181""
","""event"",""trial"",""time""
""blur"",""73"",""560568""
""blur"",""104"",""626943""
","""event"",""trial"",""time""
""focus"",""73"",""561545""
""focus"",""104"",""629181""
","""event"",""trial"",""time""
""fullscreenenter"",""1"",""50831""
","
",,null,run_exp/static/images/task_images/gems/102.jpg,null,,,,,,,47,,,3,,,,,102,0.458296995,0.460784314,,,,,,,
decision,109,639777,0.0-38.0-5.0,"""event"",""trial"",""time""
""fullscreenenter"",""1"",""50831""
""blur"",""73"",""560568""
""focus"",""73"",""561545""
""blur"",""104"",""626943""
""focus"",""104"",""629181""
","""event"",""trial"",""time""
""blur"",""73"",""560568""
""blur"",""104"",""626943""
","""event"",""trial"",""time""
""focus"",""73"",""561545""
""focus"",""104"",""629181""
","""event"",""trial"",""time""
""fullscreenenter"",""1"",""50831""
","
",,276,run_exp/static/images/task_images/land.jpg,65,,,,,,,47,,,3,,,,,,,,70024,1,0,FALSE,,,
dig,110,642506,0.0-39.0-0.0,"""event"",""trial"",""time""
""fullscreenenter"",""1"",""50831""
""blur"",""73"",""560568""
""focus"",""73"",""561545""
""blur"",""104"",""626943""
""focus"",""104"",""629181""
","""event"",""trial"",""time""
""blur"",""73"",""560568""
""blur"",""104"",""626943""
","""event"",""trial"",""time""
""focus"",""73"",""561545""
""focus"",""104"",""629181""
","""event"",""trial"",""time""
""fullscreenenter"",""1"",""50831""
","
",,,,,,,,,,,,"[{""stimulus"":""run_exp/static/images/task_images/dig.jpg"",""time"":0.10000002384185791},{""stimulus"":""run_exp/static/images/task_images/land.jpg"",""time"":910.5},{""stimulus"":""run_exp/static/images/task_images/dig.jpg"",""time"":1824.4000000059605}]",[],3,,,,,,,,,,,,,,
harvest,111,643517,0.0-39.0-1.0,"""event"",""trial"",""time""
""fullscreenenter"",""1"",""50831""
""blur"",""73"",""560568""
""focus"",""73"",""561545""
""blur"",""104"",""626943""
""focus"",""104"",""629181""
","""event"",""trial"",""time""
""blur"",""73"",""560568""
""blur"",""104"",""626943""
","""event"",""trial"",""time""
""focus"",""73"",""561545""
""focus"",""104"",""629181""
","""event"",""trial"",""time""
""fullscreenenter"",""1"",""50831""
","
",,null,run_exp/static/images/task_images/gems/47.jpg,null,,,,,,,27,,,3,,,,,47,0.573427769,0.574468085,,,,,,,
decision,112,643609,0.0-39.0-2.0,"""event"",""trial"",""time""
""fullscreenenter"",""1"",""50831""
""blur"",""73"",""560568""
""focus"",""73"",""561545""
""blur"",""104"",""626943""
""focus"",""104"",""629181""
","""event"",""trial"",""time""
""blur"",""73"",""560568""
""blur"",""104"",""626943""
","""event"",""trial"",""time""
""focus"",""73"",""561545""
""focus"",""104"",""629181""
","""event"",""trial"",""time""
""fullscreenenter"",""1"",""50831""
","
",,90.30000001,run_exp/static/images/task_images/land.jpg,65,,,,,,,27,,,3,,,,,,,,73856,1,1,FALSE,,,
dig,113,646526,0.0-40.0-0.0,"""event"",""trial"",""time""
""fullscreenenter"",""1"",""50831""
""blur"",""73"",""560568""
""focus"",""73"",""561545""
""blur"",""104"",""626943""
""focus"",""104"",""629181""
","""event"",""trial"",""time""
""blur"",""73"",""560568""
""blur"",""104"",""626943""
","""event"",""trial"",""time""
""focus"",""73"",""561545""
""focus"",""104"",""629181""
","""event"",""trial"",""time""
""fullscreenenter"",""1"",""50831""
","
",,,,,,,,,,,,"[{""stimulus"":""run_exp/static/images/task_images/dig.jpg"",""time"":0.19999998807907104},{""stimulus"":""run_exp/static/images/task_images/land.jpg"",""time"":974.9000000059605},{""stimulus"":""run_exp/static/images/task_images/dig.jpg"",""time"":1945.199999988079}]",[],3,,,,,,,,,,,,,,
harvest,114,647531,0.0-40.0-1.0,"""event"",""trial"",""time""
""fullscreenenter"",""1"",""50831""
""blur"",""73"",""560568""
""focus"",""73"",""561545""
""blur"",""104"",""626943""
""focus"",""104"",""629181""
","""event"",""trial"",""time""
""blur"",""73"",""560568""
""blur"",""104"",""626943""
","""event"",""trial"",""time""
""focus"",""73"",""561545""
""focus"",""104"",""629181""
","""event"",""trial"",""time""
""fullscreenenter"",""1"",""50831""
","
",,null,run_exp/static/images/task_images/gems/27.jpg,null,,,,,,,11,,,3,,,,,27,0.410589599,0.407407407,,,,,,,
decision,115,648071,0.0-40.0-2.0,"""event"",""trial"",""time""
""fullscreenenter"",""1"",""50831""
""blur"",""73"",""560568""
""focus"",""73"",""561545""
""blur"",""104"",""626943""
""focus"",""104"",""629181""
","""event"",""trial"",""time""
""blur"",""73"",""560568""
""blur"",""104"",""626943""
","""event"",""trial"",""time""
""focus"",""73"",""561545""
""focus"",""104"",""629181""
","""event"",""trial"",""time""
""fullscreenenter"",""1"",""50831""
","
",,538.7,run_exp/static/images/task_images/land.jpg,65,,,,,,,11,,,3,,,,,,,,78318,1,2,FALSE,,,
dig,116,650542,0.0-41.0-0.0,"""event"",""trial"",""time""
""fullscreenenter"",""1"",""50831""
""blur"",""73"",""560568""
""focus"",""73"",""561545""
""blur"",""104"",""626943""
""focus"",""104"",""629181""
","""event"",""trial"",""time""
""blur"",""73"",""560568""
""blur"",""104"",""626943""
","""event"",""trial"",""time""
""focus"",""73"",""561545""
""focus"",""104"",""629181""
","""event"",""trial"",""time""
""fullscreenenter"",""1"",""50831""
","
",,,,,,,,,,,,"[{""stimulus"":""run_exp/static/images/task_images/dig.jpg"",""time"":0.30000001192092896},{""stimulus"":""run_exp/static/images/task_images/land.jpg"",""time"":828.8000000119209},{""stimulus"":""run_exp/static/images/task_images/dig.jpg"",""time"":1653}]",[],3,,,,,,,,,,,,,,
harvest,117,651548,0.0-41.0-1.0,"""event"",""trial"",""time""
""fullscreenenter"",""1"",""50831""
""blur"",""73"",""560568""
""focus"",""73"",""561545""
""blur"",""104"",""626943""
""focus"",""104"",""629181""
","""event"",""trial"",""time""
""blur"",""73"",""560568""
""blur"",""104"",""626943""
","""event"",""trial"",""time""
""focus"",""73"",""561545""
""focus"",""104"",""629181""
","""event"",""trial"",""time""
""fullscreenenter"",""1"",""50831""
","
",,null,run_exp/static/images/task_images/gems/11.jpg,null,,,,,,,7,,,3,,,,,11,0.598089934,0.636363636,,,,,,,
decision,118,651714,0.0-41.0-2.0,"""event"",""trial"",""time""
""fullscreenenter"",""1"",""50831""
""blur"",""73"",""560568""
""focus"",""73"",""561545""
""blur"",""104"",""626943""
""focus"",""104"",""629181""
","""event"",""trial"",""time""
""blur"",""73"",""560568""
""blur"",""104"",""626943""
","""event"",""trial"",""time""
""focus"",""73"",""561545""
""focus"",""104"",""629181""
","""event"",""trial"",""time""
""fullscreenenter"",""1"",""50831""
","
",,164.5,run_exp/static/images/task_images/land.jpg,65,,,,,,,7,,,3,,,,,,,,81961,1,3,FALSE,,,
dig,119,654554,0.0-42.0-0.0,"""event"",""trial"",""time""
""fullscreenenter"",""1"",""50831""
""blur"",""73"",""560568""
""focus"",""73"",""561545""
""blur"",""104"",""626943""
""focus"",""104"",""629181""
","""event"",""trial"",""time""
""blur"",""73"",""560568""
""blur"",""104"",""626943""
","""event"",""trial"",""time""
""focus"",""73"",""561545""
""focus"",""104"",""629181""
","""event"",""trial"",""time""
""fullscreenenter"",""1"",""50831""
","
",,,,,,,,,,,,"[{""stimulus"":""run_exp/static/images/task_images/dig.jpg"",""time"":0.10000002384185791},{""stimulus"":""run_exp/static/images/task_images/land.jpg"",""time"":949.7000000178814},{""stimulus"":""run_exp/static/images/task_images/dig.jpg"",""time"":1893.2000000178814}]",[],3,,,,,,,,,,,,,,
harvest,120,655562,0.0-42.0-1.0,"""event"",""trial"",""time""
""fullscreenenter"",""1"",""50831""
""blur"",""73"",""560568""
""focus"",""73"",""561545""
""blur"",""104"",""626943""
""focus"",""104"",""629181""
","""event"",""trial"",""time""
""blur"",""73"",""560568""
""blur"",""104"",""626943""
","""event"",""trial"",""time""
""focus"",""73"",""561545""
""focus"",""104"",""629181""
","""event"",""trial"",""time""
""fullscreenenter"",""1"",""50831""
","
",,null,run_exp/static/images/task_images/gems/7.jpg,null,,,,,,,4,,,3,,,,,7,0.559674811,0.571428571,,,,,,,
decision,121,655695,0.0-42.0-2.0,"""event"",""trial"",""time""
""fullscreenenter"",""1"",""50831""
""blur"",""73"",""560568""
""focus"",""73"",""561545""
""blur"",""104"",""626943""
""focus"",""104"",""629181""
","""event"",""trial"",""time""
""blur"",""73"",""560568""
""blur"",""104"",""626943""
","""event"",""trial"",""time""
""focus"",""73"",""561545""
""focus"",""104"",""629181""
","""event"",""trial"",""time""
""fullscreenenter"",""1"",""50831""
","
",,131.7,run_exp/static/images/task_images/land.jpg,65,,,,,,,4,,,3,,,,,,,,85942,1,4,FALSE,,,
dig,122,658570,0.0-43.0-0.0,"""event"",""trial"",""time""
""fullscreenenter"",""1"",""50831""
""blur"",""73"",""560568""
""focus"",""73"",""561545""
""blur"",""104"",""626943""
""focus"",""104"",""629181""
","""event"",""trial"",""time""
""blur"",""73"",""560568""
""blur"",""104"",""626943""
","""event"",""trial"",""time""
""focus"",""73"",""561545""
""focus"",""104"",""629181""
","""event"",""trial"",""time""
""fullscreenenter"",""1"",""50831""
","
",,,,,,,,,,,,"[{""stimulus"":""run_exp/static/images/task_images/dig.jpg"",""time"":0.20000001788139343},{""stimulus"":""run_exp/static/images/task_images/land.jpg"",""time"":964.4000000059605},{""stimulus"":""run_exp/static/images/task_images/dig.jpg"",""time"":1924.9000000059605}]",[],3,,,,,,,,,,,,,,
harvest,123,659582,0.0-43.0-1.0,"""event"",""trial"",""time""
""fullscreenenter"",""1"",""50831""
""blur"",""73"",""560568""
""focus"",""73"",""561545""
""blur"",""104"",""626943""
""focus"",""104"",""629181""
","""event"",""trial"",""time""
""blur"",""73"",""560568""
""blur"",""104"",""626943""
","""event"",""trial"",""time""
""focus"",""73"",""561545""
""focus"",""104"",""629181""
","""event"",""trial"",""time""
""fullscreenenter"",""1"",""50831""
","
",,null,run_exp/static/images/task_images/gems/4.jpg,null,,,,,,,2,,,3,,,,,4,0.498364021,0.5,,,,,,,
decision,124,659635,0.0-43.0-2.0,"""event"",""trial"",""time""
""fullscreenenter"",""1"",""50831""
""blur"",""73"",""560568""
""focus"",""73"",""561545""
""blur"",""104"",""626943""
""focus"",""104"",""629181""
","""event"",""trial"",""time""
""blur"",""73"",""560568""
""blur"",""104"",""626943""
","""event"",""trial"",""time""
""focus"",""73"",""561545""
""focus"",""104"",""629181""
","""event"",""trial"",""time""
""fullscreenenter"",""1"",""50831""
","
",,51,run_exp/static/images/task_images/land.jpg,65,,,,,,,2,,,3,,,,,,,,89882,1,5,FALSE,,,
dig,125,662597,0.0-44.0-0.0,"""event"",""trial"",""time""
""fullscreenenter"",""1"",""50831""
""blur"",""73"",""560568""
""focus"",""73"",""561545""
""blur"",""104"",""626943""
""focus"",""104"",""629181""
","""event"",""trial"",""time""
""blur"",""73"",""560568""
""blur"",""104"",""626943""
","""event"",""trial"",""time""
""focus"",""73"",""561545""
""focus"",""104"",""629181""
","""event"",""trial"",""time""
""fullscreenenter"",""1"",""50831""
","
",,,,,,,,,,,,"[{""stimulus"":""run_exp/static/images/task_images/dig.jpg"",""time"":0.09999999403953552},{""stimulus"":""run_exp/static/images/task_images/land.jpg"",""time"":991.2999999821186},{""stimulus"":""run_exp/static/images/task_images/dig.jpg"",""time"":1972.5}]",[],3,,,,,,,,,,,,,,
harvest,126,663605,0.0-44.0-1.0,"""event"",""trial"",""time""
""fullscreenenter"",""1"",""50831""
""blur"",""73"",""560568""
""focus"",""73"",""561545""
""blur"",""104"",""626943""
""focus"",""104"",""629181""
","""event"",""trial"",""time""
""blur"",""73"",""560568""
""blur"",""104"",""626943""
","""event"",""trial"",""time""
""focus"",""73"",""561545""
""focus"",""104"",""629181""
","""event"",""trial"",""time""
""fullscreenenter"",""1"",""50831""
","
",,null,run_exp/static/images/task_images/gems/2.jpg,null,,,,,,,1,,,3,,,,,2,0.569349589,0.5,,,,,,,
decision,127,663763,0.0-44.0-2.0,"""event"",""trial"",""time""
""fullscreenenter"",""1"",""50831""
""blur"",""73"",""560568""
""focus"",""73"",""561545""
""blur"",""104"",""626943""
""focus"",""104"",""629181""
","""event"",""trial"",""time""
""blur"",""73"",""560568""
""blur"",""104"",""626943""
","""event"",""trial"",""time""
""focus"",""73"",""561545""
""focus"",""104"",""629181""
","""event"",""trial"",""time""
""fullscreenenter"",""1"",""50831""
","
",,156.6,run_exp/static/images/task_images/land.jpg,65,,,,,,,1,,,3,,,,,,,,94010,1,6,FALSE,,,
dig,128,666610,0.0-45.0-0.0,"""event"",""trial"",""time""
""fullscreenenter"",""1"",""50831""
""blur"",""73"",""560568""
""focus"",""73"",""561545""
""blur"",""104"",""626943""
""focus"",""104"",""629181""
","""event"",""trial"",""time""
""blur"",""73"",""560568""
""blur"",""104"",""626943""
","""event"",""trial"",""time""
""focus"",""73"",""561545""
""focus"",""104"",""629181""
","""event"",""trial"",""time""
""fullscreenenter"",""1"",""50831""
","
",,,,,,,,,,,,"[{""stimulus"":""run_exp/static/images/task_images/dig.jpg"",""time"":0.20000001788139343},{""stimulus"":""run_exp/static/images/task_images/land.jpg"",""time"":955.5},{""stimulus"":""run_exp/static/images/task_images/dig.jpg"",""time"":1903.7000000178814}]",[],3,,,,,,,,,,,,,,
harvest,129,667622,0.0-45.0-1.0,"""event"",""trial"",""time""
""fullscreenenter"",""1"",""50831""
""blur"",""73"",""560568""
""focus"",""73"",""561545""
""blur"",""104"",""626943""
""focus"",""104"",""629181""
","""event"",""trial"",""time""
""blur"",""73"",""560568""
""blur"",""104"",""626943""
","""event"",""trial"",""time""
""focus"",""73"",""561545""
""focus"",""104"",""629181""
","""event"",""trial"",""time""
""fullscreenenter"",""1"",""50831""
","
",,null,run_exp/static/images/task_images/gems/1.jpg,null,,,,,,,1,,,3,,,,,1,0.576271888,1,,,,,,,
decision,130,667692,0.0-45.0-2.0,"""event"",""trial"",""time""
""fullscreenenter"",""1"",""50831""
""blur"",""73"",""560568""
""focus"",""73"",""561545""
""blur"",""104"",""626943""
""focus"",""104"",""629181""
","""event"",""trial"",""time""
""blur"",""73"",""560568""
""blur"",""104"",""626943""
","""event"",""trial"",""time""
""focus"",""73"",""561545""
""focus"",""104"",""629181""
","""event"",""trial"",""time""
""fullscreenenter"",""1"",""50831""
","
",,67.90000001,run_exp/static/images/task_images/land.jpg,65,,,,,,,1,,,3,,,,,,,,97939,1,7,FALSE,,,
dig,131,670634,0.0-46.0-0.0,"""event"",""trial"",""time""
""fullscreenenter"",""1"",""50831""
""blur"",""73"",""560568""
""focus"",""73"",""561545""
""blur"",""104"",""626943""
""focus"",""104"",""629181""
","""event"",""trial"",""time""
""blur"",""73"",""560568""
""blur"",""104"",""626943""
","""event"",""trial"",""time""
""focus"",""73"",""561545""
""focus"",""104"",""629181""
","""event"",""trial"",""time""
""fullscreenenter"",""1"",""50831""
","
",,,,,,,,,,,,"[{""stimulus"":""run_exp/static/images/task_images/dig.jpg"",""time"":0.19999998807907104},{""stimulus"":""run_exp/static/images/task_images/land.jpg"",""time"":990.6999999880791},{""stimulus"":""run_exp/static/images/task_images/dig.jpg"",""time"":1966.7999999821186}]",[],3,,,,,,,,,,,,,,
harvest,132,671646,0.0-46.0-1.0,"""event"",""trial"",""time""
""fullscreenenter"",""1"",""50831""
""blur"",""73"",""560568""
""focus"",""73"",""561545""
""blur"",""104"",""626943""
""focus"",""104"",""629181""
","""event"",""trial"",""time""
""blur"",""73"",""560568""
""blur"",""104"",""626943""
","""event"",""trial"",""time""
""focus"",""73"",""561545""
""focus"",""104"",""629181""
","""event"",""trial"",""time""
""fullscreenenter"",""1"",""50831""
","
",,null,run_exp/static/images/task_images/gems/1.jpg,null,,,,,,,1,,,3,,,,,1,0.555608972,1,,,,,,,
decision,133,671860,0.0-46.0-2.0,"""event"",""trial"",""time""
""fullscreenenter"",""1"",""50831""
""blur"",""73"",""560568""
""focus"",""73"",""561545""
""blur"",""104"",""626943""
""focus"",""104"",""629181""
","""event"",""trial"",""time""
""blur"",""73"",""560568""
""blur"",""104"",""626943""
","""event"",""trial"",""time""
""focus"",""73"",""561545""
""focus"",""104"",""629181""
","""event"",""trial"",""time""
""fullscreenenter"",""1"",""50831""
","
",,212.6,run_exp/static/images/task_images/land.jpg,65,,,,,,,0,,,3,,,,,,,,102107,1,8,FALSE,,,
dig,134,674660,0.0-47.0-0.0,"""event"",""trial"",""time""
""fullscreenenter"",""1"",""50831""
""blur"",""73"",""560568""
""focus"",""73"",""561545""
""blur"",""104"",""626943""
""focus"",""104"",""629181""
","""event"",""trial"",""time""
""blur"",""73"",""560568""
""blur"",""104"",""626943""
","""event"",""trial"",""time""
""focus"",""73"",""561545""
""focus"",""104"",""629181""
","""event"",""trial"",""time""
""fullscreenenter"",""1"",""50831""
","
",,,,,,,,,,,,"[{""stimulus"":""run_exp/static/images/task_images/dig.jpg"",""time"":0.10000002384185791},{""stimulus"":""run_exp/static/images/task_images/land.jpg"",""time"":934.1000000238419},{""stimulus"":""run_exp/static/images/task_images/dig.jpg"",""time"":1871.5}]",[],3,,,,,,,,,,,,,,
harvest,135,675670,0.0-47.0-1.0,"""event"",""trial"",""time""
""fullscreenenter"",""1"",""50831""
""blur"",""73"",""560568""
""focus"",""73"",""561545""
""blur"",""104"",""626943""
""focus"",""104"",""629181""
","""event"",""trial"",""time""
""blur"",""73"",""560568""
""blur"",""104"",""626943""
","""event"",""trial"",""time""
""focus"",""73"",""561545""
""focus"",""104"",""629181""
","""event"",""trial"",""time""
""fullscreenenter"",""1"",""50831""
","
",,null,run_exp/static/images/task_images/gems/0.jpg,null,,,,,,,0,,,3,,,,,0,0.528586665,NaN,,,,,,,
decision,136,676044,0.0-47.0-2.0,"""event"",""trial"",""time""
""fullscreenenter"",""1"",""50831""
""blur"",""73"",""560568""
""focus"",""73"",""561545""
""blur"",""104"",""626943""
""focus"",""104"",""629181""
","""event"",""trial"",""time""
""blur"",""73"",""560568""
""blur"",""104"",""626943""
","""event"",""trial"",""time""
""focus"",""73"",""561545""
""focus"",""104"",""629181""
","""event"",""trial"",""time""
""fullscreenenter"",""1"",""50831""
","
",,373,run_exp/static/images/task_images/land.jpg,76,,,,,,,0,,,3,,,,,,,,106291,1,9,TRUE,,,
travel,137,685673,0.0-48.0-0.0,"""event"",""trial"",""time""
""fullscreenenter"",""1"",""50831""
""blur"",""73"",""560568""
""focus"",""73"",""561545""
""blur"",""104"",""626943""
""focus"",""104"",""629181""
","""event"",""trial"",""time""
""blur"",""73"",""560568""
""blur"",""104"",""626943""
","""event"",""trial"",""time""
""focus"",""73"",""561545""
""focus"",""104"",""629181""
","""event"",""trial"",""time""
""fullscreenenter"",""1"",""50831""
","
",,,,,,,,,,,,"[{""stimulus"":""run_exp/static/images/task_images/rocket-01.jpg"",""time"":0.29999998211860657},{""stimulus"":""run_exp/static/images/task_images/rocket-02.jpg"",""time"":1078.2999999821186},{""stimulus"":""run_exp/static/images/task_images/rocket-03.jpg"",""time"":2139},{""stimulus"":""run_exp/static/images/task_images/rocket-04.jpg"",""time"":3210},{""stimulus"":""run_exp/static/images/task_images/rocket-05.jpg"",""time"":4285},{""stimulus"":""run_exp/static/images/task_images/rocket-06.jpg"",""time"":5356.699999988079},{""stimulus"":""run_exp/static/images/task_images/rocket-07.jpg"",""time"":6420.4000000059605},{""stimulus"":""run_exp/static/images/task_images/rocket-08.jpg"",""time"":7493.5},{""stimulus"":""run_exp/static/images/task_images/rocket-09.jpg"",""time"":8556.699999988079}]",[],3,,,,,,,,,,,,,,
alien_welcome,138,690686,0.0-48.0-1.0,"""event"",""trial"",""time""
""fullscreenenter"",""1"",""50831""
""blur"",""73"",""560568""
""focus"",""73"",""561545""
""blur"",""104"",""626943""
""focus"",""104"",""629181""
","""event"",""trial"",""time""
""blur"",""73"",""560568""
""blur"",""104"",""626943""
","""event"",""trial"",""time""
""focus"",""73"",""561545""
""focus"",""104"",""629181""
","""event"",""trial"",""time""
""fullscreenenter"",""1"",""50831""
","
",,null,run_exp/static/images/task_images/aliens/old_aliens/planet/alien_planet-35.jpg,null,,,,,,,,,,,,,35,"28,74,25,35,29,14,10,32,51,11,61,39,62,9,33,16,4,53,18,13,66,68,8,65,12,30,54,41,67,79,21,56,19,46,77",,,,,,,,,,
land,139,691189,0.0-48.0-2.0,"""event"",""trial"",""time""
""fullscreenenter"",""1"",""50831""
""blur"",""73"",""560568""
""focus"",""73"",""561545""
""blur"",""104"",""626943""
""focus"",""104"",""629181""
","""event"",""trial"",""time""
""blur"",""73"",""560568""
""blur"",""104"",""626943""
","""event"",""trial"",""time""
""focus"",""73"",""561545""
""focus"",""104"",""629181""
","""event"",""trial"",""time""
""fullscreenenter"",""1"",""50831""
","
",,null,run_exp/static/images/task_images/land.jpg,null,,,,,,,99,,,4,,,,,,,,,,,,,,
dig,140,693193,0.0-48.0-3.0,"""event"",""trial"",""time""
""fullscreenenter"",""1"",""50831""
""blur"",""73"",""560568""
""focus"",""73"",""561545""
""blur"",""104"",""626943""
""focus"",""104"",""629181""
","""event"",""trial"",""time""
""blur"",""73"",""560568""
""blur"",""104"",""626943""
","""event"",""trial"",""time""
""focus"",""73"",""561545""
""focus"",""104"",""629181""
","""event"",""trial"",""time""
""fullscreenenter"",""1"",""50831""
","
",,,,,,,,,,,,"[{""stimulus"":""run_exp/static/images/task_images/dig.jpg"",""time"":0.29999998211860657},{""stimulus"":""run_exp/static/images/task_images/land.jpg"",""time"":676.6999999880791},{""stimulus"":""run_exp/static/images/task_images/dig.jpg"",""time"":1343.8999999761581}]",[],4,,,,,,,,,,,,,,
harvest,141,694204,0.0-48.0-4.0,"""event"",""trial"",""time""
""fullscreenenter"",""1"",""50831""
""blur"",""73"",""560568""
""focus"",""73"",""561545""
""blur"",""104"",""626943""
""focus"",""104"",""629181""
","""event"",""trial"",""time""
""blur"",""73"",""560568""
""blur"",""104"",""626943""
","""event"",""trial"",""time""
""focus"",""73"",""561545""
""focus"",""104"",""629181""
","""event"",""trial"",""time""
""fullscreenenter"",""1"",""50831""
","
",,null,run_exp/static/images/task_images/gems/99.jpg,null,,,,,,,55,,,4,,,,,99,0.559799364,0.555555556,,,,,,,
decision,142,694238,0.0-48.0-5.0,"""event"",""trial"",""time""
""fullscreenenter"",""1"",""50831""
""blur"",""73"",""560568""
""focus"",""73"",""561545""
""blur"",""104"",""626943""
""focus"",""104"",""629181""
","""event"",""trial"",""time""
""blur"",""73"",""560568""
""blur"",""104"",""626943""
","""event"",""trial"",""time""
""focus"",""73"",""561545""
""focus"",""104"",""629181""
","""event"",""trial"",""time""
""fullscreenenter"",""1"",""50831""
","
",,32.90000001,run_exp/static/images/task_images/land.jpg,65,,,,,,,55,,,4,,,,,,,,124485,1,0,FALSE,,,
dig,143,697222,0.0-49.0-0.0,"""event"",""trial"",""time""
""fullscreenenter"",""1"",""50831""
""blur"",""73"",""560568""
""focus"",""73"",""561545""
""blur"",""104"",""626943""
""focus"",""104"",""629181""
","""event"",""trial"",""time""
""blur"",""73"",""560568""
""blur"",""104"",""626943""
","""event"",""trial"",""time""
""focus"",""73"",""561545""
""focus"",""104"",""629181""
","""event"",""trial"",""time""
""fullscreenenter"",""1"",""50831""
","
",,,,,,,,,,,,"[{""stimulus"":""run_exp/static/images/task_images/dig.jpg"",""time"":0.09999999403953552},{""stimulus"":""run_exp/static/images/task_images/land.jpg"",""time"":996.3999999761581},{""stimulus"":""run_exp/static/images/task_images/dig.jpg"",""time"":1984.5999999940395}]",[],4,,,,,,,,,,,,,,
harvest,144,698226,0.0-49.0-1.0,"""event"",""trial"",""time""
""fullscreenenter"",""1"",""50831""
""blur"",""73"",""560568""
""focus"",""73"",""561545""
""blur"",""104"",""626943""
""focus"",""104"",""629181""
","""event"",""trial"",""time""
""blur"",""73"",""560568""
""blur"",""104"",""626943""
","""event"",""trial"",""time""
""focus"",""73"",""561545""
""focus"",""104"",""629181""
","""event"",""trial"",""time""
""fullscreenenter"",""1"",""50831""
","
",,null,run_exp/static/images/task_images/gems/55.jpg,null,,,,,,,30,,,4,,,,,55,0.544657775,0.545454545,,,,,,,
decision,145,698327,0.0-49.0-2.0,"""event"",""trial"",""time""
""fullscreenenter"",""1"",""50831""
""blur"",""73"",""560568""
""focus"",""73"",""561545""
""blur"",""104"",""626943""
""focus"",""104"",""629181""
","""event"",""trial"",""time""
""blur"",""73"",""560568""
""blur"",""104"",""626943""
","""event"",""trial"",""time""
""focus"",""73"",""561545""
""focus"",""104"",""629181""
","""event"",""trial"",""time""
""fullscreenenter"",""1"",""50831""
","
",,99.30000001,run_exp/static/images/task_images/land.jpg,65,,,,,,,30,,,4,,,,,,,,128574,1,1,FALSE,,,
dig,146,701238,0.0-50.0-0.0,"""event"",""trial"",""time""
""fullscreenenter"",""1"",""50831""
""blur"",""73"",""560568""
""focus"",""73"",""561545""
""blur"",""104"",""626943""
""focus"",""104"",""629181""
","""event"",""trial"",""time""
""blur"",""73"",""560568""
""blur"",""104"",""626943""
","""event"",""trial"",""time""
""focus"",""73"",""561545""
""focus"",""104"",""629181""
","""event"",""trial"",""time""
""fullscreenenter"",""1"",""50831""
","
",,,,,,,,,,,,"[{""stimulus"":""run_exp/static/images/task_images/dig.jpg"",""time"":0.20000001788139343},{""stimulus"":""run_exp/static/images/task_images/land.jpg"",""time"":971.8000000119209},{""stimulus"":""run_exp/static/images/task_images/dig.jpg"",""time"":1935.5999999940395}]",[],4,,,,,,,,,,,,,,
harvest,147,702245,0.0-50.0-1.0,"""event"",""trial"",""time""
""fullscreenenter"",""1"",""50831""
""blur"",""73"",""560568""
""focus"",""73"",""561545""
""blur"",""104"",""626943""
""focus"",""104"",""629181""
","""event"",""trial"",""time""
""blur"",""73"",""560568""
""blur"",""104"",""626943""
","""event"",""trial"",""time""
""focus"",""73"",""561545""
""focus"",""104"",""629181""
","""event"",""trial"",""time""
""fullscreenenter"",""1"",""50831""
","
",,null,run_exp/static/images/task_images/gems/30.jpg,null,,,,,,,13,,,4,,,,,30,0.433319752,0.433333333,,,,,,,
decision,148,702511,0.0-50.0-2.0,"""event"",""trial"",""time""
""fullscreenenter"",""1"",""50831""
""blur"",""73"",""560568""
""focus"",""73"",""561545""
""blur"",""104"",""626943""
""focus"",""104"",""629181""
","""event"",""trial"",""time""
""blur"",""73"",""560568""
""blur"",""104"",""626943""
","""event"",""trial"",""time""
""focus"",""73"",""561545""
""focus"",""104"",""629181""
","""event"",""trial"",""time""
""fullscreenenter"",""1"",""50831""
","
",,264.3,run_exp/static/images/task_images/land.jpg,65,,,,,,,13,,,4,,,,,,,,132758,1,2,FALSE,,,
dig,149,705249,0.0-51.0-0.0,"""event"",""trial"",""time""
""fullscreenenter"",""1"",""50831""
""blur"",""73"",""560568""
""focus"",""73"",""561545""
""blur"",""104"",""626943""
""focus"",""104"",""629181""
","""event"",""trial"",""time""
""blur"",""73"",""560568""
""blur"",""104"",""626943""
","""event"",""trial"",""time""
""focus"",""73"",""561545""
""focus"",""104"",""629181""
","""event"",""trial"",""time""
""fullscreenenter"",""1"",""50831""
","
",,,,,,,,,,,,"[{""stimulus"":""run_exp/static/images/task_images/dig.jpg"",""time"":0.10000002384185791},{""stimulus"":""run_exp/static/images/task_images/land.jpg"",""time"":919.4000000059605},{""stimulus"":""run_exp/static/images/task_images/dig.jpg"",""time"":1832.1000000238419}]",[],4,,,,,,,,,,,,,,
harvest,150,706261,0.0-51.0-1.0,"""event"",""trial"",""time""
""fullscreenenter"",""1"",""50831""
""blur"",""73"",""560568""
""focus"",""73"",""561545""
""blur"",""104"",""626943""
""focus"",""104"",""629181""
","""event"",""trial"",""time""
""blur"",""73"",""560568""
""blur"",""104"",""626943""
","""event"",""trial"",""time""
""focus"",""73"",""561545""
""focus"",""104"",""629181""
","""event"",""trial"",""time""
""fullscreenenter"",""1"",""50831""
","
",,null,run_exp/static/images/task_images/gems/13.jpg,null,,,,,,,6,,,4,,,,,13,0.490064342,0.461538462,,,,,,,
decision,151,706367,0.0-51.0-2.0,"""event"",""trial"",""time""
""fullscreenenter"",""1"",""50831""
""blur"",""73"",""560568""
""focus"",""73"",""561545""
""blur"",""104"",""626943""
""focus"",""104"",""629181""
","""event"",""trial"",""time""
""blur"",""73"",""560568""
""blur"",""104"",""626943""
","""event"",""trial"",""time""
""focus"",""73"",""561545""
""focus"",""104"",""629181""
","""event"",""trial"",""time""
""fullscreenenter"",""1"",""50831""
","
",,105.4,run_exp/static/images/task_images/land.jpg,76,,,,,,,6,,,4,,,,,,,,136614,1,3,TRUE,,,
travel,152,716267,0.0-52.0-0.0,"""event"",""trial"",""time""
""fullscreenenter"",""1"",""50831""
""blur"",""73"",""560568""
""focus"",""73"",""561545""
""blur"",""104"",""626943""
""focus"",""104"",""629181""
","""event"",""trial"",""time""
""blur"",""73"",""560568""
""blur"",""104"",""626943""
","""event"",""trial"",""time""
""focus"",""73"",""561545""
""focus"",""104"",""629181""
","""event"",""trial"",""time""
""fullscreenenter"",""1"",""50831""
","
",,,,,,,,,,,,"[{""stimulus"":""run_exp/static/images/task_images/rocket-01.jpg"",""time"":0.09999999403953552},{""stimulus"":""run_exp/static/images/task_images/rocket-02.jpg"",""time"":1102.3999999761581},{""stimulus"":""run_exp/static/images/task_images/rocket-03.jpg"",""time"":2210.0999999940395},{""stimulus"":""run_exp/static/images/task_images/rocket-04.jpg"",""time"":3304.7999999821186},{""stimulus"":""run_exp/static/images/task_images/rocket-05.jpg"",""time"":4401.5},{""stimulus"":""run_exp/static/images/task_images/rocket-06.jpg"",""time"":5507.299999982119},{""stimulus"":""run_exp/static/images/task_images/rocket-07.jpg"",""time"":6599.0999999940395},{""stimulus"":""run_exp/static/images/task_images/rocket-08.jpg"",""time"":7695.699999988079},{""stimulus"":""run_exp/static/images/task_images/rocket-09.jpg"",""time"":8803.299999982119}]",[],4,,,,,,,,,,,,,,
alien_welcome,153,721275,0.0-52.0-1.0,"""event"",""trial"",""time""
""fullscreenenter"",""1"",""50831""
""blur"",""73"",""560568""
""focus"",""73"",""561545""
""blur"",""104"",""626943""
""focus"",""104"",""629181""
","""event"",""trial"",""time""
""blur"",""73"",""560568""
""blur"",""104"",""626943""
","""event"",""trial"",""time""
""focus"",""73"",""561545""
""focus"",""104"",""629181""
","""event"",""trial"",""time""
""fullscreenenter"",""1"",""50831""
","
",,null,run_exp/static/images/task_images/aliens/old_aliens/planet/alien_planet-29.jpg,null,,,,,,,,,,,,,29,"28,74,25,35,29,14,10,32,51,11,61,39,62,9,33,16,4,53,18,13,66,68,8,65,12,30,54,41,67,79,21,56,19,46,77",,,,,,,,,,
land,154,721779,0.0-52.0-2.0,"""event"",""trial"",""time""
""fullscreenenter"",""1"",""50831""
""blur"",""73"",""560568""
""focus"",""73"",""561545""
""blur"",""104"",""626943""
""focus"",""104"",""629181""
","""event"",""trial"",""time""
""blur"",""73"",""560568""
""blur"",""104"",""626943""
","""event"",""trial"",""time""
""focus"",""73"",""561545""
""focus"",""104"",""629181""
","""event"",""trial"",""time""
""fullscreenenter"",""1"",""50831""
","
",,null,run_exp/static/images/task_images/land.jpg,null,,,,,,,97,,,5,,,,,,,,,,,,,,
dig,155,723790,0.0-52.0-3.0,"""event"",""trial"",""time""
""fullscreenenter"",""1"",""50831""
""blur"",""73"",""560568""
""focus"",""73"",""561545""
""blur"",""104"",""626943""
""focus"",""104"",""629181""
","""event"",""trial"",""time""
""blur"",""73"",""560568""
""blur"",""104"",""626943""
","""event"",""trial"",""time""
""focus"",""73"",""561545""
""focus"",""104"",""629181""
","""event"",""trial"",""time""
""fullscreenenter"",""1"",""50831""
","
",,,,,,,,,,,,"[{""stimulus"":""run_exp/static/images/task_images/dig.jpg"",""time"":0.4000000059604645},{""stimulus"":""run_exp/static/images/task_images/land.jpg"",""time"":676.5999999940395},{""stimulus"":""run_exp/static/images/task_images/dig.jpg"",""time"":1340.7999999821186}]",[],5,,,,,,,,,,,,,,
harvest,156,724796,0.0-52.0-4.0,"""event"",""trial"",""time""
""fullscreenenter"",""1"",""50831""
""blur"",""73"",""560568""
""focus"",""73"",""561545""
""blur"",""104"",""626943""
""focus"",""104"",""629181""
","""event"",""trial"",""time""
""blur"",""73"",""560568""
""blur"",""104"",""626943""
","""event"",""trial"",""time""
""focus"",""73"",""561545""
""focus"",""104"",""629181""
","""event"",""trial"",""time""
""fullscreenenter"",""1"",""50831""
","
",,null,run_exp/static/images/task_images/gems/97.jpg,null,,,,,,,61,,,5,,,,,97,0.629591506,0.628865979,,,,,,,
decision,157,724857,0.0-52.0-5.0,"""event"",""trial"",""time""
""fullscreenenter"",""1"",""50831""
""blur"",""73"",""560568""
""focus"",""73"",""561545""
""blur"",""104"",""626943""
""focus"",""104"",""629181""
","""event"",""trial"",""time""
""blur"",""73"",""560568""
""blur"",""104"",""626943""
","""event"",""trial"",""time""
""focus"",""73"",""561545""
""focus"",""104"",""629181""
","""event"",""trial"",""time""
""fullscreenenter"",""1"",""50831""
","
",,58.90000001,run_exp/static/images/task_images/land.jpg,65,,,,,,,61,,,5,,,,,,,,155104,1,0,FALSE,,,
dig,158,727804,0.0-53.0-0.0,"""event"",""trial"",""time""
""fullscreenenter"",""1"",""50831""
""blur"",""73"",""560568""
""focus"",""73"",""561545""
""blur"",""104"",""626943""
""focus"",""104"",""629181""
","""event"",""trial"",""time""
""blur"",""73"",""560568""
""blur"",""104"",""626943""
","""event"",""trial"",""time""
""focus"",""73"",""561545""
""focus"",""104"",""629181""
","""event"",""trial"",""time""
""fullscreenenter"",""1"",""50831""
","
",,,,,,,,,,,,"[{""stimulus"":""run_exp/static/images/task_images/dig.jpg"",""time"":0.09999999403953552},{""stimulus"":""run_exp/static/images/task_images/land.jpg"",""time"":981.4000000059605},{""stimulus"":""run_exp/static/images/task_images/dig.jpg"",""time"":1969.9000000059605}]",[],5,,,,,,,,,,,,,,
harvest,159,728809,0.0-53.0-1.0,"""event"",""trial"",""time""
""fullscreenenter"",""1"",""50831""
""blur"",""73"",""560568""
""focus"",""73"",""561545""
""blur"",""104"",""626943""
""focus"",""104"",""629181""
","""event"",""trial"",""time""
""blur"",""73"",""560568""
""blur"",""104"",""626943""
","""event"",""trial"",""time""
""focus"",""73"",""561545""
""focus"",""104"",""629181""
","""event"",""trial"",""time""
""fullscreenenter"",""1"",""50831""
","
",,null,run_exp/static/images/task_images/gems/61.jpg,null,,,,,,,37,,,5,,,,,61,0.60376031,0.606557377,,,,,,,
decision,160,729451,0.0-53.0-2.0,"""event"",""trial"",""time""
""fullscreenenter"",""1"",""50831""
""blur"",""73"",""560568""
""focus"",""73"",""561545""
""blur"",""104"",""626943""
""focus"",""104"",""629181""
","""event"",""trial"",""time""
""blur"",""73"",""560568""
""blur"",""104"",""626943""
","""event"",""trial"",""time""
""focus"",""73"",""561545""
""focus"",""104"",""629181""
","""event"",""trial"",""time""
""fullscreenenter"",""1"",""50831""
","
",,640.5,run_exp/static/images/task_images/land.jpg,65,,,,,,,37,,,5,,,,,,,,159698,1,1,FALSE,,,
dig,161,731821,0.0-54.0-0.0,"""event"",""trial"",""time""
""fullscreenenter"",""1"",""50831""
""blur"",""73"",""560568""
""focus"",""73"",""561545""
""blur"",""104"",""626943""
""focus"",""104"",""629181""
","""event"",""trial"",""time""
""blur"",""73"",""560568""
""blur"",""104"",""626943""
","""event"",""trial"",""time""
""focus"",""73"",""561545""
""focus"",""104"",""629181""
","""event"",""trial"",""time""
""fullscreenenter"",""1"",""50831""
","
",,,,,,,,,,,,"[{""stimulus"":""run_exp/static/images/task_images/dig.jpg"",""time"":0.10000002384185791},{""stimulus"":""run_exp/static/images/task_images/land.jpg"",""time"":796.1000000238419},{""stimulus"":""run_exp/static/images/task_images/dig.jpg"",""time"":1582.9000000059605}]",[],5,,,,,,,,,,,,,,
harvest,162,732826,0.0-54.0-1.0,"""event"",""trial"",""time""
""fullscreenenter"",""1"",""50831""
""blur"",""73"",""560568""
""focus"",""73"",""561545""
""blur"",""104"",""626943""
""focus"",""104"",""629181""
","""event"",""trial"",""time""
""blur"",""73"",""560568""
""blur"",""104"",""626943""
","""event"",""trial"",""time""
""focus"",""73"",""561545""
""focus"",""104"",""629181""
","""event"",""trial"",""time""
""fullscreenenter"",""1"",""50831""
","
",,null,run_exp/static/images/task_images/gems/37.jpg,null,,,,,,,18,,,5,,,,,37,0.477455265,0.486486486,,,,,,,
decision,163,733555,0.0-54.0-2.0,"""event"",""trial"",""time""
""fullscreenenter"",""1"",""50831""
""blur"",""73"",""560568""
""focus"",""73"",""561545""
""blur"",""104"",""626943""
""focus"",""104"",""629181""
","""event"",""trial"",""time""
""blur"",""73"",""560568""
""blur"",""104"",""626943""
","""event"",""trial"",""time""
""focus"",""73"",""561545""
""focus"",""104"",""629181""
","""event"",""trial"",""time""
""fullscreenenter"",""1"",""50831""
","
",,728.2,run_exp/static/images/task_images/land.jpg,65,,,,,,,18,,,5,,,,,,,,163802,1,2,FALSE,,,
dig,164,735833,0.0-55.0-0.0,"""event"",""trial"",""time""
""fullscreenenter"",""1"",""50831""
""blur"",""73"",""560568""
""focus"",""73"",""561545""
""blur"",""104"",""626943""
""focus"",""104"",""629181""
","""event"",""trial"",""time""
""blur"",""73"",""560568""
""blur"",""104"",""626943""
","""event"",""trial"",""time""
""focus"",""73"",""561545""
""focus"",""104"",""629181""
","""event"",""trial"",""time""
""fullscreenenter"",""1"",""50831""
","
",,,,,,,,,,,,"[{""stimulus"":""run_exp/static/images/task_images/dig.jpg"",""time"":0},{""stimulus"":""run_exp/static/images/task_images/land.jpg"",""time"":762.2999999821186},{""stimulus"":""run_exp/static/images/task_images/dig.jpg"",""time"":1526.3999999761581}]",[],5,,,,,,,,,,,,,,
harvest,165,736845,0.0-55.0-1.0,"""event"",""trial"",""time""
""fullscreenenter"",""1"",""50831""
""blur"",""73"",""560568""
""focus"",""73"",""561545""
""blur"",""104"",""626943""
""focus"",""104"",""629181""
","""event"",""trial"",""time""
""blur"",""73"",""560568""
""blur"",""104"",""626943""
","""event"",""trial"",""time""
""focus"",""73"",""561545""
""focus"",""104"",""629181""
","""event"",""trial"",""time""
""fullscreenenter"",""1"",""50831""
","
",,null,run_exp/static/images/task_images/gems/18.jpg,null,,,,,,,8,,,5,,,,,18,0.430410186,0.444444444,,,,,,,
decision,166,737332,0.0-55.0-2.0,"""event"",""trial"",""time""
""fullscreenenter"",""1"",""50831""
""blur"",""73"",""560568""
""focus"",""73"",""561545""
""blur"",""104"",""626943""
""focus"",""104"",""629181""
","""event"",""trial"",""time""
""blur"",""73"",""560568""
""blur"",""104"",""626943""
","""event"",""trial"",""time""
""focus"",""73"",""561545""
""focus"",""104"",""629181""
","""event"",""trial"",""time""
""fullscreenenter"",""1"",""50831""
","
",,484.5,run_exp/static/images/task_images/land.jpg,76,,,,,,,8,,,5,,,,,,,,167579,1,3,TRUE,,,
travel,167,746849,0.0-56.0-0.0,"""event"",""trial"",""time""
""fullscreenenter"",""1"",""50831""
""blur"",""73"",""560568""
""focus"",""73"",""561545""
""blur"",""104"",""626943""
""focus"",""104"",""629181""
","""event"",""trial"",""time""
""blur"",""73"",""560568""
""blur"",""104"",""626943""
","""event"",""trial"",""time""
""focus"",""73"",""561545""
""focus"",""104"",""629181""
","""event"",""trial"",""time""
""fullscreenenter"",""1"",""50831""
","
",,,,,,,,,,,,"[{""stimulus"":""run_exp/static/images/task_images/rocket-01.jpg"",""time"":0.20000001788139343},{""stimulus"":""run_exp/static/images/task_images/rocket-02.jpg"",""time"":1068.4000000059605},{""stimulus"":""run_exp/static/images/task_images/rocket-03.jpg"",""time"":2124},{""stimulus"":""run_exp/static/images/task_images/rocket-04.jpg"",""time"":3177.9000000059605},{""stimulus"":""run_exp/static/images/task_images/rocket-05.jpg"",""time"":4236.200000017881},{""stimulus"":""run_exp/static/images/task_images/rocket-06.jpg"",""time"":5290.200000017881},{""stimulus"":""run_exp/static/images/task_images/rocket-07.jpg"",""time"":6345.9000000059605},{""stimulus"":""run_exp/static/images/task_images/rocket-08.jpg"",""time"":7401.800000011921},{""stimulus"":""run_exp/static/images/task_images/rocket-09.jpg"",""time"":8458.90000000596}]",[],5,,,,,,,,,,,,,,
alien_welcome,168,751861,0.0-56.0-1.0,"""event"",""trial"",""time""
""fullscreenenter"",""1"",""50831""
""blur"",""73"",""560568""
""focus"",""73"",""561545""
""blur"",""104"",""626943""
""focus"",""104"",""629181""
","""event"",""trial"",""time""
""blur"",""73"",""560568""
""blur"",""104"",""626943""
","""event"",""trial"",""time""
""focus"",""73"",""561545""
""focus"",""104"",""629181""
","""event"",""trial"",""time""
""fullscreenenter"",""1"",""50831""
","
",,null,run_exp/static/images/task_images/aliens/old_aliens/planet/alien_planet-14.jpg,null,,,,,,,,,,,,,14,"28,74,25,35,29,14,10,32,51,11,61,39,62,9,33,16,4,53,18,13,66,68,8,65,12,30,54,41,67,79,21,56,19,46,77",,,,,,,,,,
land,169,752372,0.0-56.0-2.0,"""event"",""trial"",""time""
""fullscreenenter"",""1"",""50831""
""blur"",""73"",""560568""
""focus"",""73"",""561545""
""blur"",""104"",""626943""
""focus"",""104"",""629181""
","""event"",""trial"",""time""
""blur"",""73"",""560568""
""blur"",""104"",""626943""
","""event"",""trial"",""time""
""focus"",""73"",""561545""
""focus"",""104"",""629181""
","""event"",""trial"",""time""
""fullscreenenter"",""1"",""50831""
","
",,null,run_exp/static/images/task_images/land.jpg,null,,,,,,,96,,,6,,,,,,,,,,,,,,
dig,170,754378,0.0-56.0-3.0,"""event"",""trial"",""time""
""fullscreenenter"",""1"",""50831""
""blur"",""73"",""560568""
""focus"",""73"",""561545""
""blur"",""104"",""626943""
""focus"",""104"",""629181""
","""event"",""trial"",""time""
""blur"",""73"",""560568""
""blur"",""104"",""626943""
","""event"",""trial"",""time""
""focus"",""73"",""561545""
""focus"",""104"",""629181""
","""event"",""trial"",""time""
""fullscreenenter"",""1"",""50831""
","
",,,,,,,,,,,,"[{""stimulus"":""run_exp/static/images/task_images/dig.jpg"",""time"":0.20000001788139343},{""stimulus"":""run_exp/static/images/task_images/land.jpg"",""time"":679.9000000059605},{""stimulus"":""run_exp/static/images/task_images/dig.jpg"",""time"":1339}]",[],6,,,,,,,,,,,,,,
harvest,171,755380,0.0-56.0-4.0,"""event"",""trial"",""time""
""fullscreenenter"",""1"",""50831""
""blur"",""73"",""560568""
""focus"",""73"",""561545""
""blur"",""104"",""626943""
""focus"",""104"",""629181""
","""event"",""trial"",""time""
""blur"",""73"",""560568""
""blur"",""104"",""626943""
","""event"",""trial"",""time""
""focus"",""73"",""561545""
""focus"",""104"",""629181""
","""event"",""trial"",""time""
""fullscreenenter"",""1"",""50831""
","
",,null,run_exp/static/images/task_images/gems/96.jpg,null,,,,,,,73,,,6,,,,,96,0.76496729,0.760416667,,,,,,,
decision,172,755574,0.0-56.0-5.0,"""event"",""trial"",""time""
""fullscreenenter"",""1"",""50831""
""blur"",""73"",""560568""
""focus"",""73"",""561545""
""blur"",""104"",""626943""
""focus"",""104"",""629181""
","""event"",""trial"",""time""
""blur"",""73"",""560568""
""blur"",""104"",""626943""
","""event"",""trial"",""time""
""focus"",""73"",""561545""
""focus"",""104"",""629181""
","""event"",""trial"",""time""
""fullscreenenter"",""1"",""50831""
","
",,192.1,run_exp/static/images/task_images/land.jpg,65,,,,,,,73,,,6,,,,,,,,185821,1,0,FALSE,,,
dig,173,758396,0.0-57.0-0.0,"""event"",""trial"",""time""
""fullscreenenter"",""1"",""50831""
""blur"",""73"",""560568""
""focus"",""73"",""561545""
""blur"",""104"",""626943""
""focus"",""104"",""629181""
","""event"",""trial"",""time""
""blur"",""73"",""560568""
""blur"",""104"",""626943""
","""event"",""trial"",""time""
""focus"",""73"",""561545""
""focus"",""104"",""629181""
","""event"",""trial"",""time""
""fullscreenenter"",""1"",""50831""
","
",,,,,,,,,,,,"[{""stimulus"":""run_exp/static/images/task_images/dig.jpg"",""time"":0.20000001788139343},{""stimulus"":""run_exp/static/images/task_images/land.jpg"",""time"":944.7000000178814},{""stimulus"":""run_exp/static/images/task_images/dig.jpg"",""time"":1883.1000000238419}]",[],6,,,,,,,,,,,,,,
harvest,174,759404,0.0-57.0-1.0,"""event"",""trial"",""time""
""fullscreenenter"",""1"",""50831""
""blur"",""73"",""560568""
""focus"",""73"",""561545""
""blur"",""104"",""626943""
""focus"",""104"",""629181""
","""event"",""trial"",""time""
""blur"",""73"",""560568""
""blur"",""104"",""626943""
","""event"",""trial"",""time""
""focus"",""73"",""561545""
""focus"",""104"",""629181""
","""event"",""trial"",""time""
""fullscreenenter"",""1"",""50831""
","
",,null,run_exp/static/images/task_images/gems/73.jpg,null,,,,,,,53,,,6,,,,,73,0.731394614,0.726027397,,,,,,,
decision,175,759566,0.0-57.0-2.0,"""event"",""trial"",""time""
""fullscreenenter"",""1"",""50831""
""blur"",""73"",""560568""
""focus"",""73"",""561545""
""blur"",""104"",""626943""
""focus"",""104"",""629181""
","""event"",""trial"",""time""
""blur"",""73"",""560568""
""blur"",""104"",""626943""
","""event"",""trial"",""time""
""focus"",""73"",""561545""
""focus"",""104"",""629181""
","""event"",""trial"",""time""
""fullscreenenter"",""1"",""50831""
","
",,161,run_exp/static/images/task_images/land.jpg,65,,,,,,,53,,,6,,,,,,,,189814,1,1,FALSE,,,
dig,176,762417,0.0-58.0-0.0,"""event"",""trial"",""time""
""fullscreenenter"",""1"",""50831""
""blur"",""73"",""560568""
""focus"",""73"",""561545""
""blur"",""104"",""626943""
""focus"",""104"",""629181""
","""event"",""trial"",""time""
""blur"",""73"",""560568""
""blur"",""104"",""626943""
","""event"",""trial"",""time""
""focus"",""73"",""561545""
""focus"",""104"",""629181""
","""event"",""trial"",""time""
""fullscreenenter"",""1"",""50831""
","
",,,,,,,,,,,,"[{""stimulus"":""run_exp/static/images/task_images/dig.jpg"",""time"":0.09999999403953552},{""stimulus"":""run_exp/static/images/task_images/land.jpg"",""time"":954.3000000119209},{""stimulus"":""run_exp/static/images/task_images/dig.jpg"",""time"":1895}]",[],6,,,,,,,,,,,,,,
harvest,177,763425,0.0-58.0-1.0,"""event"",""trial"",""time""
""fullscreenenter"",""1"",""50831""
""blur"",""73"",""560568""
""focus"",""73"",""561545""
""blur"",""104"",""626943""
""focus"",""104"",""629181""
","""event"",""trial"",""time""
""blur"",""73"",""560568""
""blur"",""104"",""626943""
","""event"",""trial"",""time""
""focus"",""73"",""561545""
""focus"",""104"",""629181""
","""event"",""trial"",""time""
""fullscreenenter"",""1"",""50831""
","
",,null,run_exp/static/images/task_images/gems/53.jpg,null,,,,,,,39,,,6,,,,,53,0.737510596,0.735849057,,,,,,,
decision,178,763535,0.0-58.0-2.0,"""event"",""trial"",""time""
""fullscreenenter"",""1"",""50831""
""blur"",""73"",""560568""
""focus"",""73"",""561545""
""blur"",""104"",""626943""
""focus"",""104"",""629181""
","""event"",""trial"",""time""
""blur"",""73"",""560568""
""blur"",""104"",""626943""
","""event"",""trial"",""time""
""focus"",""73"",""561545""
""focus"",""104"",""629181""
","""event"",""trial"",""time""
""fullscreenenter"",""1"",""50831""
","
