trial_type,trial_index,time_elapsed,internal_node_id,interactions,blur_events,focus_events,fullscreenenter_events,fullscreenexit_events,success,rt,stimulus,key_press,prompt,subject_id,participant_id,age,gender,button_pressed,next_reward,animation_sequence,responses,planet,curr_prac_trial,n_prac_rounds,alien,aliens,reward_received,decay_rate_actual,decay_rate_exp,time_in_block,block_num,prt,last_trial_on_planet,button_html,bonus,num_failures
pavlovia,0,10,0.0-0.0,"""event"",""trial"",""time""
""fullscreenenter"",""1"",""8546""
","
","
","""event"",""trial"",""time""
""fullscreenenter"",""1"",""8546""
","
",,,,,,,,,,,,,,,,,,,,,,,,,,,,
fullscreen,1,9481,0.0-1.0,"""event"",""trial"",""time""
""fullscreenenter"",""1"",""8546""
","
","
","""event"",""trial"",""time""
""fullscreenenter"",""1"",""8546""
","
",TRUE,,,,,,,,,,,,,,,,,,,,,,,,,,,
instruc_welcome,2,19589,0.0-2.0,"""event"",""trial"",""time""
""fullscreenenter"",""1"",""8546""
","
","
","""event"",""trial"",""time""
""fullscreenenter"",""1"",""8546""
","
",,null,run_exp/static/audio/clip_1_welcome.m4a,null,"<p>Howdy! In this experiment, you’ll be an explorer traveling through space to collect space treasure.</p><p>Your mission is to collect as much treasure as possible.</p><br><br><p><img src='run_exp/static/images/task_images/opening_img-01.jpg' height='300' width='auto'></p>",9356,285,12.19,Male,,,,,,,,,,,,,,,,,,,
audio-keyboard-response,3,36247,0.0-3.0,"""event"",""trial"",""time""
""fullscreenenter"",""1"",""8546""
","
","
","""event"",""trial"",""time""
""fullscreenenter"",""1"",""8546""
","
",,null,run_exp/static/audio/clip_2_move.m4a,null,,,,,,,,,,,,,,,,,,,,,,,,
welcome_dec,4,37605,0.0-4.0,"""event"",""trial"",""time""
""fullscreenenter"",""1"",""8546""
","
","
","""event"",""trial"",""time""
""fullscreenenter"",""1"",""8546""
","
",,1346.8,"<p>Howdy! In this experiment, you’ll be an explorer traveling through space to collect space treasure.</p><p>Your mission is to collect as much treasure as possible.</p><br><br><p><img src='run_exp/static/images/task_images/opening_img-01.jpg' height='300' width='auto'></p>",,,,,,,1,,,,,,,,,,,,,,,,,,
html-keyboard-response,5,38054,0.0-5.0,"""event"",""trial"",""time""
""fullscreenenter"",""1"",""8546""
","
","
","""event"",""trial"",""time""
""fullscreenenter"",""1"",""8546""
","
",,421.1,"<p>Howdy! In this experiment, you’ll be an explorer traveling through space to collect space treasure.</p><p>Your mission is to collect as much treasure as possible.</p><br><br><p><img src='run_exp/static/images/task_images/opening_img-01.jpg' height='300' width='auto'></p><button class=""jspsych-html-btn-unchosen""><img src=""run_exp/static/images/task_images/planet-01.jpg"" height=""50""></button><button class=""jspsych-html-btn-chosen""><img src=""run_exp/static/images/task_images/planet-02.jpg"" height=""50""></button><p><b>[press the space bar to lock in your answer]<b><br></p>",32,,,,,,,,,,,,,,,,,,,,,,,,
instruc_goal,6,48165,0.0-6.0-0.0,"""event"",""trial"",""time""
""fullscreenenter"",""1"",""8546""
","
","
","""event"",""trial"",""time""
""fullscreenenter"",""1"",""8546""
","
",,null,run_exp/static/audio/clip_3_goal.m4a,null,"<p> As a space explorer, you’ll visit different planets to dig for space treasure, these pink gems.</p> <p> The more treasure you dig up, the more bonus money you’ll win! </p><br><br><p><img src='run_exp/static/images/task_images/pink_gem.jpg' height='300' width='auto'></p>",,,,,,,,,,,,,,,,,,,,,,,
instruc_goal,7,55506,0.0-6.0-1.0,"""event"",""trial"",""time""
""fullscreenenter"",""1"",""8546""
","
","
","""event"",""trial"",""time""
""fullscreenenter"",""1"",""8546""
","
",,7332.9,"<p> As a space explorer, you’ll visit different planets to dig for space treasure, these pink gems.</p> <p> The more treasure you dig up, the more bonus money you’ll win! </p><br><br><p><img src='run_exp/static/images/task_images/pink_gem.jpg' height='300' width='auto'></p>",,,,,,,1,,,,,,,,,,,,,,,,,,
html-keyboard-response,8,56525,0.0-6.0-2.0,"""event"",""trial"",""time""
""fullscreenenter"",""1"",""8546""
","
","
","""event"",""trial"",""time""
""fullscreenenter"",""1"",""8546""
","
",,1011.6,"<p> As a space explorer, you’ll visit different planets to dig for space treasure, these pink gems.</p> <p> The more treasure you dig up, the more bonus money you’ll win! </p><br><br><p><img src='run_exp/static/images/task_images/pink_gem.jpg' height='300' width='auto'></p><button class=""jspsych-html-btn-unchosen""><img src=""run_exp/static/images/task_images/planet-01.jpg"" height=""50""></button><button class=""jspsych-html-btn-chosen""><img src=""run_exp/static/images/task_images/planet-02.jpg"" height=""50""></button><p><b>[press the space bar to lock in your answer]<b><br></p>",32,,,,,,,,,,,,,,,,,,,,,,,,
instruc_dig,9,72586,0.0-7.0-0.0,"""event"",""trial"",""time""
""fullscreenenter"",""1"",""8546""
","
","
","""event"",""trial"",""time""
""fullscreenenter"",""1"",""8546""
","
",,null,run_exp/static/audio/clip_4_dig.m4a,null,,,,,,,100,,,,,,,,,,,,,,,,,
instruc_dig_try,10,83707,0.0-7.0-1.0,"""event"",""trial"",""time""
""fullscreenenter"",""1"",""8546""
","
","
","""event"",""trial"",""time""
""fullscreenenter"",""1"",""8546""
","
",,11116.6,"<p> When you’ve arrived at a new planet, you will dig once. </p> <p>Then, you get to decide if you want to stay on the planet and dig again or travel to a new planet and dig there.</p> <p> To stay and dig, press the letter <strong>‘A’</strong> on your keyboard. Try pressing it now! </p><p><img src='run_exp/static/images/task_images/land.jpg'  height='700' width='auto'></p>",65,"<p> When you’ve arrived at a new planet, you will dig once. </p> <p>Then, you get to decide if you want to stay on the planet and dig again or travel to a new planet and dig there.</p> <p> To stay and dig, press the letter <strong>‘A’</strong> on your keyboard. Try pressing it now! </p><p><img src='run_exp/static/images/task_images/land.jpg'  height='700' width='auto'></p>",,,,,,100,,,,,,,,,,,,,,,,,
dig_prac,11,85736,0.0-7.0-2.0,"""event"",""trial"",""time""
""fullscreenenter"",""1"",""8546""
","
","
","""event"",""trial"",""time""
""fullscreenenter"",""1"",""8546""
","
",,,,,,,,,,,,"[{""stimulus"":""run_exp/static/images/task_images/dig.jpg"",""time"":0.8000000715255737},{""stimulus"":""run_exp/static/images/task_images/land.jpg"",""time"":669.7000000476837},{""stimulus"":""run_exp/static/images/task_images/dig.jpg"",""time"":1347.5}]",[],,,,,,,,,,,,,,,
instruc_travel,12,122011,0.0-7.0-3.0,"""event"",""trial"",""time""
""fullscreenenter"",""1"",""8546""
","
","
","""event"",""trial"",""time""
""fullscreenenter"",""1"",""8546""
","
",,null,run_exp/static/audio/clip_5_travel.m4a,null,"<p>Every time you dig up gems, there are less gems on the planet, so the more you dig on a planet the fewer gems you’ll get with each dig.</p><p>When gems are running low, you may want to travel to a new planet. </p> <p>  Planets are very far apart in this galaxy, so it will take some time to travel between them. </p> <br><p>There are lots and lots of planets for you to visit, so you won’t be able to return to any planets you’ve seen before. </p><br><p>To leave this planet and travel to a new one, press the letter <strong>‘L’</strong> on your keyboard. Try pressing it now! </p><p><img src='run_exp/static/images/task_images/rocket-01.jpg'  height='600' width='auto'></p>",,,,,,,,,,,,,,,,,,,,,,,
instruc_travel_try,13,123227,0.0-7.0-4.0,"""event"",""trial"",""time""
""fullscreenenter"",""1"",""8546""
","
","
","""event"",""trial"",""time""
""fullscreenenter"",""1"",""8546""
","
",,1212.7,"<p>Every time you dig up gems, there are less gems on the planet, so the more you dig on a planet the fewer gems you’ll get with each dig.</p><p>When gems are running low, you may want to travel to a new planet. </p> <p>  Planets are very far apart in this galaxy, so it will take some time to travel between them. </p> <br><p>There are lots and lots of planets for you to visit, so you won’t be able to return to any planets you’ve seen before. </p><br><p>To leave this planet and travel to a new one, press the letter <strong>‘L’</strong> on your keyboard. Try pressing it now! </p><p><img src='run_exp/static/images/task_images/rocket-01.jpg'  height='600' width='auto'></p>",76,"<p>Every time you dig up gems, there are less gems on the planet, so the more you dig on a planet the fewer gems you’ll get with each dig.</p><p>When gems are running low, you may want to travel to a new planet. </p> <p>  Planets are very far apart in this galaxy, so it will take some time to travel between them. </p> <br><p>There are lots and lots of planets for you to visit, so you won’t be able to return to any planets you’ve seen before. </p><br><p>To leave this planet and travel to a new one, press the letter <strong>‘L’</strong> on your keyboard. Try pressing it now! </p><p><img src='run_exp/static/images/task_images/rocket-01.jpg'  height='600' width='auto'></p>",,,,,,,,,,,,,,,,,,,,,,,
travel_prac,14,133238,0.0-7.0-5.0,"""event"",""trial"",""time""
""fullscreenenter"",""1"",""8546""
","
","
","""event"",""trial"",""time""
""fullscreenenter"",""1"",""8546""
","
",,,,,,,,,,,,"[{""stimulus"":""run_exp/static/images/task_images/rocket-01.jpg"",""time"":0.7999999523162842},{""stimulus"":""run_exp/static/images/task_images/rocket-02.jpg"",""time"":1123.0999999046326},{""stimulus"":""run_exp/static/images/task_images/rocket-03.jpg"",""time"":2239},{""stimulus"":""run_exp/static/images/task_images/rocket-04.jpg"",""time"":3343.6999999284744},{""stimulus"":""run_exp/static/images/task_images/rocket-05.jpg"",""time"":4460.799999952316},{""stimulus"":""run_exp/static/images/task_images/rocket-06.jpg"",""time"":5559.399999976158},{""stimulus"":""run_exp/static/images/task_images/rocket-07.jpg"",""time"":6674},{""stimulus"":""run_exp/static/images/task_images/rocket-08.jpg"",""time"":7792.299999952316},{""stimulus"":""run_exp/static/images/task_images/rocket-09.jpg"",""time"":8891.699999928474}]",[],0,,,,,,,,,,,,,,
instruc_alien_greet,15,160512,0.0-7.0-6.0,"""event"",""trial"",""time""
""fullscreenenter"",""1"",""8546""
","
","
","""event"",""trial"",""time""
""fullscreenenter"",""1"",""8546""
","
",,null,run_exp/static/audio/clip_6_alien.m4a,null,"<p>When you arrive at a new planet, the alien who owns the treasure mine on that planet will greet you!</p><p>The better an alien takes care of their mine the easier it is to dig for gems. Some aliens take better care of their mine than others. So, you won’t get exactly the same amount of gems on each planet.</p><p>What the alien looks like does not tell you anything about how many gems there are on the planet.</p><br><p><img src=""run_exp/static/images/task_images/aliens/instructions_aliens/planet/alien_planet-1.jpg""  height=""600"" width=""auto""></p>",,,,,,,,,,,,,,,,,,,,,,,
instruc_alien_greet,16,218697,0.0-7.0-7.0,"""event"",""trial"",""time""
""fullscreenenter"",""1"",""8546""
","
","
","""event"",""trial"",""time""
""fullscreenenter"",""1"",""8546""
","
",,58176.2,"<p>When you arrive at a new planet, the alien who owns the treasure mine on that planet will greet you!</p><p>The better an alien takes care of their mine the easier it is to dig for gems. Some aliens take better care of their mine than others. So, you won’t get exactly the same amount of gems on each planet.</p><p>What the alien looks like does not tell you anything about how many gems there are on the planet.</p><br><p><img src=""run_exp/static/images/task_images/aliens/instructions_aliens/planet/alien_planet-1.jpg""  height=""600"" width=""auto""></p>",,,,,,,1,,,,,,,,,,,,,,,,,,
html-keyboard-response,17,219729,0.0-7.0-8.0,"""event"",""trial"",""time""
""fullscreenenter"",""1"",""8546""
","
","
","""event"",""trial"",""time""
""fullscreenenter"",""1"",""8546""
","
",,1024.4,"<p>When you arrive at a new planet, the alien who owns the treasure mine on that planet will greet you!</p><p>The better an alien takes care of their mine the easier it is to dig for gems. Some aliens take better care of their mine than others. So, you won’t get exactly the same amount of gems on each planet.</p><p>What the alien looks like does not tell you anything about how many gems there are on the planet.</p><br><p><img src=""run_exp/static/images/task_images/aliens/instructions_aliens/planet/alien_planet-1.jpg""  height=""600"" width=""auto""></p><button class=""jspsych-html-btn-unchosen""><img src=""run_exp/static/images/task_images/planet-01.jpg"" height=""50""></button><button class=""jspsych-html-btn-chosen""><img src=""run_exp/static/images/task_images/planet-02.jpg"" height=""50""></button><p><b>[press the space bar to lock in your answer]<b><br></p>",32,,,,,,,,,,,,,,,,,,,,,,,,
time_out,18,231505,0.0-8.0-0.0,"""event"",""trial"",""time""
""fullscreenenter"",""1"",""8546""
","
","
","""event"",""trial"",""time""
""fullscreenenter"",""1"",""8546""
","
",,null,run_exp/static/audio/clip_7_timeout.m4a,null,"<p>If you don't make your choice fast enough, you’ll have to wait a few seconds before you can make another one.</p><p>You can’t dig for more gems or travel to new planets. You just have to sit and wait.</p><br><p><img src='run_exp/static/images/task_images/time_out.jpg'  height='600' width='auto'></p>",,,,,,,,,,,,,,,,,,,,,,,
time_out,19,233234,0.0-8.0-1.0,"""event"",""trial"",""time""
""fullscreenenter"",""1"",""8546""
","
","
","""event"",""trial"",""time""
""fullscreenenter"",""1"",""8546""
","
",,1721,"<p>If you don't make your choice fast enough, you’ll have to wait a few seconds before you can make another one.</p><p>You can’t dig for more gems or travel to new planets. You just have to sit and wait.</p><br><p><img src='run_exp/static/images/task_images/time_out.jpg'  height='600' width='auto'></p>",,,,,,,1,,,,,,,,,,,,,,,,,,
html-keyboard-response,20,234363,0.0-8.0-2.0,"""event"",""trial"",""time""
""fullscreenenter"",""1"",""8546""
","
","
","""event"",""trial"",""time""
""fullscreenenter"",""1"",""8546""
","
",,1124,"<p>If you don't make your choice fast enough, you’ll have to wait a few seconds before you can make another one.</p><p>You can’t dig for more gems or travel to new planets. You just have to sit and wait.</p><br><p><img src='run_exp/static/images/task_images/time_out.jpg'  height='600' width='auto'></p><button class=""jspsych-html-btn-unchosen""><img src=""run_exp/static/images/task_images/planet-01.jpg"" height=""50""></button><button class=""jspsych-html-btn-chosen""><img src=""run_exp/static/images/task_images/planet-02.jpg"" height=""50""></button><p><b>[press the space bar to lock in your answer]<b><br></p>",32,,,,,,,,,,,,,,,,,,,,,,,,
instruc_break,21,250086,0.0-9.0-0.0,"""event"",""trial"",""time""
""fullscreenenter"",""1"",""8546""
","
","
","""event"",""trial"",""time""
""fullscreenenter"",""1"",""8546""
","
",,null,run_exp/static/audio/clip_8_break.m4a,null,"<p> After digging and traveling for a while, you’ll be able to take a break at home base. </p><p>The game will last 20 minutes no matter what.</p><p>You will visit home base every 5 minutes, so, you will visit home base three times during the game.</p><br><p><img src='run_exp/static/images/task_images/home_base.jpg' height='600' width='auto'></p>",,,,,,,,,,,,,,,,,,,,,,,
instruc_break,22,258959,0.0-9.0-1.0,"""event"",""trial"",""time""
""fullscreenenter"",""1"",""8546""
","
","
","""event"",""trial"",""time""
""fullscreenenter"",""1"",""8546""
","
",,8865,"<p> After digging and traveling for a while, you’ll be able to take a break at home base. </p><p>The game will last 20 minutes no matter what.</p><p>You will visit home base every 5 minutes, so, you will visit home base three times during the game.</p><br><p><img src='run_exp/static/images/task_images/home_base.jpg' height='600' width='auto'></p>",,,,,,,1,,,,,,,,,,,,,,,,,,
html-keyboard-response,23,259876,0.0-9.0-2.0,"""event"",""trial"",""time""
""fullscreenenter"",""1"",""8546""
","
","
","""event"",""trial"",""time""
""fullscreenenter"",""1"",""8546""
","
",,910.7,"<p> After digging and traveling for a while, you’ll be able to take a break at home base. </p><p>The game will last 20 minutes no matter what.</p><p>You will visit home base every 5 minutes, so, you will visit home base three times during the game.</p><br><p><img src='run_exp/static/images/task_images/home_base.jpg' height='600' width='auto'></p><button class=""jspsych-html-btn-unchosen""><img src=""run_exp/static/images/task_images/planet-01.jpg"" height=""50""></button><button class=""jspsych-html-btn-chosen""><img src=""run_exp/static/images/task_images/planet-02.jpg"" height=""50""></button><p><b>[press the space bar to lock in your answer]<b><br></p>",32,,,,,,,,,,,,,,,,,,,,,,,,
instruc_prac_game,24,270047,0.0-10.0-0.0,"""event"",""trial"",""time""
""fullscreenenter"",""1"",""8546""
","
","
","""event"",""trial"",""time""
""fullscreenenter"",""1"",""8546""
","
",,null,run_exp/static/audio/clip_9_practice.m4a,null,"<p> Are you ready to play a practice game? </p> <p>In this practice game, you'll be digging up barrels of gems. But, in the real game, you'll be digging up the gems themselves. </p>",,,,,,,,,,,,,,,,,,,,,,,
html-button-response,25,271739,0.0-10.0-1.0,"""event"",""trial"",""time""
""fullscreenenter"",""1"",""8546""
","
","
","""event"",""trial"",""time""
""fullscreenenter"",""1"",""8546""
","
",,1688,"<p> Are you ready to play a practice game? </p> <p>In this practice game, you'll be digging up barrels of gems. But, in the real game, you'll be digging up the gems themselves. </p>",,,,,,,0,,,,,,,,,,,,,,,,,,
alien_welcome_prac,26,276760,0.0-11.0-0.0,"""event"",""trial"",""time""
""fullscreenenter"",""1"",""8546""
","
","
","""event"",""trial"",""time""
""fullscreenenter"",""1"",""8546""
","
",,null,run_exp/static/images/task_images/aliens/practice_aliens/planet/alien_planet-5.jpg,null,,,,,,,,,,,,,,,,,,,,,,,,
land_prac,27,277267,0.0-11.0-1.0,"""event"",""trial"",""time""
""fullscreenenter"",""1"",""8546""
","
","
","""event"",""trial"",""time""
""fullscreenenter"",""1"",""8546""
","
",,null,run_exp/static/images/task_images/land.jpg,null,,,,,,,99,,,0,,,,,,,,,,,,,,
dig_prac,28,279292,0.0-11.0-2.0,"""event"",""trial"",""time""
""fullscreenenter"",""1"",""8546""
","
","
","""event"",""trial"",""time""
""fullscreenenter"",""1"",""8546""
","
",,,,,,,,,,,,"[{""stimulus"":""run_exp/static/images/task_images/dig.jpg"",""time"":1.2000000476837158},{""stimulus"":""run_exp/static/images/task_images/land.jpg"",""time"":672.2000000476837},{""stimulus"":""run_exp/static/images/task_images/dig.jpg"",""time"":1338.7999999523163}]",[],,,,,,,,,,,,,,,
harvest_prac,29,280296,0.0-11.0-3.0,"""event"",""trial"",""time""
""fullscreenenter"",""1"",""8546""
","
","
","""event"",""trial"",""time""
""fullscreenenter"",""1"",""8546""
","
",,null,run_exp/static/images/task_images/barrel_text.jpg,null,,,,,,,,,,,,,,,,,,,,,,,,
decision_prac,30,282904,0.0-11.0-4.0,"""event"",""trial"",""time""
""fullscreenenter"",""1"",""8546""
","
","
","""event"",""trial"",""time""
""fullscreenenter"",""1"",""8546""
","
",,2604.6,run_exp/static/images/task_images/land.jpg,65,,,,,,,,,,,1,,,,,,,,,,,,,
dig_prac,31,284922,0.0-12.0-0.0,"""event"",""trial"",""time""
""fullscreenenter"",""1"",""8546""
","
","
","""event"",""trial"",""time""
""fullscreenenter"",""1"",""8546""
","
",,,,,,,,,,,,"[{""stimulus"":""run_exp/static/images/task_images/dig.jpg"",""time"":0.9000000953674316},{""stimulus"":""run_exp/static/images/task_images/land.jpg"",""time"":672.1000000238419},{""stimulus"":""run_exp/static/images/task_images/dig.jpg"",""time"":1347.8000000715256}]",[],,,,,,,,,,,,,,,
harvest_prac,32,285930,0.0-12.0-1.0,"""event"",""trial"",""time""
""fullscreenenter"",""1"",""8546""
","
","
","""event"",""trial"",""time""
""fullscreenenter"",""1"",""8546""
","
",,null,run_exp/static/images/task_images/barrel_text.jpg,null,,,,,,,,,,,,,,,,,,,,,,,,
decision_prac,33,286518,0.0-12.0-2.0,"""event"",""trial"",""time""
""fullscreenenter"",""1"",""8546""
","
","
","""event"",""trial"",""time""
""fullscreenenter"",""1"",""8546""
","
",,584.2,run_exp/static/images/task_images/land.jpg,65,,,,,,,,,,,2,,,,,,,,,,,,,
dig_prac,34,288550,0.0-13.0-0.0,"""event"",""trial"",""time""
""fullscreenenter"",""1"",""8546""
","
","
","""event"",""trial"",""time""
""fullscreenenter"",""1"",""8546""
","
",,,,,,,,,,,,"[{""stimulus"":""run_exp/static/images/task_images/dig.jpg"",""time"":1.100000023841858},{""stimulus"":""run_exp/static/images/task_images/land.jpg"",""time"":672.1000000238419},{""stimulus"":""run_exp/static/images/task_images/dig.jpg"",""time"":1347.7000000476837}]",[],,,,,,,,,,,,,,,
harvest_prac,35,289559,0.0-13.0-1.0,"""event"",""trial"",""time""
""fullscreenenter"",""1"",""8546""
","
","
","""event"",""trial"",""time""
""fullscreenenter"",""1"",""8546""
","
",,null,run_exp/static/images/task_images/barrel_text.jpg,null,,,,,,,,,,,,,,,,,,,,,,,,
decision_prac,36,290597,0.0-13.0-2.0,"""event"",""trial"",""time""
""fullscreenenter"",""1"",""8546""
","
","
","""event"",""trial"",""time""
""fullscreenenter"",""1"",""8546""
","
",,1034.1,run_exp/static/images/task_images/land.jpg,65,,,,,,,,,,,3,,,,,,,,,,,,,
dig_prac,37,292623,0.0-14.0-0.0,"""event"",""trial"",""time""
""fullscreenenter"",""1"",""8546""
","
","
","""event"",""trial"",""time""
""fullscreenenter"",""1"",""8546""
","
",,,,,,,,,,,,"[{""stimulus"":""run_exp/static/images/task_images/dig.jpg"",""time"":0.8999999761581421},{""stimulus"":""run_exp/static/images/task_images/land.jpg"",""time"":686.2999999523163},{""stimulus"":""run_exp/static/images/task_images/dig.jpg"",""time"":1341.8999999761581}]",[],,,,,,,,,,,,,,,
harvest_prac,38,293630,0.0-14.0-1.0,"""event"",""trial"",""time""
""fullscreenenter"",""1"",""8546""
","
","
","""event"",""trial"",""time""
""fullscreenenter"",""1"",""8546""
","
",,null,run_exp/static/images/task_images/barrel_text.jpg,null,,,,,,,,,,,,,,,,,,,,,,,,
decision_prac,39,294108,0.0-14.0-2.0,"""event"",""trial"",""time""
""fullscreenenter"",""1"",""8546""
","
","
","""event"",""trial"",""time""
""fullscreenenter"",""1"",""8546""
","
",,474,run_exp/static/images/task_images/land.jpg,76,,,,,,,,,,,4,,,,,,,,,,,,,
travel,40,303650,0.0-15.0-0.0,"""event"",""trial"",""time""
""fullscreenenter"",""1"",""8546""
","
","
","""event"",""trial"",""time""
""fullscreenenter"",""1"",""8546""
","
",,,,,,,,,,,,"[{""stimulus"":""run_exp/static/images/task_images/rocket-01.jpg"",""time"":0.8999999761581421},{""stimulus"":""run_exp/static/images/task_images/rocket-02.jpg"",""time"":1070.2000000476837},{""stimulus"":""run_exp/static/images/task_images/rocket-03.jpg"",""time"":2126.7000000476837},{""stimulus"":""run_exp/static/images/task_images/rocket-04.jpg"",""time"":3178.7999999523163},{""stimulus"":""run_exp/static/images/task_images/rocket-05.jpg"",""time"":4251.600000023842},{""stimulus"":""run_exp/static/images/task_images/rocket-06.jpg"",""time"":5309.399999976158},{""stimulus"":""run_exp/static/images/task_images/rocket-07.jpg"",""time"":6358.799999952316},{""stimulus"":""run_exp/static/images/task_images/rocket-08.jpg"",""time"":7410.700000047684},{""stimulus"":""run_exp/static/images/task_images/rocket-09.jpg"",""time"":8478.399999976158}]",[],0,,,,,,,,,,,,,,
alien_welcome_prac,41,308660,0.0-15.0-1.0,"""event"",""trial"",""time""
""fullscreenenter"",""1"",""8546""
","
","
","""event"",""trial"",""time""
""fullscreenenter"",""1"",""8546""
","
",,null,run_exp/static/images/task_images/aliens/practice_aliens/planet/alien_planet-4.jpg,null,,,,,,,,,,,,,,,,,,,,,,,,
land_prac,42,309177,0.0-15.0-2.0,"""event"",""trial"",""time""
""fullscreenenter"",""1"",""8546""
","
","
","""event"",""trial"",""time""
""fullscreenenter"",""1"",""8546""
","
",,null,run_exp/static/images/task_images/land.jpg,null,,,,,,,97,,,0,,,,,,,,,,,,,,
dig_prac,43,311190,0.0-15.0-3.0,"""event"",""trial"",""time""
""fullscreenenter"",""1"",""8546""
","
","
","""event"",""trial"",""time""
""fullscreenenter"",""1"",""8546""
","
",,,,,,,,,,,,"[{""stimulus"":""run_exp/static/images/task_images/dig.jpg"",""time"":1.100000023841858},{""stimulus"":""run_exp/static/images/task_images/land.jpg"",""time"":673.8999999761581},{""stimulus"":""run_exp/static/images/task_images/dig.jpg"",""time"":1350}]",[],,,,,,,,,,,,,,,
harvest_prac,44,312210,0.0-15.0-4.0,"""event"",""trial"",""time""
""fullscreenenter"",""1"",""8546""
","
","
","""event"",""trial"",""time""
""fullscreenenter"",""1"",""8546""
","
",,null,run_exp/static/images/task_images/barrel_text.jpg,null,,,,,,,,,,,,,,,,,,,,,,,,
decision_prac,45,314999,0.0-15.0-5.0,"""event"",""trial"",""time""
""fullscreenenter"",""1"",""8546""
","
","
","""event"",""trial"",""time""
""fullscreenenter"",""1"",""8546""
","
",,2784.3,run_exp/static/images/task_images/land.jpg,65,,,,,,,,,,,,1,,,,,,,,,,,,
quiz_instruc,46,324423,0.0-16.0-0.0,"""event"",""trial"",""time""
""fullscreenenter"",""1"",""8546""
","
","
","""event"",""trial"",""time""
""fullscreenenter"",""1"",""8546""
","
",,9409.9,run_exp/static/audio/clip_10_quiz.m4a,,,,,,,0,,,,,,,,,,,,,,,,,,
instruc_repeat,47,367204,0.0-16.0-1.0,"""event"",""trial"",""time""
""fullscreenenter"",""1"",""8546""
","
","
","""event"",""trial"",""time""
""fullscreenenter"",""1"",""8546""
","
",,null,"<p> Are you ready to play a practice game? </p> <p>In this practice game, you'll be digging up barrels of gems. But, in the real game, you'll be digging up the gems themselves. </p>",null,"<p>In this game, your goal is to collect as many gems as you can. That’s how you will win bonus money. </p> <p>The entire game will last 20 minutes no matter how many gems you collect or how many planets you visit. </p><p>To stay on a planet and dig again, press the letter A on your keyboard. To leave for a new planet, press the letter L.</p><p>The more you dig on a planet, the fewer gems you’ll get with each dig which is why you might consider leaving for a new planet. </p><p>When you arrive at a new planet, you’ll be greeted by an alien. What the alien looks like does not tell you anything about how much treasure is on the planet. </p>",,,,,,,,,,,,,,,,,,,,,,,
instruc_repeat_continue,48,398418,0.0-16.0-2.0,"""event"",""trial"",""time""
""fullscreenenter"",""1"",""8546""
","
","
","""event"",""trial"",""time""
""fullscreenenter"",""1"",""8546""
","
",,31209.5,"<p> Are you ready to play a practice game? </p> <p>In this practice game, you'll be digging up barrels of gems. But, in the real game, you'll be digging up the gems themselves. </p>",,,,,,,0,,,,,,,,,,,,,,,,,,
quiz_q_1_ask,49,403043,0.0-16.0-3.0,"""event"",""trial"",""time""
""fullscreenenter"",""1"",""8546""
","
","
","""event"",""trial"",""time""
""fullscreenenter"",""1"",""8546""
","
",,4618.1,run_exp/static/audio/clip_11_q1_ask.m4a,,,,,,,2,,,,,,,,,,,,,,,,,,
quiz_q_1_fb_correct,50,406959,0.0-17.0-0.0,"""event"",""trial"",""time""
""fullscreenenter"",""1"",""8546""
","
","
","""event"",""trial"",""time""
""fullscreenenter"",""1"",""8546""
","
",,null,run_exp/static/audio/clip_12_q1_correct.m4a,null,<p>That’s correct. You win extra money by collecting more gems.</p>,,,,,,,,,,,,,,,,,,,,,,,
quiz_q_2_ask,51,410056,0.0-17.0-1.0,"""event"",""trial"",""time""
""fullscreenenter"",""1"",""8546""
","
","
","""event"",""trial"",""time""
""fullscreenenter"",""1"",""8546""
","
",,3090.3,run_exp/static/audio/clip_14_q2_ask.m4a,,,,,,,1,,,,,,,,,,,,,,,,,,
quiz_q_2_fb_correct,52,414099,0.0-18.0-0.0,"""event"",""trial"",""time""
""fullscreenenter"",""1"",""8546""
","
","
","""event"",""trial"",""time""
""fullscreenenter"",""1"",""8546""
","
",,null,run_exp/static/audio/clip_15_q2_correct.m4a,null,<p>That’s correct. The experiment is 20 minutes no matter what.</p>,,,,,,,,,,,,,,,,,,,,,,,
quiz_q_3_ask,53,418370,0.0-18.0-1.0,"""event"",""trial"",""time""
""fullscreenenter"",""1"",""8546""
","
","
","""event"",""trial"",""time""
""fullscreenenter"",""1"",""8546""
","
",,4265.1,run_exp/static/audio/clip_17_q3_ask.m4a,,,,,,,1,,,,,,,,,,,,,,,,,,
quiz_q_3_fb_correct,54,422498,0.0-19.0-0.0,"""event"",""trial"",""time""
""fullscreenenter"",""1"",""8546""
","
","
","""event"",""trial"",""time""
""fullscreenenter"",""1"",""8546""
","
",,null,run_exp/static/audio/clip_18_q3_correct.m4a,null,<p> That’s correct. You press the letter L to travel to a new planet.</p>,,,,,,,,,,,,,,,,,,,,,,,
quiz_q_4_ask,55,426439,0.0-19.0-1.0,"""event"",""trial"",""time""
""fullscreenenter"",""1"",""8546""
","
","
","""event"",""trial"",""time""
""fullscreenenter"",""1"",""8546""
","
",,3937.6,run_exp/static/audio/clip_20_q4_ask.m4a,,,,,,,0,,,,,,,,,,,,,,,,,,
quiz_q_4_fb_correct,56,431799,0.0-20.0-0.0,"""event"",""trial"",""time""
""fullscreenenter"",""1"",""8546""
","
","
","""event"",""trial"",""time""
""fullscreenenter"",""1"",""8546""
","
",,null,run_exp/static/audio/clip_21_q4_correct.m4a,null,<p> That’s correct. The more you dig on a planet the fewer gems you’ll get with each dig. </p>,,,,,,,,,,,,,,,,,,,,,,,
quiz_q_5_ask,57,436480,0.0-20.0-1.0,"""event"",""trial"",""time""
""fullscreenenter"",""1"",""8546""
","
","
","""event"",""trial"",""time""
""fullscreenenter"",""1"",""8546""
","
",,4676.3,run_exp/static/audio/clip_23_q5_ask.m4a,,,,,,,1,,,,,,,,,,,,,,,,,,
quiz_q_5_fb_correct,58,441538,0.0-21.0-0.0,"""event"",""trial"",""time""
""fullscreenenter"",""1"",""8546""
","
","
","""event"",""trial"",""time""
""fullscreenenter"",""1"",""8546""
","
",,null,run_exp/static/audio/clip_24_q5_correct.m4a,null,<p> That’s correct. The alien tells you nothing about how much treasure is on the planet.</p>,,,,,,,,,,,,,,,,,,,,,,,
quiz_correct,59,445039,0.0-22.0-0.0,"""event"",""trial"",""time""
""fullscreenenter"",""1"",""8546""
","
","
","""event"",""trial"",""time""
""fullscreenenter"",""1"",""8546""
","
",,null,run_exp/static/audio/clip_26_correct_quiz.m4a,null,,,,,,,,,,,,,,,,,,,,,,,,
quiz_correct_continue,60,447551,0.0-22.0-1.0,"""event"",""trial"",""time""
""fullscreenenter"",""1"",""8546""
","
","
","""event"",""trial"",""time""
""fullscreenenter"",""1"",""8546""
","
",,2510.4,<p>Good job! You're now ready to move on to the real game!</p>,,,,,,,0,,,,,,,,,,,,,,,,,,
audio-keyboard-response,61,457899,0.0-22.0-2.0,"""event"",""trial"",""time""
""fullscreenenter"",""1"",""8546""
","
","
","""event"",""trial"",""time""
""fullscreenenter"",""1"",""8546""
","
",,null,run_exp/static/audio/clip_28_real_game.m4a,null,,,,,,,,,,,,,,,,,,,,,,,,
instruc_begin_exp_contine,62,472017,0.0-22.0-3.0,"""event"",""trial"",""time""
""fullscreenenter"",""1"",""8546""
","
","
","""event"",""trial"",""time""
""fullscreenenter"",""1"",""8546""
","
",,14115.2,"<p>Now that you know how  to dig for space treasure and travel to new planets,you can start exploring! </p><p>Do you want to go over the instructions again or get started with the real game?</p>",,,,,,,1,,,,,,1,,,,,,,,,,,,
alien_welcome,63,477039,0.0-23.0-0.0,"""event"",""trial"",""time""
""fullscreenenter"",""1"",""8546""
","
","
","""event"",""trial"",""time""
""fullscreenenter"",""1"",""8546""
","
",,null,run_exp/static/images/task_images/aliens/old_aliens/planet/alien_planet-72.jpg,null,,,,,,,,,,,,,72,"72,78,25,40,31,35,39,47,68,23,54,73,41,18,2,19,32,51,5,8,15,76,80,67,12,1,14,79,42,30,50,58,71,48,26,55,11,62,77",,,,,,,,,,
land,64,477556,0.0-23.0-1.0,"""event"",""trial"",""time""
""fullscreenenter"",""1"",""8546""
","
","
","""event"",""trial"",""time""
""fullscreenenter"",""1"",""8546""
","
",,null,run_exp/static/images/task_images/land.jpg,null,,,,,,,107,,,1,,,,,,,,,,,,,,
dig,65,479577,0.0-23.0-2.0,"""event"",""trial"",""time""
""fullscreenenter"",""1"",""8546""
","
","
","""event"",""trial"",""time""
""fullscreenenter"",""1"",""8546""
","
",,,,,,,,,,,,"[{""stimulus"":""run_exp/static/images/task_images/dig.jpg"",""time"":0.5999999046325684},{""stimulus"":""run_exp/static/images/task_images/land.jpg"",""time"":683.8999999761581},{""stimulus"":""run_exp/static/images/task_images/dig.jpg"",""time"":1341.6999999284744}]",[],1,,,,,,,,,,,,,,
harvest,66,480582,0.0-23.0-3.0,"""event"",""trial"",""time""
""fullscreenenter"",""1"",""8546""
","
","
","""event"",""trial"",""time""
""fullscreenenter"",""1"",""8546""
","
",,null,run_exp/static/images/task_images/gems/107.jpg,null,,,,,,,16,,,1,,,,,107,0.147669502,0.14953271,,,,,,,
decision,67,481729,0.0-23.0-4.0,"""event"",""trial"",""time""
""fullscreenenter"",""1"",""8546""
","
","
","""event"",""trial"",""time""
""fullscreenenter"",""1"",""8546""
","
",,1144.7,run_exp/static/images/task_images/land.jpg,65,,,,,,,16,,,1,,,,,,,,9709,1,0,FALSE,,,
dig,68,483595,0.0-24.0-0.0,"""event"",""trial"",""time""
""fullscreenenter"",""1"",""8546""
","
","
","""event"",""trial"",""time""
""fullscreenenter"",""1"",""8546""
","
",,,,,,,,,,,,"[{""stimulus"":""run_exp/static/images/task_images/dig.jpg"",""time"":0.5999999046325684},{""stimulus"":""run_exp/static/images/task_images/land.jpg"",""time"":635.5999999046326},{""stimulus"":""run_exp/static/images/task_images/dig.jpg"",""time"":1247.5}]",[],1,,,,,,,,,,,,,,
harvest,69,484597,0.0-24.0-1.0,"""event"",""trial"",""time""
""fullscreenenter"",""1"",""8546""
","
","
","""event"",""trial"",""time""
""fullscreenenter"",""1"",""8546""
","
",,null,run_exp/static/images/task_images/gems/16.jpg,null,,,,,,,4,,,1,,,,,16,0.230545309,0.25,,,,,,,
decision,70,487613,0.0-24.0-2.0,"""event"",""trial"",""time""
""fullscreenenter"",""1"",""8546""
","
","
","""event"",""trial"",""time""
""fullscreenenter"",""1"",""8546""
","
",,null,run_exp/static/images/task_images/land.jpg,null,,,,,,,4,,,1,,,,,,,,15592,1,1,FALSE,,,
time_out,71,489630,0.0-25.0-0.0,"""event"",""trial"",""time""
""fullscreenenter"",""1"",""8546""
","
","
","""event"",""trial"",""time""
""fullscreenenter"",""1"",""8546""
","
",,null,run_exp/static/images/task_images/time_out.jpg,null,,,,,,,4,,,,,,,,,,,,,,,,,
decision,72,491555,0.0-25.0-1.0,"""event"",""trial"",""time""
""fullscreenenter"",""1"",""8546""
","
","
","""event"",""trial"",""time""
""fullscreenenter"",""1"",""8546""
","
",,1921.5,run_exp/static/images/task_images/land.jpg,65,,,,,,,4,,,1,,,,,,,,19534,1,1,FALSE,,,
dig,73,492648,0.0-26.0-0.0,"""event"",""trial"",""time""
""fullscreenenter"",""1"",""8546""
","
","
","""event"",""trial"",""time""
""fullscreenenter"",""1"",""8546""
","
",,,,,,,,,,,,"[{""stimulus"":""run_exp/static/images/task_images/dig.jpg"",""time"":0.5},{""stimulus"":""run_exp/static/images/task_images/land.jpg"",""time"":370.7000000476837},{""stimulus"":""run_exp/static/images/task_images/dig.jpg"",""time"":728.1000000238419}]",[],1,,,,,,,,,,,,,,
harvest,74,493649,0.0-26.0-1.0,"""event"",""trial"",""time""
""fullscreenenter"",""1"",""8546""
","
","
","""event"",""trial"",""time""
""fullscreenenter"",""1"",""8546""
","
",,null,run_exp/static/images/task_images/gems/4.jpg,null,,,,,,,1,,,1,,,,,4,0.248821,0.25,,,,,,,
decision,75,495670,0.0-26.0-2.0,"""event"",""trial"",""time""
""fullscreenenter"",""1"",""8546""
","
","
","""event"",""trial"",""time""
""fullscreenenter"",""1"",""8546""
","
",,2018.8,run_exp/static/images/task_images/land.jpg,76,,,,,,,1,,,1,,,,,,,,23650,1,2,TRUE,,,
travel,76,503661,0.0-27.0-0.0,"""event"",""trial"",""time""
""fullscreenenter"",""1"",""8546""
","
","
","""event"",""trial"",""time""
""fullscreenenter"",""1"",""8546""
","
",,,,,,,,,,,,"[{""stimulus"":""run_exp/static/images/task_images/rocket-01.jpg"",""time"":0.6000000238418579},{""stimulus"":""run_exp/static/images/task_images/rocket-02.jpg"",""time"":895},{""stimulus"":""run_exp/static/images/task_images/rocket-03.jpg"",""time"":1786.8000000715256},{""stimulus"":""run_exp/static/images/task_images/rocket-04.jpg"",""time"":2661.2000000476837},{""stimulus"":""run_exp/static/images/task_images/rocket-05.jpg"",""time"":3556.600000023842},{""stimulus"":""run_exp/static/images/task_images/rocket-06.jpg"",""time"":4433.300000071526},{""stimulus"":""run_exp/static/images/task_images/rocket-07.jpg"",""time"":5319.5},{""stimulus"":""run_exp/static/images/task_images/rocket-08.jpg"",""time"":6205.300000071526},{""stimulus"":""run_exp/static/images/task_images/rocket-09.jpg"",""time"":7092.800000071526}]",[],1,,,,,,,,,,,,,,
alien_welcome,77,508666,0.0-27.0-1.0,"""event"",""trial"",""time""
""fullscreenenter"",""1"",""8546""
","
","
","""event"",""trial"",""time""
""fullscreenenter"",""1"",""8546""
","
",,null,run_exp/static/images/task_images/aliens/old_aliens/planet/alien_planet-78.jpg,null,,,,,,,,,,,,,78,"72,78,25,40,31,35,39,47,68,23,54,73,41,18,2,19,32,51,5,8,15,76,80,67,12,1,14,79,42,30,50,58,71,48,26,55,11,62,77",,,,,,,,,,
land,78,509183,0.0-27.0-2.0,"""event"",""trial"",""time""
""fullscreenenter"",""1"",""8546""
","
","
","""event"",""trial"",""time""
""fullscreenenter"",""1"",""8546""
","
",,null,run_exp/static/images/task_images/land.jpg,null,,,,,,,93,,,2,,,,,,,,,,,,,,
dig,79,511201,0.0-27.0-3.0,"""event"",""trial"",""time""
""fullscreenenter"",""1"",""8546""
","
","
","""event"",""trial"",""time""
""fullscreenenter"",""1"",""8546""
","
",,,,,,,,,,,,"[{""stimulus"":""run_exp/static/images/task_images/dig.jpg"",""time"":0.7000000476837158},{""stimulus"":""run_exp/static/images/task_images/land.jpg"",""time"":684.1000000238419},{""stimulus"":""run_exp/static/images/task_images/dig.jpg"",""time"":1336.1000000238419}]",[],2,,,,,,,,,,,,,,
harvest,80,512205,0.0-27.0-4.0,"""event"",""trial"",""time""
""fullscreenenter"",""1"",""8546""
","
","
","""event"",""trial"",""time""
""fullscreenenter"",""1"",""8546""
","
",,null,run_exp/static/images/task_images/gems/93.jpg,null,,,,,,,14,,,2,,,,,93,0.154881289,0.150537634,,,,,,,
decision,81,513613,0.0-27.0-5.0,"""event"",""trial"",""time""
""fullscreenenter"",""1"",""8546""
","
","
","""event"",""trial"",""time""
""fullscreenenter"",""1"",""8546""
","
",,1405.5,run_exp/static/images/task_images/land.jpg,65,,,,,,,14,,,2,,,,,,,,41592,1,0,FALSE,,,
dig,82,515225,0.0-28.0-0.0,"""event"",""trial"",""time""
""fullscreenenter"",""1"",""8546""
","
","
","""event"",""trial"",""time""
""fullscreenenter"",""1"",""8546""
","
",,,,,,,,,,,,"[{""stimulus"":""run_exp/static/images/task_images/dig.jpg"",""time"":0.40000009536743164},{""stimulus"":""run_exp/static/images/task_images/land.jpg"",""time"":543.5},{""stimulus"":""run_exp/static/images/task_images/dig.jpg"",""time"":1074.6000000238419}]",[],2,,,,,,,,,,,,,,
harvest,83,516228,0.0-28.0-1.0,"""event"",""trial"",""time""
""fullscreenenter"",""1"",""8546""
","
","
","""event"",""trial"",""time""
""fullscreenenter"",""1"",""8546""
","
",,null,run_exp/static/images/task_images/gems/14.jpg,null,,,,,,,2,,,2,,,,,14,0.163860796,0.142857143,,,,,,,
decision,84,517500,0.0-28.0-2.0,"""event"",""trial"",""time""
""fullscreenenter"",""1"",""8546""
","
","
","""event"",""trial"",""time""
""fullscreenenter"",""1"",""8546""
","
",,1270.3,run_exp/static/images/task_images/land.jpg,65,,,,,,,2,,,2,,,,,,,,45479,1,1,FALSE,,,
dig,85,519241,0.0-29.0-0.0,"""event"",""trial"",""time""
""fullscreenenter"",""1"",""8546""
","
","
","""event"",""trial"",""time""
""fullscreenenter"",""1"",""8546""
","
",,,,,,,,,,,,"[{""stimulus"":""run_exp/static/images/task_images/dig.jpg"",""time"":0.5},{""stimulus"":""run_exp/static/images/task_images/land.jpg"",""time"":581.6000000238419},{""stimulus"":""run_exp/static/images/task_images/dig.jpg"",""time"":1159.3999999761581}]",[],2,,,,,,,,,,,,,,
harvest,86,520244,0.0-29.0-1.0,"""event"",""trial"",""time""
""fullscreenenter"",""1"",""8546""
","
","
","""event"",""trial"",""time""
""fullscreenenter"",""1"",""8546""
","
",,null,run_exp/static/images/task_images/gems/2.jpg,null,,,,,,,0,,,2,,,,,2,0.218687674,0,,,,,,,
decision,87,520642,0.0-29.0-2.0,"""event"",""trial"",""time""
""fullscreenenter"",""1"",""8546""
","
","
","""event"",""trial"",""time""
""fullscreenenter"",""1"",""8546""
","
",,395.5,run_exp/static/images/task_images/land.jpg,65,,,,,,,0,,,2,,,,,,,,48621,1,2,FALSE,,,
dig,88,523263,0.0-30.0-0.0,"""event"",""trial"",""time""
""fullscreenenter"",""1"",""8546""
","
","
","""event"",""trial"",""time""
""fullscreenenter"",""1"",""8546""
","
",,,,,,,,,,,,"[{""stimulus"":""run_exp/static/images/task_images/dig.jpg"",""time"":0.5999999046325684},{""stimulus"":""run_exp/static/images/task_images/land.jpg"",""time"":878.3999999761581},{""stimulus"":""run_exp/static/images/task_images/dig.jpg"",""time"":1739.3999999761581}]",[],2,,,,,,,,,,,,,,
harvest,89,524265,0.0-30.0-1.0,"""event"",""trial"",""time""
""fullscreenenter"",""1"",""8546""
","
","
","""event"",""trial"",""time""
""fullscreenenter"",""1"",""8546""
","
",,null,run_exp/static/images/task_images/gems/0.jpg,null,,,,,,,0,,,2,,,,,0,0.208366225,NaN,,,,,,,
decision,90,524514,0.0-30.0-2.0,"""event"",""trial"",""time""
""fullscreenenter"",""1"",""8546""
","
","
","""event"",""trial"",""time""
""fullscreenenter"",""1"",""8546""
","
",,246.6,run_exp/static/images/task_images/land.jpg,65,,,,,,,0,,,2,,,,,,,,52493,1,3,FALSE,,,
dig,91,527283,0.0-31.0-0.0,"""event"",""trial"",""time""
""fullscreenenter"",""1"",""8546""
","
","
","""event"",""trial"",""time""
""fullscreenenter"",""1"",""8546""
","
",,,,,,,,,,,,"[{""stimulus"":""run_exp/static/images/task_images/dig.jpg"",""time"":0.6000000238418579},{""stimulus"":""run_exp/static/images/task_images/land.jpg"",""time"":928.1000000238419},{""stimulus"":""run_exp/static/images/task_images/dig.jpg"",""time"":1837.7000000476837}]",[],2,,,,,,,,,,,,,,
harvest,92,528291,0.0-31.0-1.0,"""event"",""trial"",""time""
""fullscreenenter"",""1"",""8546""
","
","
","""event"",""trial"",""time""
""fullscreenenter"",""1"",""8546""
","
",,null,run_exp/static/images/task_images/gems/0.jpg,null,,,,,,,0,,,2,,,,,0,0.188799975,NaN,,,,,,,
decision,93,531303,0.0-31.0-2.0,"""event"",""trial"",""time""
""fullscreenenter"",""1"",""8546""
","
","
","""event"",""trial"",""time""
""fullscreenenter"",""1"",""8546""
","
",,null,run_exp/static/images/task_images/land.jpg,null,,,,,,,0,,,2,,,,,,,,59282,1,4,FALSE,,,
time_out,94,533313,0.0-32.0-0.0,"""event"",""trial"",""time""
""fullscreenenter"",""1"",""8546""
","
","
","""event"",""trial"",""time""
""fullscreenenter"",""1"",""8546""
","
",,null,run_exp/static/images/task_images/time_out.jpg,null,,,,,,,0,,,,,,,,,,,,,,,,,
decision,95,533413,0.0-32.0-1.0,"""event"",""trial"",""time""
""fullscreenenter"",""1"",""8546""
","
","
","""event"",""trial"",""time""
""fullscreenenter"",""1"",""8546""
","
",,97.20000005,run_exp/static/images/task_images/land.jpg,76,,,,,,,0,,,2,,,,,,,,61392,1,4,TRUE,,,
travel,96,543335,0.0-33.0-0.0,"""event"",""trial"",""time""
""fullscreenenter"",""1"",""8546""
","
","
","""event"",""trial"",""time""
""fullscreenenter"",""1"",""8546""
","
",,,,,,,,,,,,"[{""stimulus"":""run_exp/static/images/task_images/rocket-01.jpg"",""time"":0.5},{""stimulus"":""run_exp/static/images/task_images/rocket-02.jpg"",""time"":1114.5},{""stimulus"":""run_exp/static/images/task_images/rocket-03.jpg"",""time"":2203.6999999284744},{""stimulus"":""run_exp/static/images/task_images/rocket-04.jpg"",""time"":3309.5},{""stimulus"":""run_exp/static/images/task_images/rocket-05.jpg"",""time"":4417.5},{""stimulus"":""run_exp/static/images/task_images/rocket-06.jpg"",""time"":5515.100000023842},{""stimulus"":""run_exp/static/images/task_images/rocket-07.jpg"",""time"":6607.5},{""stimulus"":""run_exp/static/images/task_images/rocket-08.jpg"",""time"":7710.699999928474},{""stimulus"":""run_exp/static/images/task_images/rocket-09.jpg"",""time"":8809.399999976158}]",[],2,,,,,,,,,,,,,,
alien_welcome,97,548353,0.0-33.0-1.0,"""event"",""trial"",""time""
""fullscreenenter"",""1"",""8546""
","
","
","""event"",""trial"",""time""
""fullscreenenter"",""1"",""8546""
","
",,null,run_exp/static/images/task_images/aliens/old_aliens/planet/alien_planet-25.jpg,null,,,,,,,,,,,,,25,"72,78,25,40,31,35,39,47,68,23,54,73,41,18,2,19,32,51,5,8,15,76,80,67,12,1,14,79,42,30,50,58,71,48,26,55,11,62,77",,,,,,,,,,
land,98,548869,0.0-33.0-2.0,"""event"",""trial"",""time""
""fullscreenenter"",""1"",""8546""
","
","
","""event"",""trial"",""time""
""fullscreenenter"",""1"",""8546""
","
",,null,run_exp/static/images/task_images/land.jpg,null,,,,,,,103,,,3,,,,,,,,,,,,,,
dig,99,550889,0.0-33.0-3.0,"""event"",""trial"",""time""
""fullscreenenter"",""1"",""8546""
","
","
","""event"",""trial"",""time""
""fullscreenenter"",""1"",""8546""
","
",,,,,,,,,,,,"[{""stimulus"":""run_exp/static/images/task_images/dig.jpg"",""time"":0.8000000715255737},{""stimulus"":""run_exp/static/images/task_images/land.jpg"",""time"":684.3000000715256},{""stimulus"":""run_exp/static/images/task_images/dig.jpg"",""time"":1342.9000000953674}]",[],3,,,,,,,,,,,,,,
harvest,100,551892,0.0-33.0-4.0,"""event"",""trial"",""time""
""fullscreenenter"",""1"",""8546""
","
","
","""event"",""trial"",""time""
""fullscreenenter"",""1"",""8546""
","
",,null,run_exp/static/images/task_images/gems/103.jpg,null,,,,,,,56,,,3,,,,,103,0.545833675,0.54368932,,,,,,,
decision,101,553163,0.0-33.0-5.0,"""event"",""trial"",""time""
""fullscreenenter"",""1"",""8546""
","
","
","""event"",""trial"",""time""
""fullscreenenter"",""1"",""8546""
","
",,1269.2,run_exp/static/images/task_images/land.jpg,65,,,,,,,56,,,3,,,,,,,,81142,1,0,FALSE,,,
dig,102,554905,0.0-34.0-0.0,"""event"",""trial"",""time""
""fullscreenenter"",""1"",""8546""
","
","
","""event"",""trial"",""time""
""fullscreenenter"",""1"",""8546""
","
",,,,,,,,,,,,"[{""stimulus"":""run_exp/static/images/task_images/dig.jpg"",""time"":0.8999999761581421},{""stimulus"":""run_exp/static/images/task_images/land.jpg"",""time"":593.7999999523163},{""stimulus"":""run_exp/static/images/task_images/dig.jpg"",""time"":1157.6000000238419}]",[],3,,,,,,,,,,,,,,
harvest,103,555907,0.0-34.0-1.0,"""event"",""trial"",""time""
""fullscreenenter"",""1"",""8546""
","
","
","""event"",""trial"",""time""
""fullscreenenter"",""1"",""8546""
","
",,null,run_exp/static/images/task_images/gems/56.jpg,null,,,,,,,27,,,3,,,,,56,0.477877417,0.482142857,,,,,,,
decision,104,556067,0.0-34.0-2.0,"""event"",""trial"",""time""
""fullscreenenter"",""1"",""8546""
","
","
","""event"",""trial"",""time""
""fullscreenenter"",""1"",""8546""
","
",,158.7,run_exp/static/images/task_images/land.jpg,65,,,,,,,27,,,3,,,,,,,,84046,1,1,FALSE,,,
dig,105,558924,0.0-35.0-0.0,"""event"",""trial"",""time""
""fullscreenenter"",""1"",""8546""
","
","
","""event"",""trial"",""time""
""fullscreenenter"",""1"",""8546""
","
",,,,,,,,,,,,"[{""stimulus"":""run_exp/static/images/task_images/dig.jpg"",""time"":0.6000000238418579},{""stimulus"":""run_exp/static/images/task_images/land.jpg"",""time"":953.6000000238419},{""stimulus"":""run_exp/static/images/task_images/dig.jpg"",""time"":1905}]",[],3,,,,,,,,,,,,,,
harvest,106,559928,0.0-35.0-1.0,"""event"",""trial"",""time""
""fullscreenenter"",""1"",""8546""
","
","
","""event"",""trial"",""time""
""fullscreenenter"",""1"",""8546""
","
",,null,run_exp/static/images/task_images/gems/27.jpg,null,,,,,,,13,,,3,,,,,27,0.483515861,0.481481481,,,,,,,
decision,107,560447,0.0-35.0-2.0,"""event"",""trial"",""time""
""fullscreenenter"",""1"",""8546""
","
","
","""event"",""trial"",""time""
""fullscreenenter"",""1"",""8546""
","
",,517.5,run_exp/static/images/task_images/land.jpg,65,,,,,,,13,,,3,,,,,,,,88427,1,2,FALSE,,,
dig,108,562940,0.0-36.0-0.0,"""event"",""trial"",""time""
""fullscreenenter"",""1"",""8546""
","
","
","""event"",""trial"",""time""
""fullscreenenter"",""1"",""8546""
","
",,,,,,,,,,,,"[{""stimulus"":""run_exp/static/images/task_images/dig.jpg"",""time"":0.6000000238418579},{""stimulus"":""run_exp/static/images/task_images/land.jpg"",""time"":838.8000000715256},{""stimulus"":""run_exp/static/images/task_images/dig.jpg"",""time"":1660.5}]",[],3,,,,,,,,,,,,,,
harvest,109,563945,0.0-36.0-1.0,"""event"",""trial"",""time""
""fullscreenenter"",""1"",""8546""
","
","
","""event"",""trial"",""time""
""fullscreenenter"",""1"",""8546""
","
",,null,run_exp/static/images/task_images/gems/13.jpg,null,,,,,,,7,,,3,,,,,13,0.561087857,0.538461538,,,,,,,
decision,110,565452,0.0-36.0-2.0,"""event"",""trial"",""time""
""fullscreenenter"",""1"",""8546""
","
","
","""event"",""trial"",""time""
""fullscreenenter"",""1"",""8546""
","
",,1504.1,run_exp/static/images/task_images/land.jpg,76,,,,,,,7,,,3,,,,,,,,93431,1,3,TRUE,,,
travel,111,573956,0.0-37.0-0.0,"""event"",""trial"",""time""
""fullscreenenter"",""1"",""8546""
","
","
","""event"",""trial"",""time""
""fullscreenenter"",""1"",""8546""
","
",,,,,,,,,,,,"[{""stimulus"":""run_exp/static/images/task_images/rocket-01.jpg"",""time"":1.100000023841858},{""stimulus"":""run_exp/static/images/task_images/rocket-02.jpg"",""time"":950.3999999761581},{""stimulus"":""run_exp/static/images/task_images/rocket-03.jpg"",""time"":1893.2000000476837},{""stimulus"":""run_exp/static/images/task_images/rocket-04.jpg"",""time"":2847.7999999523163},{""stimulus"":""run_exp/static/images/task_images/rocket-05.jpg"",""time"":3777.7000000476837},{""stimulus"":""run_exp/static/images/task_images/rocket-06.jpg"",""time"":4727.100000023842},{""stimulus"":""run_exp/static/images/task_images/rocket-07.jpg"",""time"":5669},{""stimulus"":""run_exp/static/images/task_images/rocket-08.jpg"",""time"":6610.299999952316},{""stimulus"":""run_exp/static/images/task_images/rocket-09.jpg"",""time"":7549.100000023842}]",[],3,,,,,,,,,,,,,,
alien_welcome,112,578964,0.0-37.0-1.0,"""event"",""trial"",""time""
""fullscreenenter"",""1"",""8546""
","
","
","""event"",""trial"",""time""
""fullscreenenter"",""1"",""8546""
","
",,null,run_exp/static/images/task_images/aliens/old_aliens/planet/alien_planet-40.jpg,null,,,,,,,,,,,,,40,"72,78,25,40,31,35,39,47,68,23,54,73,41,18,2,19,32,51,5,8,15,76,80,67,12,1,14,79,42,30,50,58,71,48,26,55,11,62,77",,,,,,,,,,
land,113,579469,0.0-37.0-2.0,"""event"",""trial"",""time""
""fullscreenenter"",""1"",""8546""
","
","
","""event"",""trial"",""time""
""fullscreenenter"",""1"",""8546""
","
",,null,run_exp/static/images/task_images/land.jpg,null,,,,,,,108,,,4,,,,,,,,,,,,,,
dig,114,581480,0.0-37.0-3.0,"""event"",""trial"",""time""
""fullscreenenter"",""1"",""8546""
","
","
","""event"",""trial"",""time""
""fullscreenenter"",""1"",""8546""
","
",,,,,,,,,,,,"[{""stimulus"":""run_exp/static/images/task_images/dig.jpg"",""time"":0.8999999761581421},{""stimulus"":""run_exp/static/images/task_images/land.jpg"",""time"":671.7999999523163},{""stimulus"":""run_exp/static/images/task_images/dig.jpg"",""time"":1344.6999999284744}]",[],4,,,,,,,,,,,,,,
harvest,115,582483,0.0-37.0-4.0,"""event"",""trial"",""time""
""fullscreenenter"",""1"",""8546""
","
","
","""event"",""trial"",""time""
""fullscreenenter"",""1"",""8546""
","
",,null,run_exp/static/images/task_images/gems/108.jpg,null,,,,,,,59,,,4,,,,,108,0.546120843,0.546296296,,,,,,,
decision,116,583464,0.0-37.0-5.0,"""event"",""trial"",""time""
""fullscreenenter"",""1"",""8546""
","
","
","""event"",""trial"",""time""
""fullscreenenter"",""1"",""8546""
","
",,978.1,run_exp/static/images/task_images/land.jpg,65,,,,,,,59,,,4,,,,,,,,111443,1,0,FALSE,,,
dig,117,585510,0.0-38.0-0.0,"""event"",""trial"",""time""
""fullscreenenter"",""1"",""8546""
","
","
","""event"",""trial"",""time""
""fullscreenenter"",""1"",""8546""
","
",,,,,,,,,,,,"[{""stimulus"":""run_exp/static/images/task_images/dig.jpg"",""time"":0.8999999761581421},{""stimulus"":""run_exp/static/images/task_images/land.jpg"",""time"":687},{""stimulus"":""run_exp/static/images/task_images/dig.jpg"",""time"":1359.2999999523163}]",[],4,,,,,,,,,,,,,,
harvest,118,586513,0.0-38.0-1.0,"""event"",""trial"",""time""
""fullscreenenter"",""1"",""8546""
","
","
","""event"",""trial"",""time""
""fullscreenenter"",""1"",""8546""
","
",,null,run_exp/static/images/task_images/gems/59.jpg,null,,,,,,,36,,,4,,,,,59,0.6044625,0.610169492,,,,,,,
decision,119,586779,0.0-38.0-2.0,"""event"",""trial"",""time""
""fullscreenenter"",""1"",""8546""
","
","
","""event"",""trial"",""time""
""fullscreenenter"",""1"",""8546""
","
",,264.4000001,run_exp/static/images/task_images/land.jpg,65,,,,,,,36,,,4,,,,,,,,114758,1,1,FALSE,,,
dig,120,589533,0.0-39.0-0.0,"""event"",""trial"",""time""
""fullscreenenter"",""1"",""8546""
","
","
","""event"",""trial"",""time""
""fullscreenenter"",""1"",""8546""
","
",,,,,,,,,,,,"[{""stimulus"":""run_exp/static/images/task_images/dig.jpg"",""time"":0.7000000476837158},{""stimulus"":""run_exp/static/images/task_images/land.jpg"",""time"":926.1000000238419},{""stimulus"":""run_exp/static/images/task_images/dig.jpg"",""time"":1829.2000000476837}]",[],4,,,,,,,,,,,,,,
harvest,121,590535,0.0-39.0-1.0,"""event"",""trial"",""time""
""fullscreenenter"",""1"",""8546""
","
","
","""event"",""trial"",""time""
""fullscreenenter"",""1"",""8546""
","
",,null,run_exp/static/images/task_images/gems/36.jpg,null,,,,,,,17,,,4,,,,,36,0.476062935,0.472222222,,,,,,,
decision,122,592154,0.0-39.0-2.0,"""event"",""trial"",""time""
""fullscreenenter"",""1"",""8546""
","
","
","""event"",""trial"",""time""
""fullscreenenter"",""1"",""8546""
","
",,1616.8,run_exp/static/images/task_images/land.jpg,65,,,,,,,17,,,4,,,,,,,,120133,1,2,FALSE,,,
dig,123,593546,0.0-40.0-0.0,"""event"",""trial"",""time""
""fullscreenenter"",""1"",""8546""
","
","
","""event"",""trial"",""time""
""fullscreenenter"",""1"",""8546""
","
",,,,,,,,,,,,"[{""stimulus"":""run_exp/static/images/task_images/dig.jpg"",""time"":0.3999999761581421},{""stimulus"":""run_exp/static/images/task_images/land.jpg"",""time"":465.10000002384186},{""stimulus"":""run_exp/static/images/task_images/dig.jpg"",""time"":934.5}]",[],4,,,,,,,,,,,,,,
harvest,124,594549,0.0-40.0-1.0,"""event"",""trial"",""time""
""fullscreenenter"",""1"",""8546""
","
","
","""event"",""trial"",""time""
""fullscreenenter"",""1"",""8546""
","
",,null,run_exp/static/images/task_images/gems/17.jpg,null,,,,,,,6,,,4,,,,,17,0.344524223,0.352941176,,,,,,,
decision,125,595099,0.0-40.0-2.0,"""event"",""trial"",""time""
""fullscreenenter"",""1"",""8546""
","
","
","""event"",""trial"",""time""
""fullscreenenter"",""1"",""8546""
","
",,546.1999999,run_exp/static/images/task_images/land.jpg,65,,,,,,,6,,,4,,,,,,,,123078,1,3,FALSE,,,
dig,126,597564,0.0-41.0-0.0,"""event"",""trial"",""time""
""fullscreenenter"",""1"",""8546""
","
","
","""event"",""trial"",""time""
""fullscreenenter"",""1"",""8546""
","
",,,,,,,,,,,,"[{""stimulus"":""run_exp/static/images/task_images/dig.jpg"",""time"":0.6000000238418579},{""stimulus"":""run_exp/static/images/task_images/land.jpg"",""time"":820.6000000238419},{""stimulus"":""run_exp/static/images/task_images/dig.jpg"",""time"":1638.7999999523163}]",[],4,,,,,,,,,,,,,,
harvest,127,598567,0.0-41.0-1.0,"""event"",""trial"",""time""
""fullscreenenter"",""1"",""8546""
","
","
","""event"",""trial"",""time""
""fullscreenenter"",""1"",""8546""
","
",,null,run_exp/static/images/task_images/gems/6.jpg,null,,,,,,,3,,,4,,,,,6,0.507875469,0.5,,,,,,,
decision,128,599768,0.0-41.0-2.0,"""event"",""trial"",""time""
""fullscreenenter"",""1"",""8546""
","
","
","""event"",""trial"",""time""
""fullscreenenter"",""1"",""8546""
","
",,1198.8,run_exp/static/images/task_images/land.jpg,65,,,,,,,3,,,4,,,,,,,,127747,1,4,FALSE,,,
dig,129,601590,0.0-42.0-0.0,"""event"",""trial"",""time""
""fullscreenenter"",""1"",""8546""
","
","
","""event"",""trial"",""time""
""fullscreenenter"",""1"",""8546""
","
",,,,,,,,,,,,"[{""stimulus"":""run_exp/static/images/task_images/dig.jpg"",""time"":0.6000000238418579},{""stimulus"":""run_exp/static/images/task_images/land.jpg"",""time"":614.8999999761581},{""stimulus"":""run_exp/static/images/task_images/dig.jpg"",""time"":1203}]",[],4,,,,,,,,,,,,,,
harvest,130,602594,0.0-42.0-1.0,"""event"",""trial"",""time""
""fullscreenenter"",""1"",""8546""
","
","
","""event"",""trial"",""time""
""fullscreenenter"",""1"",""8546""
","
",,null,run_exp/static/images/task_images/gems/3.jpg,null,,,,,,,2,,,4,,,,,3,0.602202115,0.666666667,,,,,,,
decision,131,603770,0.0-42.0-2.0,"""event"",""trial"",""time""
""fullscreenenter"",""1"",""8546""
","
","
","""event"",""trial"",""time""
""fullscreenenter"",""1"",""8546""
","
",,1173.2,run_exp/static/images/task_images/land.jpg,65,,,,,,,2,,,4,,,,,,,,131749,1,5,FALSE,,,
dig,132,605612,0.0-43.0-0.0,"""event"",""trial"",""time""
""fullscreenenter"",""1"",""8546""
","
","
","""event"",""trial"",""time""
""fullscreenenter"",""1"",""8546""
","
",,,,,,,,,,,,"[{""stimulus"":""run_exp/static/images/task_images/dig.jpg"",""time"":0.5},{""stimulus"":""run_exp/static/images/task_images/land.jpg"",""time"":626.6000000238419},{""stimulus"":""run_exp/static/images/task_images/dig.jpg"",""time"":1224.2000000476837}]",[],4,,,,,,,,,,,,,,
harvest,133,606616,0.0-43.0-1.0,"""event"",""trial"",""time""
""fullscreenenter"",""1"",""8546""
","
","
","""event"",""trial"",""time""
""fullscreenenter"",""1"",""8546""
","
",,null,run_exp/static/images/task_images/gems/2.jpg,null,,,,,,,1,,,4,,,,,2,0.392445084,0.5,,,,,,,
decision,134,606768,0.0-43.0-2.0,"""event"",""trial"",""time""
""fullscreenenter"",""1"",""8546""
","
","
","""event"",""trial"",""time""
""fullscreenenter"",""1"",""8546""
","
",,149.5999999,run_exp/static/images/task_images/land.jpg,65,,,,,,,1,,,4,,,,,,,,134747,1,6,FALSE,,,
dig,135,609640,0.0-44.0-0.0,"""event"",""trial"",""time""
""fullscreenenter"",""1"",""8546""
","
","
","""event"",""trial"",""time""
""fullscreenenter"",""1"",""8546""
","
",,,,,,,,,,,,"[{""stimulus"":""run_exp/static/images/task_images/dig.jpg"",""time"":0.5},{""stimulus"":""run_exp/static/images/task_images/land.jpg"",""time"":953.6999999284744},{""stimulus"":""run_exp/static/images/task_images/dig.jpg"",""time"":1909}]",[],4,,,,,,,,,,,,,,
harvest,136,610645,0.0-44.0-1.0,"""event"",""trial"",""time""
""fullscreenenter"",""1"",""8546""
","
","
","""event"",""trial"",""time""
""fullscreenenter"",""1"",""8546""
","
",,null,run_exp/static/images/task_images/gems/1.jpg,null,,,,,,,1,,,4,,,,,1,0.525696141,1,,,,,,,
decision,137,612178,0.0-44.0-2.0,"""event"",""trial"",""time""
""fullscreenenter"",""1"",""8546""
","
","
","""event"",""trial"",""time""
""fullscreenenter"",""1"",""8546""
","
",,1530.3,run_exp/static/images/task_images/land.jpg,76,,,,,,,1,,,4,,,,,,,,140157,1,7,TRUE,,,
travel,138,620679,0.0-45.0-0.0,"""event"",""trial"",""time""
""fullscreenenter"",""1"",""8546""
","
","
","""event"",""trial"",""time""
""fullscreenenter"",""1"",""8546""
","
",,,,,,,,,,,,"[{""stimulus"":""run_exp/static/images/task_images/rocket-01.jpg"",""time"":0.8999999761581421},{""stimulus"":""run_exp/static/images/task_images/rocket-02.jpg"",""time"":947.8000000715256},{""stimulus"":""run_exp/static/images/task_images/rocket-03.jpg"",""time"":1898.5},{""stimulus"":""run_exp/static/images/task_images/rocket-04.jpg"",""time"":2831.100000023842},{""stimulus"":""run_exp/static/images/task_images/rocket-05.jpg"",""time"":3778.5},{""stimulus"":""run_exp/static/images/task_images/rocket-06.jpg"",""time"":4723.600000023842},{""stimulus"":""run_exp/static/images/task_images/rocket-07.jpg"",""time"":5652.200000047684},{""stimulus"":""run_exp/static/images/task_images/rocket-08.jpg"",""time"":6596.100000023842},{""stimulus"":""run_exp/static/images/task_images/rocket-09.jpg"",""time"":7545.300000071526}]",[],4,,,,,,,,,,,,,,
alien_welcome,139,625697,0.0-45.0-1.0,"""event"",""trial"",""time""
""fullscreenenter"",""1"",""8546""
","
","
","""event"",""trial"",""time""
""fullscreenenter"",""1"",""8546""
","
",,null,run_exp/static/images/task_images/aliens/old_aliens/planet/alien_planet-31.jpg,null,,,,,,,,,,,,,31,"72,78,25,40,31,35,39,47,68,23,54,73,41,18,2,19,32,51,5,8,15,76,80,67,12,1,14,79,42,30,50,58,71,48,26,55,11,62,77",,,,,,,,,,
land,140,626216,0.0-45.0-2.0,"""event"",""trial"",""time""
""fullscreenenter"",""1"",""8546""
","
","
","""event"",""trial"",""time""
""fullscreenenter"",""1"",""8546""
","
",,null,run_exp/static/images/task_images/land.jpg,null,,,,,,,101,,,5,,,,,,,,,,,,,,
dig,141,628238,0.0-45.0-3.0,"""event"",""trial"",""time""
""fullscreenenter"",""1"",""8546""
","
","
","""event"",""trial"",""time""
""fullscreenenter"",""1"",""8546""
","
",,,,,,,,,,,,"[{""stimulus"":""run_exp/static/images/task_images/dig.jpg"",""time"":1.2000000476837158},{""stimulus"":""run_exp/static/images/task_images/land.jpg"",""time"":686.6000000238419},{""stimulus"":""run_exp/static/images/task_images/dig.jpg"",""time"":1345.6000000238419}]",[],5,,,,,,,,,,,,,,
harvest,142,629242,0.0-45.0-4.0,"""event"",""trial"",""time""
""fullscreenenter"",""1"",""8546""
","
","
","""event"",""trial"",""time""
""fullscreenenter"",""1"",""8546""
","
",,null,run_exp/static/images/task_images/gems/101.jpg,null,,,,,,,55,,,5,,,,,101,0.545233191,0.544554455,,,,,,,
decision,143,631656,0.0-45.0-5.0,"""event"",""trial"",""time""
""fullscreenenter"",""1"",""8546""
","
","
","""event"",""trial"",""time""
""fullscreenenter"",""1"",""8546""
","
",,2410.6,run_exp/static/images/task_images/land.jpg,65,,,,,,,55,,,5,,,,,,,,159635,1,0,FALSE,,,
dig,144,632272,0.0-46.0-0.0,"""event"",""trial"",""time""
""fullscreenenter"",""1"",""8546""
","
","
","""event"",""trial"",""time""
""fullscreenenter"",""1"",""8546""
","
",,,,,,,,,,,,"[{""stimulus"":""run_exp/static/images/task_images/dig.jpg"",""time"":0.9000000953674316},{""stimulus"":""run_exp/static/images/task_images/land.jpg"",""time"":214.5},{""stimulus"":""run_exp/static/images/task_images/dig.jpg"",""time"":402.40000009536743}]",[],5,,,,,,,,,,,,,,
harvest,145,633275,0.0-46.0-1.0,"""event"",""trial"",""time""
""fullscreenenter"",""1"",""8546""
","
","
","""event"",""trial"",""time""
""fullscreenenter"",""1"",""8546""
","
",,null,run_exp/static/images/task_images/gems/55.jpg,null,,,,,,,27,,,5,,,,,55,0.491712973,0.490909091,,,,,,,
decision,146,634783,0.0-46.0-2.0,"""event"",""trial"",""time""
""fullscreenenter"",""1"",""8546""
","
","
","""event"",""trial"",""time""
""fullscreenenter"",""1"",""8546""
","
",,1505.3,run_exp/static/images/task_images/land.jpg,65,,,,,,,27,,,5,,,,,,,,162762,1,1,FALSE,,,
dig,147,636299,0.0-47.0-0.0,"""event"",""trial"",""time""
""fullscreenenter"",""1"",""8546""
","
","
","""event"",""trial"",""time""
""fullscreenenter"",""1"",""8546""
","
",,,,,,,,,,,,"[{""stimulus"":""run_exp/static/images/task_images/dig.jpg"",""time"":0.8999999761581421},{""stimulus"":""run_exp/static/images/task_images/land.jpg"",""time"":511.3000000715256},{""stimulus"":""run_exp/static/images/task_images/dig.jpg"",""time"":1014.2000000476837}]",[],5,,,,,,,,,,,,,,
harvest,148,637319,0.0-47.0-1.0,"""event"",""trial"",""time""
""fullscreenenter"",""1"",""8546""
","
","
","""event"",""trial"",""time""
""fullscreenenter"",""1"",""8546""
","
",,null,run_exp/static/images/task_images/gems/27.jpg,null,,,,,,,13,,,5,,,,,27,0.487401613,0.481481481,,,,,,,
decision,149,638830,0.0-47.0-2.0,"""event"",""trial"",""time""
""fullscreenenter"",""1"",""8546""
","
","
","""event"",""trial"",""time""
""fullscreenenter"",""1"",""8546""
","
",,1509.1,run_exp/static/images/task_images/land.jpg,65,,,,,,,13,,,5,,,,,,,,166810,1,2,FALSE,,,
dig,150,640352,0.0-48.0-0.0,"""event"",""trial"",""time""
""fullscreenenter"",""1"",""8546""
","
","
","""event"",""trial"",""time""
""fullscreenenter"",""1"",""8546""
","
",,,,,,,,,,,,"[{""stimulus"":""run_exp/static/images/task_images/dig.jpg"",""time"":0.8999999761581421},{""stimulus"":""run_exp/static/images/task_images/land.jpg"",""time"":504.09999990463257},{""stimulus"":""run_exp/static/images/task_images/dig.jpg"",""time"":1011.0999999046326}]",[],5,,,,,,,,,,,,,,
harvest,151,641364,0.0-48.0-1.0,"""event"",""trial"",""time""
""fullscreenenter"",""1"",""8546""
","
","
","""event"",""trial"",""time""
""fullscreenenter"",""1"",""8546""
","
",,null,run_exp/static/images/task_images/gems/13.jpg,null,,,,,,,7,,,5,,,,,13,0.555073095,0.538461538,,,,,,,
decision,152,641828,0.0-48.0-2.0,"""event"",""trial"",""time""
""fullscreenenter"",""1"",""8546""
","
","
","""event"",""trial"",""time""
""fullscreenenter"",""1"",""8546""
","
",,459.3,run_exp/static/images/task_images/land.jpg,65,,,,,,,7,,,5,,,,,,,,169807,1,3,FALSE,,,
dig,153,644382,0.0-49.0-0.0,"""event"",""trial"",""time""
""fullscreenenter"",""1"",""8546""
","
","
","""event"",""trial"",""time""
""fullscreenenter"",""1"",""8546""
","
",,,,,,,,,,,,"[{""stimulus"":""run_exp/static/images/task_images/dig.jpg"",""time"":0.5},{""stimulus"":""run_exp/static/images/task_images/land.jpg"",""time"":857.3000000715256},{""stimulus"":""run_exp/static/images/task_images/dig.jpg"",""time"":1702.8999999761581}]",[],5,,,,,,,,,,,,,,
harvest,154,645385,0.0-49.0-1.0,"""event"",""trial"",""time""
""fullscreenenter"",""1"",""8546""
","
","
","""event"",""trial"",""time""
""fullscreenenter"",""1"",""8546""
","
",,null,run_exp/static/images/task_images/gems/7.jpg,null,,,,,,,3,,,5,,,,,7,0.482983105,0.428571429,,,,,,,
decision,155,645425,0.0-49.0-2.0,"""event"",""trial"",""time""
""fullscreenenter"",""1"",""8546""
","
","
","""event"",""trial"",""time""
""fullscreenenter"",""1"",""8546""
","
",,39,run_exp/static/images/task_images/land.jpg,65,,,,,,,3,,,5,,,,,,,,173405,1,4,FALSE,,,
dig,156,648399,0.0-50.0-0.0,"""event"",""trial"",""time""
""fullscreenenter"",""1"",""8546""
","
","
","""event"",""trial"",""time""
""fullscreenenter"",""1"",""8546""
","
",,,,,,,,,,,,"[{""stimulus"":""run_exp/static/images/task_images/dig.jpg"",""time"":0.5999999046325684},{""stimulus"":""run_exp/static/images/task_images/land.jpg"",""time"":995.2999999523163},{""stimulus"":""run_exp/static/images/task_images/dig.jpg"",""time"":1986.7999999523163}]",[],5,,,,,,,,,,,,,,
harvest,157,649417,0.0-50.0-1.0,"""event"",""trial"",""time""
""fullscreenenter"",""1"",""8546""
","
","
","""event"",""trial"",""time""
""fullscreenenter"",""1"",""8546""
","
",,null,run_exp/static/images/task_images/gems/3.jpg,null,,,,,,,1,,,5,,,,,3,0.432454393,0.333333333,,,,,,,
decision,158,650844,0.0-50.0-2.0,"""event"",""trial"",""time""
""fullscreenenter"",""1"",""8546""
","
","
","""event"",""trial"",""time""
""fullscreenenter"",""1"",""8546""
","
",,1422.6,run_exp/static/images/task_images/land.jpg,76,,,,,,,1,,,5,,,,,,,,178824,1,5,TRUE,,,
travel,159,659448,0.0-51.0-0.0,"""event"",""trial"",""time""
""fullscreenenter"",""1"",""8546""
","
","
","""event"",""trial"",""time""
""fullscreenenter"",""1"",""8546""
","
",,,,,,,,,,,,"[{""stimulus"":""run_exp/static/images/task_images/rocket-01.jpg"",""time"":1.100000023841858},{""stimulus"":""run_exp/static/images/task_images/rocket-02.jpg"",""time"":962.1999999284744},{""stimulus"":""run_exp/static/images/task_images/rocket-03.jpg"",""time"":1923.7999999523163},{""stimulus"":""run_exp/static/images/task_images/rocket-04.jpg"",""time"":2871.600000023842},{""stimulus"":""run_exp/static/images/task_images/rocket-05.jpg"",""time"":3824.600000023842},{""stimulus"":""run_exp/static/images/task_images/rocket-06.jpg"",""time"":4769},{""stimulus"":""run_exp/static/images/task_images/rocket-07.jpg"",""time"":5728},{""stimulus"":""run_exp/static/images/task_images/rocket-08.jpg"",""time"":6683.699999928474},{""stimulus"":""run_exp/static/images/task_images/rocket-09.jpg"",""time"":7634.699999928474}]",[],5,,,,,,,,,,,,,,
alien_welcome,160,664457,0.0-51.0-1.0,"""event"",""trial"",""time""
""fullscreenenter"",""1"",""8546""
","
","
","""event"",""trial"",""time""
""fullscreenenter"",""1"",""8546""
","
",,null,run_exp/static/images/task_images/aliens/old_aliens/planet/alien_planet-35.jpg,null,,,,,,,,,,,,,35,"72,78,25,40,31,35,39,47,68,23,54,73,41,18,2,19,32,51,5,8,15,76,80,67,12,1,14,79,42,30,50,58,71,48,26,55,11,62,77",,,,,,,,,,
land,161,664963,0.0-51.0-2.0,"""event"",""trial"",""time""
""fullscreenenter"",""1"",""8546""
","
","
","""event"",""trial"",""time""
""fullscreenenter"",""1"",""8546""
","
",,null,run_exp/static/images/task_images/land.jpg,null,,,,,,,97,,,6,,,,,,,,,,,,,,
dig,162,666974,0.0-51.0-3.0,"""event"",""trial"",""time""
""fullscreenenter"",""1"",""8546""
","
","
","""event"",""trial"",""time""
""fullscreenenter"",""1"",""8546""
","
",,,,,,,,,,,,"[{""stimulus"":""run_exp/static/images/task_images/dig.jpg"",""time"":0.8999999761581421},{""stimulus"":""run_exp/static/images/task_images/land.jpg"",""time"":671},{""stimulus"":""run_exp/static/images/task_images/dig.jpg"",""time"":1347.5999999046326}]",[],6,,,,,,,,,,,,,,
harvest,163,667978,0.0-51.0-4.0,"""event"",""trial"",""time""
""fullscreenenter"",""1"",""8546""
","
","
","""event"",""trial"",""time""
""fullscreenenter"",""1"",""8546""
","
",,null,run_exp/static/images/task_images/gems/97.jpg,null,,,,,,,75,,,6,,,,,97,0.768696489,0.773195876,,,,,,,
decision,164,670987,0.0-51.0-5.0,"""event"",""trial"",""time""
""fullscreenenter"",""1"",""8546""
","
","
","""event"",""trial"",""time""
""fullscreenenter"",""1"",""8546""
","
",,null,run_exp/static/images/task_images/land.jpg,null,,,,,,,75,,,6,,,,,,,,198966,1,0,FALSE,,,
time_out,165,673017,0.0-52.0-0.0,"""event"",""trial"",""time""
""fullscreenenter"",""1"",""8546""
","
","
","""event"",""trial"",""time""
""fullscreenenter"",""1"",""8546""
","
",,null,run_exp/static/images/task_images/time_out.jpg,null,,,,,,,75,,,,,,,,,,,,,,,,,
decision,166,674802,0.0-52.0-1.0,"""event"",""trial"",""time""
""fullscreenenter"",""1"",""8546""
","
","
","""event"",""trial"",""time""
""fullscreenenter"",""1"",""8546""
","
",,1779,run_exp/static/images/task_images/land.jpg,65,,,,,,,75,,,6,,,,,,,,202781,1,0,FALSE,,,
dig,167,676050,0.0-53.0-0.0,"""event"",""trial"",""time""
""fullscreenenter"",""1"",""8546""
","
","
","""event"",""trial"",""time""
""fullscreenenter"",""1"",""8546""
","
",,,,,,,,,,,,"[{""stimulus"":""run_exp/static/images/task_images/dig.jpg"",""time"":1},{""stimulus"":""run_exp/static/images/task_images/land.jpg"",""time"":413.3000000715256},{""stimulus"":""run_exp/static/images/task_images/dig.jpg"",""time"":828.7000000476837}]",[],6,,,,,,,,,,,,,,
harvest,168,677053,0.0-53.0-1.0,"""event"",""trial"",""time""
""fullscreenenter"",""1"",""8546""
","
","
","""event"",""trial"",""time""
""fullscreenenter"",""1"",""8546""
","
",,null,run_exp/static/images/task_images/gems/75.jpg,null,,,,,,,58,,,6,,,,,75,0.775700262,0.773333333,,,,,,,
decision,169,678298,0.0-53.0-2.0,"""event"",""trial"",""time""
""fullscreenenter"",""1"",""8546""
","
","
","""event"",""trial"",""time""
""fullscreenenter"",""1"",""8546""
","
",,1242.8,run_exp/static/images/task_images/land.jpg,65,,,,,,,58,,,6,,,,,,,,206278,1,1,FALSE,,,
dig,170,680080,0.0-54.0-0.0,"""event"",""trial"",""time""
""fullscreenenter"",""1"",""8546""
","
","
","""event"",""trial"",""time""
""fullscreenenter"",""1"",""8546""
","
",,,,,,,,,,,,"[{""stimulus"":""run_exp/static/images/task_images/dig.jpg"",""time"":0.6000000238418579},{""stimulus"":""run_exp/static/images/task_images/land.jpg"",""time"":592},{""stimulus"":""run_exp/static/images/task_images/dig.jpg"",""time"":1185.5}]",[],6,,,,,,,,,,,,,,
harvest,171,681083,0.0-54.0-1.0,"""event"",""trial"",""time""
""fullscreenenter"",""1"",""8546""
","
","
","""event"",""trial"",""time""
""fullscreenenter"",""1"",""8546""
","
",,null,run_exp/static/images/task_images/gems/58.jpg,null,,,,,,,48,,,6,,,,,58,0.82533236,0.827586207,,,,,,,
decision,172,683354,0.0-54.0-2.0,"""event"",""trial"",""time""
""fullscreenenter"",""1"",""8546""
","
","
","""event"",""trial"",""time""
""fullscreenenter"",""1"",""8546""
","
",,2268,run_exp/static/images/task_images/land.jpg,65,,,,,,,48,,,6,,,,,,,,211333,1,2,FALSE,,,
dig,173,684107,0.0-55.0-0.0,"""event"",""trial"",""time""
""fullscreenenter"",""1"",""8546""
","
","
","""event"",""trial"",""time""
""fullscreenenter"",""1"",""8546""
","
",,,,,,,,,,,,"[{""stimulus"":""run_exp/static/images/task_images/dig.jpg"",""time"":1},{""stimulus"":""run_exp/static/images/task_images/land.jpg"",""time"":252.5},{""stimulus"":""run_exp/static/images/task_images/dig.jpg"",""time"":503.59999990463257}]",[],6,,,,,,,,,,,,,,
harvest,174,685110,0.0-55.0-1.0,"""event"",""trial"",""time""
""fullscreenenter"",""1"",""8546""
","
","
","""event"",""trial"",""time""
""fullscreenenter"",""1"",""8546""
","
",,null,run_exp/static/images/task_images/gems/48.jpg,null,,,,,,,40,,,6,,,,,48,0.830124598,0.833333333,,,,,,,
decision,175,686675,0.0-55.0-2.0,"""event"",""trial"",""time""
""fullscreenenter"",""1"",""8546""
","
","
","""event"",""trial"",""time""
""fullscreenenter"",""1"",""8546""
","
",,1562.4,run_exp/static/images/task_images/land.jpg,65,,,,,,,40,,,6,,,,,,,,214655,1,3,FALSE,,,
dig,176,688132,0.0-56.0-0.0,"""event"",""trial"",""time""
""fullscreenenter"",""1"",""8546""
","
","
","""event"",""trial"",""time""
""fullscreenenter"",""1"",""8546""
","
",,,,,,,,,,,,"[{""stimulus"":""run_exp/static/images/task_images/dig.jpg"",""time"":0.9000000953674316},{""stimulus"":""run_exp/static/images/task_images/land.jpg"",""time"":488.8000000715256},{""stimulus"":""run_exp/static/images/task_images/dig.jpg"",""time"":974.1000000238419}]",[],6,,,,,,,,,,,,,,
harvest,177,689135,0.0-56.0-1.0,"""event"",""trial"",""time""
""fullscreenenter"",""1"",""8546""
","
","
","""event"",""trial"",""time""
""fullscreenenter"",""1"",""8546""
","
",,null,run_exp/static/images/task_images/gems/40.jpg,null,,,,,,,26,,,6,,,,,40,0.660983766,0.65,,,,,,,
decision,178,690528,0.0-56.0-2.0,"""event"",""trial"",""time""
""fullscreenenter"",""1"",""8546""
","
","
","""event"",""trial"",""time""
""fullscreenenter"",""1"",""8546""
","
",,1390.1,run_exp/static/images/task_images/land.jpg,76,,,,,,,26,,,6,,,,,,,,218507,1,4,TRUE,,,
travel,179,699159,0.0-57.0-0.0,"""event"",""trial"",""time""
""fullscreenenter"",""1"",""8546""
","
","
","""event"",""trial"",""time""
""fullscreenenter"",""1"",""8546""
","
",,,,,,,,,,,,"[{""stimulus"":""run_exp/static/images/task_images/rocket-01.jpg"",""time"":0.8999999761581421},{""stimulus"":""run_exp/static/images/task_images/rocket-02.jpg"",""time"":970.7999999523163},{""stimulus"":""run_exp/static/images/task_images/rocket-03.jpg"",""time"":1922.6999999284744},{""stimulus"":""run_exp/static/images/task_images/rocket-04.jpg"",""time"":2880.600000023842},{""stimulus"":""run_exp/static/images/task_images/rocket-05.jpg"",""time"":3838.7999999523163},{""stimulus"":""run_exp/static/images/task_images/rocket-06.jpg"",""time"":4796.799999952316},{""stimulus"":""run_exp/static/images/task_images/rocket-07.jpg"",""time"":5751.100000023842},{""stimulus"":""run_exp/static/images/task_images/rocket-08.jpg"",""time"":6706.299999952316},{""stimulus"":""run_exp/static/images/task_images/rocket-09.jpg"",""time"":7654.5}]",[],6,,,,,,,,,,,,,,
alien_welcome,180,704167,0.0-57.0-1.0,"""event"",""trial"",""time""
""fullscreenenter"",""1"",""8546""
","
","
","""event"",""trial"",""time""
""fullscreenenter"",""1"",""8546""
","
",,null,run_exp/static/images/task_images/aliens/old_aliens/planet/alien_planet-39.jpg,null,,,,,,,,,,,,,39,"72,78,25,40,31,35,39,47,68,23,54,73,41,18,2,19,32,51,5,8,15,76,80,67,12,1,14,79,42,30,50,58,71,48,26,55,11,62,77",,,,,,,,,,
land,181,704675,0.0-57.0-2.0,"""event"",""trial"",""time""
""fullscreenenter"",""1"",""8546""
","
","
","""event"",""trial"",""time""
""fullscreenenter"",""1"",""8546""
","
",,null,run_exp/static/images/task_images/land.jpg,null,,,,,,,95,,,7,,,,,,,,,,,,,,
dig,182,706693,0.0-57.0-3.0,"""event"",""trial"",""time""
""fullscreenenter"",""1"",""8546""
","
","
","""event"",""trial"",""time""
""fullscreenenter"",""1"",""8546""
","
",,,,,,,,,,,,"[{""stimulus"":""run_exp/static/images/task_images/dig.jpg"",""time"":1},{""stimulus"":""run_exp/static/images/task_images/land.jpg"",""time"":672.7000000476837},{""stimulus"":""run_exp/static/images/task_images/dig.jpg"",""time"":1344.9000000953674}]",[],7,,,,,,,,,,,,,,
harvest,183,707697,0.0-57.0-4.0,"""event"",""trial"",""time""
""fullscreenenter"",""1"",""8546""
","
","
","""event"",""trial"",""time""
""fullscreenenter"",""1"",""8546""
","
",,null,run_exp/static/images/task_images/gems/95.jpg,null,,,,,,,78,,,7,,,,,95,0.816836431,0.821052632,,,,,,,
decision,184,709635,0.0-57.0-5.0,"""event"",""trial"",""time""
""fullscreenenter"",""1"",""8546""
","
","
","""event"",""trial"",""time""
""fullscreenenter"",""1"",""8546""
","
",,1935.5,run_exp/static/images/task_images/land.jpg,65,,,,,,,78,,,7,,,,,,,,237615,1,0,FALSE,,,
dig,185,710717,0.0-58.0-0.0,"""event"",""trial"",""time""
""fullscreenenter"",""1"",""8546""
","
","
","""event"",""trial"",""time""
""fullscreenenter"",""1"",""8546""
","
",,,,,,,,,,,,"[{""stimulus"":""run_exp/static/images/task_images/dig.jpg"",""time"":0.8000000715255737},{""stimulus"":""run_exp/static/images/task_images/land.jpg"",""time"":364.10000002384186},{""stimulus"":""run_exp/static/images/task_images/dig.jpg"",""time"":723.5}]",[],7,,,,,,,,,,,,,,
harvest,186,711720,0.0-58.0-1.0,"""event"",""trial"",""time""
""fullscreenenter"",""1"",""8546""
","
","
","""event"",""trial"",""time""
""fullscreenenter"",""1"",""8546""
","
",,null,run_exp/static/images/task_images/gems/78.jpg,null,,,,,,,54,,,7,,,,,78,0.696809939,0.692307692,,,,,,,
decision,187,713270,0.0-58.0-2.0,"""event"",""trial"",""time""
""fullscreenenter"",""1"",""8546""
","
","
","""event"",""trial"",""time""
""fullscreenenter"",""1"",""8546""
","
",,1547.6,run_exp/static/images/task_images/land.jpg,65,,,,,,,54,,,7,,,,,,,,241249,1,1,FALSE,,,
dig,188,714750,0.0-59.0-0.0,"""event"",""trial"",""time""
""fullscreenenter"",""1"",""8546""
","
","
","""event"",""trial"",""time""
""fullscreenenter"",""1"",""8546""
","
",,,,,,,,,,,,"[{""stimulus"":""run_exp/static/images/task_images/dig.jpg"",""time"":1},{""stimulus"":""run_exp/static/images/task_images/land.jpg"",""time"":496.89999997615814},{""stimulus"":""run_exp/static/images/task_images/dig.jpg"",""time"":980.1000000238419}]",[],7,,,,,,,,,,,,,,
harvest,189,715755,0.0-59.0-1.0,"""event"",""trial"",""time""
""fullscreenenter"",""1"",""8546""
","
","
","""event"",""trial"",""time""
""fullscreenenter"",""1"",""8546""
","
",,null,run_exp/static/images/task_images/gems/54.jpg,null,,,,,,,48,,,7,,,,,54,0.883093611,0.888888889,,,,,,,
decision,190,717246,0.0-59.0-2.0,"""event"",""trial"",""time""
""fullscreenenter"",""1"",""8546""
","
","
","""event"",""trial"",""time""
""fullscreenenter"",""1"",""8546""
","
",,1488.8,run_exp/static/images/task_images/land.jpg,65,,,,,,,48,,,7,,,,,,,,245225,1,2,FALSE,,,
dig,191,718764,0.0-60.0-0.0,"""event"",""trial"",""time""
""fullscreenenter"",""1"",""8546""
","
","
","""event"",""trial"",""time""
""fullscreenenter"",""1"",""8546""
","
",,,,,,,,,,,,"[{""stimulus"":""run_exp/static/images/task_images/dig.jpg"",""time"":0.7999999523162842},{""stimulus"":""run_exp/static/images/task_images/land.jpg"",""time"":509.60000002384186},{""stimulus"":""run_exp/static/images/task_images/dig.jpg"",""time"":1011.1000000238419}]",[],7,,,,,,,,,,,,,,
harvest,192,719772,0.0-60.0-1.0,"""event"",""trial"",""time""
""fullscreenenter"",""1"",""8546""
","
","
","""event"",""trial"",""time""
""fullscreenenter"",""1"",""8546""
","
",,null,run_exp/static/images/task_images/gems/48.jpg,null,,,,,,,42,,,7,,,,,48,0.865753297,0.875,,,,,,,
decision,193,720537,0.0-60.0-2.0,"""event"",""trial"",""time""
""fullscreenenter"",""1"",""8546""
","
","
","""event"",""trial"",""time""
""fullscreenenter"",""1"",""8546""
","
",,761.4,run_exp/static/images/task_images/land.jpg,65,,,,,,,42,,,7,,,,,,,,248516,1,3,FALSE,,,
dig,194,722809,0.0-61.0-0.0,"""event"",""trial"",""time""
""fullscreenenter"",""1"",""8546""
","
","
","""event"",""trial"",""time""
""fullscreenenter"",""1"",""8546""
","
",,,,,,,,,,,,"[{""stimulus"":""run_exp/static/images/task_images/dig.jpg"",""time"":1.2999999523162842},{""stimulus"":""run_exp/static/images/task_images/land.jpg"",""time"":754.6000000238419},{""stimulus"":""run_exp/static/images/task_images/dig.jpg"",""time"":1505.2999999523163}]",[],7,,,,,,,,,,,,,,
harvest,195,723813,0.0-61.0-1.0,"""event"",""trial"",""time""
""fullscreenenter"",""1"",""8546""
","
","
","""event"",""trial"",""time""
""fullscreenenter"",""1"",""8546""
","
",,null,run_exp/static/images/task_images/gems/42.jpg,null,,,,,,,34,,,7,,,,,42,0.799843744,0.80952381,,,,,,,
decision,196,723868,0.0-61.0-2.0,"""event"",""trial"",""time""
""fullscreenenter"",""1"",""8546""
","
","
","""event"",""trial"",""time""
""fullscreenenter"",""1"",""8546""
","
",,53.10000002,run_exp/static/images/task_images/land.jpg,65,,,,,,,34,,,7,,,,,,,,251847,1,4,FALSE,,,
dig,197,726825,0.0-62.0-0.0,"""event"",""trial"",""time""
""fullscreenenter"",""1"",""8546""
","
","
","""event"",""trial"",""time""
""fullscreenenter"",""1"",""8546""
","
",,,,,,,,,,,,"[{""stimulus"":""run_exp/static/images/task_images/dig.jpg"",""time"":0.6000000238418579},{""stimulus"":""run_exp/static/images/task_images/land.jpg"",""time"":1000.5},{""stimulus"":""run_exp/static/images/task_images/dig.jpg"",""time"":1973.7000000476837}]",[],7,,,,,,,,,,,,,,
harvest,198,727828,0.0-62.0-1.0,"""event"",""trial"",""time""
""fullscreenenter"",""1"",""8546""
","
","
","""event"",""trial"",""time""
""fullscreenenter"",""1"",""8546""
","
",,null,run_exp/static/images/task_images/gems/34.jpg,null,,,,,,,26,,,7,,,,,34,0.751815922,0.764705882,,,,,,,
decision,199,728056,0.0-62.0-2.0,"""event"",""trial"",""time""
""fullscreenenter"",""1"",""8546""
","
","
","""event"",""trial"",""time""
""fullscreenenter"",""1"",""8546""
","
",,225.9000001,run_exp/static/images/task_images/land.jpg,65,,,,,,,26,,,7,,,,,,,,256035,1,5,FALSE,,,
dig,200,730849,0.0-63.0-0.0,"""event"",""trial"",""time""
""fullscreenenter"",""1"",""8546""
","
","
","""event"",""trial"",""time""
""fullscreenenter"",""1"",""8546""
","
",,,,,,,,,,,,"[{""stimulus"":""run_exp/static/images/task_images/dig.jpg"",""time"":0.6000000238418579},{""stimulus"":""run_exp/static/images/task_images/land.jpg"",""time"":930.2000000476837},{""stimulus"":""run_exp/static/images/task_images/dig.jpg"",""time"":1857.2000000476837}]",[],7,,,,,,,,,,,,,,
harvest,201,731854,0.0-63.0-1.0,"""event"",""trial"",""time""
""fullscreenenter"",""1"",""8546""
","
","
","""event"",""trial"",""time""
""fullscreenenter"",""1"",""8546""
","
",,null,run_exp/static/images/task_images/gems/26.jpg,null,,,,,,,22,,,7,,,,,26,0.83187626,0.846153846,,,,,,,
decision,202,732182,0.0-63.0-2.0,"""event"",""trial"",""time""
""fullscreenenter"",""1"",""8546""
","
","
","""event"",""trial"",""time""
""fullscreenenter"",""1"",""8546""
","
",,325.3,run_exp/static/images/task_images/land.jpg,65,,,,,,,22,,,7,,,,,,,,260161,1,6,FALSE,,,
dig,203,734878,0.0-64.0-0.0,"""event"",""trial"",""time""
""fullscreenenter"",""1"",""8546""
","
","
","""event"",""trial"",""time""
""fullscreenenter"",""1"",""8546""
","
",,,,,,,,,,,,"[{""stimulus"":""run_exp/static/images/task_images/dig.jpg"",""time"":0.5},{""stimulus"":""run_exp/static/images/task_images/land.jpg"",""time"":902.5999999046326},{""stimulus"":""run_exp/static/images/task_images/dig.jpg"",""time"":1796}]",[],7,,,,,,,,,,,,,,
harvest,204,735882,0.0-64.0-1.0,"""event"",""trial"",""time""
""fullscreenenter"",""1"",""8546""
","
","
","""event"",""trial"",""time""
""fullscreenenter"",""1"",""8546""
","
",,null,run_exp/static/images/task_images/gems/22.jpg,null,,,,,,,18,,,7,,,,,22,0.815984332,0.818181818,,,,,,,
decision,205,736959,0.0-64.0-2.0,"""event"",""trial"",""time""
""fullscreenenter"",""1"",""8546""
","
","
","""event"",""trial"",""time""
""fullscreenenter"",""1"",""8546""
","
",,1073.9,run_exp/static/images/task_images/land.jpg,65,,,,,,,18,,,7,,,,,,,,264938,1,7,FALSE,,,
dig,206,738914,0.0-65.0-0.0,"""event"",""trial"",""time""
""fullscreenenter"",""1"",""8546""
","
","
","""event"",""trial"",""time""
""fullscreenenter"",""1"",""8546""
","
",,,,,,,,,,,,"[{""stimulus"":""run_exp/static/images/task_images/dig.jpg"",""time"":1},{""stimulus"":""run_exp/static/images/task_images/land.jpg"",""time"":651.3999999761581},{""stimulus"":""run_exp/static/images/task_images/dig.jpg"",""time"":1295.5}]",[],7,,,,,,,,,,,,,,
harvest,207,739918,0.0-65.0-1.0,"""event"",""trial"",""time""
""fullscreenenter"",""1"",""8546""
","
","
","""event"",""trial"",""time""
""fullscreenenter"",""1"",""8546""
","
",,null,run_exp/static/images/task_images/gems/18.jpg,null,,,,,,,14,,,7,,,,,18,0.778245226,0.777777778,,,,,,,
decision,208,740202,0.0-65.0-2.0,"""event"",""trial"",""time""
""fullscreenenter"",""1"",""8546""
","
","
","""event"",""trial"",""time""
""fullscreenenter"",""1"",""8546""
","
",,280.7,run_exp/static/images/task_images/land.jpg,65,,,,,,,14,,,7,,,,,,,,268181,1,8,FALSE,,,
dig,209,742931,0.0-66.0-0.0,"""event"",""trial"",""time""
""fullscreenenter"",""1"",""8546""
","
","
","""event"",""trial"",""time""
""fullscreenenter"",""1"",""8546""
","
",,,,,,,,,,,,"[{""stimulus"":""run_exp/static/images/task_images/dig.jpg"",""time"":0.5},{""stimulus"":""run_exp/static/images/task_images/land.jpg"",""time"":919.5},{""stimulus"":""run_exp/static/images/task_images/dig.jpg"",""time"":1815.6999999284744}]",[],7,,,,,,,,,,,,,,
harvest,210,743934,0.0-66.0-1.0,"""event"",""trial"",""time""
""fullscreenenter"",""1"",""8546""
","
","
","""event"",""trial"",""time""
""fullscreenenter"",""1"",""8546""
","
",,null,run_exp/static/images/task_images/gems/14.jpg,null,,,,,,,12,,,7,,,,,14,0.821969193,0.857142857,,,,,,,
decision,211,745966,0.0-66.0-2.0,"""event"",""trial"",""time""
""fullscreenenter"",""1"",""8546""
","
","
","""event"",""trial"",""time""
""fullscreenenter"",""1"",""8546""
","
",,2026.5,run_exp/static/images/task_images/land.jpg,65,,,,,,,12,,,7,,,,,,,,273946,1,9,FALSE,,,
dig,212,746968,0.0-67.0-0.0,"""event"",""trial"",""time""
""fullscreenenter"",""1"",""8546""
","
","
","""event"",""trial"",""time""
""fullscreenenter"",""1"",""8546""
","
",,,,,,,,,,,,"[{""stimulus"":""run_exp/static/images/task_images/dig.jpg"",""time"":0.8999999761581421},{""stimulus"":""run_exp/static/images/task_images/land.jpg"",""time"":330.5},{""stimulus"":""run_exp/static/images/task_images/dig.jpg"",""time"":658.7000000476837}]",[],7,,,,,,,,,,,,,,
harvest,213,747973,0.0-67.0-1.0,"""event"",""trial"",""time""
""fullscreenenter"",""1"",""8546""
","
","
","""event"",""trial"",""time""
""fullscreenenter"",""1"",""8546""
","
",,null,run_exp/static/images/task_images/gems/12.jpg,null,,,,,,,10,,,7,,,,,12,0.812072964,0.833333333,,,,,,,
decision,214,749240,0.0-67.0-2.0,"""event"",""trial"",""time""
""fullscreenenter"",""1"",""8546""
","
","
","""event"",""trial"",""time""
""fullscreenenter"",""1"",""8546""
","
",,1264.4,run_exp/static/images/task_images/land.jpg,65,,,,,,,10,,,7,,,,,,,,277219,1,10,FALSE,,,
dig,215,751003,0.0-68.0-0.0,"""event"",""trial"",""time""
""fullscreenenter"",""1"",""8546""
","
","
","""event"",""trial"",""time""
""fullscreenenter"",""1"",""8546""
","
",,,,,,,,,,,,"[{""stimulus"":""run_exp/static/images/task_images/dig.jpg"",""time"":0.8999999761581421},{""stimulus"":""run_exp/static/images/task_images/land.jpg"",""time"":590.8999999761581},{""stimulus"":""run_exp/static/images/task_images/dig.jpg"",""time"":1163}]",[],7,,,,,,,,,,,,,,
harvest,216,752006,0.0-68.0-1.0,"""event"",""trial"",""time""
""fullscreenenter"",""1"",""8546""
","
","
","""event"",""trial"",""time""
""fullscreenenter"",""1"",""8546""
","
",,null,run_exp/static/images/task_images/gems/10.jpg,null,,,,,,,8,,,7,,,,,10,0.808242233,0.8,,,,,,,
decision,217,753889,0.0-68.0-2.0,"""event"",""trial"",""time""
""fullscreenenter"",""1"",""8546""
","
","
","""event"",""trial"",""time""
""fullscreenenter"",""1"",""8546""
","
",,1880,run_exp/static/images/task_images/land.jpg,65,,,,,,,8,,,7,,,,,,,,281868,1,11,FALSE,,,
dig,218,755030,0.0-69.0-0.0,"""event"",""trial"",""time""
""fullscreenenter"",""1"",""8546""
","
","
","""event"",""trial"",""time""
""fullscreenenter"",""1"",""8546""
","
",,,,,,,,,,,,"[{""stimulus"":""run_exp/static/images/task_images/dig.jpg"",""time"":0.9000000953674316},{""stimulus"":""run_exp/static/images/task_images/land.jpg"",""time"":385.8000000715256},{""stimulus"":""run_exp/static/images/task_images/dig.jpg"",""time"":749.9000000953674}]",[],7,,,,,,,,,,,,,,
harvest,219,756034,0.0-69.0-1.0,"""event"",""trial"",""time""
""fullscreenenter"",""1"",""8546""
","
","
","""event"",""trial"",""time""
""fullscreenenter"",""1"",""8546""
","
",,null,run_exp/static/images/task_images/gems/8.jpg,null,,,,,,,7,,,7,,,,,8,0.84741726,0.875,,,,,,,
decision,220,757807,0.0-69.0-2.0,"""event"",""trial"",""time""
""fullscreenenter"",""1"",""8546""
","
","
","""event"",""trial"",""time""
""fullscreenenter"",""1"",""8546""
","
",,1769.9,run_exp/static/images/task_images/land.jpg,76,,,,,,,7,,,7,,,,,,,,285786,1,12,TRUE,,,
travel,221,766062,0.0-70.0-0.0,"""event"",""trial"",""time""
""fullscreenenter"",""1"",""8546""
","
","
","""event"",""trial"",""time""
""fullscreenenter"",""1"",""8546""
","
",,,,,,,,,,,,"[{""stimulus"":""run_exp/static/images/task_images/rocket-01.jpg"",""time"":0.8999999761581421},{""stimulus"":""run_exp/static/images/task_images/rocket-02.jpg"",""time"":924.1000000238419},{""stimulus"":""run_exp/static/images/task_images/rocket-03.jpg"",""time"":1840.2999999523163},{""stimulus"":""run_exp/static/images/task_images/rocket-04.jpg"",""time"":2755.5},{""stimulus"":""run_exp/static/images/task_images/rocket-05.jpg"",""time"":3663.5},{""stimulus"":""run_exp/static/images/task_images/rocket-06.jpg"",""time"":4582.399999976158},{""stimulus"":""run_exp/static/images/task_images/rocket-07.jpg"",""time"":5492.299999952316},{""stimulus"":""run_exp/static/images/task_images/rocket-08.jpg"",""time"":6404.600000023842},{""stimulus"":""run_exp/static/images/task_images/rocket-09.jpg"",""time"":7329.600000023842}]",[],7,,,,,,,,,,,,,,
alien_welcome,222,771075,0.0-70.0-1.0,"""event"",""trial"",""time""
""fullscreenenter"",""1"",""8546""
","
","
","""event"",""trial"",""time""
""fullscreenenter"",""1"",""8546""
","
",,null,run_exp/static/images/task_images/aliens/old_aliens/planet/alien_planet-47.jpg,null,,,,,,,,,,,,,47,"72,78,25,40,31,35,39,47,68,23,54,73,41,18,2,19,32,51,5,8,15,76,80,67,12,1,14,79,42,30,50,58,71,48,26,55,11,62,77",,,,,,,,,,
land,223,771580,0.0-70.0-2.0,"""event"",""trial"",""time""
""fullscreenenter"",""1"",""8546""
","
","
","""event"",""trial"",""time""
""fullscreenenter"",""1"",""8546""
","
",,null,run_exp/static/images/task_images/land.jpg,null,,,,,,,94,,,8,,,,,,,,,,,,,,
dig,224,773591,0.0-70.0-3.0,"""event"",""trial"",""time""
""fullscreenenter"",""1"",""8546""
","
","
","""event"",""trial"",""time""
""fullscreenenter"",""1"",""8546""
","
",,,,,,,,,,,,"[{""stimulus"":""run_exp/static/images/task_images/dig.jpg"",""time"":0.8999999761581421},{""stimulus"":""run_exp/static/images/task_images/land.jpg"",""time"":685.3999999761581},{""stimulus"":""run_exp/static/images/task_images/dig.jpg"",""time"":1345.5999999046326}]",[],8,,,,,,,,,,,,,,
harvest,225,774595,0.0-70.0-4.0,"""event"",""trial"",""time""
""fullscreenenter"",""1"",""8546""
","
","
","""event"",""trial"",""time""
""fullscreenenter"",""1"",""8546""
","
",,null,run_exp/static/images/task_images/gems/94.jpg,null,,,,,,,76,,,8,,,,,94,0.81364946,0.808510638,,,,,,,
decision,226,776012,0.0-70.0-5.0,"""event"",""trial"",""time""
""fullscreenenter"",""1"",""8546""
","
","
","""event"",""trial"",""time""
""fullscreenenter"",""1"",""8546""
","
",,1413.9,run_exp/static/images/task_images/land.jpg,65,,,,,,,76,,,8,,,,,,,,303991,1,0,TRUE,,,
end_of_block_continue,227,784944,0.0-71.0-0.0,"""event"",""trial"",""time""
""fullscreenenter"",""1"",""8546""
","
","
","""event"",""trial"",""time""
""fullscreenenter"",""1"",""8546""
","
",,null,run_exp/static/audio/clip_32_block_end.m4a,,,,,,,null,,,,,,,,,,,,,,,,,,
alien_welcome,228,789977,0.0-72.0-0.0,"""event"",""trial"",""time""
""fullscreenenter"",""1"",""8546""
","
","
","""event"",""trial"",""time""
""fullscreenenter"",""1"",""8546""
","
",,null,run_exp/static/images/task_images/aliens/old_aliens/planet/alien_planet-68.jpg,null,,,,,,,,,,,,,68,"72,78,25,40,31,35,39,47,68,23,54,73,41,18,2,19,32,51,5,8,15,76,80,67,12,1,14,79,42,30,50,58,71,48,26,55,11,62,77",,,,,,,,,,
land,229,790497,0.0-72.0-1.0,"""event"",""trial"",""time""
""fullscreenenter"",""1"",""8546""
","
","
","""event"",""trial"",""time""
""fullscreenenter"",""1"",""8546""
","
",,null,run_exp/static/images/task_images/land.jpg,null,,,,,,,96,,,9,,,,,,,,,,,,,,
dig,230,792514,0.0-72.0-2.0,"""event"",""trial"",""time""
""fullscreenenter"",""1"",""8546""
","
","
","""event"",""trial"",""time""
""fullscreenenter"",""1"",""8546""
","
",,,,,,,,,,,,"[{""stimulus"":""run_exp/static/images/task_images/dig.jpg"",""time"":1.5},{""stimulus"":""run_exp/static/images/task_images/land.jpg"",""time"":673.8000000715256},{""stimulus"":""run_exp/static/images/task_images/dig.jpg"",""time"":1352.2000000476837}]",[],9,,,,,,,,,,,,,,
harvest,231,793517,0.0-72.0-3.0,"""event"",""trial"",""time""
""fullscreenenter"",""1"",""8546""
","
","
","""event"",""trial"",""time""
""fullscreenenter"",""1"",""8546""
","
",,null,run_exp/static/images/task_images/gems/96.jpg,null,,,,,,,24,,,9,,,,,96,0.25271072,0.25,,,,,,,
decision,232,793749,0.0-72.0-4.0,"""event"",""trial"",""time""
""fullscreenenter"",""1"",""8546""
","
","
","""event"",""trial"",""time""
""fullscreenenter"",""1"",""8546""
","
",,229.8000001,run_exp/static/images/task_images/land.jpg,65,,,,,,,24,,,9,,,,,,,,8790,2,0,FALSE,,,
dig,233,796536,0.0-73.0-0.0,"""event"",""trial"",""time""
""fullscreenenter"",""1"",""8546""
","
","
","""event"",""trial"",""time""
""fullscreenenter"",""1"",""8546""
","
",,,,,,,,,,,,"[{""stimulus"":""run_exp/static/images/task_images/dig.jpg"",""time"":0.5},{""stimulus"":""run_exp/static/images/task_images/land.jpg"",""time"":941.9000000953674},{""stimulus"":""run_exp/static/images/task_images/dig.jpg"",""time"":1856.8000000715256}]",[],9,,,,,,,,,,,,,,
harvest,234,797540,0.0-73.0-1.0,"""event"",""trial"",""time""
""fullscreenenter"",""1"",""8546""
","
","
","""event"",""trial"",""time""
""fullscreenenter"",""1"",""8546""
","
",,null,run_exp/static/images/task_images/gems/24.jpg,null,,,,,,,6,,,9,,,,,24,0.252691416,0.25,,,,,,,
decision,235,799135,0.0-73.0-2.0,"""event"",""trial"",""time""
""fullscreenenter"",""1"",""8546""
","
","
","""event"",""trial"",""time""
""fullscreenenter"",""1"",""8546""
","
",,1592.1,run_exp/static/images/task_images/land.jpg,65,,,,,,,6,,,9,,,,,,,,14176,2,1,FALSE,,,
dig,236,800564,0.0-74.0-0.0,"""event"",""trial"",""time""
""fullscreenenter"",""1"",""8546""
","
","
","""event"",""trial"",""time""
""fullscreenenter"",""1"",""8546""
","
",,,,,,,,,,,,"[{""stimulus"":""run_exp/static/images/task_images/dig.jpg"",""time"":1.7000000476837158},{""stimulus"":""run_exp/static/images/task_images/land.jpg"",""time"":485.3000000715256},{""stimulus"":""run_exp/static/images/task_images/dig.jpg"",""time"":944}]",[],9,,,,,,,,,,,,,,
harvest,237,801576,0.0-74.0-1.0,"""event"",""trial"",""time""
""fullscreenenter"",""1"",""8546""
","
","
","""event"",""trial"",""time""
""fullscreenenter"",""1"",""8546""
","
",,null,run_exp/static/images/task_images/gems/6.jpg,null,,,,,,,1,,,9,,,,,6,0.16806827,0.166666667,,,,,,,
decision,238,802676,0.0-74.0-2.0,"""event"",""trial"",""time""
""fullscreenenter"",""1"",""8546""
","
","
","""event"",""trial"",""time""
""fullscreenenter"",""1"",""8546""
","
",,1096.5,run_exp/static/images/task_images/land.jpg,65,,,,,,,1,,,9,,,,,,,,17717,2,2,FALSE,,,
dig,239,804609,0.0-75.0-0.0,"""event"",""trial"",""time""
""fullscreenenter"",""1"",""8546""
","
","
","""event"",""trial"",""time""
""fullscreenenter"",""1"",""8546""
","
",,,,,,,,,,,,"[{""stimulus"":""run_exp/static/images/task_images/dig.jpg"",""time"":0.7000000476837158},{""stimulus"":""run_exp/static/images/task_images/land.jpg"",""time"":647.8000000715256},{""stimulus"":""run_exp/static/images/task_images/dig.jpg"",""time"":1277.6000000238419}]",[],9,,,,,,,,,,,,,,
harvest,240,805613,0.0-75.0-1.0,"""event"",""trial"",""time""
""fullscreenenter"",""1"",""8546""
","
","
","""event"",""trial"",""time""
""fullscreenenter"",""1"",""8546""
","
",,null,run_exp/static/images/task_images/gems/1.jpg,null,,,,,,,0,,,9,,,,,1,0.285411077,0,,,,,,,
decision,241,805640,0.0-75.0-2.0,"""event"",""trial"",""time""
""fullscreenenter"",""1"",""8546""
","
","
","""event"",""trial"",""time""
""fullscreenenter"",""1"",""8546""
","
",,22.20000005,run_exp/static/images/task_images/land.jpg,65,,,,,,,0,,,9,,,,,,,,20681,2,3,FALSE,,,
dig,242,808643,0.0-76.0-0.0,"""event"",""trial"",""time""
""fullscreenenter"",""1"",""8546""
","
","
","""event"",""trial"",""time""
""fullscreenenter"",""1"",""8546""
","
",,,,,,,,,,,,"[{""stimulus"":""run_exp/static/images/task_images/dig.jpg"",""time"":0.8999999761581421},{""stimulus"":""run_exp/static/images/task_images/land.jpg"",""time"":1009.7000000476837},{""stimulus"":""run_exp/static/images/task_images/dig.jpg"",""time"":1998.1000000238419}]",[],9,,,,,,,,,,,,,,
harvest,243,809652,0.0-76.0-1.0,"""event"",""trial"",""time""
""fullscreenenter"",""1"",""8546""
","
","
","""event"",""trial"",""time""
""fullscreenenter"",""1"",""8546""
","
",,null,run_exp/static/images/task_images/gems/0.jpg,null,,,,,,,0,,,9,,,,,0,0.154498164,NaN,,,,,,,
decision,244,810539,0.0-76.0-2.0,"""event"",""trial"",""time""
""fullscreenenter"",""1"",""8546""
","
","
","""event"",""trial"",""time""
""fullscreenenter"",""1"",""8546""
","
",,882.3000001,run_exp/static/images/task_images/land.jpg,65,,,,,,,0,,,9,,,,,,,,25580,2,4,FALSE,,,
dig,245,812687,0.0-77.0-0.0,"""event"",""trial"",""time""
""fullscreenenter"",""1"",""8546""
","
","
","""event"",""trial"",""time""
""fullscreenenter"",""1"",""8546""
","
",,,,,,,,,,,,"[{""stimulus"":""run_exp/static/images/task_images/dig.jpg"",""time"":1},{""stimulus"":""run_exp/static/images/task_images/land.jpg"",""time"":714.7999999523163},{""stimulus"":""run_exp/static/images/task_images/dig.jpg"",""time"":1423.1999999284744}]",[],9,,,,,,,,,,,,,,
harvest,246,813699,0.0-77.0-1.0,"""event"",""trial"",""time""
""fullscreenenter"",""1"",""8546""
","
","
","""event"",""trial"",""time""
""fullscreenenter"",""1"",""8546""
","
",,null,run_exp/static/images/task_images/gems/0.jpg,null,,,,,,,0,,,9,,,,,0,0.155850035,NaN,,,,,,,
decision,247,814195,0.0-77.0-2.0,"""event"",""trial"",""time""
""fullscreenenter"",""1"",""8546""
","
","
","""event"",""trial"",""time""
""fullscreenenter"",""1"",""8546""
","
",,491.2,run_exp/static/images/task_images/land.jpg,76,,,,,,,0,,,9,,,,,,,,29236,2,5,TRUE,,,
travel,248,823726,0.0-78.0-0.0,"""event"",""trial"",""time""
""fullscreenenter"",""1"",""8546""
","
","
","""event"",""trial"",""time""
""fullscreenenter"",""1"",""8546""
","
",,,,,,,,,,,,"[{""stimulus"":""run_exp/static/images/task_images/rocket-01.jpg"",""time"":1.7999999523162842},{""stimulus"":""run_exp/static/images/task_images/rocket-02.jpg"",""time"":1072},{""stimulus"":""run_exp/static/images/task_images/rocket-03.jpg"",""time"":2128.1999999284744},{""stimulus"":""run_exp/static/images/task_images/rocket-04.jpg"",""time"":3184.6999999284744},{""stimulus"":""run_exp/static/images/task_images/rocket-05.jpg"",""time"":4238.199999928474},{""stimulus"":""run_exp/static/images/task_images/rocket-06.jpg"",""time"":5287.899999976158},{""stimulus"":""run_exp/static/images/task_images/rocket-07.jpg"",""time"":6344.599999904633},{""stimulus"":""run_exp/static/images/task_images/rocket-08.jpg"",""time"":7406.699999928474},{""stimulus"":""run_exp/static/images/task_images/rocket-09.jpg"",""time"":8457.799999952316}]",[],9,,,,,,,,,,,,,,
alien_welcome,249,828744,0.0-78.0-1.0,"""event"",""trial"",""time""
""fullscreenenter"",""1"",""8546""
","
","
","""event"",""trial"",""time""
""fullscreenenter"",""1"",""8546""
","
",,null,run_exp/static/images/task_images/aliens/old_aliens/planet/alien_planet-23.jpg,null,,,,,,,,,,,,,23,"72,78,25,40,31,35,39,47,68,23,54,73,41,18,2,19,32,51,5,8,15,76,80,67,12,1,14,79,42,30,50,58,71,48,26,55,11,62,77",,,,,,,,,,
land,250,829249,0.0-78.0-2.0,"""event"",""trial"",""time""
""fullscreenenter"",""1"",""8546""
","
","
","""event"",""trial"",""time""
""fullscreenenter"",""1"",""8546""
","
",,null,run_exp/static/images/task_images/land.jpg,null,,,,,,,103,,,10,,,,,,,,,,,,,,
dig,251,831270,0.0-78.0-3.0,"""event"",""trial"",""time""
""fullscreenenter"",""1"",""8546""
","
","
","""event"",""trial"",""time""
""fullscreenenter"",""1"",""8546""
","
