trial_type,trial_index,time_elapsed,internal_node_id,interactions,blur_events,focus_events,fullscreenenter_events,fullscreenexit_events,success,rt,stimulus,key_press,prompt,subject_id,participant_id,age,gender,button_pressed,next_reward,animation_sequence,responses,planet,curr_prac_trial,n_prac_rounds,alien,aliens,reward_received,decay_rate_actual,decay_rate_exp,time_in_block,block_num,prt,last_trial_on_planet,button_html,bonus,num_failures
pavlovia,0,3,0.0-0.0,"""event"",""trial"",""time""
""fullscreenenter"",""1"",""3117""
","
","
","""event"",""trial"",""time""
""fullscreenenter"",""1"",""3117""
","
",,,,,,,,,,,,,,,,,,,,,,,,,,,,
fullscreen,1,4112,0.0-1.0,"""event"",""trial"",""time""
""fullscreenenter"",""1"",""3117""
","
","
","""event"",""trial"",""time""
""fullscreenenter"",""1"",""3117""
","
",TRUE,,,,,,,,,,,,,,,,,,,,,,,,,,,
instruc_welcome,2,13848,0.0-2.0,"""event"",""trial"",""time""
""fullscreenenter"",""1"",""3117""
","
","
","""event"",""trial"",""time""
""fullscreenenter"",""1"",""3117""
","
",,null,run_exp/static/audio/clip_1_welcome.m4a,null,"<p>Howdy! In this experiment, you’ll be an explorer traveling through space to collect space treasure.</p><p>Your mission is to collect as much treasure as possible.</p><br><br><p><img src='run_exp/static/images/task_images/opening_img-01.jpg' height='300' width='auto'></p>",10254,4771,23.5,Male,,,,,,,,,,,,,,,,,,,
audio-keyboard-response,3,30428,0.0-3.0,"""event"",""trial"",""time""
""fullscreenenter"",""1"",""3117""
","
","
","""event"",""trial"",""time""
""fullscreenenter"",""1"",""3117""
","
",,null,run_exp/static/audio/clip_2_move.m4a,null,,,,,,,,,,,,,,,,,,,,,,,,
welcome_dec,4,32000,0.0-4.0,"""event"",""trial"",""time""
""fullscreenenter"",""1"",""3117""
","
","
","""event"",""trial"",""time""
""fullscreenenter"",""1"",""3117""
","
",,1569.8,"<p>Howdy! In this experiment, you’ll be an explorer traveling through space to collect space treasure.</p><p>Your mission is to collect as much treasure as possible.</p><br><br><p><img src='run_exp/static/images/task_images/opening_img-01.jpg' height='300' width='auto'></p>",,,,,,,1,,,,,,,,,,,,,,,,,,
html-keyboard-response,5,33432,0.0-5.0,"""event"",""trial"",""time""
""fullscreenenter"",""1"",""3117""
","
","
","""event"",""trial"",""time""
""fullscreenenter"",""1"",""3117""
","
",,1431.5,"<p>Howdy! In this experiment, you’ll be an explorer traveling through space to collect space treasure.</p><p>Your mission is to collect as much treasure as possible.</p><br><br><p><img src='run_exp/static/images/task_images/opening_img-01.jpg' height='300' width='auto'></p><button class=""jspsych-html-btn-unchosen""><img src=""run_exp/static/images/task_images/planet-01.jpg"" height=""50""></button><button class=""jspsych-html-btn-chosen""><img src=""run_exp/static/images/task_images/planet-02.jpg"" height=""50""></button><p><b>[press the space bar to lock in your answer]<b><br></p>",32,,,,,,,,,,,,,,,,,,,,,,,,
instruc_goal,6,43488,0.0-6.0-0.0,"""event"",""trial"",""time""
""fullscreenenter"",""1"",""3117""
","
","
","""event"",""trial"",""time""
""fullscreenenter"",""1"",""3117""
","
",,null,run_exp/static/audio/clip_3_goal.m4a,null,"<p> As a space explorer, you’ll visit different planets to dig for space treasure, these pink gems.</p> <p> The more treasure you dig up, the more bonus money you’ll win! </p><br><br><p><img src='run_exp/static/images/task_images/pink_gem.jpg' height='300' width='auto'></p>",,,,,,,,,,,,,,,,,,,,,,,
instruc_goal,7,46854,0.0-6.0-1.0,"""event"",""trial"",""time""
""fullscreenenter"",""1"",""3117""
","
","
","""event"",""trial"",""time""
""fullscreenenter"",""1"",""3117""
","
",,3365.6,"<p> As a space explorer, you’ll visit different planets to dig for space treasure, these pink gems.</p> <p> The more treasure you dig up, the more bonus money you’ll win! </p><br><br><p><img src='run_exp/static/images/task_images/pink_gem.jpg' height='300' width='auto'></p>",,,,,,,1,,,,,,,,,,,,,,,,,,
html-keyboard-response,8,48646,0.0-6.0-2.0,"""event"",""trial"",""time""
""fullscreenenter"",""1"",""3117""
","
","
","""event"",""trial"",""time""
""fullscreenenter"",""1"",""3117""
","
",,1790.4,"<p> As a space explorer, you’ll visit different planets to dig for space treasure, these pink gems.</p> <p> The more treasure you dig up, the more bonus money you’ll win! </p><br><br><p><img src='run_exp/static/images/task_images/pink_gem.jpg' height='300' width='auto'></p><button class=""jspsych-html-btn-unchosen""><img src=""run_exp/static/images/task_images/planet-01.jpg"" height=""50""></button><button class=""jspsych-html-btn-chosen""><img src=""run_exp/static/images/task_images/planet-02.jpg"" height=""50""></button><p><b>[press the space bar to lock in your answer]<b><br></p>",32,,,,,,,,,,,,,,,,,,,,,,,,
instruc_dig,9,64648,0.0-7.0-0.0,"""event"",""trial"",""time""
""fullscreenenter"",""1"",""3117""
","
","
","""event"",""trial"",""time""
""fullscreenenter"",""1"",""3117""
","
",,null,run_exp/static/audio/clip_4_dig.m4a,null,,,,,,,100,,,,,,,,,,,,,,,,,
instruc_dig_try,10,65476,0.0-7.0-1.0,"""event"",""trial"",""time""
""fullscreenenter"",""1"",""3117""
","
","
","""event"",""trial"",""time""
""fullscreenenter"",""1"",""3117""
","
",,827.2,"<p> When you’ve arrived at a new planet, you will dig once. </p> <p>Then, you get to decide if you want to stay on the planet and dig again or travel to a new planet and dig there.</p> <p> To stay and dig, press the letter <strong>‘A’</strong> on your keyboard. Try pressing it now! </p><p><img src='run_exp/static/images/task_images/land.jpg'  height='700' width='auto'></p>",65,"<p> When you’ve arrived at a new planet, you will dig once. </p> <p>Then, you get to decide if you want to stay on the planet and dig again or travel to a new planet and dig there.</p> <p> To stay and dig, press the letter <strong>‘A’</strong> on your keyboard. Try pressing it now! </p><p><img src='run_exp/static/images/task_images/land.jpg'  height='700' width='auto'></p>",,,,,,100,,,,,,,,,,,,,,,,,
dig_prac,11,67481,0.0-7.0-2.0,"""event"",""trial"",""time""
""fullscreenenter"",""1"",""3117""
","
","
","""event"",""trial"",""time""
""fullscreenenter"",""1"",""3117""
","
",,,,,,,,,,,,"[{""stimulus"":""run_exp/static/images/task_images/dig.jpg"",""time"":0.20000001788139343},{""stimulus"":""run_exp/static/images/task_images/land.jpg"",""time"":668.2000000178814},{""stimulus"":""run_exp/static/images/task_images/dig.jpg"",""time"":1335.6000000238419}]",[],,,,,,,,,,,,,,,
instruc_travel,12,103727,0.0-7.0-3.0,"""event"",""trial"",""time""
""fullscreenenter"",""1"",""3117""
","
","
","""event"",""trial"",""time""
""fullscreenenter"",""1"",""3117""
","
",,null,run_exp/static/audio/clip_5_travel.m4a,null,"<p>Every time you dig up gems, there are less gems on the planet, so the more you dig on a planet the fewer gems you’ll get with each dig.</p><p>When gems are running low, you may want to travel to a new planet. </p> <p>  Planets are very far apart in this galaxy, so it will take some time to travel between them. </p> <br><p>There are lots and lots of planets for you to visit, so you won’t be able to return to any planets you’ve seen before. </p><br><p>To leave this planet and travel to a new one, press the letter <strong>‘L’</strong> on your keyboard. Try pressing it now! </p><p><img src='run_exp/static/images/task_images/rocket-01.jpg'  height='600' width='auto'></p>",,,,,,,,,,,,,,,,,,,,,,,
instruc_travel_try,13,103887,0.0-7.0-4.0,"""event"",""trial"",""time""
""fullscreenenter"",""1"",""3117""
","
","
","""event"",""trial"",""time""
""fullscreenenter"",""1"",""3117""
","
",,158.7,"<p>Every time you dig up gems, there are less gems on the planet, so the more you dig on a planet the fewer gems you’ll get with each dig.</p><p>When gems are running low, you may want to travel to a new planet. </p> <p>  Planets are very far apart in this galaxy, so it will take some time to travel between them. </p> <br><p>There are lots and lots of planets for you to visit, so you won’t be able to return to any planets you’ve seen before. </p><br><p>To leave this planet and travel to a new one, press the letter <strong>‘L’</strong> on your keyboard. Try pressing it now! </p><p><img src='run_exp/static/images/task_images/rocket-01.jpg'  height='600' width='auto'></p>",76,"<p>Every time you dig up gems, there are less gems on the planet, so the more you dig on a planet the fewer gems you’ll get with each dig.</p><p>When gems are running low, you may want to travel to a new planet. </p> <p>  Planets are very far apart in this galaxy, so it will take some time to travel between them. </p> <br><p>There are lots and lots of planets for you to visit, so you won’t be able to return to any planets you’ve seen before. </p><br><p>To leave this planet and travel to a new one, press the letter <strong>‘L’</strong> on your keyboard. Try pressing it now! </p><p><img src='run_exp/static/images/task_images/rocket-01.jpg'  height='600' width='auto'></p>",,,,,,,,,,,,,,,,,,,,,,,
travel_prac,14,113888,0.0-7.0-5.0,"""event"",""trial"",""time""
""fullscreenenter"",""1"",""3117""
","
","
","""event"",""trial"",""time""
""fullscreenenter"",""1"",""3117""
","
",,,,,,,,,,,,"[{""stimulus"":""run_exp/static/images/task_images/rocket-01.jpg"",""time"":0.19999998807907104},{""stimulus"":""run_exp/static/images/task_images/rocket-02.jpg"",""time"":1112.2999999821186},{""stimulus"":""run_exp/static/images/task_images/rocket-03.jpg"",""time"":2224.0999999940395},{""stimulus"":""run_exp/static/images/task_images/rocket-04.jpg"",""time"":3334.199999988079},{""stimulus"":""run_exp/static/images/task_images/rocket-05.jpg"",""time"":4446.399999976158},{""stimulus"":""run_exp/static/images/task_images/rocket-06.jpg"",""time"":5556.5},{""stimulus"":""run_exp/static/images/task_images/rocket-07.jpg"",""time"":6667.5},{""stimulus"":""run_exp/static/images/task_images/rocket-08.jpg"",""time"":7778.699999988079},{""stimulus"":""run_exp/static/images/task_images/rocket-09.jpg"",""time"":8889.299999982119}]",[],0,,,,,,,,,,,,,,
instruc_alien_greet,15,141068,0.0-7.0-6.0,"""event"",""trial"",""time""
""fullscreenenter"",""1"",""3117""
","
","
","""event"",""trial"",""time""
""fullscreenenter"",""1"",""3117""
","
",,null,run_exp/static/audio/clip_6_alien.m4a,null,"<p>When you arrive at a new planet, the alien who owns the treasure mine on that planet will greet you!</p><p>The better an alien takes care of their mine the easier it is to dig for gems. Some aliens take better care of their mine than others. So, you won’t get exactly the same amount of gems on each planet.</p><p>What the alien looks like does not tell you anything about how many gems there are on the planet.</p><br><p><img src=""run_exp/static/images/task_images/aliens/instructions_aliens/planet/alien_planet-1.jpg""  height=""600"" width=""auto""></p>",,,,,,,,,,,,,,,,,,,,,,,
instruc_alien_greet,16,145800,0.0-7.0-7.0,"""event"",""trial"",""time""
""fullscreenenter"",""1"",""3117""
","
","
","""event"",""trial"",""time""
""fullscreenenter"",""1"",""3117""
","
",,4730.7,"<p>When you arrive at a new planet, the alien who owns the treasure mine on that planet will greet you!</p><p>The better an alien takes care of their mine the easier it is to dig for gems. Some aliens take better care of their mine than others. So, you won’t get exactly the same amount of gems on each planet.</p><p>What the alien looks like does not tell you anything about how many gems there are on the planet.</p><br><p><img src=""run_exp/static/images/task_images/aliens/instructions_aliens/planet/alien_planet-1.jpg""  height=""600"" width=""auto""></p>",,,,,,,1,,,,,,,,,,,,,,,,,,
html-keyboard-response,17,147786,0.0-7.0-8.0,"""event"",""trial"",""time""
""fullscreenenter"",""1"",""3117""
","
","
","""event"",""trial"",""time""
""fullscreenenter"",""1"",""3117""
","
",,1984.9,"<p>When you arrive at a new planet, the alien who owns the treasure mine on that planet will greet you!</p><p>The better an alien takes care of their mine the easier it is to dig for gems. Some aliens take better care of their mine than others. So, you won’t get exactly the same amount of gems on each planet.</p><p>What the alien looks like does not tell you anything about how many gems there are on the planet.</p><br><p><img src=""run_exp/static/images/task_images/aliens/instructions_aliens/planet/alien_planet-1.jpg""  height=""600"" width=""auto""></p><button class=""jspsych-html-btn-unchosen""><img src=""run_exp/static/images/task_images/planet-01.jpg"" height=""50""></button><button class=""jspsych-html-btn-chosen""><img src=""run_exp/static/images/task_images/planet-02.jpg"" height=""50""></button><p><b>[press the space bar to lock in your answer]<b><br></p>",32,,,,,,,,,,,,,,,,,,,,,,,,
time_out,18,158868,0.0-8.0-0.0,"""event"",""trial"",""time""
""fullscreenenter"",""1"",""3117""
","
","
","""event"",""trial"",""time""
""fullscreenenter"",""1"",""3117""
","
",,null,run_exp/static/audio/clip_7_timeout.m4a,null,"<p>If you don't make your choice fast enough, you’ll have to wait a few seconds before you can make another one.</p><p>You can’t dig for more gems or travel to new planets. You just have to sit and wait.</p><br><p><img src='run_exp/static/images/task_images/time_out.jpg'  height='600' width='auto'></p>",,,,,,,,,,,,,,,,,,,,,,,
time_out,19,165222,0.0-8.0-1.0,"""event"",""trial"",""time""
""fullscreenenter"",""1"",""3117""
","
","
","""event"",""trial"",""time""
""fullscreenenter"",""1"",""3117""
","
",,6353,"<p>If you don't make your choice fast enough, you’ll have to wait a few seconds before you can make another one.</p><p>You can’t dig for more gems or travel to new planets. You just have to sit and wait.</p><br><p><img src='run_exp/static/images/task_images/time_out.jpg'  height='600' width='auto'></p>",,,,,,,1,,,,,,,,,,,,,,,,,,
html-keyboard-response,20,165703,0.0-8.0-2.0,"""event"",""trial"",""time""
""fullscreenenter"",""1"",""3117""
","
","
","""event"",""trial"",""time""
""fullscreenenter"",""1"",""3117""
","
",,480.6,"<p>If you don't make your choice fast enough, you’ll have to wait a few seconds before you can make another one.</p><p>You can’t dig for more gems or travel to new planets. You just have to sit and wait.</p><br><p><img src='run_exp/static/images/task_images/time_out.jpg'  height='600' width='auto'></p><button class=""jspsych-html-btn-unchosen""><img src=""run_exp/static/images/task_images/planet-01.jpg"" height=""50""></button><button class=""jspsych-html-btn-chosen""><img src=""run_exp/static/images/task_images/planet-02.jpg"" height=""50""></button><p><b>[press the space bar to lock in your answer]<b><br></p>",32,,,,,,,,,,,,,,,,,,,,,,,,
instruc_break,21,181367,0.0-9.0-0.0,"""event"",""trial"",""time""
""fullscreenenter"",""1"",""3117""
","
","
","""event"",""trial"",""time""
""fullscreenenter"",""1"",""3117""
","
",,null,run_exp/static/audio/clip_8_break.m4a,null,"<p> After digging and traveling for a while, you’ll be able to take a break at home base. </p><p>The game will last 20 minutes no matter what.</p><p>You will visit home base every 5 minutes, so, you will visit home base three times during the game.</p><br><p><img src='run_exp/static/images/task_images/home_base.jpg' height='600' width='auto'></p>",,,,,,,,,,,,,,,,,,,,,,,
instruc_break,22,203025,0.0-9.0-1.0,"""event"",""trial"",""time""
""fullscreenenter"",""1"",""3117""
","
","
","""event"",""trial"",""time""
""fullscreenenter"",""1"",""3117""
","
",,21656.8,"<p> After digging and traveling for a while, you’ll be able to take a break at home base. </p><p>The game will last 20 minutes no matter what.</p><p>You will visit home base every 5 minutes, so, you will visit home base three times during the game.</p><br><p><img src='run_exp/static/images/task_images/home_base.jpg' height='600' width='auto'></p>",,,,,,,1,,,,,,,,,,,,,,,,,,
html-keyboard-response,23,204585,0.0-9.0-2.0,"""event"",""trial"",""time""
""fullscreenenter"",""1"",""3117""
","
","
","""event"",""trial"",""time""
""fullscreenenter"",""1"",""3117""
","
",,1558.6,"<p> After digging and traveling for a while, you’ll be able to take a break at home base. </p><p>The game will last 20 minutes no matter what.</p><p>You will visit home base every 5 minutes, so, you will visit home base three times during the game.</p><br><p><img src='run_exp/static/images/task_images/home_base.jpg' height='600' width='auto'></p><button class=""jspsych-html-btn-unchosen""><img src=""run_exp/static/images/task_images/planet-01.jpg"" height=""50""></button><button class=""jspsych-html-btn-chosen""><img src=""run_exp/static/images/task_images/planet-02.jpg"" height=""50""></button><p><b>[press the space bar to lock in your answer]<b><br></p>",32,,,,,,,,,,,,,,,,,,,,,,,,
instruc_prac_game,24,215333,0.0-10.0-0.0,"""event"",""trial"",""time""
""fullscreenenter"",""1"",""3117""
","
","
","""event"",""trial"",""time""
""fullscreenenter"",""1"",""3117""
","
",,null,run_exp/static/audio/clip_9_practice.m4a,null,"<p> Are you ready to play a practice game? </p> <p>In this practice game, you'll be digging up barrels of gems. But, in the real game, you'll be digging up the gems themselves. </p>",,,,,,,,,,,,,,,,,,,,,,,
html-button-response,25,216497,0.0-10.0-1.0,"""event"",""trial"",""time""
""fullscreenenter"",""1"",""3117""
","
","
","""event"",""trial"",""time""
""fullscreenenter"",""1"",""3117""
","
",,1163.1,"<p> Are you ready to play a practice game? </p> <p>In this practice game, you'll be digging up barrels of gems. But, in the real game, you'll be digging up the gems themselves. </p>",,,,,,,0,,,,,,,,,,,,,,,,,,
alien_welcome_prac,26,221501,0.0-11.0-0.0,"""event"",""trial"",""time""
""fullscreenenter"",""1"",""3117""
","
","
","""event"",""trial"",""time""
""fullscreenenter"",""1"",""3117""
","
",,null,run_exp/static/images/task_images/aliens/practice_aliens/planet/alien_planet-5.jpg,null,,,,,,,,,,,,,,,,,,,,,,,,
land_prac,27,222004,0.0-11.0-1.0,"""event"",""trial"",""time""
""fullscreenenter"",""1"",""3117""
","
","
","""event"",""trial"",""time""
""fullscreenenter"",""1"",""3117""
","
",,null,run_exp/static/images/task_images/land.jpg,null,,,,,,,100,,,0,,,,,,,,,,,,,,
dig_prac,28,224010,0.0-11.0-2.0,"""event"",""trial"",""time""
""fullscreenenter"",""1"",""3117""
","
","
","""event"",""trial"",""time""
""fullscreenenter"",""1"",""3117""
","
",,,,,,,,,,,,"[{""stimulus"":""run_exp/static/images/task_images/dig.jpg"",""time"":0.19999998807907104},{""stimulus"":""run_exp/static/images/task_images/land.jpg"",""time"":668.1999999880791},{""stimulus"":""run_exp/static/images/task_images/dig.jpg"",""time"":1335.2999999821186}]",[],,,,,,,,,,,,,,,
harvest_prac,29,225011,0.0-11.0-3.0,"""event"",""trial"",""time""
""fullscreenenter"",""1"",""3117""
","
","
","""event"",""trial"",""time""
""fullscreenenter"",""1"",""3117""
","
",,null,run_exp/static/images/task_images/barrel_text.jpg,null,,,,,,,,,,,,,,,,,,,,,,,,
decision_prac,30,226062,0.0-11.0-4.0,"""event"",""trial"",""time""
""fullscreenenter"",""1"",""3117""
","
","
","""event"",""trial"",""time""
""fullscreenenter"",""1"",""3117""
","
",,1049.6,run_exp/static/images/task_images/land.jpg,65,,,,,,,,,,,1,,,,,,,,,,,,,
dig_prac,31,228066,0.0-12.0-0.0,"""event"",""trial"",""time""
""fullscreenenter"",""1"",""3117""
","
","
","""event"",""trial"",""time""
""fullscreenenter"",""1"",""3117""
","
",,,,,,,,,,,,"[{""stimulus"":""run_exp/static/images/task_images/dig.jpg"",""time"":0.09999999403953552},{""stimulus"":""run_exp/static/images/task_images/land.jpg"",""time"":668.2000000178814},{""stimulus"":""run_exp/static/images/task_images/dig.jpg"",""time"":1335.9000000059605}]",[],,,,,,,,,,,,,,,
harvest_prac,32,229067,0.0-12.0-1.0,"""event"",""trial"",""time""
""fullscreenenter"",""1"",""3117""
","
","
","""event"",""trial"",""time""
""fullscreenenter"",""1"",""3117""
","
",,null,run_exp/static/images/task_images/barrel_text.jpg,null,,,,,,,,,,,,,,,,,,,,,,,,
decision_prac,33,229958,0.0-12.0-2.0,"""event"",""trial"",""time""
""fullscreenenter"",""1"",""3117""
","
","
","""event"",""trial"",""time""
""fullscreenenter"",""1"",""3117""
","
",,889.5,run_exp/static/images/task_images/land.jpg,65,,,,,,,,,,,2,,,,,,,,,,,,,
dig_prac,34,231961,0.0-13.0-0.0,"""event"",""trial"",""time""
""fullscreenenter"",""1"",""3117""
","
","
","""event"",""trial"",""time""
""fullscreenenter"",""1"",""3117""
","
",,,,,,,,,,,,"[{""stimulus"":""run_exp/static/images/task_images/dig.jpg"",""time"":0.09999999403953552},{""stimulus"":""run_exp/static/images/task_images/land.jpg"",""time"":668.6999999880791},{""stimulus"":""run_exp/static/images/task_images/dig.jpg"",""time"":1336.199999988079}]",[],,,,,,,,,,,,,,,
harvest_prac,35,232964,0.0-13.0-1.0,"""event"",""trial"",""time""
""fullscreenenter"",""1"",""3117""
","
","
","""event"",""trial"",""time""
""fullscreenenter"",""1"",""3117""
","
",,null,run_exp/static/images/task_images/barrel_text.jpg,null,,,,,,,,,,,,,,,,,,,,,,,,
decision_prac,36,233274,0.0-13.0-2.0,"""event"",""trial"",""time""
""fullscreenenter"",""1"",""3117""
","
","
","""event"",""trial"",""time""
""fullscreenenter"",""1"",""3117""
","
",,309.8,run_exp/static/images/task_images/land.jpg,65,,,,,,,,,,,3,,,,,,,,,,,,,
dig_prac,37,235278,0.0-14.0-0.0,"""event"",""trial"",""time""
""fullscreenenter"",""1"",""3117""
","
","
","""event"",""trial"",""time""
""fullscreenenter"",""1"",""3117""
","
",,,,,,,,,,,,"[{""stimulus"":""run_exp/static/images/task_images/dig.jpg"",""time"":0.09999999403953552},{""stimulus"":""run_exp/static/images/task_images/land.jpg"",""time"":667.8000000119209},{""stimulus"":""run_exp/static/images/task_images/dig.jpg"",""time"":1335.5999999940395}]",[],,,,,,,,,,,,,,,
harvest_prac,38,236279,0.0-14.0-1.0,"""event"",""trial"",""time""
""fullscreenenter"",""1"",""3117""
","
","
","""event"",""trial"",""time""
""fullscreenenter"",""1"",""3117""
","
",,null,run_exp/static/images/task_images/barrel_text.jpg,null,,,,,,,,,,,,,,,,,,,,,,,,
decision_prac,39,236785,0.0-14.0-2.0,"""event"",""trial"",""time""
""fullscreenenter"",""1"",""3117""
","
","
","""event"",""trial"",""time""
""fullscreenenter"",""1"",""3117""
","
",,505.6,run_exp/static/images/task_images/land.jpg,65,,,,,,,,,,,4,,,,,,,,,,,,,
dig_prac,40,238789,0.0-15.0-0.0,"""event"",""trial"",""time""
""fullscreenenter"",""1"",""3117""
","
","
","""event"",""trial"",""time""
""fullscreenenter"",""1"",""3117""
","
",,,,,,,,,,,,"[{""stimulus"":""run_exp/static/images/task_images/dig.jpg"",""time"":0.10000002384185791},{""stimulus"":""run_exp/static/images/task_images/land.jpg"",""time"":671.7000000178814},{""stimulus"":""run_exp/static/images/task_images/dig.jpg"",""time"":1336.2000000178814}]",[],,,,,,,,,,,,,,,
harvest_prac,41,239790,0.0-15.0-1.0,"""event"",""trial"",""time""
""fullscreenenter"",""1"",""3117""
","
","
","""event"",""trial"",""time""
""fullscreenenter"",""1"",""3117""
","
",,null,run_exp/static/images/task_images/barrel_text.jpg,null,,,,,,,,,,,,,,,,,,,,,,,,
decision_prac,42,240002,0.0-15.0-2.0,"""event"",""trial"",""time""
""fullscreenenter"",""1"",""3117""
","
","
","""event"",""trial"",""time""
""fullscreenenter"",""1"",""3117""
","
",,211.2,run_exp/static/images/task_images/land.jpg,65,,,,,,,,,,,,1,,,,,,,,,,,,
quiz_instruc,43,243826,0.0-16.0-0.0,"""event"",""trial"",""time""
""fullscreenenter"",""1"",""3117""
","
","
","""event"",""trial"",""time""
""fullscreenenter"",""1"",""3117""
","
",,3821.5,run_exp/static/audio/clip_10_quiz.m4a,,,,,,,0,,,,,,,,,,,,,,,,,,
instruc_repeat,44,286593,0.0-16.0-1.0,"""event"",""trial"",""time""
""fullscreenenter"",""1"",""3117""
","
","
","""event"",""trial"",""time""
""fullscreenenter"",""1"",""3117""
","
",,null,"<p> Are you ready to play a practice game? </p> <p>In this practice game, you'll be digging up barrels of gems. But, in the real game, you'll be digging up the gems themselves. </p>",null,"<p>In this game, your goal is to collect as many gems as you can. That’s how you will win bonus money. </p> <p>The entire game will last 20 minutes no matter how many gems you collect or how many planets you visit. </p><p>To stay on a planet and dig again, press the letter A on your keyboard. To leave for a new planet, press the letter L.</p><p>The more you dig on a planet, the fewer gems you’ll get with each dig which is why you might consider leaving for a new planet. </p><p>When you arrive at a new planet, you’ll be greeted by an alien. What the alien looks like does not tell you anything about how much treasure is on the planet. </p>",,,,,,,,,,,,,,,,,,,,,,,
instruc_repeat_continue,45,288029,0.0-16.0-2.0,"""event"",""trial"",""time""
""fullscreenenter"",""1"",""3117""
","
","
","""event"",""trial"",""time""
""fullscreenenter"",""1"",""3117""
","
",,1435.2,"<p> Are you ready to play a practice game? </p> <p>In this practice game, you'll be digging up barrels of gems. But, in the real game, you'll be digging up the gems themselves. </p>",,,,,,,0,,,,,,,,,,,,,,,,,,
quiz_q_1_ask,46,291637,0.0-16.0-3.0,"""event"",""trial"",""time""
""fullscreenenter"",""1"",""3117""
","
","
","""event"",""trial"",""time""
""fullscreenenter"",""1"",""3117""
","
",,3606.7,run_exp/static/audio/clip_11_q1_ask.m4a,,,,,,,2,,,,,,,,,,,,,,,,,,
quiz_q_1_fb_correct,47,295493,0.0-17.0-0.0,"""event"",""trial"",""time""
""fullscreenenter"",""1"",""3117""
","
","
","""event"",""trial"",""time""
""fullscreenenter"",""1"",""3117""
","
",,null,run_exp/static/audio/clip_12_q1_correct.m4a,null,<p>That’s correct. You win extra money by collecting more gems.</p>,,,,,,,,,,,,,,,,,,,,,,,
quiz_q_2_ask,48,297458,0.0-17.0-1.0,"""event"",""trial"",""time""
""fullscreenenter"",""1"",""3117""
","
","
","""event"",""trial"",""time""
""fullscreenenter"",""1"",""3117""
","
",,1963.9,run_exp/static/audio/clip_14_q2_ask.m4a,,,,,,,1,,,,,,,,,,,,,,,,,,
quiz_q_2_fb_correct,49,301473,0.0-18.0-0.0,"""event"",""trial"",""time""
""fullscreenenter"",""1"",""3117""
","
","
","""event"",""trial"",""time""
""fullscreenenter"",""1"",""3117""
","
",,null,run_exp/static/audio/clip_15_q2_correct.m4a,null,<p>That’s correct. The experiment is 20 minutes no matter what.</p>,,,,,,,,,,,,,,,,,,,,,,,
quiz_q_3_ask,50,303417,0.0-18.0-1.0,"""event"",""trial"",""time""
""fullscreenenter"",""1"",""3117""
","
","
","""event"",""trial"",""time""
""fullscreenenter"",""1"",""3117""
","
",,1943.6,run_exp/static/audio/clip_17_q3_ask.m4a,,,,,,,1,,,,,,,,,,,,,,,,,,
quiz_q_3_fb_correct,51,307413,0.0-19.0-0.0,"""event"",""trial"",""time""
""fullscreenenter"",""1"",""3117""
","
","
","""event"",""trial"",""time""
""fullscreenenter"",""1"",""3117""
","
",,null,run_exp/static/audio/clip_18_q3_correct.m4a,null,<p> That’s correct. You press the letter L to travel to a new planet.</p>,,,,,,,,,,,,,,,,,,,,,,,
quiz_q_4_ask,52,309910,0.0-19.0-1.0,"""event"",""trial"",""time""
""fullscreenenter"",""1"",""3117""
","
","
","""event"",""trial"",""time""
""fullscreenenter"",""1"",""3117""
","
",,2496,run_exp/static/audio/clip_20_q4_ask.m4a,,,,,,,0,,,,,,,,,,,,,,,,,,
quiz_q_4_fb_correct,53,315233,0.0-20.0-0.0,"""event"",""trial"",""time""
""fullscreenenter"",""1"",""3117""
","
","
","""event"",""trial"",""time""
""fullscreenenter"",""1"",""3117""
","
",,null,run_exp/static/audio/clip_21_q4_correct.m4a,null,<p> That’s correct. The more you dig on a planet the fewer gems you’ll get with each dig. </p>,,,,,,,,,,,,,,,,,,,,,,,
quiz_q_5_ask,54,317161,0.0-20.0-1.0,"""event"",""trial"",""time""
""fullscreenenter"",""1"",""3117""
","
","
","""event"",""trial"",""time""
""fullscreenenter"",""1"",""3117""
","
",,1927.3,run_exp/static/audio/clip_23_q5_ask.m4a,,,,,,,1,,,,,,,,,,,,,,,,,,
quiz_q_5_fb_correct,55,322173,0.0-21.0-0.0,"""event"",""trial"",""time""
""fullscreenenter"",""1"",""3117""
","
","
","""event"",""trial"",""time""
""fullscreenenter"",""1"",""3117""
","
",,null,run_exp/static/audio/clip_24_q5_correct.m4a,null,<p> That’s correct. The alien tells you nothing about how much treasure is on the planet.</p>,,,,,,,,,,,,,,,,,,,,,,,
quiz_correct,56,325633,0.0-22.0-0.0,"""event"",""trial"",""time""
""fullscreenenter"",""1"",""3117""
","
","
","""event"",""trial"",""time""
""fullscreenenter"",""1"",""3117""
","
",,null,run_exp/static/audio/clip_26_correct_quiz.m4a,null,,,,,,,,,,,,,,,,,,,,,,,,
quiz_correct_continue,57,327531,0.0-22.0-1.0,"""event"",""trial"",""time""
""fullscreenenter"",""1"",""3117""
","
","
","""event"",""trial"",""time""
""fullscreenenter"",""1"",""3117""
","
",,1897.4,<p>Good job! You're now ready to move on to the real game!</p>,,,,,,,0,,,,,,,,,,,,,,,,,,
audio-keyboard-response,58,337653,0.0-22.0-2.0,"""event"",""trial"",""time""
""fullscreenenter"",""1"",""3117""
","
","
","""event"",""trial"",""time""
""fullscreenenter"",""1"",""3117""
","
",,null,run_exp/static/audio/clip_28_real_game.m4a,null,,,,,,,,,,,,,,,,,,,,,,,,
instruc_begin_exp_contine,59,339193,0.0-22.0-3.0,"""event"",""trial"",""time""
""fullscreenenter"",""1"",""3117""
","
","
","""event"",""trial"",""time""
""fullscreenenter"",""1"",""3117""
","
",,1539,"<p>Now that you know how  to dig for space treasure and travel to new planets,you can start exploring! </p><p>Do you want to go over the instructions again or get started with the real game?</p>",,,,,,,1,,,,,,1,,,,,,,,,,,,
alien_welcome,60,344211,0.0-23.0-0.0,"""event"",""trial"",""time""
""fullscreenenter"",""1"",""3117""
","
","
","""event"",""trial"",""time""
""fullscreenenter"",""1"",""3117""
","
",,null,run_exp/static/images/task_images/aliens/old_aliens/planet/alien_planet-47.jpg,null,,,,,,,,,,,,,47,"47,28,43,61,14,64,48,63,50,19,6,16,73,71,70,72,37,66,17,60,49,55,79,15,27,76,9,3,29,22,67,5,36,57,20,65,39",,,,,,,,,,
land,61,344714,0.0-23.0-1.0,"""event"",""trial"",""time""
""fullscreenenter"",""1"",""3117""
","
","
","""event"",""trial"",""time""
""fullscreenenter"",""1"",""3117""
","
",,null,run_exp/static/images/task_images/land.jpg,null,,,,,,,93,,,1,,,,,,,,,,,,,,
dig,62,346717,0.0-23.0-2.0,"""event"",""trial"",""time""
""fullscreenenter"",""1"",""3117""
","
","
","""event"",""trial"",""time""
""fullscreenenter"",""1"",""3117""
","
",,,,,,,,,,,,"[{""stimulus"":""run_exp/static/images/task_images/dig.jpg"",""time"":0.20000001788139343},{""stimulus"":""run_exp/static/images/task_images/land.jpg"",""time"":669.0999999940395},{""stimulus"":""run_exp/static/images/task_images/dig.jpg"",""time"":1335.0999999940395}]",[],1,,,,,,,,,,,,,,
harvest,63,347719,0.0-23.0-3.0,"""event"",""trial"",""time""
""fullscreenenter"",""1"",""3117""
","
","
","""event"",""trial"",""time""
""fullscreenenter"",""1"",""3117""
","
",,null,run_exp/static/images/task_images/gems/93.jpg,null,,,,,,,18,,,1,,,,,93,0.198267958,0.193548387,,,,,,,
decision,64,348115,0.0-23.0-4.0,"""event"",""trial"",""time""
""fullscreenenter"",""1"",""3117""
","
","
","""event"",""trial"",""time""
""fullscreenenter"",""1"",""3117""
","
",,395.4,run_exp/static/images/task_images/land.jpg,65,,,,,,,18,,,1,,,,,,,,8921,1,0,FALSE,,,
dig,65,350723,0.0-24.0-0.0,"""event"",""trial"",""time""
""fullscreenenter"",""1"",""3117""
","
","
","""event"",""trial"",""time""
""fullscreenenter"",""1"",""3117""
","
",,,,,,,,,,,,"[{""stimulus"":""run_exp/static/images/task_images/dig.jpg"",""time"":0.19999998807907104},{""stimulus"":""run_exp/static/images/task_images/land.jpg"",""time"":869.5999999940395},{""stimulus"":""run_exp/static/images/task_images/dig.jpg"",""time"":1737.0999999940395}]",[],1,,,,,,,,,,,,,,
harvest,66,351724,0.0-24.0-1.0,"""event"",""trial"",""time""
""fullscreenenter"",""1"",""3117""
","
","
","""event"",""trial"",""time""
""fullscreenenter"",""1"",""3117""
","
",,null,run_exp/static/images/task_images/gems/18.jpg,null,,,,,,,5,,,1,,,,,18,0.285606075,0.277777778,,,,,,,
decision,67,352045,0.0-24.0-2.0,"""event"",""trial"",""time""
""fullscreenenter"",""1"",""3117""
","
","
","""event"",""trial"",""time""
""fullscreenenter"",""1"",""3117""
","
",,319.9,run_exp/static/images/task_images/land.jpg,65,,,,,,,5,,,1,,,,,,,,12850,1,1,FALSE,,,
dig,68,354726,0.0-25.0-0.0,"""event"",""trial"",""time""
""fullscreenenter"",""1"",""3117""
","
","
","""event"",""trial"",""time""
""fullscreenenter"",""1"",""3117""
","
",,,,,,,,,,,,"[{""stimulus"":""run_exp/static/images/task_images/dig.jpg"",""time"":0.09999999403953552},{""stimulus"":""run_exp/static/images/task_images/land.jpg"",""time"":894.8000000119209},{""stimulus"":""run_exp/static/images/task_images/dig.jpg"",""time"":1787.7000000178814}]",[],1,,,,,,,,,,,,,,
harvest,69,355728,0.0-25.0-1.0,"""event"",""trial"",""time""
""fullscreenenter"",""1"",""3117""
","
","
","""event"",""trial"",""time""
""fullscreenenter"",""1"",""3117""
","
",,null,run_exp/static/images/task_images/gems/5.jpg,null,,,,,,,1,,,1,,,,,5,0.20431895,0.2,,,,,,,
decision,70,356110,0.0-25.0-2.0,"""event"",""trial"",""time""
""fullscreenenter"",""1"",""3117""
","
","
","""event"",""trial"",""time""
""fullscreenenter"",""1"",""3117""
","
",,381.5,run_exp/static/images/task_images/land.jpg,76,,,,,,,1,,,1,,,,,,,,16915,1,2,TRUE,,,
travel,71,365725,0.0-26.0-0.0,"""event"",""trial"",""time""
""fullscreenenter"",""1"",""3117""
","
","
","""event"",""trial"",""time""
""fullscreenenter"",""1"",""3117""
","
",,,,,,,,,,,,"[{""stimulus"":""run_exp/static/images/task_images/rocket-01.jpg"",""time"":0.09999999403953552},{""stimulus"":""run_exp/static/images/task_images/rocket-02.jpg"",""time"":1068.9000000059605},{""stimulus"":""run_exp/static/images/task_images/rocket-03.jpg"",""time"":2138.5999999940395},{""stimulus"":""run_exp/static/images/task_images/rocket-04.jpg"",""time"":3206.0999999940395},{""stimulus"":""run_exp/static/images/task_images/rocket-05.jpg"",""time"":4273},{""stimulus"":""run_exp/static/images/task_images/rocket-06.jpg"",""time"":5343.4000000059605},{""stimulus"":""run_exp/static/images/task_images/rocket-07.jpg"",""time"":6409},{""stimulus"":""run_exp/static/images/task_images/rocket-08.jpg"",""time"":7477.9000000059605},{""stimulus"":""run_exp/static/images/task_images/rocket-09.jpg"",""time"":8546.09999999404}]",[],1,,,,,,,,,,,,,,
alien_welcome,72,370727,0.0-26.0-1.0,"""event"",""trial"",""time""
""fullscreenenter"",""1"",""3117""
","
","
","""event"",""trial"",""time""
""fullscreenenter"",""1"",""3117""
","
",,null,run_exp/static/images/task_images/aliens/old_aliens/planet/alien_planet-28.jpg,null,,,,,,,,,,,,,28,"47,28,43,61,14,64,48,63,50,19,6,16,73,71,70,72,37,66,17,60,49,55,79,15,27,76,9,3,29,22,67,5,36,57,20,65,39",,,,,,,,,,
land,73,371239,0.0-26.0-2.0,"""event"",""trial"",""time""
""fullscreenenter"",""1"",""3117""
","
","
","""event"",""trial"",""time""
""fullscreenenter"",""1"",""3117""
","
",,null,run_exp/static/images/task_images/land.jpg,null,,,,,,,101,,,2,,,,,,,,,,,,,,
dig,74,373242,0.0-26.0-3.0,"""event"",""trial"",""time""
""fullscreenenter"",""1"",""3117""
","
","
","""event"",""trial"",""time""
""fullscreenenter"",""1"",""3117""
","
",,,,,,,,,,,,"[{""stimulus"":""run_exp/static/images/task_images/dig.jpg"",""time"":0.09999999403953552},{""stimulus"":""run_exp/static/images/task_images/land.jpg"",""time"":668.0999999940395},{""stimulus"":""run_exp/static/images/task_images/dig.jpg"",""time"":1335.5}]",[],2,,,,,,,,,,,,,,
harvest,75,374245,0.0-26.0-4.0,"""event"",""trial"",""time""
""fullscreenenter"",""1"",""3117""
","
","
","""event"",""trial"",""time""
""fullscreenenter"",""1"",""3117""
","
",,null,run_exp/static/images/task_images/gems/101.jpg,null,,,,,,,27,,,2,,,,,101,0.270890708,0.267326733,,,,,,,
decision,76,374468,0.0-26.0-5.0,"""event"",""trial"",""time""
""fullscreenenter"",""1"",""3117""
","
","
","""event"",""trial"",""time""
""fullscreenenter"",""1"",""3117""
","
",,222.7,run_exp/static/images/task_images/land.jpg,65,,,,,,,27,,,2,,,,,,,,35273,1,0,FALSE,,,
dig,77,377247,0.0-27.0-0.0,"""event"",""trial"",""time""
""fullscreenenter"",""1"",""3117""
","
","
","""event"",""trial"",""time""
""fullscreenenter"",""1"",""3117""
","
",,,,,,,,,,,,"[{""stimulus"":""run_exp/static/images/task_images/dig.jpg"",""time"":0.19999998807907104},{""stimulus"":""run_exp/static/images/task_images/land.jpg"",""time"":926.5},{""stimulus"":""run_exp/static/images/task_images/dig.jpg"",""time"":1860.699999988079}]",[],2,,,,,,,,,,,,,,
harvest,78,378249,0.0-27.0-1.0,"""event"",""trial"",""time""
""fullscreenenter"",""1"",""3117""
","
","
","""event"",""trial"",""time""
""fullscreenenter"",""1"",""3117""
","
",,null,run_exp/static/images/task_images/gems/27.jpg,null,,,,,,,8,,,2,,,,,27,0.28643906,0.296296296,,,,,,,
decision,79,378327,0.0-27.0-2.0,"""event"",""trial"",""time""
""fullscreenenter"",""1"",""3117""
","
","
","""event"",""trial"",""time""
""fullscreenenter"",""1"",""3117""
","
",,77.90000001,run_exp/static/images/task_images/land.jpg,65,,,,,,,8,,,2,,,,,,,,39133,1,1,FALSE,,,
dig,80,381252,0.0-28.0-0.0,"""event"",""trial"",""time""
""fullscreenenter"",""1"",""3117""
","
","
","""event"",""trial"",""time""
""fullscreenenter"",""1"",""3117""
","
",,,,,,,,,,,,"[{""stimulus"":""run_exp/static/images/task_images/dig.jpg"",""time"":0.10000002384185791},{""stimulus"":""run_exp/static/images/task_images/land.jpg"",""time"":975.4000000059605},{""stimulus"":""run_exp/static/images/task_images/dig.jpg"",""time"":1949.300000011921}]",[],2,,,,,,,,,,,,,,
harvest,81,382254,0.0-28.0-1.0,"""event"",""trial"",""time""
""fullscreenenter"",""1"",""3117""
","
","
","""event"",""trial"",""time""
""fullscreenenter"",""1"",""3117""
","
",,null,run_exp/static/images/task_images/gems/8.jpg,null,,,,,,,1,,,2,,,,,8,0.150816682,0.125,,,,,,,
decision,82,382279,0.0-28.0-2.0,"""event"",""trial"",""time""
""fullscreenenter"",""1"",""3117""
","
","
","""event"",""trial"",""time""
""fullscreenenter"",""1"",""3117""
","
",,24.09999999,run_exp/static/images/task_images/land.jpg,65,,,,,,,1,,,2,,,,,,,,43084,1,2,FALSE,,,
dig,83,385254,0.0-29.0-0.0,"""event"",""trial"",""time""
""fullscreenenter"",""1"",""3117""
","
","
","""event"",""trial"",""time""
""fullscreenenter"",""1"",""3117""
","
",,,,,,,,,,,,"[{""stimulus"":""run_exp/static/images/task_images/dig.jpg"",""time"":0},{""stimulus"":""run_exp/static/images/task_images/land.jpg"",""time"":992.3000000119209},{""stimulus"":""run_exp/static/images/task_images/dig.jpg"",""time"":1984}]",[],2,,,,,,,,,,,,,,
harvest,84,386257,0.0-29.0-1.0,"""event"",""trial"",""time""
""fullscreenenter"",""1"",""3117""
","
","
","""event"",""trial"",""time""
""fullscreenenter"",""1"",""3117""
","
",,null,run_exp/static/images/task_images/gems/1.jpg,null,,,,,,,0,,,2,,,,,1,0.158100606,0,,,,,,,
decision,85,387526,0.0-29.0-2.0,"""event"",""trial"",""time""
""fullscreenenter"",""1"",""3117""
","
","
","""event"",""trial"",""time""
""fullscreenenter"",""1"",""3117""
","
",,1267.7,run_exp/static/images/task_images/land.jpg,76,,,,,,,0,,,2,,,,,,,,48331,1,3,TRUE,,,
travel,86,396259,0.0-30.0-0.0,"""event"",""trial"",""time""
""fullscreenenter"",""1"",""3117""
","
","
","""event"",""trial"",""time""
""fullscreenenter"",""1"",""3117""
","
",,,,,,,,,,,,"[{""stimulus"":""run_exp/static/images/task_images/rocket-01.jpg"",""time"":0.10000002384185791},{""stimulus"":""run_exp/static/images/task_images/rocket-02.jpg"",""time"":971.4000000059605},{""stimulus"":""run_exp/static/images/task_images/rocket-03.jpg"",""time"":1941.1000000238419},{""stimulus"":""run_exp/static/images/task_images/rocket-04.jpg"",""time"":2911.300000011921},{""stimulus"":""run_exp/static/images/task_images/rocket-05.jpg"",""time"":3881.4000000059605},{""stimulus"":""run_exp/static/images/task_images/rocket-06.jpg"",""time"":4851.600000023842},{""stimulus"":""run_exp/static/images/task_images/rocket-07.jpg"",""time"":5822.200000017881},{""stimulus"":""run_exp/static/images/task_images/rocket-08.jpg"",""time"":6792.600000023842},{""stimulus"":""run_exp/static/images/task_images/rocket-09.jpg"",""time"":7760.800000011921}]",[],2,,,,,,,,,,,,,,
alien_welcome,87,401260,0.0-30.0-1.0,"""event"",""trial"",""time""
""fullscreenenter"",""1"",""3117""
","
","
","""event"",""trial"",""time""
""fullscreenenter"",""1"",""3117""
","
",,null,run_exp/static/images/task_images/aliens/old_aliens/planet/alien_planet-43.jpg,null,,,,,,,,,,,,,43,"47,28,43,61,14,64,48,63,50,19,6,16,73,71,70,72,37,66,17,60,49,55,79,15,27,76,9,3,29,22,67,5,36,57,20,65,39",,,,,,,,,,
land,88,401761,0.0-30.0-2.0,"""event"",""trial"",""time""
""fullscreenenter"",""1"",""3117""
","
","
","""event"",""trial"",""time""
""fullscreenenter"",""1"",""3117""
","
",,null,run_exp/static/images/task_images/land.jpg,null,,,,,,,101,,,3,,,,,,,,,,,,,,
dig,89,403764,0.0-30.0-3.0,"""event"",""trial"",""time""
""fullscreenenter"",""1"",""3117""
","
","
","""event"",""trial"",""time""
""fullscreenenter"",""1"",""3117""
","
",,,,,,,,,,,,"[{""stimulus"":""run_exp/static/images/task_images/dig.jpg"",""time"":0.19999998807907104},{""stimulus"":""run_exp/static/images/task_images/land.jpg"",""time"":668.5},{""stimulus"":""run_exp/static/images/task_images/dig.jpg"",""time"":1335.300000011921}]",[],3,,,,,,,,,,,,,,
harvest,90,404766,0.0-30.0-4.0,"""event"",""trial"",""time""
""fullscreenenter"",""1"",""3117""
","
","
","""event"",""trial"",""time""
""fullscreenenter"",""1"",""3117""
","
",,null,run_exp/static/images/task_images/gems/101.jpg,null,,,,,,,55,,,3,,,,,101,0.539881079,0.544554455,,,,,,,
decision,91,405158,0.0-30.0-5.0,"""event"",""trial"",""time""
""fullscreenenter"",""1"",""3117""
","
","
","""event"",""trial"",""time""
""fullscreenenter"",""1"",""3117""
","
",,391.1,run_exp/static/images/task_images/land.jpg,65,,,,,,,55,,,3,,,,,,,,65963,1,0,FALSE,,,
dig,92,407768,0.0-31.0-0.0,"""event"",""trial"",""time""
""fullscreenenter"",""1"",""3117""
","
","
","""event"",""trial"",""time""
""fullscreenenter"",""1"",""3117""
","
",,,,,,,,,,,,"[{""stimulus"":""run_exp/static/images/task_images/dig.jpg"",""time"":0.09999999403953552},{""stimulus"":""run_exp/static/images/task_images/land.jpg"",""time"":870.5},{""stimulus"":""run_exp/static/images/task_images/dig.jpg"",""time"":1740.300000011921}]",[],3,,,,,,,,,,,,,,
harvest,93,408769,0.0-31.0-1.0,"""event"",""trial"",""time""
""fullscreenenter"",""1"",""3117""
","
","
","""event"",""trial"",""time""
""fullscreenenter"",""1"",""3117""
","
",,null,run_exp/static/images/task_images/gems/55.jpg,null,,,,,,,26,,,3,,,,,55,0.476717316,0.472727273,,,,,,,
decision,94,409082,0.0-31.0-2.0,"""event"",""trial"",""time""
""fullscreenenter"",""1"",""3117""
","
","
","""event"",""trial"",""time""
""fullscreenenter"",""1"",""3117""
","
",,311.6,run_exp/static/images/task_images/land.jpg,65,,,,,,,26,,,3,,,,,,,,69887,1,1,FALSE,,,
dig,95,411773,0.0-32.0-0.0,"""event"",""trial"",""time""
""fullscreenenter"",""1"",""3117""
","
","
","""event"",""trial"",""time""
""fullscreenenter"",""1"",""3117""
","
",,,,,,,,,,,,"[{""stimulus"":""run_exp/static/images/task_images/dig.jpg"",""time"":0.09999999403953552},{""stimulus"":""run_exp/static/images/task_images/land.jpg"",""time"":897.6999999880791},{""stimulus"":""run_exp/static/images/task_images/dig.jpg"",""time"":1793.0999999940395}]",[],3,,,,,,,,,,,,,,
harvest,96,412774,0.0-32.0-1.0,"""event"",""trial"",""time""
""fullscreenenter"",""1"",""3117""
","
","
","""event"",""trial"",""time""
""fullscreenenter"",""1"",""3117""
","
",,null,run_exp/static/images/task_images/gems/26.jpg,null,,,,,,,13,,,3,,,,,26,0.516020533,0.5,,,,,,,
decision,97,412967,0.0-32.0-2.0,"""event"",""trial"",""time""
""fullscreenenter"",""1"",""3117""
","
","
","""event"",""trial"",""time""
""fullscreenenter"",""1"",""3117""
","
",,192.3,run_exp/static/images/task_images/land.jpg,65,,,,,,,13,,,3,,,,,,,,73772,1,2,FALSE,,,
dig,98,415775,0.0-33.0-0.0,"""event"",""trial"",""time""
""fullscreenenter"",""1"",""3117""
","
","
","""event"",""trial"",""time""
""fullscreenenter"",""1"",""3117""
","
",,,,,,,,,,,,"[{""stimulus"":""run_exp/static/images/task_images/dig.jpg"",""time"":0.19999998807907104},{""stimulus"":""run_exp/static/images/task_images/land.jpg"",""time"":937},{""stimulus"":""run_exp/static/images/task_images/dig.jpg"",""time"":1872.5}]",[],3,,,,,,,,,,,,,,
harvest,99,416777,0.0-33.0-1.0,"""event"",""trial"",""time""
""fullscreenenter"",""1"",""3117""
","
","
","""event"",""trial"",""time""
""fullscreenenter"",""1"",""3117""
","
",,null,run_exp/static/images/task_images/gems/13.jpg,null,,,,,,,6,,,3,,,,,13,0.49543235,0.461538462,,,,,,,
decision,100,416935,0.0-33.0-2.0,"""event"",""trial"",""time""
""fullscreenenter"",""1"",""3117""
","
","
","""event"",""trial"",""time""
""fullscreenenter"",""1"",""3117""
","
",,156.6,run_exp/static/images/task_images/land.jpg,65,,,,,,,6,,,3,,,,,,,,77740,1,3,FALSE,,,
dig,101,419779,0.0-34.0-0.0,"""event"",""trial"",""time""
""fullscreenenter"",""1"",""3117""
","
","
","""event"",""trial"",""time""
""fullscreenenter"",""1"",""3117""
","
",,,,,,,,,,,,"[{""stimulus"":""run_exp/static/images/task_images/dig.jpg"",""time"":0.19999998807907104},{""stimulus"":""run_exp/static/images/task_images/land.jpg"",""time"":948.5},{""stimulus"":""run_exp/static/images/task_images/dig.jpg"",""time"":1895.699999988079}]",[],3,,,,,,,,,,,,,,
harvest,102,420781,0.0-34.0-1.0,"""event"",""trial"",""time""
""fullscreenenter"",""1"",""3117""
","
","
","""event"",""trial"",""time""
""fullscreenenter"",""1"",""3117""
","
",,null,run_exp/static/images/task_images/gems/6.jpg,null,,,,,,,3,,,3,,,,,6,0.486863641,0.5,,,,,,,
decision,103,420897,0.0-34.0-2.0,"""event"",""trial"",""time""
""fullscreenenter"",""1"",""3117""
","
","
","""event"",""trial"",""time""
""fullscreenenter"",""1"",""3117""
","
",,114.9,run_exp/static/images/task_images/land.jpg,76,,,,,,,3,,,3,,,,,,,,81702,1,4,TRUE,,,
travel,104,430783,0.0-35.0-0.0,"""event"",""trial"",""time""
""fullscreenenter"",""1"",""3117""
","
","
","""event"",""trial"",""time""
""fullscreenenter"",""1"",""3117""
","
",,,,,,,,,,,,"[{""stimulus"":""run_exp/static/images/task_images/rocket-01.jpg"",""time"":0.10000002384185791},{""stimulus"":""run_exp/static/images/task_images/rocket-02.jpg"",""time"":1099.300000011921},{""stimulus"":""run_exp/static/images/task_images/rocket-03.jpg"",""time"":2197.600000023842},{""stimulus"":""run_exp/static/images/task_images/rocket-04.jpg"",""time"":3296.4000000059605},{""stimulus"":""run_exp/static/images/task_images/rocket-05.jpg"",""time"":4393.300000011921},{""stimulus"":""run_exp/static/images/task_images/rocket-06.jpg"",""time"":5491},{""stimulus"":""run_exp/static/images/task_images/rocket-07.jpg"",""time"":6589.800000011921},{""stimulus"":""run_exp/static/images/task_images/rocket-08.jpg"",""time"":7687.100000023842},{""stimulus"":""run_exp/static/images/task_images/rocket-09.jpg"",""time"":8784.90000000596}]",[],3,,,,,,,,,,,,,,
alien_welcome,105,435784,0.0-35.0-1.0,"""event"",""trial"",""time""
""fullscreenenter"",""1"",""3117""
","
","
","""event"",""trial"",""time""
""fullscreenenter"",""1"",""3117""
","
",,null,run_exp/static/images/task_images/aliens/old_aliens/planet/alien_planet-61.jpg,null,,,,,,,,,,,,,61,"47,28,43,61,14,64,48,63,50,19,6,16,73,71,70,72,37,66,17,60,49,55,79,15,27,76,9,3,29,22,67,5,36,57,20,65,39",,,,,,,,,,
land,106,436285,0.0-35.0-2.0,"""event"",""trial"",""time""
""fullscreenenter"",""1"",""3117""
","
","
","""event"",""trial"",""time""
""fullscreenenter"",""1"",""3117""
","
",,null,run_exp/static/images/task_images/land.jpg,null,,,,,,,102,,,4,,,,,,,,,,,,,,
dig,107,438288,0.0-35.0-3.0,"""event"",""trial"",""time""
""fullscreenenter"",""1"",""3117""
","
","
","""event"",""trial"",""time""
""fullscreenenter"",""1"",""3117""
","
",,,,,,,,,,,,"[{""stimulus"":""run_exp/static/images/task_images/dig.jpg"",""time"":0.19999998807907104},{""stimulus"":""run_exp/static/images/task_images/land.jpg"",""time"":668.9000000059605},{""stimulus"":""run_exp/static/images/task_images/dig.jpg"",""time"":1335.9000000059605}]",[],4,,,,,,,,,,,,,,
harvest,108,439290,0.0-35.0-4.0,"""event"",""trial"",""time""
""fullscreenenter"",""1"",""3117""
","
","
","""event"",""trial"",""time""
""fullscreenenter"",""1"",""3117""
","
",,null,run_exp/static/images/task_images/gems/102.jpg,null,,,,,,,62,,,4,,,,,102,0.6089932,0.607843137,,,,,,,
decision,109,439715,0.0-35.0-5.0,"""event"",""trial"",""time""
""fullscreenenter"",""1"",""3117""
","
","
","""event"",""trial"",""time""
""fullscreenenter"",""1"",""3117""
","
",,424.2,run_exp/static/images/task_images/land.jpg,65,,,,,,,62,,,4,,,,,,,,100520,1,0,FALSE,,,
dig,110,442292,0.0-36.0-0.0,"""event"",""trial"",""time""
""fullscreenenter"",""1"",""3117""
","
","
","""event"",""trial"",""time""
""fullscreenenter"",""1"",""3117""
","
",,,,,,,,,,,,"[{""stimulus"":""run_exp/static/images/task_images/dig.jpg"",""time"":0.09999999403953552},{""stimulus"":""run_exp/static/images/task_images/land.jpg"",""time"":859},{""stimulus"":""run_exp/static/images/task_images/dig.jpg"",""time"":1717.0999999940395}]",[],4,,,,,,,,,,,,,,
harvest,111,443295,0.0-36.0-1.0,"""event"",""trial"",""time""
""fullscreenenter"",""1"",""3117""
","
","
","""event"",""trial"",""time""
""fullscreenenter"",""1"",""3117""
","
",,null,run_exp/static/images/task_images/gems/62.jpg,null,,,,,,,30,,,4,,,,,62,0.47793,0.483870968,,,,,,,
decision,112,443601,0.0-36.0-2.0,"""event"",""trial"",""time""
""fullscreenenter"",""1"",""3117""
","
","
","""event"",""trial"",""time""
""fullscreenenter"",""1"",""3117""
","
",,305.8,run_exp/static/images/task_images/land.jpg,65,,,,,,,30,,,4,,,,,,,,104406,1,1,FALSE,,,
dig,113,446298,0.0-37.0-0.0,"""event"",""trial"",""time""
""fullscreenenter"",""1"",""3117""
","
","
","""event"",""trial"",""time""
""fullscreenenter"",""1"",""3117""
","
",,,,,,,,,,,,"[{""stimulus"":""run_exp/static/images/task_images/dig.jpg"",""time"":0.10000002384185791},{""stimulus"":""run_exp/static/images/task_images/land.jpg"",""time"":899.7000000178814},{""stimulus"":""run_exp/static/images/task_images/dig.jpg"",""time"":1798}]",[],4,,,,,,,,,,,,,,
harvest,114,447300,0.0-37.0-1.0,"""event"",""trial"",""time""
""fullscreenenter"",""1"",""3117""
","
","
","""event"",""trial"",""time""
""fullscreenenter"",""1"",""3117""
","
",,null,run_exp/static/images/task_images/gems/30.jpg,null,,,,,,,15,,,4,,,,,30,0.500323826,0.5,,,,,,,
decision,115,447550,0.0-37.0-2.0,"""event"",""trial"",""time""
""fullscreenenter"",""1"",""3117""
","
","
","""event"",""trial"",""time""
""fullscreenenter"",""1"",""3117""
","
",,249.9,run_exp/static/images/task_images/land.jpg,65,,,,,,,15,,,4,,,,,,,,108355,1,2,FALSE,,,
dig,116,450301,0.0-38.0-0.0,"""event"",""trial"",""time""
""fullscreenenter"",""1"",""3117""
","
","
","""event"",""trial"",""time""
""fullscreenenter"",""1"",""3117""
","
",,,,,,,,,,,,"[{""stimulus"":""run_exp/static/images/task_images/dig.jpg"",""time"":0.20000001788139343},{""stimulus"":""run_exp/static/images/task_images/land.jpg"",""time"":917.4000000059605},{""stimulus"":""run_exp/static/images/task_images/dig.jpg"",""time"":1833.5999999940395}]",[],4,,,,,,,,,,,,,,
harvest,117,451303,0.0-38.0-1.0,"""event"",""trial"",""time""
""fullscreenenter"",""1"",""3117""
","
","
","""event"",""trial"",""time""
""fullscreenenter"",""1"",""3117""
","
",,null,run_exp/static/images/task_images/gems/15.jpg,null,,,,,,,8,,,4,,,,,15,0.519535174,0.533333333,,,,,,,
decision,118,451626,0.0-38.0-2.0,"""event"",""trial"",""time""
""fullscreenenter"",""1"",""3117""
","
","
","""event"",""trial"",""time""
""fullscreenenter"",""1"",""3117""
","
",,322.3,run_exp/static/images/task_images/land.jpg,65,,,,,,,8,,,4,,,,,,,,112431,1,3,FALSE,,,
dig,119,454305,0.0-39.0-0.0,"""event"",""trial"",""time""
""fullscreenenter"",""1"",""3117""
","
","
","""event"",""trial"",""time""
""fullscreenenter"",""1"",""3117""
","
",,,,,,,,,,,,"[{""stimulus"":""run_exp/static/images/task_images/dig.jpg"",""time"":0.09999999403953552},{""stimulus"":""run_exp/static/images/task_images/land.jpg"",""time"":892.9000000059605},{""stimulus"":""run_exp/static/images/task_images/dig.jpg"",""time"":1785.4000000059605}]",[],4,,,,,,,,,,,,,,
harvest,120,455307,0.0-39.0-1.0,"""event"",""trial"",""time""
""fullscreenenter"",""1"",""3117""
","
","
","""event"",""trial"",""time""
""fullscreenenter"",""1"",""3117""
","
",,null,run_exp/static/images/task_images/gems/8.jpg,null,,,,,,,4,,,4,,,,,8,0.447351807,0.5,,,,,,,
decision,121,455370,0.0-39.0-2.0,"""event"",""trial"",""time""
""fullscreenenter"",""1"",""3117""
","
","
","""event"",""trial"",""time""
""fullscreenenter"",""1"",""3117""
","
",,61.79999998,run_exp/static/images/task_images/land.jpg,65,,,,,,,4,,,4,,,,,,,,116175,1,4,FALSE,,,
dig,122,458311,0.0-40.0-0.0,"""event"",""trial"",""time""
""fullscreenenter"",""1"",""3117""
","
","
","""event"",""trial"",""time""
""fullscreenenter"",""1"",""3117""
","
",,,,,,,,,,,,"[{""stimulus"":""run_exp/static/images/task_images/dig.jpg"",""time"":0.19999998807907104},{""stimulus"":""run_exp/static/images/task_images/land.jpg"",""time"":980.6999999880791},{""stimulus"":""run_exp/static/images/task_images/dig.jpg"",""time"":1959.300000011921}]",[],4,,,,,,,,,,,,,,
harvest,123,459313,0.0-40.0-1.0,"""event"",""trial"",""time""
""fullscreenenter"",""1"",""3117""
","
","
","""event"",""trial"",""time""
""fullscreenenter"",""1"",""3117""
","
",,null,run_exp/static/images/task_images/gems/4.jpg,null,,,,,,,2,,,4,,,,,4,0.484709962,0.5,,,,,,,
decision,124,459371,0.0-40.0-2.0,"""event"",""trial"",""time""
""fullscreenenter"",""1"",""3117""
","
","
","""event"",""trial"",""time""
""fullscreenenter"",""1"",""3117""
","
",,57.39999998,run_exp/static/images/task_images/land.jpg,76,,,,,,,2,,,4,,,,,,,,120176,1,5,TRUE,,,
travel,125,469311,0.0-41.0-0.0,"""event"",""trial"",""time""
""fullscreenenter"",""1"",""3117""
","
","
","""event"",""trial"",""time""
""fullscreenenter"",""1"",""3117""
","
",,,,,,,,,,,,"[{""stimulus"":""run_exp/static/images/task_images/rocket-01.jpg"",""time"":0.09999999403953552},{""stimulus"":""run_exp/static/images/task_images/rocket-02.jpg"",""time"":1104.699999988079},{""stimulus"":""run_exp/static/images/task_images/rocket-03.jpg"",""time"":2209.699999988079},{""stimulus"":""run_exp/static/images/task_images/rocket-04.jpg"",""time"":3313.399999976158},{""stimulus"":""run_exp/static/images/task_images/rocket-05.jpg"",""time"":4416.5999999940395},{""stimulus"":""run_exp/static/images/task_images/rocket-06.jpg"",""time"":5520.5},{""stimulus"":""run_exp/static/images/task_images/rocket-07.jpg"",""time"":6624.699999988079},{""stimulus"":""run_exp/static/images/task_images/rocket-08.jpg"",""time"":7741.399999976158},{""stimulus"":""run_exp/static/images/task_images/rocket-09.jpg"",""time"":8833.799999982119}]",[],4,,,,,,,,,,,,,,
alien_welcome,126,474313,0.0-41.0-1.0,"""event"",""trial"",""time""
""fullscreenenter"",""1"",""3117""
","
","
","""event"",""trial"",""time""
""fullscreenenter"",""1"",""3117""
","
",,null,run_exp/static/images/task_images/aliens/old_aliens/planet/alien_planet-14.jpg,null,,,,,,,,,,,,,14,"47,28,43,61,14,64,48,63,50,19,6,16,73,71,70,72,37,66,17,60,49,55,79,15,27,76,9,3,29,22,67,5,36,57,20,65,39",,,,,,,,,,
land,127,474815,0.0-41.0-2.0,"""event"",""trial"",""time""
""fullscreenenter"",""1"",""3117""
","
","
","""event"",""trial"",""time""
""fullscreenenter"",""1"",""3117""
","
",,null,run_exp/static/images/task_images/land.jpg,null,,,,,,,106,,,5,,,,,,,,,,,,,,
dig,128,476818,0.0-41.0-3.0,"""event"",""trial"",""time""
""fullscreenenter"",""1"",""3117""
","
","
","""event"",""trial"",""time""
""fullscreenenter"",""1"",""3117""
","
",,,,,,,,,,,,"[{""stimulus"":""run_exp/static/images/task_images/dig.jpg"",""time"":0.09999999403953552},{""stimulus"":""run_exp/static/images/task_images/land.jpg"",""time"":668.0999999940395},{""stimulus"":""run_exp/static/images/task_images/dig.jpg"",""time"":1335.2000000178814}]",[],5,,,,,,,,,,,,,,
harvest,129,477820,0.0-41.0-4.0,"""event"",""trial"",""time""
""fullscreenenter"",""1"",""3117""
","
","
","""event"",""trial"",""time""
""fullscreenenter"",""1"",""3117""
","
",,null,run_exp/static/images/task_images/gems/106.jpg,null,,,,,,,59,,,5,,,,,106,0.556326063,0.556603774,,,,,,,
decision,130,478147,0.0-41.0-5.0,"""event"",""trial"",""time""
""fullscreenenter"",""1"",""3117""
","
","
","""event"",""trial"",""time""
""fullscreenenter"",""1"",""3117""
","
",,326.5,run_exp/static/images/task_images/land.jpg,65,,,,,,,59,,,5,,,,,,,,138952,1,0,FALSE,,,
dig,131,480823,0.0-42.0-0.0,"""event"",""trial"",""time""
""fullscreenenter"",""1"",""3117""
","
","
","""event"",""trial"",""time""
""fullscreenenter"",""1"",""3117""
","
",,,,,,,,,,,,"[{""stimulus"":""run_exp/static/images/task_images/dig.jpg"",""time"":0.09999999403953552},{""stimulus"":""run_exp/static/images/task_images/land.jpg"",""time"":892.2000000178814},{""stimulus"":""run_exp/static/images/task_images/dig.jpg"",""time"":1784.0999999940395}]",[],5,,,,,,,,,,,,,,
harvest,132,481825,0.0-42.0-1.0,"""event"",""trial"",""time""
""fullscreenenter"",""1"",""3117""
","
","
","""event"",""trial"",""time""
""fullscreenenter"",""1"",""3117""
","
",,null,run_exp/static/images/task_images/gems/59.jpg,null,,,,,,,31,,,5,,,,,59,0.520845852,0.525423729,,,,,,,
decision,133,482235,0.0-42.0-2.0,"""event"",""trial"",""time""
""fullscreenenter"",""1"",""3117""
","
","
","""event"",""trial"",""time""
""fullscreenenter"",""1"",""3117""
","
",,409.6,run_exp/static/images/task_images/land.jpg,65,,,,,,,31,,,5,,,,,,,,143041,1,1,FALSE,,,
dig,134,484828,0.0-43.0-0.0,"""event"",""trial"",""time""
""fullscreenenter"",""1"",""3117""
","
","
","""event"",""trial"",""time""
""fullscreenenter"",""1"",""3117""
","
",,,,,,,,,,,,"[{""stimulus"":""run_exp/static/images/task_images/dig.jpg"",""time"":0.09999999403953552},{""stimulus"":""run_exp/static/images/task_images/land.jpg"",""time"":863.6999999880791},{""stimulus"":""run_exp/static/images/task_images/dig.jpg"",""time"":1728.300000011921}]",[],5,,,,,,,,,,,,,,
harvest,135,485829,0.0-43.0-1.0,"""event"",""trial"",""time""
""fullscreenenter"",""1"",""3117""
","
","
","""event"",""trial"",""time""
""fullscreenenter"",""1"",""3117""
","
",,null,run_exp/static/images/task_images/gems/31.jpg,null,,,,,,,17,,,5,,,,,31,0.532264851,0.548387097,,,,,,,
decision,136,486161,0.0-43.0-2.0,"""event"",""trial"",""time""
""fullscreenenter"",""1"",""3117""
","
","
","""event"",""trial"",""time""
""fullscreenenter"",""1"",""3117""
","
",,330.4,run_exp/static/images/task_images/land.jpg,65,,,,,,,17,,,5,,,,,,,,146966,1,2,FALSE,,,
dig,137,488844,0.0-44.0-0.0,"""event"",""trial"",""time""
""fullscreenenter"",""1"",""3117""
","
","
","""event"",""trial"",""time""
""fullscreenenter"",""1"",""3117""
","
",,,,,,,,,,,,"[{""stimulus"":""run_exp/static/images/task_images/dig.jpg"",""time"":0.20000001788139343},{""stimulus"":""run_exp/static/images/task_images/land.jpg"",""time"":889.9000000059605},{""stimulus"":""run_exp/static/images/task_images/dig.jpg"",""time"":1780}]",[],5,,,,,,,,,,,,,,
harvest,138,489845,0.0-44.0-1.0,"""event"",""trial"",""time""
""fullscreenenter"",""1"",""3117""
","
","
","""event"",""trial"",""time""
""fullscreenenter"",""1"",""3117""
","
",,null,run_exp/static/images/task_images/gems/17.jpg,null,,,,,,,8,,,5,,,,,17,0.497528192,0.470588235,,,,,,,
decision,139,490002,0.0-44.0-2.0,"""event"",""trial"",""time""
""fullscreenenter"",""1"",""3117""
","
","
","""event"",""trial"",""time""
""fullscreenenter"",""1"",""3117""
","
",,155.9,run_exp/static/images/task_images/land.jpg,65,,,,,,,8,,,5,,,,,,,,150807,1,3,FALSE,,,
dig,140,492850,0.0-45.0-0.0,"""event"",""trial"",""time""
""fullscreenenter"",""1"",""3117""
","
","
","""event"",""trial"",""time""
""fullscreenenter"",""1"",""3117""
","
",,,,,,,,,,,,"[{""stimulus"":""run_exp/static/images/task_images/dig.jpg"",""time"":0.20000001788139343},{""stimulus"":""run_exp/static/images/task_images/land.jpg"",""time"":949.4000000059605},{""stimulus"":""run_exp/static/images/task_images/dig.jpg"",""time"":1897.4000000059605}]",[],5,,,,,,,,,,,,,,
harvest,141,493852,0.0-45.0-1.0,"""event"",""trial"",""time""
""fullscreenenter"",""1"",""3117""
","
","
","""event"",""trial"",""time""
""fullscreenenter"",""1"",""3117""
","
",,null,run_exp/static/images/task_images/gems/8.jpg,null,,,,,,,4,,,5,,,,,8,0.54159155,0.5,,,,,,,
decision,142,494203,0.0-45.0-2.0,"""event"",""trial"",""time""
""fullscreenenter"",""1"",""3117""
","
","
","""event"",""trial"",""time""
""fullscreenenter"",""1"",""3117""
","
",,350.2,run_exp/static/images/task_images/land.jpg,76,,,,,,,4,,,5,,,,,,,,155008,1,4,TRUE,,,
travel,143,503855,0.0-46.0-0.0,"""event"",""trial"",""time""
""fullscreenenter"",""1"",""3117""
","
","
","""event"",""trial"",""time""
""fullscreenenter"",""1"",""3117""
","
",,,,,,,,,,,,"[{""stimulus"":""run_exp/static/images/task_images/rocket-01.jpg"",""time"":0.09999999403953552},{""stimulus"":""run_exp/static/images/task_images/rocket-02.jpg"",""time"":1074},{""stimulus"":""run_exp/static/images/task_images/rocket-03.jpg"",""time"":2145.0999999940395},{""stimulus"":""run_exp/static/images/task_images/rocket-04.jpg"",""time"":3218},{""stimulus"":""run_exp/static/images/task_images/rocket-05.jpg"",""time"":4300.199999988079},{""stimulus"":""run_exp/static/images/task_images/rocket-06.jpg"",""time"":5361.4000000059605},{""stimulus"":""run_exp/static/images/task_images/rocket-07.jpg"",""time"":6433.5},{""stimulus"":""run_exp/static/images/task_images/rocket-08.jpg"",""time"":7505.9000000059605},{""stimulus"":""run_exp/static/images/task_images/rocket-09.jpg"",""time"":8577.40000000596}]",[],5,,,,,,,,,,,,,,
alien_welcome,144,508857,0.0-46.0-1.0,"""event"",""trial"",""time""
""fullscreenenter"",""1"",""3117""
","
","
","""event"",""trial"",""time""
""fullscreenenter"",""1"",""3117""
","
",,null,run_exp/static/images/task_images/aliens/old_aliens/planet/alien_planet-64.jpg,null,,,,,,,,,,,,,64,"47,28,43,61,14,64,48,63,50,19,6,16,73,71,70,72,37,66,17,60,49,55,79,15,27,76,9,3,29,22,67,5,36,57,20,65,39",,,,,,,,,,
land,145,509359,0.0-46.0-2.0,"""event"",""trial"",""time""
""fullscreenenter"",""1"",""3117""
","
","
","""event"",""trial"",""time""
""fullscreenenter"",""1"",""3117""
","
",,null,run_exp/static/images/task_images/land.jpg,null,,,,,,,105,,,6,,,,,,,,,,,,,,
dig,146,511362,0.0-46.0-3.0,"""event"",""trial"",""time""
""fullscreenenter"",""1"",""3117""
","
","
","""event"",""trial"",""time""
""fullscreenenter"",""1"",""3117""
","
",,,,,,,,,,,,"[{""stimulus"":""run_exp/static/images/task_images/dig.jpg"",""time"":0.20000001788139343},{""stimulus"":""run_exp/static/images/task_images/land.jpg"",""time"":668.2000000178814},{""stimulus"":""run_exp/static/images/task_images/dig.jpg"",""time"":1335.800000011921}]",[],6,,,,,,,,,,,,,,
harvest,147,512365,0.0-46.0-4.0,"""event"",""trial"",""time""
""fullscreenenter"",""1"",""3117""
","
","
","""event"",""trial"",""time""
""fullscreenenter"",""1"",""3117""
","
",,null,run_exp/static/images/task_images/gems/105.jpg,null,,,,,,,86,,,6,,,,,105,0.819668672,0.819047619,,,,,,,
decision,148,512637,0.0-46.0-5.0,"""event"",""trial"",""time""
""fullscreenenter"",""1"",""3117""
","
","
","""event"",""trial"",""time""
""fullscreenenter"",""1"",""3117""
","
",,271.2,run_exp/static/images/task_images/land.jpg,65,,,,,,,86,,,6,,,,,,,,173442,1,0,FALSE,,,
dig,149,515366,0.0-47.0-0.0,"""event"",""trial"",""time""
""fullscreenenter"",""1"",""3117""
","
","
","""event"",""trial"",""time""
""fullscreenenter"",""1"",""3117""
","
",,,,,,,,,,,,"[{""stimulus"":""run_exp/static/images/task_images/dig.jpg"",""time"":0.09999999403953552},{""stimulus"":""run_exp/static/images/task_images/land.jpg"",""time"":910.5},{""stimulus"":""run_exp/static/images/task_images/dig.jpg"",""time"":1819.4000000059605}]",[],6,,,,,,,,,,,,,,
harvest,150,516368,0.0-47.0-1.0,"""event"",""trial"",""time""
""fullscreenenter"",""1"",""3117""
","
","
","""event"",""trial"",""time""
""fullscreenenter"",""1"",""3117""
","
",,null,run_exp/static/images/task_images/gems/86.jpg,null,,,,,,,69,,,6,,,,,86,0.797159726,0.802325581,,,,,,,
decision,151,516613,0.0-47.0-2.0,"""event"",""trial"",""time""
""fullscreenenter"",""1"",""3117""
","
","
","""event"",""trial"",""time""
""fullscreenenter"",""1"",""3117""
","
",,244.4,run_exp/static/images/task_images/land.jpg,65,,,,,,,69,,,6,,,,,,,,177418,1,1,FALSE,,,
dig,152,519369,0.0-48.0-0.0,"""event"",""trial"",""time""
""fullscreenenter"",""1"",""3117""
","
","
","""event"",""trial"",""time""
""fullscreenenter"",""1"",""3117""
","
",,,,,,,,,,,,"[{""stimulus"":""run_exp/static/images/task_images/dig.jpg"",""time"":0},{""stimulus"":""run_exp/static/images/task_images/land.jpg"",""time"":919},{""stimulus"":""run_exp/static/images/task_images/dig.jpg"",""time"":1837.8999999761581}]",[],6,,,,,,,,,,,,,,
harvest,153,520370,0.0-48.0-1.0,"""event"",""trial"",""time""
""fullscreenenter"",""1"",""3117""
","
","
","""event"",""trial"",""time""
""fullscreenenter"",""1"",""3117""
","
",,null,run_exp/static/images/task_images/gems/69.jpg,null,,,,,,,55,,,6,,,,,69,0.797724545,0.797101449,,,,,,,
decision,154,520460,0.0-48.0-2.0,"""event"",""trial"",""time""
""fullscreenenter"",""1"",""3117""
","
","
","""event"",""trial"",""time""
""fullscreenenter"",""1"",""3117""
","
",,88.30000001,run_exp/static/images/task_images/land.jpg,65,,,,,,,55,,,6,,,,,,,,181265,1,2,FALSE,,,
dig,155,523373,0.0-49.0-0.0,"""event"",""trial"",""time""
""fullscreenenter"",""1"",""3117""
","
","
","""event"",""trial"",""time""
""fullscreenenter"",""1"",""3117""
","
",,,,,,,,,,,,"[{""stimulus"":""run_exp/static/images/task_images/dig.jpg"",""time"":0.19999998807907104},{""stimulus"":""run_exp/static/images/task_images/land.jpg"",""time"":971.3999999761581},{""stimulus"":""run_exp/static/images/task_images/dig.jpg"",""time"":1941.7999999821186}]",[],6,,,,,,,,,,,,,,
harvest,156,524374,0.0-49.0-1.0,"""event"",""trial"",""time""
""fullscreenenter"",""1"",""3117""
","
","
","""event"",""trial"",""time""
""fullscreenenter"",""1"",""3117""
","
",,null,run_exp/static/images/task_images/gems/55.jpg,null,,,,,,,48,,,6,,,,,55,0.866029111,0.872727273,,,,,,,
decision,157,524609,0.0-49.0-2.0,"""event"",""trial"",""time""
""fullscreenenter"",""1"",""3117""
","
","
","""event"",""trial"",""time""
""fullscreenenter"",""1"",""3117""
","
",,233.6,run_exp/static/images/task_images/land.jpg,65,,,,,,,48,,,6,,,,,,,,185414,1,3,FALSE,,,
dig,158,527378,0.0-50.0-0.0,"""event"",""trial"",""time""
""fullscreenenter"",""1"",""3117""
","
","
","""event"",""trial"",""time""
""fullscreenenter"",""1"",""3117""
","
",,,,,,,,,,,,"[{""stimulus"":""run_exp/static/images/task_images/dig.jpg"",""time"":0.09999999403953552},{""stimulus"":""run_exp/static/images/task_images/land.jpg"",""time"":922.7999999821186},{""stimulus"":""run_exp/static/images/task_images/dig.jpg"",""time"":1845.5999999940395}]",[],6,,,,,,,,,,,,,,
harvest,159,528380,0.0-50.0-1.0,"""event"",""trial"",""time""
""fullscreenenter"",""1"",""3117""
","
","
","""event"",""trial"",""time""
""fullscreenenter"",""1"",""3117""
","
",,null,run_exp/static/images/task_images/gems/48.jpg,null,,,,,,,34,,,6,,,,,48,0.705462614,0.708333333,,,,,,,
decision,160,528501,0.0-50.0-2.0,"""event"",""trial"",""time""
""fullscreenenter"",""1"",""3117""
","
","
","""event"",""trial"",""time""
""fullscreenenter"",""1"",""3117""
","
",,120.2,run_exp/static/images/task_images/land.jpg,65,,,,,,,34,,,6,,,,,,,,189306,1,4,FALSE,,,
dig,161,531381,0.0-51.0-0.0,"""event"",""trial"",""time""
""fullscreenenter"",""1"",""3117""
","
","
","""event"",""trial"",""time""
""fullscreenenter"",""1"",""3117""
","
",,,,,,,,,,,,"[{""stimulus"":""run_exp/static/images/task_images/dig.jpg"",""time"":0.09999999403953552},{""stimulus"":""run_exp/static/images/task_images/land.jpg"",""time"":975.5999999940395},{""stimulus"":""run_exp/static/images/task_images/dig.jpg"",""time"":1919.5}]",[],6,,,,,,,,,,,,,,
harvest,162,532383,0.0-51.0-1.0,"""event"",""trial"",""time""
""fullscreenenter"",""1"",""3117""
","
","
","""event"",""trial"",""time""
""fullscreenenter"",""1"",""3117""
","
",,null,run_exp/static/images/task_images/gems/34.jpg,null,,,,,,,30,,,6,,,,,34,0.896222208,0.882352941,,,,,,,
decision,163,532638,0.0-51.0-2.0,"""event"",""trial"",""time""
""fullscreenenter"",""1"",""3117""
","
","
","""event"",""trial"",""time""
""fullscreenenter"",""1"",""3117""
","
",,253.6,run_exp/static/images/task_images/land.jpg,65,,,,,,,30,,,6,,,,,,,,193443,1,5,FALSE,,,
dig,164,535387,0.0-52.0-0.0,"""event"",""trial"",""time""
""fullscreenenter"",""1"",""3117""
","
","
","""event"",""trial"",""time""
""fullscreenenter"",""1"",""3117""
","
",,,,,,,,,,,,"[{""stimulus"":""run_exp/static/images/task_images/dig.jpg"",""time"":0.19999998807907104},{""stimulus"":""run_exp/static/images/task_images/land.jpg"",""time"":916.6999999880791},{""stimulus"":""run_exp/static/images/task_images/dig.jpg"",""time"":1831.8999999761581}]",[],6,,,,,,,,,,,,,,
harvest,165,536388,0.0-52.0-1.0,"""event"",""trial"",""time""
""fullscreenenter"",""1"",""3117""
","
","
","""event"",""trial"",""time""
""fullscreenenter"",""1"",""3117""
","
",,null,run_exp/static/images/task_images/gems/30.jpg,null,,,,,,,24,,,6,,,,,30,0.79324973,0.8,,,,,,,
decision,166,537711,0.0-52.0-2.0,"""event"",""trial"",""time""
""fullscreenenter"",""1"",""3117""
","
","
","""event"",""trial"",""time""
""fullscreenenter"",""1"",""3117""
","
",,1321.7,run_exp/static/images/task_images/land.jpg,65,,,,,,,24,,,6,,,,,,,,198516,1,6,FALSE,,,
dig,167,539404,0.0-53.0-0.0,"""event"",""trial"",""time""
""fullscreenenter"",""1"",""3117""
","
","
","""event"",""trial"",""time""
""fullscreenenter"",""1"",""3117""
","
",,,,,,,,,,,,"[{""stimulus"":""run_exp/static/images/task_images/dig.jpg"",""time"":0.10000002384185791},{""stimulus"":""run_exp/static/images/task_images/land.jpg"",""time"":560.5},{""stimulus"":""run_exp/static/images/task_images/dig.jpg"",""time"":1119}]",[],6,,,,,,,,,,,,,,
harvest,168,540406,0.0-53.0-1.0,"""event"",""trial"",""time""
""fullscreenenter"",""1"",""3117""
","
","
","""event"",""trial"",""time""
""fullscreenenter"",""1"",""3117""
","
",,null,run_exp/static/images/task_images/gems/24.jpg,null,,,,,,,19,,,6,,,,,24,0.778330762,0.791666667,,,,,,,
decision,169,540772,0.0-53.0-2.0,"""event"",""trial"",""time""
""fullscreenenter"",""1"",""3117""
","
","
","""event"",""trial"",""time""
""fullscreenenter"",""1"",""3117""
","
",,365,run_exp/static/images/task_images/land.jpg,65,,,,,,,19,,,6,,,,,,,,201577,1,7,FALSE,,,
dig,170,543409,0.0-54.0-0.0,"""event"",""trial"",""time""
""fullscreenenter"",""1"",""3117""
","
","
","""event"",""trial"",""time""
""fullscreenenter"",""1"",""3117""
","
",,,,,,,,,,,,"[{""stimulus"":""run_exp/static/images/task_images/dig.jpg"",""time"":0.10000002384185791},{""stimulus"":""run_exp/static/images/task_images/land.jpg"",""time"":878.8000000119209},{""stimulus"":""run_exp/static/images/task_images/dig.jpg"",""time"":1757}]",[],6,,,,,,,,,,,,,,
harvest,171,544411,0.0-54.0-1.0,"""event"",""trial"",""time""
""fullscreenenter"",""1"",""3117""
","
","
","""event"",""trial"",""time""
""fullscreenenter"",""1"",""3117""
","
",,null,run_exp/static/images/task_images/gems/19.jpg,null,,,,,,,15,,,6,,,,,19,0.792840397,0.789473684,,,,,,,
decision,172,544828,0.0-54.0-2.0,"""event"",""trial"",""time""
""fullscreenenter"",""1"",""3117""
","
","
","""event"",""trial"",""time""
""fullscreenenter"",""1"",""3117""
","
",,416.1,run_exp/static/images/task_images/land.jpg,65,,,,,,,15,,,6,,,,,,,,205633,1,8,FALSE,,,
dig,173,547415,0.0-55.0-0.0,"""event"",""trial"",""time""
""fullscreenenter"",""1"",""3117""
","
","
","""event"",""trial"",""time""
""fullscreenenter"",""1"",""3117""
","
",,,,,,,,,,,,"[{""stimulus"":""run_exp/static/images/task_images/dig.jpg"",""time"":0.20000001788139343},{""stimulus"":""run_exp/static/images/task_images/land.jpg"",""time"":862.3000000119209},{""stimulus"":""run_exp/static/images/task_images/dig.jpg"",""time"":1723.5}]",[],6,,,,,,,,,,,,,,
harvest,174,548417,0.0-55.0-1.0,"""event"",""trial"",""time""
""fullscreenenter"",""1"",""3117""
","
","
","""event"",""trial"",""time""
""fullscreenenter"",""1"",""3117""
","
",,null,run_exp/static/images/task_images/gems/15.jpg,null,,,,,,,13,,,6,,,,,15,0.842179481,0.866666667,,,,,,,
decision,175,548776,0.0-55.0-2.0,"""event"",""trial"",""time""
""fullscreenenter"",""1"",""3117""
","
","
","""event"",""trial"",""time""
""fullscreenenter"",""1"",""3117""
","
",,358.4,run_exp/static/images/task_images/land.jpg,76,,,,,,,13,,,6,,,,,,,,209581,1,9,TRUE,,,
travel,176,558418,0.0-56.0-0.0,"""event"",""trial"",""time""
""fullscreenenter"",""1"",""3117""
","
","
","""event"",""trial"",""time""
""fullscreenenter"",""1"",""3117""
","
",,,,,,,,,,,,"[{""stimulus"":""run_exp/static/images/task_images/rocket-01.jpg"",""time"":0.09999999403953552},{""stimulus"":""run_exp/static/images/task_images/rocket-02.jpg"",""time"":1072.699999988079},{""stimulus"":""run_exp/static/images/task_images/rocket-03.jpg"",""time"":2142.5},{""stimulus"":""run_exp/static/images/task_images/rocket-04.jpg"",""time"":3221.5},{""stimulus"":""run_exp/static/images/task_images/rocket-05.jpg"",""time"":4285.300000011921},{""stimulus"":""run_exp/static/images/task_images/rocket-06.jpg"",""time"":5356.800000011921},{""stimulus"":""run_exp/static/images/task_images/rocket-07.jpg"",""time"":6427.300000011921},{""stimulus"":""run_exp/static/images/task_images/rocket-08.jpg"",""time"":7498.300000011921},{""stimulus"":""run_exp/static/images/task_images/rocket-09.jpg"",""time"":8569.40000000596}]",[],6,,,,,,,,,,,,,,
alien_welcome,177,563420,0.0-56.0-1.0,"""event"",""trial"",""time""
""fullscreenenter"",""1"",""3117""
","
","
","""event"",""trial"",""time""
""fullscreenenter"",""1"",""3117""
","
",,null,run_exp/static/images/task_images/aliens/old_aliens/planet/alien_planet-48.jpg,null,,,,,,,,,,,,,48,"47,28,43,61,14,64,48,63,50,19,6,16,73,71,70,72,37,66,17,60,49,55,79,15,27,76,9,3,29,22,67,5,36,57,20,65,39",,,,,,,,,,
land,178,563922,0.0-56.0-2.0,"""event"",""trial"",""time""
""fullscreenenter"",""1"",""3117""
","
","
","""event"",""trial"",""time""
""fullscreenenter"",""1"",""3117""
","
",,null,run_exp/static/images/task_images/land.jpg,null,,,,,,,102,,,7,,,,,,,,,,,,,,
dig,179,565925,0.0-56.0-3.0,"""event"",""trial"",""time""
""fullscreenenter"",""1"",""3117""
","
","
","""event"",""trial"",""time""
""fullscreenenter"",""1"",""3117""
","
",,,,,,,,,,,,"[{""stimulus"":""run_exp/static/images/task_images/dig.jpg"",""time"":0.19999998807907104},{""stimulus"":""run_exp/static/images/task_images/land.jpg"",""time"":669.1999999880791},{""stimulus"":""run_exp/static/images/task_images/dig.jpg"",""time"":1334.7999999821186}]",[],7,,,,,,,,,,,,,,
harvest,180,566926,0.0-56.0-4.0,"""event"",""trial"",""time""
""fullscreenenter"",""1"",""3117""
","
","
","""event"",""trial"",""time""
""fullscreenenter"",""1"",""3117""
","
",,null,run_exp/static/images/task_images/gems/102.jpg,null,,,,,,,85,,,7,,,,,102,0.835497944,0.833333333,,,,,,,
decision,181,567279,0.0-56.0-5.0,"""event"",""trial"",""time""
""fullscreenenter"",""1"",""3117""
","
","
","""event"",""trial"",""time""
""fullscreenenter"",""1"",""3117""
","
",,352.9,run_exp/static/images/task_images/land.jpg,65,,,,,,,85,,,7,,,,,,,,228084,1,0,FALSE,,,
dig,182,569928,0.0-57.0-0.0,"""event"",""trial"",""time""
""fullscreenenter"",""1"",""3117""
","
","
","""event"",""trial"",""time""
""fullscreenenter"",""1"",""3117""
","
",,,,,,,,,,,,"[{""stimulus"":""run_exp/static/images/task_images/dig.jpg"",""time"":0.09999999403953552},{""stimulus"":""run_exp/static/images/task_images/land.jpg"",""time"":883},{""stimulus"":""run_exp/static/images/task_images/dig.jpg"",""time"":1764.9000000059605}]",[],7,,,,,,,,,,,,,,
harvest,183,570930,0.0-57.0-1.0,"""event"",""trial"",""time""
""fullscreenenter"",""1"",""3117""
","
","
","""event"",""trial"",""time""
""fullscreenenter"",""1"",""3117""
","
",,null,run_exp/static/images/task_images/gems/85.jpg,null,,,,,,,70,,,7,,,,,85,0.826117835,0.823529412,,,,,,,
decision,184,571277,0.0-57.0-2.0,"""event"",""trial"",""time""
""fullscreenenter"",""1"",""3117""
","
","
","""event"",""trial"",""time""
""fullscreenenter"",""1"",""3117""
","
",,345.4,run_exp/static/images/task_images/land.jpg,65,,,,,,,70,,,7,,,,,,,,232082,1,1,FALSE,,,
dig,185,573931,0.0-58.0-0.0,"""event"",""trial"",""time""
""fullscreenenter"",""1"",""3117""
","
","
","""event"",""trial"",""time""
""fullscreenenter"",""1"",""3117""
","
",,,,,,,,,,,,"[{""stimulus"":""run_exp/static/images/task_images/dig.jpg"",""time"":0.20000001788139343},{""stimulus"":""run_exp/static/images/task_images/land.jpg"",""time"":885.3000000119209},{""stimulus"":""run_exp/static/images/task_images/dig.jpg"",""time"":1770.300000011921}]",[],7,,,,,,,,,,,,,,
harvest,186,574932,0.0-58.0-1.0,"""event"",""trial"",""time""
""fullscreenenter"",""1"",""3117""
","
","
","""event"",""trial"",""time""
""fullscreenenter"",""1"",""3117""
","
",,null,run_exp/static/images/task_images/gems/70.jpg,null,,,,,,,61,,,7,,,,,70,0.869332665,0.871428571,,,,,,,
decision,187,575209,0.0-58.0-2.0,"""event"",""trial"",""time""
""fullscreenenter"",""1"",""3117""
","
","
","""event"",""trial"",""time""
""fullscreenenter"",""1"",""3117""
","
",,276.3,run_exp/static/images/task_images/land.jpg,65,,,,,,,61,,,7,,,,,,,,236014,1,2,FALSE,,,
dig,188,577933,0.0-59.0-0.0,"""event"",""trial"",""time""
""fullscreenenter"",""1"",""3117""
","
","
","""event"",""trial"",""time""
""fullscreenenter"",""1"",""3117""
","
",,,,,,,,,,,,"[{""stimulus"":""run_exp/static/images/task_images/dig.jpg"",""time"":0.09999999403953552},{""stimulus"":""run_exp/static/images/task_images/land.jpg"",""time"":908.3000000119209},{""stimulus"":""run_exp/static/images/task_images/dig.jpg"",""time"":1816.5999999940395}]",[],7,,,,,,,,,,,,,,
harvest,189,578949,0.0-59.0-1.0,"""event"",""trial"",""time""
""fullscreenenter"",""1"",""3117""
","
","
","""event"",""trial"",""time""
""fullscreenenter"",""1"",""3117""
","
",,null,run_exp/static/images/task_images/gems/61.jpg,null,,,,,,,46,,,7,,,,,61,0.750031237,0.754098361,,,,,,,
decision,190,579236,0.0-59.0-2.0,"""event"",""trial"",""time""
""fullscreenenter"",""1"",""3117""
","
","
","""event"",""trial"",""time""
""fullscreenenter"",""1"",""3117""
","
",,287.2,run_exp/static/images/task_images/land.jpg,65,,,,,,,46,,,7,,,,,,,,240042,1,3,FALSE,,,
dig,191,581952,0.0-60.0-0.0,"""event"",""trial"",""time""
""fullscreenenter"",""1"",""3117""
","
","
","""event"",""trial"",""time""
""fullscreenenter"",""1"",""3117""
","
",,,,,,,,,,,,"[{""stimulus"":""run_exp/static/images/task_images/dig.jpg"",""time"":0.10000002384185791},{""stimulus"":""run_exp/static/images/task_images/land.jpg"",""time"":905.2000000178814},{""stimulus"":""run_exp/static/images/task_images/dig.jpg"",""time"":1809.7000000178814}]",[],7,,,,,,,,,,,,,,
harvest,192,582955,0.0-60.0-1.0,"""event"",""trial"",""time""
""fullscreenenter"",""1"",""3117""
","
","
","""event"",""trial"",""time""
""fullscreenenter"",""1"",""3117""
","
",,null,run_exp/static/images/task_images/gems/46.jpg,null,,,,,,,39,,,7,,,,,46,0.841874009,0.847826087,,,,,,,
decision,193,583084,0.0-60.0-2.0,"""event"",""trial"",""time""
""fullscreenenter"",""1"",""3117""
","
","
","""event"",""trial"",""time""
""fullscreenenter"",""1"",""3117""
","
",,128.2,run_exp/static/images/task_images/land.jpg,65,,,,,,,39,,,7,,,,,,,,243889,1,4,FALSE,,,
dig,194,585957,0.0-61.0-0.0,"""event"",""trial"",""time""
""fullscreenenter"",""1"",""3117""
","
","
","""event"",""trial"",""time""
""fullscreenenter"",""1"",""3117""
","
",,,,,,,,,,,,"[{""stimulus"":""run_exp/static/images/task_images/dig.jpg"",""time"":0.09999999403953552},{""stimulus"":""run_exp/static/images/task_images/land.jpg"",""time"":959.5},{""stimulus"":""run_exp/static/images/task_images/dig.jpg"",""time"":1915.199999988079}]",[],7,,,,,,,,,,,,,,
harvest,195,586959,0.0-61.0-1.0,"""event"",""trial"",""time""
""fullscreenenter"",""1"",""3117""
","
","
","""event"",""trial"",""time""
""fullscreenenter"",""1"",""3117""
","
",,null,run_exp/static/images/task_images/gems/39.jpg,null,,,,,,,34,,,7,,,,,39,0.883482873,0.871794872,,,,,,,
decision,196,587232,0.0-61.0-2.0,"""event"",""trial"",""time""
""fullscreenenter"",""1"",""3117""
","
","
","""event"",""trial"",""time""
""fullscreenenter"",""1"",""3117""
","
",,272.5,run_exp/static/images/task_images/land.jpg,65,,,,,,,34,,,7,,,,,,,,248037,1,5,FALSE,,,
dig,197,589962,0.0-62.0-0.0,"""event"",""trial"",""time""
""fullscreenenter"",""1"",""3117""
","
","
","""event"",""trial"",""time""
""fullscreenenter"",""1"",""3117""
","
",,,,,,,,,,,,"[{""stimulus"":""run_exp/static/images/task_images/dig.jpg"",""time"":0.09999999403953552},{""stimulus"":""run_exp/static/images/task_images/land.jpg"",""time"":910},{""stimulus"":""run_exp/static/images/task_images/dig.jpg"",""time"":1820}]",[],7,,,,,,,,,,,,,,
harvest,198,590964,0.0-62.0-1.0,"""event"",""trial"",""time""
""fullscreenenter"",""1"",""3117""
","
","
","""event"",""trial"",""time""
""fullscreenenter"",""1"",""3117""
","
",,null,run_exp/static/images/task_images/gems/34.jpg,null,,,,,,,27,,,7,,,,,34,0.787672199,0.794117647,,,,,,,
decision,199,591136,0.0-62.0-2.0,"""event"",""trial"",""time""
""fullscreenenter"",""1"",""3117""
","
","
","""event"",""trial"",""time""
""fullscreenenter"",""1"",""3117""
","
",,170.9,run_exp/static/images/task_images/land.jpg,65,,,,,,,27,,,7,,,,,,,,251941,1,6,FALSE,,,
dig,200,593968,0.0-63.0-0.0,"""event"",""trial"",""time""
""fullscreenenter"",""1"",""3117""
","
","
","""event"",""trial"",""time""
""fullscreenenter"",""1"",""3117""
","
",,,,,,,,,,,,"[{""stimulus"":""run_exp/static/images/task_images/dig.jpg"",""time"":0.09999999403953552},{""stimulus"":""run_exp/static/images/task_images/land.jpg"",""time"":944.1999999880791},{""stimulus"":""run_exp/static/images/task_images/dig.jpg"",""time"":1888}]",[],7,,,,,,,,,,,,,,
harvest,201,594969,0.0-63.0-1.0,"""event"",""trial"",""time""
""fullscreenenter"",""1"",""3117""
","
","
","""event"",""trial"",""time""
""fullscreenenter"",""1"",""3117""
","
",,null,run_exp/static/images/task_images/gems/27.jpg,null,,,,,,,23,,,7,,,,,27,0.841134399,0.851851852,,,,,,,
decision,202,595421,0.0-63.0-2.0,"""event"",""trial"",""time""
""fullscreenenter"",""1"",""3117""
","
","
","""event"",""trial"",""time""
""fullscreenenter"",""1"",""3117""
","
",,451.9,run_exp/static/images/task_images/land.jpg,76,,,,,,,23,,,7,,,,,,,,256226,1,7,TRUE,,,
travel,203,604964,0.0-64.0-0.0,"""event"",""trial"",""time""
""fullscreenenter"",""1"",""3117""
","
","
","""event"",""trial"",""time""
""fullscreenenter"",""1"",""3117""
","
",,,,,,,,,,,,"[{""stimulus"":""run_exp/static/images/task_images/rocket-01.jpg"",""time"":0.19999998807907104},{""stimulus"":""run_exp/static/images/task_images/rocket-02.jpg"",""time"":1066.9000000059605},{""stimulus"":""run_exp/static/images/task_images/rocket-03.jpg"",""time"":2121.300000011921},{""stimulus"":""run_exp/static/images/task_images/rocket-04.jpg"",""time"":3180.5},{""stimulus"":""run_exp/static/images/task_images/rocket-05.jpg"",""time"":4240.5999999940395},{""stimulus"":""run_exp/static/images/task_images/rocket-06.jpg"",""time"":5301.4000000059605},{""stimulus"":""run_exp/static/images/task_images/rocket-07.jpg"",""time"":6360.699999988079},{""stimulus"":""run_exp/static/images/task_images/rocket-08.jpg"",""time"":7421},{""stimulus"":""run_exp/static/images/task_images/rocket-09.jpg"",""time"":8480.800000011921}]",[],7,,,,,,,,,,,,,,
alien_welcome,204,609965,0.0-64.0-1.0,"""event"",""trial"",""time""
""fullscreenenter"",""1"",""3117""
","
","
","""event"",""trial"",""time""
""fullscreenenter"",""1"",""3117""
","
",,null,run_exp/static/images/task_images/aliens/old_aliens/planet/alien_planet-63.jpg,null,,,,,,,,,,,,,63,"47,28,43,61,14,64,48,63,50,19,6,16,73,71,70,72,37,66,17,60,49,55,79,15,27,76,9,3,29,22,67,5,36,57,20,65,39",,,,,,,,,,
land,205,610467,0.0-64.0-2.0,"""event"",""trial"",""time""
""fullscreenenter"",""1"",""3117""
","
","
","""event"",""trial"",""time""
""fullscreenenter"",""1"",""3117""
","
",,null,run_exp/static/images/task_images/land.jpg,null,,,,,,,94,,,8,,,,,,,,,,,,,,
dig,206,612470,0.0-64.0-3.0,"""event"",""trial"",""time""
""fullscreenenter"",""1"",""3117""
","
","
","""event"",""trial"",""time""
""fullscreenenter"",""1"",""3117""
","
",,,,,,,,,,,,"[{""stimulus"":""run_exp/static/images/task_images/dig.jpg"",""time"":0.19999998807907104},{""stimulus"":""run_exp/static/images/task_images/land.jpg"",""time"":668.5999999940395},{""stimulus"":""run_exp/static/images/task_images/dig.jpg"",""time"":1348.5999999940395}]",[],8,,,,,,,,,,,,,,
harvest,207,613471,0.0-64.0-4.0,"""event"",""trial"",""time""
""fullscreenenter"",""1"",""3117""
","
","
","""event"",""trial"",""time""
""fullscreenenter"",""1"",""3117""
","
",,null,run_exp/static/images/task_images/gems/94.jpg,null,,,,,,,83,,,8,,,,,94,0.880991028,0.882978723,,,,,,,
decision,208,613776,0.0-64.0-5.0,"""event"",""trial"",""time""
""fullscreenenter"",""1"",""3117""
","
","
","""event"",""trial"",""time""
""fullscreenenter"",""1"",""3117""
","
",,304.2,run_exp/static/images/task_images/land.jpg,65,,,,,,,83,,,8,,,,,,,,274581,1,0,FALSE,,,
dig,209,616474,0.0-65.0-0.0,"""event"",""trial"",""time""
""fullscreenenter"",""1"",""3117""
","
","
","""event"",""trial"",""time""
""fullscreenenter"",""1"",""3117""
","
",,,,,,,,,,,,"[{""stimulus"":""run_exp/static/images/task_images/dig.jpg"",""time"":0.09999999403953552},{""stimulus"":""run_exp/static/images/task_images/land.jpg"",""time"":898.8999999761581},{""stimulus"":""run_exp/static/images/task_images/dig.jpg"",""time"":1797.3999999761581}]",[],8,,,,,,,,,,,,,,
harvest,210,617476,0.0-65.0-1.0,"""event"",""trial"",""time""
""fullscreenenter"",""1"",""3117""
","
","
","""event"",""trial"",""time""
""fullscreenenter"",""1"",""3117""
","
",,null,run_exp/static/images/task_images/gems/83.jpg,null,,,,,,,67,,,8,,,,,83,0.802765304,0.807228916,,,,,,,
decision,211,617959,0.0-65.0-2.0,"""event"",""trial"",""time""
""fullscreenenter"",""1"",""3117""
","
","
","""event"",""trial"",""time""
""fullscreenenter"",""1"",""3117""
","
",,482.8,run_exp/static/images/task_images/land.jpg,65,,,,,,,67,,,8,,,,,,,,278764,1,1,FALSE,,,
dig,212,620479,0.0-66.0-0.0,"""event"",""trial"",""time""
""fullscreenenter"",""1"",""3117""
","
","
","""event"",""trial"",""time""
""fullscreenenter"",""1"",""3117""
","
",,,,,,,,,,,,"[{""stimulus"":""run_exp/static/images/task_images/dig.jpg"",""time"":0.09999999403953552},{""stimulus"":""run_exp/static/images/task_images/land.jpg"",""time"":840.8000000119209},{""stimulus"":""run_exp/static/images/task_images/dig.jpg"",""time"":1679.5}]",[],8,,,,,,,,,,,,,,
harvest,213,621480,0.0-66.0-1.0,"""event"",""trial"",""time""
""fullscreenenter"",""1"",""3117""
","
","
","""event"",""trial"",""time""
""fullscreenenter"",""1"",""3117""
","
",,null,run_exp/static/images/task_images/gems/67.jpg,null,,,,,,,57,,,8,,,,,67,0.848036878,0.850746269,,,,,,,
decision,214,621663,0.0-66.0-2.0,"""event"",""trial"",""time""
""fullscreenenter"",""1"",""3117""
","
","
","""event"",""trial"",""time""
""fullscreenenter"",""1"",""3117""
","
",,181.5,run_exp/static/images/task_images/land.jpg,65,,,,,,,57,,,8,,,,,,,,282468,1,2,FALSE,,,
dig,215,624484,0.0-67.0-0.0,"""event"",""trial"",""time""
""fullscreenenter"",""1"",""3117""
","
","
","""event"",""trial"",""time""
""fullscreenenter"",""1"",""3117""
","
",,,,,,,,,,,,"[{""stimulus"":""run_exp/static/images/task_images/dig.jpg"",""time"":0.20000001788139343},{""stimulus"":""run_exp/static/images/task_images/land.jpg"",""time"":941.2000000178814},{""stimulus"":""run_exp/static/images/task_images/dig.jpg"",""time"":1879}]",[],8,,,,,,,,,,,,,,
harvest,216,625486,0.0-67.0-1.0,"""event"",""trial"",""time""
""fullscreenenter"",""1"",""3117""
","
","
","""event"",""trial"",""time""
""fullscreenenter"",""1"",""3117""
","
",,null,run_exp/static/images/task_images/gems/57.jpg,null,,,,,,,43,,,8,,,,,57,0.748059917,0.754385965,,,,,,,
decision,217,625813,0.0-67.0-2.0,"""event"",""trial"",""time""
""fullscreenenter"",""1"",""3117""
","
","
","""event"",""trial"",""time""
""fullscreenenter"",""1"",""3117""
","
",,327,run_exp/static/images/task_images/land.jpg,65,,,,,,,43,,,8,,,,,,,,286618,1,3,FALSE,,,
dig,218,628489,0.0-68.0-0.0,"""event"",""trial"",""time""
""fullscreenenter"",""1"",""3117""
","
","
","""event"",""trial"",""time""
""fullscreenenter"",""1"",""3117""
","
",,,,,,,,,,,,"[{""stimulus"":""run_exp/static/images/task_images/dig.jpg"",""time"":0.19999998807907104},{""stimulus"":""run_exp/static/images/task_images/land.jpg"",""time"":892.1999999880791},{""stimulus"":""run_exp/static/images/task_images/dig.jpg"",""time"":1791.800000011921}]",[],8,,,,,,,,,,,,,,
harvest,219,629491,0.0-68.0-1.0,"""event"",""trial"",""time""
""fullscreenenter"",""1"",""3117""
","
","
","""event"",""trial"",""time""
""fullscreenenter"",""1"",""3117""
","
",,null,run_exp/static/images/task_images/gems/43.jpg,null,,,,,,,36,,,8,,,,,43,0.835830012,0.837209302,,,,,,,
decision,220,629660,0.0-68.0-2.0,"""event"",""trial"",""time""
""fullscreenenter"",""1"",""3117""
","
","
","""event"",""trial"",""time""
""fullscreenenter"",""1"",""3117""
","
",,167.7,run_exp/static/images/task_images/land.jpg,65,,,,,,,36,,,8,,,,,,,,290465,1,4,FALSE,,,
dig,221,632498,0.0-69.0-0.0,"""event"",""trial"",""time""
""fullscreenenter"",""1"",""3117""
","
","
","""event"",""trial"",""time""
""fullscreenenter"",""1"",""3117""
","
",,,,,,,,,,,,"[{""stimulus"":""run_exp/static/images/task_images/dig.jpg"",""time"":0.10000002384185791},{""stimulus"":""run_exp/static/images/task_images/land.jpg"",""time"":944.9000000059605},{""stimulus"":""run_exp/static/images/task_images/dig.jpg"",""time"":1890}]",[],8,,,,,,,,,,,,,,
harvest,222,633500,0.0-69.0-1.0,"""event"",""trial"",""time""
""fullscreenenter"",""1"",""3117""
","
","
","""event"",""trial"",""time""
""fullscreenenter"",""1"",""3117""
","
",,null,run_exp/static/images/task_images/gems/36.jpg,null,,,,,,,30,,,8,,,,,36,0.825080631,0.833333333,,,,,,,
decision,223,633583,0.0-69.0-2.0,"""event"",""trial"",""time""
""fullscreenenter"",""1"",""3117""
","
","
","""event"",""trial"",""time""
""fullscreenenter"",""1"",""3117""
","
",,82.40000001,run_exp/static/images/task_images/land.jpg,65,,,,,,,30,,,8,,,,,,,,294388,1,5,FALSE,,,
dig,224,636503,0.0-70.0-0.0,"""event"",""trial"",""time""
""fullscreenenter"",""1"",""3117""
","
","
","""event"",""trial"",""time""
""fullscreenenter"",""1"",""3117""
","
",,,,,,,,,,,,"[{""stimulus"":""run_exp/static/images/task_images/dig.jpg"",""time"":0.09999999403953552},{""stimulus"":""run_exp/static/images/task_images/land.jpg"",""time"":973.5999999940395},{""stimulus"":""run_exp/static/images/task_images/dig.jpg"",""time"":1967.4000000059605}]",[],8,,,,,,,,,,,,,,
harvest,225,637510,0.0-70.0-1.0,"""event"",""trial"",""time""
""fullscreenenter"",""1"",""3117""
","
","
","""event"",""trial"",""time""
""fullscreenenter"",""1"",""3117""
","
",,null,run_exp/static/images/task_images/gems/30.jpg,null,,,,,,,26,,,8,,,,,30,0.864374541,0.866666667,,,,,,,
decision,226,637527,0.0-70.0-2.0,"""event"",""trial"",""time""
""fullscreenenter"",""1"",""3117""
","
","
","""event"",""trial"",""time""
""fullscreenenter"",""1"",""3117""
","
",,16.90000001,run_exp/static/images/task_images/land.jpg,65,,,,,,,26,,,8,,,,,,,,298332,1,6,FALSE,,,
dig,227,640513,0.0-71.0-0.0,"""event"",""trial"",""time""
""fullscreenenter"",""1"",""3117""
","
","
","""event"",""trial"",""time""
""fullscreenenter"",""1"",""3117""
","
",,,,,,,,,,,,"[{""stimulus"":""run_exp/static/images/task_images/dig.jpg"",""time"":0.09999999403953552},{""stimulus"":""run_exp/static/images/task_images/land.jpg"",""time"":995.0999999940395},{""stimulus"":""run_exp/static/images/task_images/dig.jpg"",""time"":1990.300000011921}]",[],8,,,,,,,,,,,,,,
harvest,228,641515,0.0-71.0-1.0,"""event"",""trial"",""time""
""fullscreenenter"",""1"",""3117""
","
","
","""event"",""trial"",""time""
""fullscreenenter"",""1"",""3117""
","
",,null,run_exp/static/images/task_images/gems/26.jpg,null,,,,,,,22,,,8,,,,,26,0.835295547,0.846153846,,,,,,,
decision,229,641779,0.0-71.0-2.0,"""event"",""trial"",""time""
""fullscreenenter"",""1"",""3117""
","
","
","""event"",""trial"",""time""
""fullscreenenter"",""1"",""3117""
","
",,263.5,run_exp/static/images/task_images/land.jpg,65,,,,,,,22,,,8,,,,,,,,302584,1,7,TRUE,,,
end_of_block_continue,230,647574,0.0-72.0-0.0,"""event"",""trial"",""time""
""fullscreenenter"",""1"",""3117""
","
","
","""event"",""trial"",""time""
""fullscreenenter"",""1"",""3117""
","
",,5793.1,run_exp/static/audio/clip_32_block_end.m4a,,,,,,,0,,,,,,,,,,,,,,,,,,
alien_welcome,231,652578,0.0-73.0-0.0,"""event"",""trial"",""time""
""fullscreenenter"",""1"",""3117""
","
","
","""event"",""trial"",""time""
""fullscreenenter"",""1"",""3117""
","
",,null,run_exp/static/images/task_images/aliens/old_aliens/planet/alien_planet-50.jpg,null,,,,,,,,,,,,,50,"47,28,43,61,14,64,48,63,50,19,6,16,73,71,70,72,37,66,17,60,49,55,79,15,27,76,9,3,29,22,67,5,36,57,20,65,39",,,,,,,,,,
land,232,653080,0.0-73.0-1.0,"""event"",""trial"",""time""
""fullscreenenter"",""1"",""3117""
","
","
","""event"",""trial"",""time""
""fullscreenenter"",""1"",""3117""
","
",,null,run_exp/static/images/task_images/land.jpg,null,,,,,,,104,,,9,,,,,,,,,,,,,,
dig,233,655082,0.0-73.0-2.0,"""event"",""trial"",""time""
""fullscreenenter"",""1"",""3117""
","
","
","""event"",""trial"",""time""
""fullscreenenter"",""1"",""3117""
","
",,,,,,,,,,,,"[{""stimulus"":""run_exp/static/images/task_images/dig.jpg"",""time"":0.09999999403953552},{""stimulus"":""run_exp/static/images/task_images/land.jpg"",""time"":667.9000000059605},{""stimulus"":""run_exp/static/images/task_images/dig.jpg"",""time"":1335.2000000178814}]",[],9,,,,,,,,,,,,,,
harvest,234,656084,0.0-73.0-3.0,"""event"",""trial"",""time""
""fullscreenenter"",""1"",""3117""
","
","
","""event"",""trial"",""time""
""fullscreenenter"",""1"",""3117""
","
",,null,run_exp/static/images/task_images/gems/104.jpg,null,,,,,,,18,,,9,,,,,104,0.177083456,0.173076923,,,,,,,
decision,235,656419,0.0-73.0-4.0,"""event"",""trial"",""time""
""fullscreenenter"",""1"",""3117""
","
","
","""event"",""trial"",""time""
""fullscreenenter"",""1"",""3117""
","
",,334.6,run_exp/static/images/task_images/land.jpg,65,,,,,,,18,,,9,,,,,,,,8843,2,0,FALSE,,,
dig,236,659087,0.0-74.0-0.0,"""event"",""trial"",""time""
""fullscreenenter"",""1"",""3117""
","
","
","""event"",""trial"",""time""
""fullscreenenter"",""1"",""3117""
","
",,,,,,,,,,,,"[{""stimulus"":""run_exp/static/images/task_images/dig.jpg"",""time"":0.09999999403953552},{""stimulus"":""run_exp/static/images/task_images/land.jpg"",""time"":890.2999999821186},{""stimulus"":""run_exp/static/images/task_images/dig.jpg"",""time"":1777.5}]",[],9,,,,,,,,,,,,,,
harvest,237,660088,0.0-74.0-1.0,"""event"",""trial"",""time""
""fullscreenenter"",""1"",""3117""
","
","
","""event"",""trial"",""time""
""fullscreenenter"",""1"",""3117""
","
",,null,run_exp/static/images/task_images/gems/18.jpg,null,,,,,,,3,,,9,,,,,18,0.157615629,0.166666667,,,,,,,
decision,238,660299,0.0-74.0-2.0,"""event"",""trial"",""time""
""fullscreenenter"",""1"",""3117""
","
","
","""event"",""trial"",""time""
""fullscreenenter"",""1"",""3117""
","
",,209.7,run_exp/static/images/task_images/land.jpg,76,,,,,,,3,,,9,,,,,,,,12723,2,1,TRUE,,,
travel,239,670086,0.0-75.0-0.0,"""event"",""trial"",""time""
""fullscreenenter"",""1"",""3117""
","
","
","""event"",""trial"",""time""
""fullscreenenter"",""1"",""3117""
","
",,,,,,,,,,,,"[{""stimulus"":""run_exp/static/images/task_images/rocket-01.jpg"",""time"":0.10000002384185791},{""stimulus"":""run_exp/static/images/task_images/rocket-02.jpg"",""time"":1089},{""stimulus"":""run_exp/static/images/task_images/rocket-03.jpg"",""time"":2174.800000011921},{""stimulus"":""run_exp/static/images/task_images/rocket-04.jpg"",""time"":3261.9000000059605},{""stimulus"":""run_exp/static/images/task_images/rocket-05.jpg"",""time"":4349.9000000059605},{""stimulus"":""run_exp/static/images/task_images/rocket-06.jpg"",""time"":5436.5},{""stimulus"":""run_exp/static/images/task_images/rocket-07.jpg"",""time"":6523},{""stimulus"":""run_exp/static/images/task_images/rocket-08.jpg"",""time"":7610.9000000059605},{""stimulus"":""run_exp/static/images/task_images/rocket-09.jpg"",""time"":8697.800000011921}]",[],9,,,,,,,,,,,,,,
alien_welcome,240,675087,0.0-75.0-1.0,"""event"",""trial"",""time""
""fullscreenenter"",""1"",""3117""
","
","
","""event"",""trial"",""time""
""fullscreenenter"",""1"",""3117""
","
",,null,run_exp/static/images/task_images/aliens/old_aliens/planet/alien_planet-19.jpg,null,,,,,,,,,,,,,19,"47,28,43,61,14,64,48,63,50,19,6,16,73,71,70,72,37,66,17,60,49,55,79,15,27,76,9,3,29,22,67,5,36,57,20,65,39",,,,,,,,,,
land,241,675589,0.0-75.0-2.0,"""event"",""trial"",""time""
""fullscreenenter"",""1"",""3117""
","
","
","""event"",""trial"",""time""
""fullscreenenter"",""1"",""3117""
","
",,null,run_exp/static/images/task_images/land.jpg,null,,,,,,,102,,,10,,,,,,,,,,,,,,
dig,242,677593,0.0-75.0-3.0,"""event"",""trial"",""time""
""fullscreenenter"",""1"",""3117""
","
","
","""event"",""trial"",""time""
""fullscreenenter"",""1"",""3117""
","
",,,,,,,,,,,,"[{""stimulus"":""run_exp/static/images/task_images/dig.jpg"",""time"":0.09999999403953552},{""stimulus"":""run_exp/static/images/task_images/land.jpg"",""time"":668.3999999761581},{""stimulus"":""run_exp/static/images/task_images/dig.jpg"",""time"":1334.7999999821186}]",[],10,,,,,,,,,,,,,,
harvest,243,678594,0.0-75.0-4.0,"""event"",""trial"",""time""
""fullscreenenter"",""1"",""3117""
","
","
","""event"",""trial"",""time""
""fullscreenenter"",""1"",""3117""
","
",,null,run_exp/static/images/task_images/gems/102.jpg,null,,,,,,,18,,,10,,,,,102,0.176756326,0.176470588,,,,,,,
decision,244,679092,0.0-75.0-5.0,"""event"",""trial"",""time""
""fullscreenenter"",""1"",""3117""
","
","
","""event"",""trial"",""time""
""fullscreenenter"",""1"",""3117""
","
",,496.7,run_exp/static/images/task_images/land.jpg,65,,,,,,,18,,,10,,,,,,,,31516,2,0,FALSE,,,
dig,245,681596,0.0-76.0-0.0,"""event"",""trial"",""time""
""fullscreenenter"",""1"",""3117""
","
","
","""event"",""trial"",""time""
""fullscreenenter"",""1"",""3117""
","
",,,,,,,,,,,,"[{""stimulus"":""run_exp/static/images/task_images/dig.jpg"",""time"":0},{""stimulus"":""run_exp/static/images/task_images/land.jpg"",""time"":835.0999999940395},{""stimulus"":""run_exp/static/images/task_images/dig.jpg"",""time"":1668.800000011921}]",[],10,,,,,,,,,,,,,,
harvest,246,682598,0.0-76.0-1.0,"""event"",""trial"",""time""
""fullscreenenter"",""1"",""3117""
","
","
","""event"",""trial"",""time""
""fullscreenenter"",""1"",""3117""
","
",,null,run_exp/static/images/task_images/gems/18.jpg,null,,,,,,,4,,,10,,,,,18,0.232660948,0.222222222,,,,,,,
decision,247,682906,0.0-76.0-2.0,"""event"",""trial"",""time""
""fullscreenenter"",""1"",""3117""
","
","
","""event"",""trial"",""time""
""fullscreenenter"",""1"",""3117""
","
",,307.3,run_exp/static/images/task_images/land.jpg,76,,,,,,,4,,,10,,,,,,,,35330,2,1,TRUE,,,
travel,248,692592,0.0-77.0-0.0,"""event"",""trial"",""time""
""fullscreenenter"",""1"",""3117""
","
","
","""event"",""trial"",""time""
""fullscreenenter"",""1"",""3117""
","
",,,,,,,,,,,,"[{""stimulus"":""run_exp/static/images/task_images/rocket-01.jpg"",""time"":0.10000002384185791},{""stimulus"":""run_exp/static/images/task_images/rocket-02.jpg"",""time"":1076.9000000059605},{""stimulus"":""run_exp/static/images/task_images/rocket-03.jpg"",""time"":2154},{""stimulus"":""run_exp/static/images/task_images/rocket-04.jpg"",""time"":3228.9000000059605},{""stimulus"":""run_exp/static/images/task_images/rocket-05.jpg"",""time"":4305.9000000059605},{""stimulus"":""run_exp/static/images/task_images/rocket-06.jpg"",""time"":5381.100000023842},{""stimulus"":""run_exp/static/images/task_images/rocket-07.jpg"",""time"":6457},{""stimulus"":""run_exp/static/images/task_images/rocket-08.jpg"",""time"":7532.800000011921},{""stimulus"":""run_exp/static/images/task_images/rocket-09.jpg"",""time"":8609.200000017881}]",[],10,,,,,,,,,,,,,,
alien_welcome,249,697595,0.0-77.0-1.0,"""event"",""trial"",""time""
""fullscreenenter"",""1"",""3117""
","
","
","""event"",""trial"",""time""
""fullscreenenter"",""1"",""3117""
","
