trial_type,trial_index,time_elapsed,internal_node_id,interactions,blur_events,focus_events,fullscreenenter_events,fullscreenexit_events,success,rt,stimulus,key_press,prompt,subject_id,participant_id,age,gender,button_pressed,next_reward,animation_sequence,responses,planet,curr_prac_trial,n_prac_rounds,alien,aliens,reward_received,decay_rate_actual,decay_rate_exp,time_in_block,block_num,prt,last_trial_on_planet,button_html,bonus,num_failures
pavlovia,0,28,0.0-0.0,"""event"",""trial"",""time""
""fullscreenenter"",""1"",""56809""
","
","
","""event"",""trial"",""time""
""fullscreenenter"",""1"",""56809""
","
",,,,,,,,,,,,,,,,,,,,,,,,,,,,
fullscreen,1,57719,0.0-1.0,"""event"",""trial"",""time""
""fullscreenenter"",""1"",""56809""
","
","
","""event"",""trial"",""time""
""fullscreenenter"",""1"",""56809""
","
",TRUE,,,,,,,,,,,,,,,,,,,,,,,,,,,
instruc_welcome,2,68130,0.0-2.0,"""event"",""trial"",""time""
""fullscreenenter"",""1"",""56809""
","
","
","""event"",""trial"",""time""
""fullscreenenter"",""1"",""56809""
","
",,null,run_exp/static/audio/clip_1_welcome.m4a,null,"<p>Howdy! In this experiment, you’ll be an explorer traveling through space to collect space treasure.</p><p>Your mission is to collect as much treasure as possible.</p><br><br><p><img src='run_exp/static/images/task_images/opening_img-01.jpg' height='300' width='auto'></p>",8094,3897,23,Male,,,,,,,,,,,,,,,,,,,
audio-keyboard-response,3,85346,0.0-3.0,"""event"",""trial"",""time""
""fullscreenenter"",""1"",""56809""
","
","
","""event"",""trial"",""time""
""fullscreenenter"",""1"",""56809""
","
",,null,run_exp/static/audio/clip_2_move.m4a,null,,,,,,,,,,,,,,,,,,,,,,,,
welcome_dec,4,124616,0.0-4.0,"""event"",""trial"",""time""
""fullscreenenter"",""1"",""56809""
","
","
","""event"",""trial"",""time""
""fullscreenenter"",""1"",""56809""
","
",,39266,"<p>Howdy! In this experiment, you’ll be an explorer traveling through space to collect space treasure.</p><p>Your mission is to collect as much treasure as possible.</p><br><br><p><img src='run_exp/static/images/task_images/opening_img-01.jpg' height='300' width='auto'></p>",,,,,,,1,,,,,,,,,,,,,,,,,,
html-keyboard-response,5,127304,0.0-5.0,"""event"",""trial"",""time""
""fullscreenenter"",""1"",""56809""
","
","
","""event"",""trial"",""time""
""fullscreenenter"",""1"",""56809""
","
",,2685.2,"<p>Howdy! In this experiment, you’ll be an explorer traveling through space to collect space treasure.</p><p>Your mission is to collect as much treasure as possible.</p><br><br><p><img src='run_exp/static/images/task_images/opening_img-01.jpg' height='300' width='auto'></p><button class=""jspsych-html-btn-unchosen""><img src=""run_exp/static/images/task_images/planet-01.jpg"" height=""50""></button><button class=""jspsych-html-btn-chosen""><img src=""run_exp/static/images/task_images/planet-02.jpg"" height=""50""></button><p><b>[press the space bar to lock in your answer]<b><br></p>",32,,,,,,,,,,,,,,,,,,,,,,,,
instruc_goal,6,137754,0.0-6.0-0.0,"""event"",""trial"",""time""
""fullscreenenter"",""1"",""56809""
","
","
","""event"",""trial"",""time""
""fullscreenenter"",""1"",""56809""
","
",,null,run_exp/static/audio/clip_3_goal.m4a,null,"<p> As a space explorer, you’ll visit different planets to dig for space treasure, these pink gems.</p> <p> The more treasure you dig up, the more bonus money you’ll win! </p><br><br><p><img src='run_exp/static/images/task_images/pink_gem.jpg' height='300' width='auto'></p>",,,,,,,,,,,,,,,,,,,,,,,
instruc_goal,7,140711,0.0-6.0-1.0,"""event"",""trial"",""time""
""fullscreenenter"",""1"",""56809""
","
","
","""event"",""trial"",""time""
""fullscreenenter"",""1"",""56809""
","
",,2953.8,"<p> As a space explorer, you’ll visit different planets to dig for space treasure, these pink gems.</p> <p> The more treasure you dig up, the more bonus money you’ll win! </p><br><br><p><img src='run_exp/static/images/task_images/pink_gem.jpg' height='300' width='auto'></p>",,,,,,,1,,,,,,,,,,,,,,,,,,
html-keyboard-response,8,141035,0.0-6.0-2.0,"""event"",""trial"",""time""
""fullscreenenter"",""1"",""56809""
","
","
","""event"",""trial"",""time""
""fullscreenenter"",""1"",""56809""
","
",,322,"<p> As a space explorer, you’ll visit different planets to dig for space treasure, these pink gems.</p> <p> The more treasure you dig up, the more bonus money you’ll win! </p><br><br><p><img src='run_exp/static/images/task_images/pink_gem.jpg' height='300' width='auto'></p><button class=""jspsych-html-btn-unchosen""><img src=""run_exp/static/images/task_images/planet-01.jpg"" height=""50""></button><button class=""jspsych-html-btn-chosen""><img src=""run_exp/static/images/task_images/planet-02.jpg"" height=""50""></button><p><b>[press the space bar to lock in your answer]<b><br></p>",32,,,,,,,,,,,,,,,,,,,,,,,,
instruc_dig,9,157073,0.0-7.0-0.0,"""event"",""trial"",""time""
""fullscreenenter"",""1"",""56809""
","
","
","""event"",""trial"",""time""
""fullscreenenter"",""1"",""56809""
","
",,null,run_exp/static/audio/clip_4_dig.m4a,null,,,,,,,100,,,,,,,,,,,,,,,,,
instruc_dig_try,10,188866,0.0-7.0-1.0,"""event"",""trial"",""time""
""fullscreenenter"",""1"",""56809""
","
","
","""event"",""trial"",""time""
""fullscreenenter"",""1"",""56809""
","
",,31796.5,"<p> When you’ve arrived at a new planet, you will dig once. </p> <p>Then, you get to decide if you want to stay on the planet and dig again or travel to a new planet and dig there.</p> <p> To stay and dig, press the letter <strong>‘A’</strong> on your keyboard. Try pressing it now! </p><p><img src='run_exp/static/images/task_images/land.jpg'  height='700' width='auto'></p>",65,"<p> When you’ve arrived at a new planet, you will dig once. </p> <p>Then, you get to decide if you want to stay on the planet and dig again or travel to a new planet and dig there.</p> <p> To stay and dig, press the letter <strong>‘A’</strong> on your keyboard. Try pressing it now! </p><p><img src='run_exp/static/images/task_images/land.jpg'  height='700' width='auto'></p>",,,,,,100,,,,,,,,,,,,,,,,,
dig_prac,11,190937,0.0-7.0-2.0,"""event"",""trial"",""time""
""fullscreenenter"",""1"",""56809""
","
","
","""event"",""trial"",""time""
""fullscreenenter"",""1"",""56809""
","
",,,,,,,,,,,,"[{""stimulus"":""run_exp/static/images/task_images/dig.jpg"",""time"":0.4000000059604645},{""stimulus"":""run_exp/static/images/task_images/land.jpg"",""time"":676.2000000029802},{""stimulus"":""run_exp/static/images/task_images/dig.jpg"",""time"":1339.2000000029802}]",[],,,,,,,,,,,,,,,
instruc_travel,12,227292,0.0-7.0-3.0,"""event"",""trial"",""time""
""fullscreenenter"",""1"",""56809""
","
","
","""event"",""trial"",""time""
""fullscreenenter"",""1"",""56809""
","
",,null,run_exp/static/audio/clip_5_travel.m4a,null,"<p>Every time you dig up gems, there are less gems on the planet, so the more you dig on a planet the fewer gems you’ll get with each dig.</p><p>When gems are running low, you may want to travel to a new planet. </p> <p>  Planets are very far apart in this galaxy, so it will take some time to travel between them. </p> <br><p>There are lots and lots of planets for you to visit, so you won’t be able to return to any planets you’ve seen before. </p><br><p>To leave this planet and travel to a new one, press the letter <strong>‘L’</strong> on your keyboard. Try pressing it now! </p><p><img src='run_exp/static/images/task_images/rocket-01.jpg'  height='600' width='auto'></p>",,,,,,,,,,,,,,,,,,,,,,,
instruc_travel_try,13,653471,0.0-7.0-4.0,"""event"",""trial"",""time""
""fullscreenenter"",""1"",""56809""
","
","
","""event"",""trial"",""time""
""fullscreenenter"",""1"",""56809""
","
",,426173,"<p>Every time you dig up gems, there are less gems on the planet, so the more you dig on a planet the fewer gems you’ll get with each dig.</p><p>When gems are running low, you may want to travel to a new planet. </p> <p>  Planets are very far apart in this galaxy, so it will take some time to travel between them. </p> <br><p>There are lots and lots of planets for you to visit, so you won’t be able to return to any planets you’ve seen before. </p><br><p>To leave this planet and travel to a new one, press the letter <strong>‘L’</strong> on your keyboard. Try pressing it now! </p><p><img src='run_exp/static/images/task_images/rocket-01.jpg'  height='600' width='auto'></p>",76,"<p>Every time you dig up gems, there are less gems on the planet, so the more you dig on a planet the fewer gems you’ll get with each dig.</p><p>When gems are running low, you may want to travel to a new planet. </p> <p>  Planets are very far apart in this galaxy, so it will take some time to travel between them. </p> <br><p>There are lots and lots of planets for you to visit, so you won’t be able to return to any planets you’ve seen before. </p><br><p>To leave this planet and travel to a new one, press the letter <strong>‘L’</strong> on your keyboard. Try pressing it now! </p><p><img src='run_exp/static/images/task_images/rocket-01.jpg'  height='600' width='auto'></p>",,,,,,,,,,,,,,,,,,,,,,,
travel_prac,14,663481,0.0-7.0-5.0,"""event"",""trial"",""time""
""fullscreenenter"",""1"",""56809""
","
","
","""event"",""trial"",""time""
""fullscreenenter"",""1"",""56809""
","
",,,,,,,,,,,,"[{""stimulus"":""run_exp/static/images/task_images/rocket-01.jpg"",""time"":0.7000000029802322},{""stimulus"":""run_exp/static/images/task_images/rocket-02.jpg"",""time"":1113.300000011921},{""stimulus"":""run_exp/static/images/task_images/rocket-03.jpg"",""time"":2225.5},{""stimulus"":""run_exp/static/images/task_images/rocket-04.jpg"",""time"":3336.800000011921},{""stimulus"":""run_exp/static/images/task_images/rocket-05.jpg"",""time"":4448.600000008941},{""stimulus"":""run_exp/static/images/task_images/rocket-06.jpg"",""time"":5562},{""stimulus"":""run_exp/static/images/task_images/rocket-07.jpg"",""time"":6668.20000000298},{""stimulus"":""run_exp/static/images/task_images/rocket-08.jpg"",""time"":7783},{""stimulus"":""run_exp/static/images/task_images/rocket-09.jpg"",""time"":8896.40000000596}]",[],0,,,,,,,,,,,,,,
instruc_alien_greet,15,690706,0.0-7.0-6.0,"""event"",""trial"",""time""
""fullscreenenter"",""1"",""56809""
","
","
","""event"",""trial"",""time""
""fullscreenenter"",""1"",""56809""
","
",,null,run_exp/static/audio/clip_6_alien.m4a,null,"<p>When you arrive at a new planet, the alien who owns the treasure mine on that planet will greet you!</p><p>The better an alien takes care of their mine the easier it is to dig for gems. Some aliens take better care of their mine than others. So, you won’t get exactly the same amount of gems on each planet.</p><p>What the alien looks like does not tell you anything about how many gems there are on the planet.</p><br><p><img src=""run_exp/static/images/task_images/aliens/instructions_aliens/planet/alien_planet-1.jpg""  height=""600"" width=""auto""></p>",,,,,,,,,,,,,,,,,,,,,,,
instruc_alien_greet,16,1036589,0.0-7.0-7.0,"""event"",""trial"",""time""
""fullscreenenter"",""1"",""56809""
","
","
","""event"",""trial"",""time""
""fullscreenenter"",""1"",""56809""
","
",,345875.5,"<p>When you arrive at a new planet, the alien who owns the treasure mine on that planet will greet you!</p><p>The better an alien takes care of their mine the easier it is to dig for gems. Some aliens take better care of their mine than others. So, you won’t get exactly the same amount of gems on each planet.</p><p>What the alien looks like does not tell you anything about how many gems there are on the planet.</p><br><p><img src=""run_exp/static/images/task_images/aliens/instructions_aliens/planet/alien_planet-1.jpg""  height=""600"" width=""auto""></p>",,,,,,,1,,,,,,,,,,,,,,,,,,
html-keyboard-response,17,1037335,0.0-7.0-8.0,"""event"",""trial"",""time""
""fullscreenenter"",""1"",""56809""
","
","
","""event"",""trial"",""time""
""fullscreenenter"",""1"",""56809""
","
",,742.8,"<p>When you arrive at a new planet, the alien who owns the treasure mine on that planet will greet you!</p><p>The better an alien takes care of their mine the easier it is to dig for gems. Some aliens take better care of their mine than others. So, you won’t get exactly the same amount of gems on each planet.</p><p>What the alien looks like does not tell you anything about how many gems there are on the planet.</p><br><p><img src=""run_exp/static/images/task_images/aliens/instructions_aliens/planet/alien_planet-1.jpg""  height=""600"" width=""auto""></p><button class=""jspsych-html-btn-unchosen""><img src=""run_exp/static/images/task_images/planet-01.jpg"" height=""50""></button><button class=""jspsych-html-btn-chosen""><img src=""run_exp/static/images/task_images/planet-02.jpg"" height=""50""></button><p><b>[press the space bar to lock in your answer]<b><br></p>",32,,,,,,,,,,,,,,,,,,,,,,,,
time_out,18,1048822,0.0-8.0-0.0,"""event"",""trial"",""time""
""fullscreenenter"",""1"",""56809""
","
","
","""event"",""trial"",""time""
""fullscreenenter"",""1"",""56809""
","
",,null,run_exp/static/audio/clip_7_timeout.m4a,null,"<p>If you don't make your choice fast enough, you’ll have to wait a few seconds before you can make another one.</p><p>You can’t dig for more gems or travel to new planets. You just have to sit and wait.</p><br><p><img src='run_exp/static/images/task_images/time_out.jpg'  height='600' width='auto'></p>",,,,,,,,,,,,,,,,,,,,,,,
time_out,19,1050865,0.0-8.0-1.0,"""event"",""trial"",""time""
""fullscreenenter"",""1"",""56809""
","
","
","""event"",""trial"",""time""
""fullscreenenter"",""1"",""56809""
","
",,2038.9,"<p>If you don't make your choice fast enough, you’ll have to wait a few seconds before you can make another one.</p><p>You can’t dig for more gems or travel to new planets. You just have to sit and wait.</p><br><p><img src='run_exp/static/images/task_images/time_out.jpg'  height='600' width='auto'></p>",,,,,,,1,,,,,,,,,,,,,,,,,,
html-keyboard-response,20,1051115,0.0-8.0-2.0,"""event"",""trial"",""time""
""fullscreenenter"",""1"",""56809""
","
","
","""event"",""trial"",""time""
""fullscreenenter"",""1"",""56809""
","
",,248.7,"<p>If you don't make your choice fast enough, you’ll have to wait a few seconds before you can make another one.</p><p>You can’t dig for more gems or travel to new planets. You just have to sit and wait.</p><br><p><img src='run_exp/static/images/task_images/time_out.jpg'  height='600' width='auto'></p><button class=""jspsych-html-btn-unchosen""><img src=""run_exp/static/images/task_images/planet-01.jpg"" height=""50""></button><button class=""jspsych-html-btn-chosen""><img src=""run_exp/static/images/task_images/planet-02.jpg"" height=""50""></button><p><b>[press the space bar to lock in your answer]<b><br></p>",32,,,,,,,,,,,,,,,,,,,,,,,,
instruc_break,21,1066800,0.0-9.0-0.0,"""event"",""trial"",""time""
""fullscreenenter"",""1"",""56809""
","
","
","""event"",""trial"",""time""
""fullscreenenter"",""1"",""56809""
","
",,null,run_exp/static/audio/clip_8_break.m4a,null,"<p> After digging and traveling for a while, you’ll be able to take a break at home base. </p><p>The game will last 20 minutes no matter what.</p><p>You will visit home base every 5 minutes, so, you will visit home base three times during the game.</p><br><p><img src='run_exp/static/images/task_images/home_base.jpg' height='600' width='auto'></p>",,,,,,,,,,,,,,,,,,,,,,,
instruc_break,22,1068144,0.0-9.0-1.0,"""event"",""trial"",""time""
""fullscreenenter"",""1"",""56809""
","
","
","""event"",""trial"",""time""
""fullscreenenter"",""1"",""56809""
","
",,1341,"<p> After digging and traveling for a while, you’ll be able to take a break at home base. </p><p>The game will last 20 minutes no matter what.</p><p>You will visit home base every 5 minutes, so, you will visit home base three times during the game.</p><br><p><img src='run_exp/static/images/task_images/home_base.jpg' height='600' width='auto'></p>",,,,,,,1,,,,,,,,,,,,,,,,,,
html-keyboard-response,23,1068276,0.0-9.0-2.0,"""event"",""trial"",""time""
""fullscreenenter"",""1"",""56809""
","
","
","""event"",""trial"",""time""
""fullscreenenter"",""1"",""56809""
","
",,131,"<p> After digging and traveling for a while, you’ll be able to take a break at home base. </p><p>The game will last 20 minutes no matter what.</p><p>You will visit home base every 5 minutes, so, you will visit home base three times during the game.</p><br><p><img src='run_exp/static/images/task_images/home_base.jpg' height='600' width='auto'></p><button class=""jspsych-html-btn-unchosen""><img src=""run_exp/static/images/task_images/planet-01.jpg"" height=""50""></button><button class=""jspsych-html-btn-chosen""><img src=""run_exp/static/images/task_images/planet-02.jpg"" height=""50""></button><p><b>[press the space bar to lock in your answer]<b><br></p>",32,,,,,,,,,,,,,,,,,,,,,,,,
instruc_prac_game,24,1078422,0.0-10.0-0.0,"""event"",""trial"",""time""
""fullscreenenter"",""1"",""56809""
","
","
","""event"",""trial"",""time""
""fullscreenenter"",""1"",""56809""
","
",,null,run_exp/static/audio/clip_9_practice.m4a,null,"<p> Are you ready to play a practice game? </p> <p>In this practice game, you'll be digging up barrels of gems. But, in the real game, you'll be digging up the gems themselves. </p>",,,,,,,,,,,,,,,,,,,,,,,
html-button-response,25,1080911,0.0-10.0-1.0,"""event"",""trial"",""time""
""fullscreenenter"",""1"",""56809""
","
","
","""event"",""trial"",""time""
""fullscreenenter"",""1"",""56809""
","
",,2485.6,"<p> Are you ready to play a practice game? </p> <p>In this practice game, you'll be digging up barrels of gems. But, in the real game, you'll be digging up the gems themselves. </p>",,,,,,,0,,,,,,,,,,,,,,,,,,
alien_welcome_prac,26,1085925,0.0-11.0-0.0,"""event"",""trial"",""time""
""fullscreenenter"",""1"",""56809""
","
","
","""event"",""trial"",""time""
""fullscreenenter"",""1"",""56809""
","
",,null,run_exp/static/images/task_images/aliens/practice_aliens/planet/alien_planet-5.jpg,null,,,,,,,,,,,,,,,,,,,,,,,,
land_prac,27,1086435,0.0-11.0-1.0,"""event"",""trial"",""time""
""fullscreenenter"",""1"",""56809""
","
","
","""event"",""trial"",""time""
""fullscreenenter"",""1"",""56809""
","
",,null,run_exp/static/images/task_images/land.jpg,null,,,,,,,100,,,0,,,,,,,,,,,,,,
dig_prac,28,1088443,0.0-11.0-2.0,"""event"",""trial"",""time""
""fullscreenenter"",""1"",""56809""
","
","
","""event"",""trial"",""time""
""fullscreenenter"",""1"",""56809""
","
",,,,,,,,,,,,"[{""stimulus"":""run_exp/static/images/task_images/dig.jpg"",""time"":0.4000000059604645},{""stimulus"":""run_exp/static/images/task_images/land.jpg"",""time"":669.2000000029802},{""stimulus"":""run_exp/static/images/task_images/dig.jpg"",""time"":1337.9000000059605}]",[],,,,,,,,,,,,,,,
harvest_prac,29,1089459,0.0-11.0-3.0,"""event"",""trial"",""time""
""fullscreenenter"",""1"",""56809""
","
","
","""event"",""trial"",""time""
""fullscreenenter"",""1"",""56809""
","
",,null,run_exp/static/images/task_images/barrel_text.jpg,null,,,,,,,,,,,,,,,,,,,,,,,,
decision_prac,30,1092463,0.0-11.0-4.0,"""event"",""trial"",""time""
""fullscreenenter"",""1"",""56809""
","
","
","""event"",""trial"",""time""
""fullscreenenter"",""1"",""56809""
","
",,null,run_exp/static/images/task_images/land.jpg,null,,,,,,,,,,,1,,,,,,,,,,,,,
time_out,31,1094471,0.0-12.0-0.0,"""event"",""trial"",""time""
""fullscreenenter"",""1"",""56809""
","
","
","""event"",""trial"",""time""
""fullscreenenter"",""1"",""56809""
","
",,null,run_exp/static/images/task_images/time_out.jpg,null,,,,,,,,,,,,,,,,,,,,,,,,
decision_prac,32,1097478,0.0-12.0-1.0,"""event"",""trial"",""time""
""fullscreenenter"",""1"",""56809""
","
","
","""event"",""trial"",""time""
""fullscreenenter"",""1"",""56809""
","
",,null,run_exp/static/images/task_images/land.jpg,null,,,,,,,,,,,2,,,,,,,,,,,,,
time_out,33,1099486,0.0-13.0-0.0,"""event"",""trial"",""time""
""fullscreenenter"",""1"",""56809""
","
","
","""event"",""trial"",""time""
""fullscreenenter"",""1"",""56809""
","
",,null,run_exp/static/images/task_images/time_out.jpg,null,,,,,,,,,,,,,,,,,,,,,,,,
decision_prac,34,1100136,0.0-13.0-1.0,"""event"",""trial"",""time""
""fullscreenenter"",""1"",""56809""
","
","
","""event"",""trial"",""time""
""fullscreenenter"",""1"",""56809""
","
",,646.4,run_exp/static/images/task_images/land.jpg,65,,,,,,,,,,,3,,,,,,,,,,,,,
dig_prac,35,1102147,0.0-14.0-0.0,"""event"",""trial"",""time""
""fullscreenenter"",""1"",""56809""
","
","
","""event"",""trial"",""time""
""fullscreenenter"",""1"",""56809""
","
",,,,,,,,,,,,"[{""stimulus"":""run_exp/static/images/task_images/dig.jpg"",""time"":0.3999999910593033},{""stimulus"":""run_exp/static/images/task_images/land.jpg"",""time"":669.0999999940395},{""stimulus"":""run_exp/static/images/task_images/dig.jpg"",""time"":1344.7999999970198}]",[],,,,,,,,,,,,,,,
harvest_prac,36,1103150,0.0-14.0-1.0,"""event"",""trial"",""time""
""fullscreenenter"",""1"",""56809""
","
","
","""event"",""trial"",""time""
""fullscreenenter"",""1"",""56809""
","
",,null,run_exp/static/images/task_images/barrel_text.jpg,null,,,,,,,,,,,,,,,,,,,,,,,,
decision_prac,37,1104699,0.0-14.0-2.0,"""event"",""trial"",""time""
""fullscreenenter"",""1"",""56809""
","
","
","""event"",""trial"",""time""
""fullscreenenter"",""1"",""56809""
","
",,1546.3,run_exp/static/images/task_images/land.jpg,65,,,,,,,,,,,4,,,,,,,,,,,,,
dig_prac,38,1106710,0.0-15.0-0.0,"""event"",""trial"",""time""
""fullscreenenter"",""1"",""56809""
","
","
","""event"",""trial"",""time""
""fullscreenenter"",""1"",""56809""
","
",,,,,,,,,,,,"[{""stimulus"":""run_exp/static/images/task_images/dig.jpg"",""time"":0.30000001192092896},{""stimulus"":""run_exp/static/images/task_images/land.jpg"",""time"":675},{""stimulus"":""run_exp/static/images/task_images/dig.jpg"",""time"":1339.6000000089407}]",[],,,,,,,,,,,,,,,
harvest_prac,39,1107716,0.0-15.0-1.0,"""event"",""trial"",""time""
""fullscreenenter"",""1"",""56809""
","
","
","""event"",""trial"",""time""
""fullscreenenter"",""1"",""56809""
","
",,null,run_exp/static/images/task_images/barrel_text.jpg,null,,,,,,,,,,,,,,,,,,,,,,,,
decision_prac,40,1108164,0.0-15.0-2.0,"""event"",""trial"",""time""
""fullscreenenter"",""1"",""56809""
","
","
","""event"",""trial"",""time""
""fullscreenenter"",""1"",""56809""
","
",,445.4,run_exp/static/images/task_images/land.jpg,65,,,,,,,,,,,,1,,,,,,,,,,,,
quiz_instruc,41,1116349,0.0-16.0-0.0,"""event"",""trial"",""time""
""fullscreenenter"",""1"",""56809""
","
","
","""event"",""trial"",""time""
""fullscreenenter"",""1"",""56809""
","
",,8182.5,run_exp/static/audio/clip_10_quiz.m4a,,,,,,,0,,,,,,,,,,,,,,,,,,
instruc_repeat,42,1159163,0.0-16.0-1.0,"""event"",""trial"",""time""
""fullscreenenter"",""1"",""56809""
","
","
","""event"",""trial"",""time""
""fullscreenenter"",""1"",""56809""
","
",,null,"<p> Are you ready to play a practice game? </p> <p>In this practice game, you'll be digging up barrels of gems. But, in the real game, you'll be digging up the gems themselves. </p>",null,"<p>In this game, your goal is to collect as many gems as you can. That’s how you will win bonus money. </p> <p>The entire game will last 20 minutes no matter how many gems you collect or how many planets you visit. </p><p>To stay on a planet and dig again, press the letter A on your keyboard. To leave for a new planet, press the letter L.</p><p>The more you dig on a planet, the fewer gems you’ll get with each dig which is why you might consider leaving for a new planet. </p><p>When you arrive at a new planet, you’ll be greeted by an alien. What the alien looks like does not tell you anything about how much treasure is on the planet. </p>",,,,,,,,,,,,,,,,,,,,,,,
instruc_repeat_continue,43,1164788,0.0-16.0-2.0,"""event"",""trial"",""time""
""fullscreenenter"",""1"",""56809""
","
","
","""event"",""trial"",""time""
""fullscreenenter"",""1"",""56809""
","
",,5622.2,"<p> Are you ready to play a practice game? </p> <p>In this practice game, you'll be digging up barrels of gems. But, in the real game, you'll be digging up the gems themselves. </p>",,,,,,,0,,,,,,,,,,,,,,,,,,
quiz_q_1_ask,44,1180102,0.0-16.0-3.0,"""event"",""trial"",""time""
""fullscreenenter"",""1"",""56809""
","
","
","""event"",""trial"",""time""
""fullscreenenter"",""1"",""56809""
","
",,15310.3,run_exp/static/audio/clip_11_q1_ask.m4a,,,,,,,2,,,,,,,,,,,,,,,,,,
quiz_q_1_fb_correct,45,1183983,0.0-17.0-0.0,"""event"",""trial"",""time""
""fullscreenenter"",""1"",""56809""
","
","
","""event"",""trial"",""time""
""fullscreenenter"",""1"",""56809""
","
",,null,run_exp/static/audio/clip_12_q1_correct.m4a,null,<p>That’s correct. You win extra money by collecting more gems.</p>,,,,,,,,,,,,,,,,,,,,,,,
quiz_q_2_ask,46,1187142,0.0-17.0-1.0,"""event"",""trial"",""time""
""fullscreenenter"",""1"",""56809""
","
","
","""event"",""trial"",""time""
""fullscreenenter"",""1"",""56809""
","
",,3156.3,run_exp/static/audio/clip_14_q2_ask.m4a,,,,,,,1,,,,,,,,,,,,,,,,,,
quiz_q_2_fb_correct,47,1191181,0.0-18.0-0.0,"""event"",""trial"",""time""
""fullscreenenter"",""1"",""56809""
","
","
","""event"",""trial"",""time""
""fullscreenenter"",""1"",""56809""
","
",,null,run_exp/static/audio/clip_15_q2_correct.m4a,null,<p>That’s correct. The experiment is 20 minutes no matter what.</p>,,,,,,,,,,,,,,,,,,,,,,,
quiz_q_3_ask,48,1196297,0.0-18.0-1.0,"""event"",""trial"",""time""
""fullscreenenter"",""1"",""56809""
","
","
","""event"",""trial"",""time""
""fullscreenenter"",""1"",""56809""
","
",,5114.7,run_exp/static/audio/clip_17_q3_ask.m4a,,,,,,,1,,,,,,,,,,,,,,,,,,
quiz_q_3_fb_correct,49,1200323,0.0-19.0-0.0,"""event"",""trial"",""time""
""fullscreenenter"",""1"",""56809""
","
","
","""event"",""trial"",""time""
""fullscreenenter"",""1"",""56809""
","
",,null,run_exp/static/audio/clip_18_q3_correct.m4a,null,<p> That’s correct. You press the letter L to travel to a new planet.</p>,,,,,,,,,,,,,,,,,,,,,,,
quiz_q_4_ask,50,1204089,0.0-19.0-1.0,"""event"",""trial"",""time""
""fullscreenenter"",""1"",""56809""
","
","
","""event"",""trial"",""time""
""fullscreenenter"",""1"",""56809""
","
",,3762.5,run_exp/static/audio/clip_20_q4_ask.m4a,,,,,,,1,,,,,,,,,,,,,,,,,,
quiz_q_4_fb_incorrect,51,1209943,0.0-20.0-0.0,"""event"",""trial"",""time""
""fullscreenenter"",""1"",""56809""
","
","
","""event"",""trial"",""time""
""fullscreenenter"",""1"",""56809""
","
",,null,run_exp/static/audio/clip_22_q4_incorrect.m4a,null,<p>That’s incorrect.  The more you dig on a planet the fewer gems you’ll get with each dig.</p>,,,,,,,,,,,,,,,,,,,,,,,
quiz_q_5_ask,52,1210610,0.0-20.0-1.0,"""event"",""trial"",""time""
""fullscreenenter"",""1"",""56809""
","
","
","""event"",""trial"",""time""
""fullscreenenter"",""1"",""56809""
","
",,663.2,run_exp/static/audio/clip_23_q5_ask.m4a,,,,,,,0,,,,,,,,,,,,,,,,,,
quiz_q_5_fb_incorrect,53,1216343,0.0-21.0-0.0,"""event"",""trial"",""time""
""fullscreenenter"",""1"",""56809""
","
","
","""event"",""trial"",""time""
""fullscreenenter"",""1"",""56809""
","
",,null,run_exp/static/audio/clip_25_q5_incorrect.m4a,null,<p>That’s incorrect. The alien tells you nothing about how much treasure is on the planet.</p>,,,,,,,,,,,,,,,,,,,,,,,
quiz_incorrect,54,1221922,0.0-22.0-0.0,"""event"",""trial"",""time""
""fullscreenenter"",""1"",""56809""
","
","
","""event"",""trial"",""time""
""fullscreenenter"",""1"",""56809""
","
",,null,run_exp/static/audio/clip_27_incorrect_quiz.m4a,null,,,,,,,,,,,,,,,,,,,,,,,,
quiz_incorrect_continue,55,1225635,0.0-22.0-1.0,"""event"",""trial"",""time""
""fullscreenenter"",""1"",""56809""
","
","
","""event"",""trial"",""time""
""fullscreenenter"",""1"",""56809""
","
",,3710.6,"<p>Oops, you missed some questions.</p><p>Now that you’ve heard the correct answers. Try the quiz again!</p>",,,,,,,0,,,,,,,,,,,,,,,,,,
quiz_q_1_ask,56,1235375,0.0-22.0-2.0,"""event"",""trial"",""time""
""fullscreenenter"",""1"",""56809""
","
","
","""event"",""trial"",""time""
""fullscreenenter"",""1"",""56809""
","
",,9735.7,run_exp/static/audio/clip_11_q1_ask.m4a,,,,,,,2,,,,,,,,,,,,,,,,,,
quiz_q_1_fb_correct,57,1239242,0.0-23.0-0.0,"""event"",""trial"",""time""
""fullscreenenter"",""1"",""56809""
","
","
","""event"",""trial"",""time""
""fullscreenenter"",""1"",""56809""
","
",,null,run_exp/static/audio/clip_12_q1_correct.m4a,null,<p>That’s correct. You win extra money by collecting more gems.</p>,,,,,,,,,,,,,,,,,,,,,,,
quiz_q_2_ask,58,1249220,0.0-23.0-1.0,"""event"",""trial"",""time""
""fullscreenenter"",""1"",""56809""
","
","
","""event"",""trial"",""time""
""fullscreenenter"",""1"",""56809""
","
",,9975.4,run_exp/static/audio/clip_14_q2_ask.m4a,,,,,,,1,,,,,,,,,,,,,,,,,,
quiz_q_2_fb_correct,59,1253222,0.0-24.0-0.0,"""event"",""trial"",""time""
""fullscreenenter"",""1"",""56809""
","
","
","""event"",""trial"",""time""
""fullscreenenter"",""1"",""56809""
","
",,null,run_exp/static/audio/clip_15_q2_correct.m4a,null,<p>That’s correct. The experiment is 20 minutes no matter what.</p>,,,,,,,,,,,,,,,,,,,,,,,
quiz_q_3_ask,60,1271461,0.0-24.0-1.0,"""event"",""trial"",""time""
""fullscreenenter"",""1"",""56809""
","
","
","""event"",""trial"",""time""
""fullscreenenter"",""1"",""56809""
","
",,18236.2,run_exp/static/audio/clip_17_q3_ask.m4a,,,,,,,1,,,,,,,,,,,,,,,,,,
quiz_q_3_fb_correct,61,1275482,0.0-25.0-0.0,"""event"",""trial"",""time""
""fullscreenenter"",""1"",""56809""
","
","
","""event"",""trial"",""time""
""fullscreenenter"",""1"",""56809""
","
",,null,run_exp/static/audio/clip_18_q3_correct.m4a,null,<p> That’s correct. You press the letter L to travel to a new planet.</p>,,,,,,,,,,,,,,,,,,,,,,,
quiz_q_4_ask,62,1280089,0.0-25.0-1.0,"""event"",""trial"",""time""
""fullscreenenter"",""1"",""56809""
","
","
","""event"",""trial"",""time""
""fullscreenenter"",""1"",""56809""
","
",,4605,run_exp/static/audio/clip_20_q4_ask.m4a,,,,,,,0,,,,,,,,,,,,,,,,,,
quiz_q_4_fb_correct,63,1285441,0.0-26.0-0.0,"""event"",""trial"",""time""
""fullscreenenter"",""1"",""56809""
","
","
","""event"",""trial"",""time""
""fullscreenenter"",""1"",""56809""
","
",,null,run_exp/static/audio/clip_21_q4_correct.m4a,null,<p> That’s correct. The more you dig on a planet the fewer gems you’ll get with each dig. </p>,,,,,,,,,,,,,,,,,,,,,,,
quiz_q_5_ask,64,1288119,0.0-26.0-1.0,"""event"",""trial"",""time""
""fullscreenenter"",""1"",""56809""
","
","
","""event"",""trial"",""time""
""fullscreenenter"",""1"",""56809""
","
",,2673.9,run_exp/static/audio/clip_23_q5_ask.m4a,,,,,,,1,,,,,,,,,,,,,,,,,,
quiz_q_5_fb_correct,65,1293161,0.0-27.0-0.0,"""event"",""trial"",""time""
""fullscreenenter"",""1"",""56809""
","
","
","""event"",""trial"",""time""
""fullscreenenter"",""1"",""56809""
","
",,null,run_exp/static/audio/clip_24_q5_correct.m4a,null,<p> That’s correct. The alien tells you nothing about how much treasure is on the planet.</p>,,,,,,,,,,,,,,,,,,,,,,,
quiz_correct,66,1296621,0.0-28.0-0.0,"""event"",""trial"",""time""
""fullscreenenter"",""1"",""56809""
","
","
","""event"",""trial"",""time""
""fullscreenenter"",""1"",""56809""
","
",,null,run_exp/static/audio/clip_26_correct_quiz.m4a,null,,,,,,,,,,,,,,,,,,,,,,,,
quiz_correct_continue,67,1313009,0.0-28.0-1.0,"""event"",""trial"",""time""
""fullscreenenter"",""1"",""56809""
","
","
","""event"",""trial"",""time""
""fullscreenenter"",""1"",""56809""
","
",,16385.9,<p>Good job! You're now ready to move on to the real game!</p>,,,,,,,0,,,,,,,,,,,,,,,,,,
audio-keyboard-response,68,1323148,0.0-28.0-2.0,"""event"",""trial"",""time""
""fullscreenenter"",""1"",""56809""
","
","
","""event"",""trial"",""time""
""fullscreenenter"",""1"",""56809""
","
",,null,run_exp/static/audio/clip_28_real_game.m4a,null,,,,,,,,,,,,,,,,,,,,,,,,
instruc_begin_exp_contine,69,1406710,0.0-28.0-3.0,"""event"",""trial"",""time""
""fullscreenenter"",""1"",""56809""
","
","
","""event"",""trial"",""time""
""fullscreenenter"",""1"",""56809""
","
",,83558.2,"<p>Now that you know how  to dig for space treasure and travel to new planets,you can start exploring! </p><p>Do you want to go over the instructions again or get started with the real game?</p>",,,,,,,1,,,,,,1,,,,,,,,,,,,
alien_welcome,70,1411725,0.0-29.0-0.0,"""event"",""trial"",""time""
""fullscreenenter"",""1"",""56809""
","
","
","""event"",""trial"",""time""
""fullscreenenter"",""1"",""56809""
","
",,null,run_exp/static/images/task_images/aliens/old_aliens/planet/alien_planet-22.jpg,null,,,,,,,,,,,,,22,"22,32,16,74,61,13,28,75,38,18,78,41,35,65,46,8,24,56,23,42,62,79,15,14,6,57,70,20,49,51,7,31",,,,,,,,,,
land,71,1412235,0.0-29.0-1.0,"""event"",""trial"",""time""
""fullscreenenter"",""1"",""56809""
","
","
","""event"",""trial"",""time""
""fullscreenenter"",""1"",""56809""
","
",,null,run_exp/static/images/task_images/land.jpg,null,,,,,,,96,,,1,,,,,,,,,,,,,,
dig,72,1414245,0.0-29.0-2.0,"""event"",""trial"",""time""
""fullscreenenter"",""1"",""56809""
","
","
","""event"",""trial"",""time""
""fullscreenenter"",""1"",""56809""
","
",,,,,,,,,,,,"[{""stimulus"":""run_exp/static/images/task_images/dig.jpg"",""time"":0.5},{""stimulus"":""run_exp/static/images/task_images/land.jpg"",""time"":669.5999999940395},{""stimulus"":""run_exp/static/images/task_images/dig.jpg"",""time"":1339.7000000029802}]",[],1,,,,,,,,,,,,,,
harvest,73,1415255,0.0-29.0-3.0,"""event"",""trial"",""time""
""fullscreenenter"",""1"",""56809""
","
","
","""event"",""trial"",""time""
""fullscreenenter"",""1"",""56809""
","
",,null,run_exp/static/images/task_images/gems/96.jpg,null,,,,,,,16,,,1,,,,,96,0.167064402,0.166666667,,,,,,,
decision,74,1416588,0.0-29.0-4.0,"""event"",""trial"",""time""
""fullscreenenter"",""1"",""56809""
","
","
","""event"",""trial"",""time""
""fullscreenenter"",""1"",""56809""
","
",,1331.1,run_exp/static/images/task_images/land.jpg,65,,,,,,,16,,,1,,,,,,,,9874,1,0,FALSE,,,
dig,75,1418279,0.0-30.0-0.0,"""event"",""trial"",""time""
""fullscreenenter"",""1"",""56809""
","
","
","""event"",""trial"",""time""
""fullscreenenter"",""1"",""56809""
","
",,,,,,,,,,,,"[{""stimulus"":""run_exp/static/images/task_images/dig.jpg"",""time"":0.3999999910593033},{""stimulus"":""run_exp/static/images/task_images/land.jpg"",""time"":558.0999999940395},{""stimulus"":""run_exp/static/images/task_images/dig.jpg"",""time"":1116.0999999940395}]",[],1,,,,,,,,,,,,,,
harvest,76,1419286,0.0-30.0-1.0,"""event"",""trial"",""time""
""fullscreenenter"",""1"",""56809""
","
","
","""event"",""trial"",""time""
""fullscreenenter"",""1"",""56809""
","
",,null,run_exp/static/images/task_images/gems/16.jpg,null,,,,,,,2,,,1,,,,,16,0.141597776,0.125,,,,,,,
decision,77,1420240,0.0-30.0-2.0,"""event"",""trial"",""time""
""fullscreenenter"",""1"",""56809""
","
","
","""event"",""trial"",""time""
""fullscreenenter"",""1"",""56809""
","
",,950.7,run_exp/static/images/task_images/land.jpg,76,,,,,,,2,,,1,,,,,,,,13525,1,1,TRUE,,,
travel,78,1429299,0.0-31.0-0.0,"""event"",""trial"",""time""
""fullscreenenter"",""1"",""56809""
","
","
","""event"",""trial"",""time""
""fullscreenenter"",""1"",""56809""
","
",,,,,,,,,,,,"[{""stimulus"":""run_exp/static/images/task_images/rocket-01.jpg"",""time"":0.29999999701976776},{""stimulus"":""run_exp/static/images/task_images/rocket-02.jpg"",""time"":1013.7999999970198},{""stimulus"":""run_exp/static/images/task_images/rocket-03.jpg"",""time"":2017.7999999970198},{""stimulus"":""run_exp/static/images/task_images/rocket-04.jpg"",""time"":3024},{""stimulus"":""run_exp/static/images/task_images/rocket-05.jpg"",""time"":4028.199999988079},{""stimulus"":""run_exp/static/images/task_images/rocket-06.jpg"",""time"":5028},{""stimulus"":""run_exp/static/images/task_images/rocket-07.jpg"",""time"":6033.79999999702},{""stimulus"":""run_exp/static/images/task_images/rocket-08.jpg"",""time"":7042.0999999940395},{""stimulus"":""run_exp/static/images/task_images/rocket-09.jpg"",""time"":8043.5999999940395}]",[],1,,,,,,,,,,,,,,
alien_welcome,79,1434303,0.0-31.0-1.0,"""event"",""trial"",""time""
""fullscreenenter"",""1"",""56809""
","
","
","""event"",""trial"",""time""
""fullscreenenter"",""1"",""56809""
","
",,null,run_exp/static/images/task_images/aliens/old_aliens/planet/alien_planet-32.jpg,null,,,,,,,,,,,,,32,"22,32,16,74,61,13,28,75,38,18,78,41,35,65,46,8,24,56,23,42,62,79,15,14,6,57,70,20,49,51,7,31",,,,,,,,,,
land,80,1434810,0.0-31.0-2.0,"""event"",""trial"",""time""
""fullscreenenter"",""1"",""56809""
","
","
","""event"",""trial"",""time""
""fullscreenenter"",""1"",""56809""
","
",,null,run_exp/static/images/task_images/land.jpg,null,,,,,,,102,,,2,,,,,,,,,,,,,,
dig,81,1436829,0.0-31.0-3.0,"""event"",""trial"",""time""
""fullscreenenter"",""1"",""56809""
","
","
","""event"",""trial"",""time""
""fullscreenenter"",""1"",""56809""
","
",,,,,,,,,,,,"[{""stimulus"":""run_exp/static/images/task_images/dig.jpg"",""time"":0.5},{""stimulus"":""run_exp/static/images/task_images/land.jpg"",""time"":669.8999999910593},{""stimulus"":""run_exp/static/images/task_images/dig.jpg"",""time"":1343.7000000029802}]",[],2,,,,,,,,,,,,,,
harvest,82,1437837,0.0-31.0-4.0,"""event"",""trial"",""time""
""fullscreenenter"",""1"",""56809""
","
","
","""event"",""trial"",""time""
""fullscreenenter"",""1"",""56809""
","
",,null,run_exp/static/images/task_images/gems/102.jpg,null,,,,,,,16,,,2,,,,,102,0.154738942,0.156862745,,,,,,,
decision,83,1438297,0.0-31.0-5.0,"""event"",""trial"",""time""
""fullscreenenter"",""1"",""56809""
","
","
","""event"",""trial"",""time""
""fullscreenenter"",""1"",""56809""
","
",,455.8,run_exp/static/images/task_images/land.jpg,65,,,,,,,16,,,2,,,,,,,,31582,1,0,FALSE,,,
dig,84,1440850,0.0-32.0-0.0,"""event"",""trial"",""time""
""fullscreenenter"",""1"",""56809""
","
","
","""event"",""trial"",""time""
""fullscreenenter"",""1"",""56809""
","
",,,,,,,,,,,,"[{""stimulus"":""run_exp/static/images/task_images/dig.jpg"",""time"":0.5},{""stimulus"":""run_exp/static/images/task_images/land.jpg"",""time"":857.7000000029802},{""stimulus"":""run_exp/static/images/task_images/dig.jpg"",""time"":1704.2999999970198}]",[],2,,,,,,,,,,,,,,
harvest,85,1441859,0.0-32.0-1.0,"""event"",""trial"",""time""
""fullscreenenter"",""1"",""56809""
","
","
","""event"",""trial"",""time""
""fullscreenenter"",""1"",""56809""
","
",,null,run_exp/static/images/task_images/gems/16.jpg,null,,,,,,,3,,,2,,,,,16,0.214260618,0.1875,,,,,,,
decision,86,1444868,0.0-32.0-2.0,"""event"",""trial"",""time""
""fullscreenenter"",""1"",""56809""
","
","
","""event"",""trial"",""time""
""fullscreenenter"",""1"",""56809""
","
",,null,run_exp/static/images/task_images/land.jpg,null,,,,,,,3,,,2,,,,,,,,38153,1,1,FALSE,,,
time_out,87,1446873,0.0-33.0-0.0,"""event"",""trial"",""time""
""fullscreenenter"",""1"",""56809""
","
","
","""event"",""trial"",""time""
""fullscreenenter"",""1"",""56809""
","
",,null,run_exp/static/images/task_images/time_out.jpg,null,,,,,,,3,,,,,,,,,,,,,,,,,
decision,88,1449878,0.0-33.0-1.0,"""event"",""trial"",""time""
""fullscreenenter"",""1"",""56809""
","
","
","""event"",""trial"",""time""
""fullscreenenter"",""1"",""56809""
","
",,null,run_exp/static/images/task_images/land.jpg,null,,,,,,,3,,,2,,,,,,,,43163,1,1,FALSE,,,
time_out,89,1451890,0.0-34.0-0.0,"""event"",""trial"",""time""
""fullscreenenter"",""1"",""56809""
","
","
","""event"",""trial"",""time""
""fullscreenenter"",""1"",""56809""
","
",,null,run_exp/static/images/task_images/time_out.jpg,null,,,,,,,3,,,,,,,,,,,,,,,,,
decision,90,1451913,0.0-34.0-1.0,"""event"",""trial"",""time""
""fullscreenenter"",""1"",""56809""
","
","
","""event"",""trial"",""time""
""fullscreenenter"",""1"",""56809""
","
",,19.3,run_exp/static/images/task_images/land.jpg,65,,,,,,,3,,,2,,,,,,,,45198,1,1,FALSE,,,
dig,91,1454906,0.0-35.0-0.0,"""event"",""trial"",""time""
""fullscreenenter"",""1"",""56809""
","
","
","""event"",""trial"",""time""
""fullscreenenter"",""1"",""56809""
","
",,,,,,,,,,,,"[{""stimulus"":""run_exp/static/images/task_images/dig.jpg"",""time"":0.4000000059604645},{""stimulus"":""run_exp/static/images/task_images/land.jpg"",""time"":999.9000000059605},{""stimulus"":""run_exp/static/images/task_images/dig.jpg"",""time"":1995.5999999940395}]",[],2,,,,,,,,,,,,,,
harvest,92,1455915,0.0-35.0-1.0,"""event"",""trial"",""time""
""fullscreenenter"",""1"",""56809""
","
","
","""event"",""trial"",""time""
""fullscreenenter"",""1"",""56809""
","
",,null,run_exp/static/images/task_images/gems/3.jpg,null,,,,,,,1,,,2,,,,,3,0.232060696,0.333333333,,,,,,,
decision,93,1456048,0.0-35.0-2.0,"""event"",""trial"",""time""
""fullscreenenter"",""1"",""56809""
","
","
","""event"",""trial"",""time""
""fullscreenenter"",""1"",""56809""
","
",,129.6,run_exp/static/images/task_images/land.jpg,65,,,,,,,1,,,2,,,,,,,,49334,1,2,FALSE,,,
dig,94,1458928,0.0-36.0-0.0,"""event"",""trial"",""time""
""fullscreenenter"",""1"",""56809""
","
","
","""event"",""trial"",""time""
""fullscreenenter"",""1"",""56809""
","
",,,,,,,,,,,,"[{""stimulus"":""run_exp/static/images/task_images/dig.jpg"",""time"":0.29999999701976776},{""stimulus"":""run_exp/static/images/task_images/land.jpg"",""time"":963.5},{""stimulus"":""run_exp/static/images/task_images/dig.jpg"",""time"":1919.7999999970198}]",[],2,,,,,,,,,,,,,,
harvest,95,1459938,0.0-36.0-1.0,"""event"",""trial"",""time""
""fullscreenenter"",""1"",""56809""
","
","
","""event"",""trial"",""time""
""fullscreenenter"",""1"",""56809""
","
",,null,run_exp/static/images/task_images/gems/1.jpg,null,,,,,,,0,,,2,,,,,1,0.182003425,0,,,,,,,
decision,96,1460640,0.0-36.0-2.0,"""event"",""trial"",""time""
""fullscreenenter"",""1"",""56809""
","
","
","""event"",""trial"",""time""
""fullscreenenter"",""1"",""56809""
","
",,697.8,run_exp/static/images/task_images/land.jpg,76,,,,,,,0,,,2,,,,,,,,53926,1,3,TRUE,,,
travel,97,1469947,0.0-37.0-0.0,"""event"",""trial"",""time""
""fullscreenenter"",""1"",""56809""
","
","
","""event"",""trial"",""time""
""fullscreenenter"",""1"",""56809""
","
",,,,,,,,,,,,"[{""stimulus"":""run_exp/static/images/task_images/rocket-01.jpg"",""time"":0.4000000059604645},{""stimulus"":""run_exp/static/images/task_images/rocket-02.jpg"",""time"":1035.7999999970198},{""stimulus"":""run_exp/static/images/task_images/rocket-03.jpg"",""time"":2070},{""stimulus"":""run_exp/static/images/task_images/rocket-04.jpg"",""time"":3102.6000000089407},{""stimulus"":""run_exp/static/images/task_images/rocket-05.jpg"",""time"":4140},{""stimulus"":""run_exp/static/images/task_images/rocket-06.jpg"",""time"":5168.5},{""stimulus"":""run_exp/static/images/task_images/rocket-07.jpg"",""time"":6203},{""stimulus"":""run_exp/static/images/task_images/rocket-08.jpg"",""time"":7240.20000000298},{""stimulus"":""run_exp/static/images/task_images/rocket-09.jpg"",""time"":8272.5}]",[],2,,,,,,,,,,,,,,
alien_welcome,98,1474951,0.0-37.0-1.0,"""event"",""trial"",""time""
""fullscreenenter"",""1"",""56809""
","
","
","""event"",""trial"",""time""
""fullscreenenter"",""1"",""56809""
","
",,null,run_exp/static/images/task_images/aliens/old_aliens/planet/alien_planet-16.jpg,null,,,,,,,,,,,,,16,"22,32,16,74,61,13,28,75,38,18,78,41,35,65,46,8,24,56,23,42,62,79,15,14,6,57,70,20,49,51,7,31",,,,,,,,,,
land,99,1475460,0.0-37.0-2.0,"""event"",""trial"",""time""
""fullscreenenter"",""1"",""56809""
","
","
","""event"",""trial"",""time""
""fullscreenenter"",""1"",""56809""
","
",,null,run_exp/static/images/task_images/land.jpg,null,,,,,,,97,,,3,,,,,,,,,,,,,,
dig,100,1477466,0.0-37.0-3.0,"""event"",""trial"",""time""
""fullscreenenter"",""1"",""56809""
","
","
","""event"",""trial"",""time""
""fullscreenenter"",""1"",""56809""
","
",,,,,,,,,,,,"[{""stimulus"":""run_exp/static/images/task_images/dig.jpg"",""time"":0.5},{""stimulus"":""run_exp/static/images/task_images/land.jpg"",""time"":669.1000000089407},{""stimulus"":""run_exp/static/images/task_images/dig.jpg"",""time"":1340.7000000029802}]",[],3,,,,,,,,,,,,,,
harvest,101,1478482,0.0-37.0-4.0,"""event"",""trial"",""time""
""fullscreenenter"",""1"",""56809""
","
","
","""event"",""trial"",""time""
""fullscreenenter"",""1"",""56809""
","
",,null,run_exp/static/images/task_images/gems/97.jpg,null,,,,,,,51,,,3,,,,,97,0.521487398,0.525773196,,,,,,,
decision,102,1478819,0.0-37.0-5.0,"""event"",""trial"",""time""
""fullscreenenter"",""1"",""56809""
","
","
","""event"",""trial"",""time""
""fullscreenenter"",""1"",""56809""
","
",,335.1,run_exp/static/images/task_images/land.jpg,65,,,,,,,51,,,3,,,,,,,,72104,1,0,FALSE,,,
dig,103,1481491,0.0-38.0-0.0,"""event"",""trial"",""time""
""fullscreenenter"",""1"",""56809""
","
","
","""event"",""trial"",""time""
""fullscreenenter"",""1"",""56809""
","
",,,,,,,,,,,,"[{""stimulus"":""run_exp/static/images/task_images/dig.jpg"",""time"":0.29999999701976776},{""stimulus"":""run_exp/static/images/task_images/land.jpg"",""time"":899.4000000059605},{""stimulus"":""run_exp/static/images/task_images/dig.jpg"",""time"":1783.7999999970198}]",[],3,,,,,,,,,,,,,,
harvest,104,1482500,0.0-38.0-1.0,"""event"",""trial"",""time""
""fullscreenenter"",""1"",""56809""
","
","
","""event"",""trial"",""time""
""fullscreenenter"",""1"",""56809""
","
",,null,run_exp/static/images/task_images/gems/51.jpg,null,,,,,,,20,,,3,,,,,51,0.387706194,0.392156863,,,,,,,
decision,105,1484434,0.0-38.0-2.0,"""event"",""trial"",""time""
""fullscreenenter"",""1"",""56809""
","
","
","""event"",""trial"",""time""
""fullscreenenter"",""1"",""56809""
","
",,1929,run_exp/static/images/task_images/land.jpg,65,,,,,,,20,,,3,,,,,,,,77719,1,1,FALSE,,,
dig,106,1485519,0.0-39.0-0.0,"""event"",""trial"",""time""
""fullscreenenter"",""1"",""56809""
","
","
","""event"",""trial"",""time""
""fullscreenenter"",""1"",""56809""
","
",,,,,,,,,,,,"[{""stimulus"":""run_exp/static/images/task_images/dig.jpg"",""time"":0.3999999910593033},{""stimulus"":""run_exp/static/images/task_images/land.jpg"",""time"":362.09999999403954},{""stimulus"":""run_exp/static/images/task_images/dig.jpg"",""time"":721.5}]",[],3,,,,,,,,,,,,,,
harvest,107,1486528,0.0-39.0-1.0,"""event"",""trial"",""time""
""fullscreenenter"",""1"",""56809""
","
","
","""event"",""trial"",""time""
""fullscreenenter"",""1"",""56809""
","
",,null,run_exp/static/images/task_images/gems/20.jpg,null,,,,,,,9,,,3,,,,,20,0.464249983,0.45,,,,,,,
decision,108,1487177,0.0-39.0-2.0,"""event"",""trial"",""time""
""fullscreenenter"",""1"",""56809""
","
","
","""event"",""trial"",""time""
""fullscreenenter"",""1"",""56809""
","
",,647.4,run_exp/static/images/task_images/land.jpg,65,,,,,,,9,,,3,,,,,,,,80462,1,2,FALSE,,,
dig,109,1489537,0.0-40.0-0.0,"""event"",""trial"",""time""
""fullscreenenter"",""1"",""56809""
","
","
","""event"",""trial"",""time""
""fullscreenenter"",""1"",""56809""
","
",,,,,,,,,,,,"[{""stimulus"":""run_exp/static/images/task_images/dig.jpg"",""time"":0.09999999403953552},{""stimulus"":""run_exp/static/images/task_images/land.jpg"",""time"":788.2999999970198},{""stimulus"":""run_exp/static/images/task_images/dig.jpg"",""time"":1573}]",[],3,,,,,,,,,,,,,,
harvest,110,1490547,0.0-40.0-1.0,"""event"",""trial"",""time""
""fullscreenenter"",""1"",""56809""
","
","
","""event"",""trial"",""time""
""fullscreenenter"",""1"",""56809""
","
",,null,run_exp/static/images/task_images/gems/9.jpg,null,,,,,,,5,,,3,,,,,9,0.589202377,0.555555556,,,,,,,
decision,111,1491407,0.0-40.0-2.0,"""event"",""trial"",""time""
""fullscreenenter"",""1"",""56809""
","
","
","""event"",""trial"",""time""
""fullscreenenter"",""1"",""56809""
","
",,853.7,run_exp/static/images/task_images/land.jpg,65,,,,,,,5,,,3,,,,,,,,84692,1,3,FALSE,,,
dig,112,1493578,0.0-41.0-0.0,"""event"",""trial"",""time""
""fullscreenenter"",""1"",""56809""
","
","
","""event"",""trial"",""time""
""fullscreenenter"",""1"",""56809""
","
",,,,,,,,,,,,"[{""stimulus"":""run_exp/static/images/task_images/dig.jpg"",""time"":0.5},{""stimulus"":""run_exp/static/images/task_images/land.jpg"",""time"":720.2000000029802},{""stimulus"":""run_exp/static/images/task_images/dig.jpg"",""time"":1436.6000000089407}]",[],3,,,,,,,,,,,,,,
harvest,113,1494586,0.0-41.0-1.0,"""event"",""trial"",""time""
""fullscreenenter"",""1"",""56809""
","
","
","""event"",""trial"",""time""
""fullscreenenter"",""1"",""56809""
","
",,null,run_exp/static/images/task_images/gems/5.jpg,null,,,,,,,2,,,3,,,,,5,0.439038615,0.4,,,,,,,
decision,114,1495339,0.0-41.0-2.0,"""event"",""trial"",""time""
""fullscreenenter"",""1"",""56809""
","
","
","""event"",""trial"",""time""
""fullscreenenter"",""1"",""56809""
","
",,749,run_exp/static/images/task_images/land.jpg,65,,,,,,,2,,,3,,,,,,,,88624,1,4,FALSE,,,
dig,115,1497602,0.0-42.0-0.0,"""event"",""trial"",""time""
""fullscreenenter"",""1"",""56809""
","
","
","""event"",""trial"",""time""
""fullscreenenter"",""1"",""56809""
","
",,,,,,,,,,,,"[{""stimulus"":""run_exp/static/images/task_images/dig.jpg"",""time"":0.5},{""stimulus"":""run_exp/static/images/task_images/land.jpg"",""time"":767.3999999910593},{""stimulus"":""run_exp/static/images/task_images/dig.jpg"",""time"":1509.5999999940395}]",[],3,,,,,,,,,,,,,,
harvest,116,1498619,0.0-42.0-1.0,"""event"",""trial"",""time""
""fullscreenenter"",""1"",""56809""
","
","
","""event"",""trial"",""time""
""fullscreenenter"",""1"",""56809""
","
",,null,run_exp/static/images/task_images/gems/2.jpg,null,,,,,,,1,,,3,,,,,2,0.502961364,0.5,,,,,,,
decision,117,1499251,0.0-42.0-2.0,"""event"",""trial"",""time""
""fullscreenenter"",""1"",""56809""
","
","
","""event"",""trial"",""time""
""fullscreenenter"",""1"",""56809""
","
",,630.6,run_exp/static/images/task_images/land.jpg,65,,,,,,,1,,,3,,,,,,,,92536,1,5,FALSE,,,
dig,118,1501632,0.0-43.0-0.0,"""event"",""trial"",""time""
""fullscreenenter"",""1"",""56809""
","
","
","""event"",""trial"",""time""
""fullscreenenter"",""1"",""56809""
","
",,,,,,,,,,,,"[{""stimulus"":""run_exp/static/images/task_images/dig.jpg"",""time"":0.09999999403953552},{""stimulus"":""run_exp/static/images/task_images/land.jpg"",""time"":805.5999999940395},{""stimulus"":""run_exp/static/images/task_images/dig.jpg"",""time"":1584.0999999940395}]",[],3,,,,,,,,,,,,,,
harvest,119,1502639,0.0-43.0-1.0,"""event"",""trial"",""time""
""fullscreenenter"",""1"",""56809""
","
","
","""event"",""trial"",""time""
""fullscreenenter"",""1"",""56809""
","
",,null,run_exp/static/images/task_images/gems/1.jpg,null,,,,,,,0,,,3,,,,,1,0.479518186,0,,,,,,,
decision,120,1502678,0.0-43.0-2.0,"""event"",""trial"",""time""
""fullscreenenter"",""1"",""56809""
","
","
","""event"",""trial"",""time""
""fullscreenenter"",""1"",""56809""
","
",,37.2,run_exp/static/images/task_images/land.jpg,65,,,,,,,0,,,3,,,,,,,,95963,1,6,FALSE,,,
dig,121,1505655,0.0-44.0-0.0,"""event"",""trial"",""time""
""fullscreenenter"",""1"",""56809""
","
","
","""event"",""trial"",""time""
""fullscreenenter"",""1"",""56809""
","
",,,,,,,,,,,,"[{""stimulus"":""run_exp/static/images/task_images/dig.jpg"",""time"":0.19999998807907104},{""stimulus"":""run_exp/static/images/task_images/land.jpg"",""time"":989.7999999970198},{""stimulus"":""run_exp/static/images/task_images/dig.jpg"",""time"":1978.8999999910593}]",[],3,,,,,,,,,,,,,,
harvest,122,1506662,0.0-44.0-1.0,"""event"",""trial"",""time""
""fullscreenenter"",""1"",""56809""
","
","
","""event"",""trial"",""time""
""fullscreenenter"",""1"",""56809""
","
",,null,run_exp/static/images/task_images/gems/0.jpg,null,,,,,,,0,,,3,,,,,0,0.403339069,NaN,,,,,,,
decision,123,1508232,0.0-44.0-2.0,"""event"",""trial"",""time""
""fullscreenenter"",""1"",""56809""
","
","
","""event"",""trial"",""time""
""fullscreenenter"",""1"",""56809""
","
",,1565.9,run_exp/static/images/task_images/land.jpg,76,,,,,,,0,,,3,,,,,,,,101517,1,7,TRUE,,,
travel,124,1516677,0.0-45.0-0.0,"""event"",""trial"",""time""
""fullscreenenter"",""1"",""56809""
","
","
","""event"",""trial"",""time""
""fullscreenenter"",""1"",""56809""
","
",,,,,,,,,,,,"[{""stimulus"":""run_exp/static/images/task_images/rocket-01.jpg"",""time"":0.3999999910593033},{""stimulus"":""run_exp/static/images/task_images/rocket-02.jpg"",""time"":939.6999999880791},{""stimulus"":""run_exp/static/images/task_images/rocket-03.jpg"",""time"":1885.5},{""stimulus"":""run_exp/static/images/task_images/rocket-04.jpg"",""time"":2817.2999999970198},{""stimulus"":""run_exp/static/images/task_images/rocket-05.jpg"",""time"":3758.5},{""stimulus"":""run_exp/static/images/task_images/rocket-06.jpg"",""time"":4692},{""stimulus"":""run_exp/static/images/task_images/rocket-07.jpg"",""time"":5624.79999999702},{""stimulus"":""run_exp/static/images/task_images/rocket-08.jpg"",""time"":6566.5999999940395},{""stimulus"":""run_exp/static/images/task_images/rocket-09.jpg"",""time"":7499.699999988079}]",[],3,,,,,,,,,,,,,,
alien_welcome,125,1521683,0.0-45.0-1.0,"""event"",""trial"",""time""
""fullscreenenter"",""1"",""56809""
","
","
","""event"",""trial"",""time""
""fullscreenenter"",""1"",""56809""
","
",,null,run_exp/static/images/task_images/aliens/old_aliens/planet/alien_planet-74.jpg,null,,,,,,,,,,,,,74,"22,32,16,74,61,13,28,75,38,18,78,41,35,65,46,8,24,56,23,42,62,79,15,14,6,57,70,20,49,51,7,31",,,,,,,,,,
land,126,1522192,0.0-45.0-2.0,"""event"",""trial"",""time""
""fullscreenenter"",""1"",""56809""
","
","
","""event"",""trial"",""time""
""fullscreenenter"",""1"",""56809""
","
",,null,run_exp/static/images/task_images/land.jpg,null,,,,,,,100,,,4,,,,,,,,,,,,,,
dig,127,1524198,0.0-45.0-3.0,"""event"",""trial"",""time""
""fullscreenenter"",""1"",""56809""
","
","
","""event"",""trial"",""time""
""fullscreenenter"",""1"",""56809""
","
",,,,,,,,,,,,"[{""stimulus"":""run_exp/static/images/task_images/dig.jpg"",""time"":0.4000000059604645},{""stimulus"":""run_exp/static/images/task_images/land.jpg"",""time"":675.7999999970198},{""stimulus"":""run_exp/static/images/task_images/dig.jpg"",""time"":1348.7999999970198}]",[],4,,,,,,,,,,,,,,
harvest,128,1525204,0.0-45.0-4.0,"""event"",""trial"",""time""
""fullscreenenter"",""1"",""56809""
","
","
","""event"",""trial"",""time""
""fullscreenenter"",""1"",""56809""
","
",,null,run_exp/static/images/task_images/gems/100.jpg,null,,,,,,,53,,,4,,,,,100,0.529508677,0.53,,,,,,,
decision,129,1525287,0.0-45.0-5.0,"""event"",""trial"",""time""
""fullscreenenter"",""1"",""56809""
","
","
","""event"",""trial"",""time""
""fullscreenenter"",""1"",""56809""
","
",,79,run_exp/static/images/task_images/land.jpg,65,,,,,,,53,,,4,,,,,,,,118572,1,0,FALSE,,,
dig,130,1528215,0.0-46.0-0.0,"""event"",""trial"",""time""
""fullscreenenter"",""1"",""56809""
","
","
","""event"",""trial"",""time""
""fullscreenenter"",""1"",""56809""
","
",,,,,,,,,,,,"[{""stimulus"":""run_exp/static/images/task_images/dig.jpg"",""time"":0.30000001192092896},{""stimulus"":""run_exp/static/images/task_images/land.jpg"",""time"":974.7000000029802},{""stimulus"":""run_exp/static/images/task_images/dig.jpg"",""time"":1949.1000000089407}]",[],4,,,,,,,,,,,,,,
harvest,131,1529226,0.0-46.0-1.0,"""event"",""trial"",""time""
""fullscreenenter"",""1"",""56809""
","
","
","""event"",""trial"",""time""
""fullscreenenter"",""1"",""56809""
","
",,null,run_exp/static/images/task_images/gems/53.jpg,null,,,,,,,21,,,4,,,,,53,0.405325966,0.396226415,,,,,,,
decision,132,1529458,0.0-46.0-2.0,"""event"",""trial"",""time""
""fullscreenenter"",""1"",""56809""
","
","
","""event"",""trial"",""time""
""fullscreenenter"",""1"",""56809""
","
",,230.6,run_exp/static/images/task_images/land.jpg,65,,,,,,,21,,,4,,,,,,,,122744,1,1,FALSE,,,
dig,133,1532242,0.0-47.0-0.0,"""event"",""trial"",""time""
""fullscreenenter"",""1"",""56809""
","
","
","""event"",""trial"",""time""
""fullscreenenter"",""1"",""56809""
","
",,,,,,,,,,,,"[{""stimulus"":""run_exp/static/images/task_images/dig.jpg"",""time"":0.3999999910593033},{""stimulus"":""run_exp/static/images/task_images/land.jpg"",""time"":929},{""stimulus"":""run_exp/static/images/task_images/dig.jpg"",""time"":1849.8999999910593}]",[],4,,,,,,,,,,,,,,
harvest,134,1533249,0.0-47.0-1.0,"""event"",""trial"",""time""
""fullscreenenter"",""1"",""56809""
","
","
","""event"",""trial"",""time""
""fullscreenenter"",""1"",""56809""
","
",,null,run_exp/static/images/task_images/gems/21.jpg,null,,,,,,,12,,,4,,,,,21,0.577668223,0.571428571,,,,,,,
decision,135,1533694,0.0-47.0-2.0,"""event"",""trial"",""time""
""fullscreenenter"",""1"",""56809""
","
","
","""event"",""trial"",""time""
""fullscreenenter"",""1"",""56809""
","
",,441.1,run_exp/static/images/task_images/land.jpg,65,,,,,,,12,,,4,,,,,,,,126979,1,2,FALSE,,,
dig,136,1536257,0.0-48.0-0.0,"""event"",""trial"",""time""
""fullscreenenter"",""1"",""56809""
","
","
","""event"",""trial"",""time""
""fullscreenenter"",""1"",""56809""
","
",,,,,,,,,,,,"[{""stimulus"":""run_exp/static/images/task_images/dig.jpg"",""time"":0.09999999403953552},{""stimulus"":""run_exp/static/images/task_images/land.jpg"",""time"":854.7999999970198},{""stimulus"":""run_exp/static/images/task_images/dig.jpg"",""time"":1713.5}]",[],4,,,,,,,,,,,,,,
harvest,137,1537263,0.0-48.0-1.0,"""event"",""trial"",""time""
""fullscreenenter"",""1"",""56809""
","
","
","""event"",""trial"",""time""
""fullscreenenter"",""1"",""56809""
","
",,null,run_exp/static/images/task_images/gems/12.jpg,null,,,,,,,6,,,4,,,,,12,0.531395631,0.5,,,,,,,
decision,138,1538270,0.0-48.0-2.0,"""event"",""trial"",""time""
""fullscreenenter"",""1"",""56809""
","
","
","""event"",""trial"",""time""
""fullscreenenter"",""1"",""56809""
","
",,1002.8,run_exp/static/images/task_images/land.jpg,76,,,,,,,6,,,4,,,,,,,,131555,1,3,TRUE,,,
travel,139,1547277,0.0-49.0-0.0,"""event"",""trial"",""time""
""fullscreenenter"",""1"",""56809""
","
","
","""event"",""trial"",""time""
""fullscreenenter"",""1"",""56809""
","
",,,,,,,,,,,,"[{""stimulus"":""run_exp/static/images/task_images/rocket-01.jpg"",""time"":0.29999999701976776},{""stimulus"":""run_exp/static/images/task_images/rocket-02.jpg"",""time"":1007.7000000029802},{""stimulus"":""run_exp/static/images/task_images/rocket-03.jpg"",""time"":2002.5},{""stimulus"":""run_exp/static/images/task_images/rocket-04.jpg"",""time"":3005.2000000029802},{""stimulus"":""run_exp/static/images/task_images/rocket-05.jpg"",""time"":4001.7999999970198},{""stimulus"":""run_exp/static/images/task_images/rocket-06.jpg"",""time"":5001.600000008941},{""stimulus"":""run_exp/static/images/task_images/rocket-07.jpg"",""time"":5999.5},{""stimulus"":""run_exp/static/images/task_images/rocket-08.jpg"",""time"":7007},{""stimulus"":""run_exp/static/images/task_images/rocket-09.jpg"",""time"":7996.70000000298}]",[],4,,,,,,,,,,,,,,
alien_welcome,140,1552283,0.0-49.0-1.0,"""event"",""trial"",""time""
""fullscreenenter"",""1"",""56809""
","
","
","""event"",""trial"",""time""
""fullscreenenter"",""1"",""56809""
","
",,null,run_exp/static/images/task_images/aliens/old_aliens/planet/alien_planet-61.jpg,null,,,,,,,,,,,,,61,"22,32,16,74,61,13,28,75,38,18,78,41,35,65,46,8,24,56,23,42,62,79,15,14,6,57,70,20,49,51,7,31",,,,,,,,,,
land,141,1552791,0.0-49.0-2.0,"""event"",""trial"",""time""
""fullscreenenter"",""1"",""56809""
","
","
","""event"",""trial"",""time""
""fullscreenenter"",""1"",""56809""
","
",,null,run_exp/static/images/task_images/land.jpg,null,,,,,,,100,,,5,,,,,,,,,,,,,,
dig,142,1554799,0.0-49.0-3.0,"""event"",""trial"",""time""
""fullscreenenter"",""1"",""56809""
","
","
","""event"",""trial"",""time""
""fullscreenenter"",""1"",""56809""
","
",,,,,,,,,,,,"[{""stimulus"":""run_exp/static/images/task_images/dig.jpg"",""time"":0.4000000059604645},{""stimulus"":""run_exp/static/images/task_images/land.jpg"",""time"":674.6000000089407},{""stimulus"":""run_exp/static/images/task_images/dig.jpg"",""time"":1336.1000000089407}]",[],5,,,,,,,,,,,,,,
harvest,143,1555801,0.0-49.0-4.0,"""event"",""trial"",""time""
""fullscreenenter"",""1"",""56809""
","
","
","""event"",""trial"",""time""
""fullscreenenter"",""1"",""56809""
","
",,null,run_exp/static/images/task_images/gems/100.jpg,null,,,,,,,58,,,5,,,,,100,0.575375718,0.58,,,,,,,
decision,144,1556035,0.0-49.0-5.0,"""event"",""trial"",""time""
""fullscreenenter"",""1"",""56809""
","
","
","""event"",""trial"",""time""
""fullscreenenter"",""1"",""56809""
","
",,229.6,run_exp/static/images/task_images/land.jpg,65,,,,,,,58,,,5,,,,,,,,149320,1,0,FALSE,,,
dig,145,1558816,0.0-50.0-0.0,"""event"",""trial"",""time""
""fullscreenenter"",""1"",""56809""
","
","
","""event"",""trial"",""time""
""fullscreenenter"",""1"",""56809""
","
",,,,,,,,,,,,"[{""stimulus"":""run_exp/static/images/task_images/dig.jpg"",""time"":0.29999999701976776},{""stimulus"":""run_exp/static/images/task_images/land.jpg"",""time"":931.7999999970198},{""stimulus"":""run_exp/static/images/task_images/dig.jpg"",""time"":1853.7999999970198}]",[],5,,,,,,,,,,,,,,
harvest,146,1559821,0.0-50.0-1.0,"""event"",""trial"",""time""
""fullscreenenter"",""1"",""56809""
","
","
","""event"",""trial"",""time""
""fullscreenenter"",""1"",""56809""
","
",,null,run_exp/static/images/task_images/gems/58.jpg,null,,,,,,,32,,,5,,,,,58,0.557004078,0.551724138,,,,,,,
decision,147,1560045,0.0-50.0-2.0,"""event"",""trial"",""time""
""fullscreenenter"",""1"",""56809""
","
","
","""event"",""trial"",""time""
""fullscreenenter"",""1"",""56809""
","
",,223.1,run_exp/static/images/task_images/land.jpg,65,,,,,,,32,,,5,,,,,,,,153331,1,1,FALSE,,,
dig,148,1562832,0.0-51.0-0.0,"""event"",""trial"",""time""
""fullscreenenter"",""1"",""56809""
","
","
","""event"",""trial"",""time""
""fullscreenenter"",""1"",""56809""
","
",,,,,,,,,,,,"[{""stimulus"":""run_exp/static/images/task_images/dig.jpg"",""time"":0.4000000059604645},{""stimulus"":""run_exp/static/images/task_images/land.jpg"",""time"":928.5},{""stimulus"":""run_exp/static/images/task_images/dig.jpg"",""time"":1859.4000000059605}]",[],5,,,,,,,,,,,,,,
harvest,149,1563841,0.0-51.0-1.0,"""event"",""trial"",""time""
""fullscreenenter"",""1"",""56809""
","
","
","""event"",""trial"",""time""
""fullscreenenter"",""1"",""56809""
","
",,null,run_exp/static/images/task_images/gems/32.jpg,null,,,,,,,13,,,5,,,,,32,0.419699555,0.40625,,,,,,,
decision,150,1564293,0.0-51.0-2.0,"""event"",""trial"",""time""
""fullscreenenter"",""1"",""56809""
","
","
","""event"",""trial"",""time""
""fullscreenenter"",""1"",""56809""
","
",,449.8,run_exp/static/images/task_images/land.jpg,65,,,,,,,13,,,5,,,,,,,,157578,1,2,FALSE,,,
dig,151,1566847,0.0-52.0-0.0,"""event"",""trial"",""time""
""fullscreenenter"",""1"",""56809""
","
","
","""event"",""trial"",""time""
""fullscreenenter"",""1"",""56809""
","
",,,,,,,,,,,,"[{""stimulus"":""run_exp/static/images/task_images/dig.jpg"",""time"":0.30000001192092896},{""stimulus"":""run_exp/static/images/task_images/land.jpg"",""time"":859.5},{""stimulus"":""run_exp/static/images/task_images/dig.jpg"",""time"":1702.7000000029802}]",[],5,,,,,,,,,,,,,,
harvest,152,1567857,0.0-52.0-1.0,"""event"",""trial"",""time""
""fullscreenenter"",""1"",""56809""
","
","
","""event"",""trial"",""time""
""fullscreenenter"",""1"",""56809""
","
",,null,run_exp/static/images/task_images/gems/13.jpg,null,,,,,,,6,,,5,,,,,13,0.491591076,0.461538462,,,,,,,
decision,153,1568656,0.0-52.0-2.0,"""event"",""trial"",""time""
""fullscreenenter"",""1"",""56809""
","
","
","""event"",""trial"",""time""
""fullscreenenter"",""1"",""56809""
","
",,798,run_exp/static/images/task_images/land.jpg,76,,,,,,,6,,,5,,,,,,,,161941,1,3,TRUE,,,
travel,154,1577865,0.0-53.0-0.0,"""event"",""trial"",""time""
""fullscreenenter"",""1"",""56809""
","
","
","""event"",""trial"",""time""
""fullscreenenter"",""1"",""56809""
","
",,,,,,,,,,,,"[{""stimulus"":""run_exp/static/images/task_images/rocket-01.jpg"",""time"":0.5},{""stimulus"":""run_exp/static/images/task_images/rocket-02.jpg"",""time"":1026.8999999910593},{""stimulus"":""run_exp/static/images/task_images/rocket-03.jpg"",""time"":2050.8999999910593},{""stimulus"":""run_exp/static/images/task_images/rocket-04.jpg"",""time"":3073.7999999970198},{""stimulus"":""run_exp/static/images/task_images/rocket-05.jpg"",""time"":4098.5999999940395},{""stimulus"":""run_exp/static/images/task_images/rocket-06.jpg"",""time"":5111.79999999702},{""stimulus"":""run_exp/static/images/task_images/rocket-07.jpg"",""time"":6138.79999999702},{""stimulus"":""run_exp/static/images/task_images/rocket-08.jpg"",""time"":7155.5},{""stimulus"":""run_exp/static/images/task_images/rocket-09.jpg"",""time"":8178.79999999702}]",[],5,,,,,,,,,,,,,,
alien_welcome,155,1582872,0.0-53.0-1.0,"""event"",""trial"",""time""
""fullscreenenter"",""1"",""56809""
","
","
","""event"",""trial"",""time""
""fullscreenenter"",""1"",""56809""
","
",,null,run_exp/static/images/task_images/aliens/old_aliens/planet/alien_planet-13.jpg,null,,,,,,,,,,,,,13,"22,32,16,74,61,13,28,75,38,18,78,41,35,65,46,8,24,56,23,42,62,79,15,14,6,57,70,20,49,51,7,31",,,,,,,,,,
land,156,1583375,0.0-53.0-2.0,"""event"",""trial"",""time""
""fullscreenenter"",""1"",""56809""
","
","
","""event"",""trial"",""time""
""fullscreenenter"",""1"",""56809""
","
",,null,run_exp/static/images/task_images/land.jpg,null,,,,,,,103,,,6,,,,,,,,,,,,,,
dig,157,1585389,0.0-53.0-3.0,"""event"",""trial"",""time""
""fullscreenenter"",""1"",""56809""
","
","
","""event"",""trial"",""time""
""fullscreenenter"",""1"",""56809""
","
",,,,,,,,,,,,"[{""stimulus"":""run_exp/static/images/task_images/dig.jpg"",""time"":0.4000000059604645},{""stimulus"":""run_exp/static/images/task_images/land.jpg"",""time"":675.7000000029802},{""stimulus"":""run_exp/static/images/task_images/dig.jpg"",""time"":1341.0999999940395}]",[],6,,,,,,,,,,,,,,
harvest,158,1586407,0.0-53.0-4.0,"""event"",""trial"",""time""
""fullscreenenter"",""1"",""56809""
","
","
","""event"",""trial"",""time""
""fullscreenenter"",""1"",""56809""
","
",,null,run_exp/static/images/task_images/gems/103.jpg,null,,,,,,,76,,,6,,,,,103,0.733926074,0.737864078,,,,,,,
decision,159,1587210,0.0-53.0-5.0,"""event"",""trial"",""time""
""fullscreenenter"",""1"",""56809""
","
","
","""event"",""trial"",""time""
""fullscreenenter"",""1"",""56809""
","
",,801.1,run_exp/static/images/task_images/land.jpg,65,,,,,,,76,,,6,,,,,,,,180495,1,0,FALSE,,,
dig,160,1589426,0.0-54.0-0.0,"""event"",""trial"",""time""
""fullscreenenter"",""1"",""56809""
","
","
","""event"",""trial"",""time""
""fullscreenenter"",""1"",""56809""
","
",,,,,,,,,,,,"[{""stimulus"":""run_exp/static/images/task_images/dig.jpg"",""time"":0.20000000298023224},{""stimulus"":""run_exp/static/images/task_images/land.jpg"",""time"":733.2000000029802},{""stimulus"":""run_exp/static/images/task_images/dig.jpg"",""time"":1469.2000000029802}]",[],6,,,,,,,,,,,,,,
harvest,161,1590436,0.0-54.0-1.0,"""event"",""trial"",""time""
""fullscreenenter"",""1"",""56809""
","
","
","""event"",""trial"",""time""
""fullscreenenter"",""1"",""56809""
","
",,null,run_exp/static/images/task_images/gems/76.jpg,null,,,,,,,61,,,6,,,,,76,0.797475278,0.802631579,,,,,,,
decision,162,1590484,0.0-54.0-2.0,"""event"",""trial"",""time""
""fullscreenenter"",""1"",""56809""
","
","
","""event"",""trial"",""time""
""fullscreenenter"",""1"",""56809""
","
",,45.59999999,run_exp/static/images/task_images/land.jpg,65,,,,,,,61,,,6,,,,,,,,183769,1,1,FALSE,,,
dig,163,1593448,0.0-55.0-0.0,"""event"",""trial"",""time""
""fullscreenenter"",""1"",""56809""
","
","
","""event"",""trial"",""time""
""fullscreenenter"",""1"",""56809""
","
",,,,,,,,,,,,"[{""stimulus"":""run_exp/static/images/task_images/dig.jpg"",""time"":0.4000000059604645},{""stimulus"":""run_exp/static/images/task_images/land.jpg"",""time"":988.9000000059605},{""stimulus"":""run_exp/static/images/task_images/dig.jpg"",""time"":1978.7000000029802}]",[],6,,,,,,,,,,,,,,
harvest,164,1594453,0.0-55.0-1.0,"""event"",""trial"",""time""
""fullscreenenter"",""1"",""56809""
","
","
","""event"",""trial"",""time""
""fullscreenenter"",""1"",""56809""
","
",,null,run_exp/static/images/task_images/gems/61.jpg,null,,,,,,,55,,,6,,,,,61,0.906429176,0.901639344,,,,,,,
decision,165,1594904,0.0-55.0-2.0,"""event"",""trial"",""time""
""fullscreenenter"",""1"",""56809""
","
","
","""event"",""trial"",""time""
""fullscreenenter"",""1"",""56809""
","
",,449.4,run_exp/static/images/task_images/land.jpg,65,,,,,,,55,,,6,,,,,,,,188190,1,2,FALSE,,,
dig,166,1597467,0.0-56.0-0.0,"""event"",""trial"",""time""
""fullscreenenter"",""1"",""56809""
","
","
","""event"",""trial"",""time""
""fullscreenenter"",""1"",""56809""
","
",,,,,,,,,,,,"[{""stimulus"":""run_exp/static/images/task_images/dig.jpg"",""time"":0.4000000059604645},{""stimulus"":""run_exp/static/images/task_images/land.jpg"",""time"":855.2000000029802},{""stimulus"":""run_exp/static/images/task_images/dig.jpg"",""time"":1707.2000000029802}]",[],6,,,,,,,,,,,,,,
harvest,167,1598478,0.0-56.0-1.0,"""event"",""trial"",""time""
""fullscreenenter"",""1"",""56809""
","
","
","""event"",""trial"",""time""
""fullscreenenter"",""1"",""56809""
","
",,null,run_exp/static/images/task_images/gems/55.jpg,null,,,,,,,46,,,6,,,,,55,0.83400694,0.836363636,,,,,,,
decision,168,1598485,0.0-56.0-2.0,"""event"",""trial"",""time""
""fullscreenenter"",""1"",""56809""
","
","
","""event"",""trial"",""time""
""fullscreenenter"",""1"",""56809""
","
",,3,run_exp/static/images/task_images/land.jpg,65,,,,,,,46,,,6,,,,,,,,191770,1,3,FALSE,,,
dig,169,1601492,0.0-57.0-0.0,"""event"",""trial"",""time""
""fullscreenenter"",""1"",""56809""
","
","
","""event"",""trial"",""time""
""fullscreenenter"",""1"",""56809""
","
",,,,,,,,,,,,"[{""stimulus"":""run_exp/static/images/task_images/dig.jpg"",""time"":0.4000000059604645},{""stimulus"":""run_exp/static/images/task_images/land.jpg"",""time"":1008.5},{""stimulus"":""run_exp/static/images/task_images/dig.jpg"",""time"":2002.5}]",[],6,,,,,,,,,,,,,,
harvest,170,1602499,0.0-57.0-1.0,"""event"",""trial"",""time""
""fullscreenenter"",""1"",""56809""
","
","
","""event"",""trial"",""time""
""fullscreenenter"",""1"",""56809""
","
",,null,run_exp/static/images/task_images/gems/46.jpg,null,,,,,,,36,,,6,,,,,46,0.784293828,0.782608696,,,,,,,
decision,171,1602531,0.0-57.0-2.0,"""event"",""trial"",""time""
""fullscreenenter"",""1"",""56809""
","
","
","""event"",""trial"",""time""
""fullscreenenter"",""1"",""56809""
","
",,29.09999999,run_exp/static/images/task_images/land.jpg,65,,,,,,,36,,,6,,,,,,,,195816,1,4,FALSE,,,
dig,172,1605512,0.0-58.0-0.0,"""event"",""trial"",""time""
""fullscreenenter"",""1"",""56809""
","
","
","""event"",""trial"",""time""
""fullscreenenter"",""1"",""56809""
","
",,,,,,,,,,,,"[{""stimulus"":""run_exp/static/images/task_images/dig.jpg"",""time"":0.29999999701976776},{""stimulus"":""run_exp/static/images/task_images/land.jpg"",""time"":999.4000000059605},{""stimulus"":""run_exp/static/images/task_images/dig.jpg"",""time"":1989.4000000059605}]",[],6,,,,,,,,,,,,,,
harvest,173,1606523,0.0-58.0-1.0,"""event"",""trial"",""time""
""fullscreenenter"",""1"",""56809""
","
","
","""event"",""trial"",""time""
""fullscreenenter"",""1"",""56809""
","
",,null,run_exp/static/images/task_images/gems/36.jpg,null,,,,,,,30,,,6,,,,,36,0.827674346,0.833333333,,,,,,,
decision,174,1607085,0.0-58.0-2.0,"""event"",""trial"",""time""
""fullscreenenter"",""1"",""56809""
","
","
","""event"",""trial"",""time""
""fullscreenenter"",""1"",""56809""
","
",,558.4,run_exp/static/images/task_images/land.jpg,65,,,,,,,30,,,6,,,,,,,,200370,1,5,FALSE,,,
dig,175,1609533,0.0-59.0-0.0,"""event"",""trial"",""time""
""fullscreenenter"",""1"",""56809""
","
","
","""event"",""trial"",""time""
""fullscreenenter"",""1"",""56809""
","
",,,,,,,,,,,,"[{""stimulus"":""run_exp/static/images/task_images/dig.jpg"",""time"":0.10000000894069672},{""stimulus"":""run_exp/static/images/task_images/land.jpg"",""time"":815.7000000029802},{""stimulus"":""run_exp/static/images/task_images/dig.jpg"",""time"":1633.6000000089407}]",[],6,,,,,,,,,,,,,,
harvest,176,1610538,0.0-59.0-1.0,"""event"",""trial"",""time""
""fullscreenenter"",""1"",""56809""
","
","
","""event"",""trial"",""time""
""fullscreenenter"",""1"",""56809""
","
",,null,run_exp/static/images/task_images/gems/30.jpg,null,,,,,,,25,,,6,,,,,30,0.84599318,0.833333333,,,,,,,
decision,177,1610734,0.0-59.0-2.0,"""event"",""trial"",""time""
""fullscreenenter"",""1"",""56809""
","
","
","""event"",""trial"",""time""
""fullscreenenter"",""1"",""56809""
","
",,191.8,run_exp/static/images/task_images/land.jpg,65,,,,,,,25,,,6,,,,,,,,204019,1,6,FALSE,,,
dig,178,1613555,0.0-60.0-0.0,"""event"",""trial"",""time""
""fullscreenenter"",""1"",""56809""
","
","
","""event"",""trial"",""time""
""fullscreenenter"",""1"",""56809""
","
",,,,,,,,,,,,"[{""stimulus"":""run_exp/static/images/task_images/dig.jpg"",""time"":0.4000000059604645},{""stimulus"":""run_exp/static/images/task_images/land.jpg"",""time"":938},{""stimulus"":""run_exp/static/images/task_images/dig.jpg"",""time"":1884.5}]",[],6,,,,,,,,,,,,,,
harvest,179,1614561,0.0-60.0-1.0,"""event"",""trial"",""time""
""fullscreenenter"",""1"",""56809""
","
","
","""event"",""trial"",""time""
""fullscreenenter"",""1"",""56809""
","
",,null,run_exp/static/images/task_images/gems/25.jpg,null,,,,,,,20,,,6,,,,,25,0.816639701,0.8,,,,,,,
decision,180,1615529,0.0-60.0-2.0,"""event"",""trial"",""time""
""fullscreenenter"",""1"",""56809""
","
","
","""event"",""trial"",""time""
""fullscreenenter"",""1"",""56809""
","
",,961.8,run_exp/static/images/task_images/land.jpg,76,,,,,,,20,,,6,,,,,,,,208814,1,7,TRUE,,,
travel,181,1624583,0.0-61.0-0.0,"""event"",""trial"",""time""
""fullscreenenter"",""1"",""56809""
","
","
","""event"",""trial"",""time""
""fullscreenenter"",""1"",""56809""
","
",,,,,,,,,,,,"[{""stimulus"":""run_exp/static/images/task_images/rocket-01.jpg"",""time"":0.4000000059604645},{""stimulus"":""run_exp/static/images/task_images/rocket-02.jpg"",""time"":1008.4000000059605},{""stimulus"":""run_exp/static/images/task_images/rocket-03.jpg"",""time"":2012.5},{""stimulus"":""run_exp/static/images/task_images/rocket-04.jpg"",""time"":3020.4000000059605},{""stimulus"":""run_exp/static/images/task_images/rocket-05.jpg"",""time"":4020.6000000089407},{""stimulus"":""run_exp/static/images/task_images/rocket-06.jpg"",""time"":5023.600000008941},{""stimulus"":""run_exp/static/images/task_images/rocket-07.jpg"",""time"":6031.300000011921},{""stimulus"":""run_exp/static/images/task_images/rocket-08.jpg"",""time"":7034.5},{""stimulus"":""run_exp/static/images/task_images/rocket-09.jpg"",""time"":8043.20000000298}]",[],6,,,,,,,,,,,,,,
alien_welcome,182,1629588,0.0-61.0-1.0,"""event"",""trial"",""time""
""fullscreenenter"",""1"",""56809""
","
","
","""event"",""trial"",""time""
""fullscreenenter"",""1"",""56809""
","
",,null,run_exp/static/images/task_images/aliens/old_aliens/planet/alien_planet-28.jpg,null,,,,,,,,,,,,,28,"22,32,16,74,61,13,28,75,38,18,78,41,35,65,46,8,24,56,23,42,62,79,15,14,6,57,70,20,49,51,7,31",,,,,,,,,,
land,183,1630091,0.0-61.0-2.0,"""event"",""trial"",""time""
""fullscreenenter"",""1"",""56809""
","
","
","""event"",""trial"",""time""
""fullscreenenter"",""1"",""56809""
","
",,null,run_exp/static/images/task_images/land.jpg,null,,,,,,,100,,,7,,,,,,,,,,,,,,
dig,184,1632103,0.0-61.0-3.0,"""event"",""trial"",""time""
""fullscreenenter"",""1"",""56809""
","
","
","""event"",""trial"",""time""
""fullscreenenter"",""1"",""56809""
","
",,,,,,,,,,,,"[{""stimulus"":""run_exp/static/images/task_images/dig.jpg"",""time"":0.5999999940395355},{""stimulus"":""run_exp/static/images/task_images/land.jpg"",""time"":669.2999999970198},{""stimulus"":""run_exp/static/images/task_images/dig.jpg"",""time"":1340.7000000029802}]",[],7,,,,,,,,,,,,,,
harvest,185,1633106,0.0-61.0-4.0,"""event"",""trial"",""time""
""fullscreenenter"",""1"",""56809""
","
","
","""event"",""trial"",""time""
""fullscreenenter"",""1"",""56809""
","
",,null,run_exp/static/images/task_images/gems/100.jpg,null,,,,,,,81,,,7,,,,,100,0.810380282,0.81,,,,,,,
decision,186,1633642,0.0-61.0-5.0,"""event"",""trial"",""time""
""fullscreenenter"",""1"",""56809""
","
","
","""event"",""trial"",""time""
""fullscreenenter"",""1"",""56809""
","
",,533.7,run_exp/static/images/task_images/land.jpg,65,,,,,,,81,,,7,,,,,,,,226927,1,0,FALSE,,,
dig,187,1636118,0.0-62.0-0.0,"""event"",""trial"",""time""
""fullscreenenter"",""1"",""56809""
","
","
","""event"",""trial"",""time""
""fullscreenenter"",""1"",""56809""
","
",,,,,,,,,,,,"[{""stimulus"":""run_exp/static/images/task_images/dig.jpg"",""time"":0.5},{""stimulus"":""run_exp/static/images/task_images/land.jpg"",""time"":826.2000000029802},{""stimulus"":""run_exp/static/images/task_images/dig.jpg"",""time"":1658.7999999970198}]",[],7,,,,,,,,,,,,,,
harvest,188,1637132,0.0-62.0-1.0,"""event"",""trial"",""time""
""fullscreenenter"",""1"",""56809""
","
","
","""event"",""trial"",""time""
""fullscreenenter"",""1"",""56809""
","
",,null,run_exp/static/images/task_images/gems/81.jpg,null,,,,,,,63,,,7,,,,,81,0.77940697,0.777777778,,,,,,,
decision,189,1638513,0.0-62.0-2.0,"""event"",""trial"",""time""
""fullscreenenter"",""1"",""56809""
","
","
","""event"",""trial"",""time""
""fullscreenenter"",""1"",""56809""
","
",,1377.8,run_exp/static/images/task_images/land.jpg,65,,,,,,,63,,,7,,,,,,,,231798,1,1,FALSE,,,
dig,190,1640143,0.0-63.0-0.0,"""event"",""trial"",""time""
""fullscreenenter"",""1"",""56809""
","
","
","""event"",""trial"",""time""
""fullscreenenter"",""1"",""56809""
","
",,,,,,,,,,,,"[{""stimulus"":""run_exp/static/images/task_images/dig.jpg"",""time"":0.20000000298023224},{""stimulus"":""run_exp/static/images/task_images/land.jpg"",""time"":544.2000000029802},{""stimulus"":""run_exp/static/images/task_images/dig.jpg"",""time"":1095.2000000029802}]",[],7,,,,,,,,,,,,,,
harvest,191,1641160,0.0-63.0-1.0,"""event"",""trial"",""time""
""fullscreenenter"",""1"",""56809""
","
","
","""event"",""trial"",""time""
""fullscreenenter"",""1"",""56809""
","
",,null,run_exp/static/images/task_images/gems/63.jpg,null,,,,,,,54,,,7,,,,,63,0.853858779,0.857142857,,,,,,,
decision,192,1641693,0.0-63.0-2.0,"""event"",""trial"",""time""
""fullscreenenter"",""1"",""56809""
","
","
","""event"",""trial"",""time""
""fullscreenenter"",""1"",""56809""
","
",,528.9,run_exp/static/images/task_images/land.jpg,65,,,,,,,54,,,7,,,,,,,,234979,1,2,FALSE,,,
dig,193,1644186,0.0-64.0-0.0,"""event"",""trial"",""time""
""fullscreenenter"",""1"",""56809""
","
","
","""event"",""trial"",""time""
""fullscreenenter"",""1"",""56809""
","
",,,,,,,,,,,,"[{""stimulus"":""run_exp/static/images/task_images/dig.jpg"",""time"":0.29999999701976776},{""stimulus"":""run_exp/static/images/task_images/land.jpg"",""time"":827.2000000029802},{""stimulus"":""run_exp/static/images/task_images/dig.jpg"",""time"":1653.0999999940395}]",[],7,,,,,,,,,,,,,,
harvest,194,1645195,0.0-64.0-1.0,"""event"",""trial"",""time""
""fullscreenenter"",""1"",""56809""
","
","
","""event"",""trial"",""time""
""fullscreenenter"",""1"",""56809""
","
",,null,run_exp/static/images/task_images/gems/54.jpg,null,,,,,,,47,,,7,,,,,54,0.864715708,0.87037037,,,,,,,
decision,195,1645255,0.0-64.0-2.0,"""event"",""trial"",""time""
""fullscreenenter"",""1"",""56809""
","
","
","""event"",""trial"",""time""
""fullscreenenter"",""1"",""56809""
","
",,56,run_exp/static/images/task_images/land.jpg,65,,,,,,,47,,,7,,,,,,,,238540,1,3,FALSE,,,
dig,196,1648208,0.0-65.0-0.0,"""event"",""trial"",""time""
""fullscreenenter"",""1"",""56809""
","
","
","""event"",""trial"",""time""
""fullscreenenter"",""1"",""56809""
","
",,,,,,,,,,,,"[{""stimulus"":""run_exp/static/images/task_images/dig.jpg"",""time"":0.29999999701976776},{""stimulus"":""run_exp/static/images/task_images/land.jpg"",""time"":983.1000000089407},{""stimulus"":""run_exp/static/images/task_images/dig.jpg"",""time"":1964.2999999970198}]",[],7,,,,,,,,,,,,,,
harvest,197,1649214,0.0-65.0-1.0,"""event"",""trial"",""time""
""fullscreenenter"",""1"",""56809""
","
","
","""event"",""trial"",""time""
""fullscreenenter"",""1"",""56809""
","
",,null,run_exp/static/images/task_images/gems/47.jpg,null,,,,,,,33,,,7,,,,,47,0.701553514,0.70212766,,,,,,,
decision,198,1649327,0.0-65.0-2.0,"""event"",""trial"",""time""
""fullscreenenter"",""1"",""56809""
","
","
","""event"",""trial"",""time""
""fullscreenenter"",""1"",""56809""
","
",,110,run_exp/static/images/task_images/land.jpg,65,,,,,,,33,,,7,,,,,,,,242612,1,4,FALSE,,,
dig,199,1652228,0.0-66.0-0.0,"""event"",""trial"",""time""
""fullscreenenter"",""1"",""56809""
","
","
","""event"",""trial"",""time""
""fullscreenenter"",""1"",""56809""
","
",,,,,,,,,,,,"[{""stimulus"":""run_exp/static/images/task_images/dig.jpg"",""time"":0.29999999701976776},{""stimulus"":""run_exp/static/images/task_images/land.jpg"",""time"":970.5999999940395},{""stimulus"":""run_exp/static/images/task_images/dig.jpg"",""time"":1927.5}]",[],7,,,,,,,,,,,,,,
harvest,200,1653238,0.0-66.0-1.0,"""event"",""trial"",""time""
""fullscreenenter"",""1"",""56809""
","
","
","""event"",""trial"",""time""
""fullscreenenter"",""1"",""56809""
","
",,null,run_exp/static/images/task_images/gems/33.jpg,null,,,,,,,26,,,7,,,,,33,0.776613278,0.787878788,,,,,,,
decision,201,1653699,0.0-66.0-2.0,"""event"",""trial"",""time""
""fullscreenenter"",""1"",""56809""
","
","
","""event"",""trial"",""time""
""fullscreenenter"",""1"",""56809""
","
",,459.5,run_exp/static/images/task_images/land.jpg,65,,,,,,,26,,,7,,,,,,,,246985,1,5,FALSE,,,
dig,202,1656254,0.0-67.0-0.0,"""event"",""trial"",""time""
""fullscreenenter"",""1"",""56809""
","
","
","""event"",""trial"",""time""
""fullscreenenter"",""1"",""56809""
","
",,,,,,,,,,,,"[{""stimulus"":""run_exp/static/images/task_images/dig.jpg"",""time"":0.5},{""stimulus"":""run_exp/static/images/task_images/land.jpg"",""time"":852},{""stimulus"":""run_exp/static/images/task_images/dig.jpg"",""time"":1697.5}]",[],7,,,,,,,,,,,,,,
harvest,203,1657264,0.0-67.0-1.0,"""event"",""trial"",""time""
""fullscreenenter"",""1"",""56809""
","
","
","""event"",""trial"",""time""
""fullscreenenter"",""1"",""56809""
","
",,null,run_exp/static/images/task_images/gems/26.jpg,null,,,,,,,21,,,7,,,,,26,0.823705276,0.807692308,,,,,,,
decision,204,1657380,0.0-67.0-2.0,"""event"",""trial"",""time""
""fullscreenenter"",""1"",""56809""
","
","
","""event"",""trial"",""time""
""fullscreenenter"",""1"",""56809""
","
",,111.2,run_exp/static/images/task_images/land.jpg,65,,,,,,,21,,,7,,,,,,,,250665,1,6,FALSE,,,
dig,205,1660277,0.0-68.0-0.0,"""event"",""trial"",""time""
""fullscreenenter"",""1"",""56809""
","
","
","""event"",""trial"",""time""
""fullscreenenter"",""1"",""56809""
","
",,,,,,,,,,,,"[{""stimulus"":""run_exp/static/images/task_images/dig.jpg"",""time"":0.4000000059604645},{""stimulus"":""run_exp/static/images/task_images/land.jpg"",""time"":965.0999999940395},{""stimulus"":""run_exp/static/images/task_images/dig.jpg"",""time"":1934.0999999940395}]",[],7,,,,,,,,,,,,,,
harvest,206,1661282,0.0-68.0-1.0,"""event"",""trial"",""time""
""fullscreenenter"",""1"",""56809""
","
","
","""event"",""trial"",""time""
""fullscreenenter"",""1"",""56809""
","
",,null,run_exp/static/images/task_images/gems/21.jpg,null,,,,,,,18,,,7,,,,,21,0.851867166,0.857142857,,,,,,,
decision,207,1662621,0.0-68.0-2.0,"""event"",""trial"",""time""
""fullscreenenter"",""1"",""56809""
","
","
","""event"",""trial"",""time""
""fullscreenenter"",""1"",""56809""
","
",,1334.8,run_exp/static/images/task_images/land.jpg,65,,,,,,,18,,,7,,,,,,,,255906,1,7,FALSE,,,
dig,208,1664300,0.0-69.0-0.0,"""event"",""trial"",""time""
""fullscreenenter"",""1"",""56809""
","
","
","""event"",""trial"",""time""
""fullscreenenter"",""1"",""56809""
","
",,,,,,,,,,,,"[{""stimulus"":""run_exp/static/images/task_images/dig.jpg"",""time"":0.4000000059604645},{""stimulus"":""run_exp/static/images/task_images/land.jpg"",""time"":558.2000000029802},{""stimulus"":""run_exp/static/images/task_images/dig.jpg"",""time"":1112.300000011921}]",[],7,,,,,,,,,,,,,,
harvest,209,1665305,0.0-69.0-1.0,"""event"",""trial"",""time""
""fullscreenenter"",""1"",""56809""
","
","
","""event"",""trial"",""time""
""fullscreenenter"",""1"",""56809""
","
",,null,run_exp/static/images/task_images/gems/18.jpg,null,,,,,,,16,,,7,,,,,18,0.879449238,0.888888889,,,,,,,
decision,210,1666586,0.0-69.0-2.0,"""event"",""trial"",""time""
""fullscreenenter"",""1"",""56809""
","
","
","""event"",""trial"",""time""
""fullscreenenter"",""1"",""56809""
","
",,1276.9,run_exp/static/images/task_images/land.jpg,65,,,,,,,16,,,7,,,,,,,,259871,1,8,FALSE,,,
dig,211,1668316,0.0-70.0-0.0,"""event"",""trial"",""time""
""fullscreenenter"",""1"",""56809""
","
","
","""event"",""trial"",""time""
""fullscreenenter"",""1"",""56809""
","
",,,,,,,,,,,,"[{""stimulus"":""run_exp/static/images/task_images/dig.jpg"",""time"":0},{""stimulus"":""run_exp/static/images/task_images/land.jpg"",""time"":578.5},{""stimulus"":""run_exp/static/images/task_images/dig.jpg"",""time"":1150.2000000029802}]",[],7,,,,,,,,,,,,,,
harvest,212,1669319,0.0-70.0-1.0,"""event"",""trial"",""time""
""fullscreenenter"",""1"",""56809""
","
","
","""event"",""trial"",""time""
""fullscreenenter"",""1"",""56809""
","
",,null,run_exp/static/images/task_images/gems/16.jpg,null,,,,,,,13,,,7,,,,,16,0.79270202,0.8125,,,,,,,
decision,213,1670197,0.0-70.0-2.0,"""event"",""trial"",""time""
""fullscreenenter"",""1"",""56809""
","
","
","""event"",""trial"",""time""
""fullscreenenter"",""1"",""56809""
","
",,873.8,run_exp/static/images/task_images/land.jpg,65,,,,,,,13,,,7,,,,,,,,263482,1,9,FALSE,,,
dig,214,1672335,0.0-71.0-0.0,"""event"",""trial"",""time""
""fullscreenenter"",""1"",""56809""
","
","
","""event"",""trial"",""time""
""fullscreenenter"",""1"",""56809""
","
",,,,,,,,,,,,"[{""stimulus"":""run_exp/static/images/task_images/dig.jpg"",""time"":0.29999999701976776},{""stimulus"":""run_exp/static/images/task_images/land.jpg"",""time"":709.5999999940395},{""stimulus"":""run_exp/static/images/task_images/dig.jpg"",""time"":1421.7999999970198}]",[],7,,,,,,,,,,,,,,
harvest,215,1673340,0.0-71.0-1.0,"""event"",""trial"",""time""
""fullscreenenter"",""1"",""56809""
","
","
","""event"",""trial"",""time""
""fullscreenenter"",""1"",""56809""
","
",,null,run_exp/static/images/task_images/gems/13.jpg,null,,,,,,,11,,,7,,,,,13,0.868089197,0.846153846,,,,,,,
decision,216,1673771,0.0-71.0-2.0,"""event"",""trial"",""time""
""fullscreenenter"",""1"",""56809""
","
","
","""event"",""trial"",""time""
""fullscreenenter"",""1"",""56809""
","
",,426.4,run_exp/static/images/task_images/land.jpg,65,,,,,,,11,,,7,,,,,,,,267056,1,10,FALSE,,,
dig,217,1676358,0.0-72.0-0.0,"""event"",""trial"",""time""
""fullscreenenter"",""1"",""56809""
","
","
","""event"",""trial"",""time""
""fullscreenenter"",""1"",""56809""
","
",,,,,,,,,,,,"[{""stimulus"":""run_exp/static/images/task_images/dig.jpg"",""time"":0.4000000059604645},{""stimulus"":""run_exp/static/images/task_images/land.jpg"",""time"":858.9000000059605},{""stimulus"":""run_exp/static/images/task_images/dig.jpg"",""time"":1717.6000000089407}]",[],7,,,,,,,,,,,,,,
harvest,218,1677366,0.0-72.0-1.0,"""event"",""trial"",""time""
""fullscreenenter"",""1"",""56809""
","
","
","""event"",""trial"",""time""
""fullscreenenter"",""1"",""56809""
","
",,null,run_exp/static/images/task_images/gems/11.jpg,null,,,,,,,8,,,7,,,,,11,0.748776129,0.727272727,,,,,,,
decision,219,1677564,0.0-72.0-2.0,"""event"",""trial"",""time""
""fullscreenenter"",""1"",""56809""
","
","
","""event"",""trial"",""time""
""fullscreenenter"",""1"",""56809""
","
",,194.8,run_exp/static/images/task_images/land.jpg,65,,,,,,,8,,,7,,,,,,,,270850,1,11,FALSE,,,
dig,220,1680380,0.0-73.0-0.0,"""event"",""trial"",""time""
""fullscreenenter"",""1"",""56809""
","
","
","""event"",""trial"",""time""
""fullscreenenter"",""1"",""56809""
","
",,,,,,,,,,,,"[{""stimulus"":""run_exp/static/images/task_images/dig.jpg"",""time"":0.4000000059604645},{""stimulus"":""run_exp/static/images/task_images/land.jpg"",""time"":941.7999999970198},{""stimulus"":""run_exp/static/images/task_images/dig.jpg"",""time"":1879.4000000059605}]",[],7,,,,,,,,,,,,,,
harvest,221,1681388,0.0-73.0-1.0,"""event"",""trial"",""time""
""fullscreenenter"",""1"",""56809""
","
","
","""event"",""trial"",""time""
""fullscreenenter"",""1"",""56809""
","
",,null,run_exp/static/images/task_images/gems/8.jpg,null,,,,,,,6,,,7,,,,,8,0.80473847,0.75,,,,,,,
decision,222,1681890,0.0-73.0-2.0,"""event"",""trial"",""time""
""fullscreenenter"",""1"",""56809""
","
","
","""event"",""trial"",""time""
""fullscreenenter"",""1"",""56809""
","
",,497.8,run_exp/static/images/task_images/land.jpg,76,,,,,,,6,,,7,,,,,,,,275176,1,12,TRUE,,,
travel,223,1691400,0.0-74.0-0.0,"""event"",""trial"",""time""
""fullscreenenter"",""1"",""56809""
","
","
","""event"",""trial"",""time""
""fullscreenenter"",""1"",""56809""
","
",,,,,,,,,,,,"[{""stimulus"":""run_exp/static/images/task_images/rocket-01.jpg"",""time"":0.29999999701976776},{""stimulus"":""run_exp/static/images/task_images/rocket-02.jpg"",""time"":1069.199999988079},{""stimulus"":""run_exp/static/images/task_images/rocket-03.jpg"",""time"":2114.0999999940395},{""stimulus"":""run_exp/static/images/task_images/rocket-04.jpg"",""time"":3171.2999999970198},{""stimulus"":""run_exp/static/images/task_images/rocket-05.jpg"",""time"":4224.5999999940395},{""stimulus"":""run_exp/static/images/task_images/rocket-06.jpg"",""time"":5282.79999999702},{""stimulus"":""run_exp/static/images/task_images/rocket-07.jpg"",""time"":6347.5999999940395},{""stimulus"":""run_exp/static/images/task_images/rocket-08.jpg"",""time"":7391.699999988079},{""stimulus"":""run_exp/static/images/task_images/rocket-09.jpg"",""time"":8453.39999999106}]",[],7,,,,,,,,,,,,,,
alien_welcome,224,1696407,0.0-74.0-1.0,"""event"",""trial"",""time""
""fullscreenenter"",""1"",""56809""
","
","
","""event"",""trial"",""time""
""fullscreenenter"",""1"",""56809""
","
",,null,run_exp/static/images/task_images/aliens/old_aliens/planet/alien_planet-75.jpg,null,,,,,,,,,,,,,75,"22,32,16,74,61,13,28,75,38,18,78,41,35,65,46,8,24,56,23,42,62,79,15,14,6,57,70,20,49,51,7,31",,,,,,,,,,
land,225,1696908,0.0-74.0-2.0,"""event"",""trial"",""time""
""fullscreenenter"",""1"",""56809""
","
","
","""event"",""trial"",""time""
""fullscreenenter"",""1"",""56809""
","
",,null,run_exp/static/images/task_images/land.jpg,null,,,,,,,101,,,8,,,,,,,,,,,,,,
dig,226,1698915,0.0-74.0-3.0,"""event"",""trial"",""time""
""fullscreenenter"",""1"",""56809""
","
","
","""event"",""trial"",""time""
""fullscreenenter"",""1"",""56809""
","
",,,,,,,,,,,,"[{""stimulus"":""run_exp/static/images/task_images/dig.jpg"",""time"":0.5},{""stimulus"":""run_exp/static/images/task_images/land.jpg"",""time"":669.2999999970198},{""stimulus"":""run_exp/static/images/task_images/dig.jpg"",""time"":1338.0999999940395}]",[],8,,,,,,,,,,,,,,
harvest,227,1699918,0.0-74.0-4.0,"""event"",""trial"",""time""
""fullscreenenter"",""1"",""56809""
","
","
","""event"",""trial"",""time""
""fullscreenenter"",""1"",""56809""
","
",,null,run_exp/static/images/task_images/gems/101.jpg,null,,,,,,,83,,,8,,,,,101,0.821493889,0.821782178,,,,,,,
decision,228,1700025,0.0-74.0-5.0,"""event"",""trial"",""time""
""fullscreenenter"",""1"",""56809""
","
","
","""event"",""trial"",""time""
""fullscreenenter"",""1"",""56809""
","
",,103.1,run_exp/static/images/task_images/land.jpg,65,,,,,,,83,,,8,,,,,,,,293310,1,0,FALSE,,,
dig,229,1702933,0.0-75.0-0.0,"""event"",""trial"",""time""
""fullscreenenter"",""1"",""56809""
","
","
","""event"",""trial"",""time""
""fullscreenenter"",""1"",""56809""
","
",,,,,,,,,,,,"[{""stimulus"":""run_exp/static/images/task_images/dig.jpg"",""time"":0.3999999910593033},{""stimulus"":""run_exp/static/images/task_images/land.jpg"",""time"":974.5999999940395},{""stimulus"":""run_exp/static/images/task_images/dig.jpg"",""time"":1935.699999988079}]",[],8,,,,,,,,,,,,,,
harvest,230,1703942,0.0-75.0-1.0,"""event"",""trial"",""time""
""fullscreenenter"",""1"",""56809""
","
","
","""event"",""trial"",""time""
""fullscreenenter"",""1"",""56809""
","
",,null,run_exp/static/images/task_images/gems/83.jpg,null,,,,,,,72,,,8,,,,,83,0.870317816,0.86746988,,,,,,,
decision,231,1704769,0.0-75.0-2.0,"""event"",""trial"",""time""
""fullscreenenter"",""1"",""56809""
","
","
","""event"",""trial"",""time""
""fullscreenenter"",""1"",""56809""
","
",,823.2,run_exp/static/images/task_images/land.jpg,65,,,,,,,72,,,8,,,,,,,,298054,1,1,FALSE,,,
dig,232,1706955,0.0-76.0-0.0,"""event"",""trial"",""time""
""fullscreenenter"",""1"",""56809""
","
","
","""event"",""trial"",""time""
""fullscreenenter"",""1"",""56809""
","
",,,,,,,,,,,,"[{""stimulus"":""run_exp/static/images/task_images/dig.jpg"",""time"":0.29999999701976776},{""stimulus"":""run_exp/static/images/task_images/land.jpg"",""time"":732.2000000029802},{""stimulus"":""run_exp/static/images/task_images/dig.jpg"",""time"":1453}]",[],8,,,,,,,,,,,,,,
harvest,233,1707963,0.0-76.0-1.0,"""event"",""trial"",""time""
""fullscreenenter"",""1"",""56809""
","
","
","""event"",""trial"",""time""
""fullscreenenter"",""1"",""56809""
","
",,null,run_exp/static/images/task_images/gems/72.jpg,null,,,,,,,57,,,8,,,,,72,0.789872,0.791666667,,,,,,,
decision,234,1708065,0.0-76.0-2.0,"""event"",""trial"",""time""
""fullscreenenter"",""1"",""56809""
","
","
","""event"",""trial"",""time""
""fullscreenenter"",""1"",""56809""
","
",,98.40000001,run_exp/static/images/task_images/land.jpg,65,,,,,,,57,,,8,,,,,,,,301351,1,2,TRUE,,,
end_of_block_continue,235,1714913,0.0-77.0-0.0,"""event"",""trial"",""time""
""fullscreenenter"",""1"",""56809""
""blur"",""236"",""1717586""
""focus"",""236"",""1717590""
","""event"",""trial"",""time""
""blur"",""236"",""1717586""
","""event"",""trial"",""time""
""focus"",""236"",""1717590""
","""event"",""trial"",""time""
""fullscreenenter"",""1"",""56809""
","
",,6840.1,run_exp/static/audio/clip_32_block_end.m4a,,,,,,,0,,,,,,,,,,,,,,,,,,
alien_welcome,236,1719925,0.0-78.0-0.0,"""event"",""trial"",""time""
""fullscreenenter"",""1"",""56809""
""blur"",""236"",""1717586""
""focus"",""236"",""1717590""
","""event"",""trial"",""time""
""blur"",""236"",""1717586""
","""event"",""trial"",""time""
""focus"",""236"",""1717590""
","""event"",""trial"",""time""
""fullscreenenter"",""1"",""56809""
","
",,null,run_exp/static/images/task_images/aliens/old_aliens/planet/alien_planet-38.jpg,null,,,,,,,,,,,,,38,"22,32,16,74,61,13,28,75,38,18,78,41,35,65,46,8,24,56,23,42,62,79,15,14,6,57,70,20,49,51,7,31",,,,,,,,,,
land,237,1720430,0.0-78.0-1.0,"""event"",""trial"",""time""
""fullscreenenter"",""1"",""56809""
""blur"",""236"",""1717586""
""focus"",""236"",""1717590""
","""event"",""trial"",""time""
""blur"",""236"",""1717586""
","""event"",""trial"",""time""
""focus"",""236"",""1717590""
","""event"",""trial"",""time""
""fullscreenenter"",""1"",""56809""
","
",,null,run_exp/static/images/task_images/land.jpg,null,,,,,,,104,,,9,,,,,,,,,,,,,,
dig,238,1722437,0.0-78.0-2.0,"""event"",""trial"",""time""
""fullscreenenter"",""1"",""56809""
""blur"",""236"",""1717586""
""focus"",""236"",""1717590""
","""event"",""trial"",""time""
""blur"",""236"",""1717586""
","""event"",""trial"",""time""
""focus"",""236"",""1717590""
","""event"",""trial"",""time""
""fullscreenenter"",""1"",""56809""
","
",,,,,,,,,,,,"[{""stimulus"":""run_exp/static/images/task_images/dig.jpg"",""time"":0.4000000059604645},{""stimulus"":""run_exp/static/images/task_images/land.jpg"",""time"":673.7999999970198},{""stimulus"":""run_exp/static/images/task_images/dig.jpg"",""time"":1339.7000000029802}]",[],9,,,,,,,,,,,,,,
harvest,239,1723442,0.0-78.0-3.0,"""event"",""trial"",""time""
""fullscreenenter"",""1"",""56809""
""blur"",""236"",""1717586""
""focus"",""236"",""1717590""
","""event"",""trial"",""time""
""blur"",""236"",""1717586""
","""event"",""trial"",""time""
""focus"",""236"",""1717590""
","""event"",""trial"",""time""
""fullscreenenter"",""1"",""56809""
","
",,null,run_exp/static/images/task_images/gems/104.jpg,null,,,,,,,26,,,9,,,,,104,0.247410051,0.25,,,,,,,
decision,240,1725694,0.0-78.0-4.0,"""event"",""trial"",""time""
""fullscreenenter"",""1"",""56809""
""blur"",""236"",""1717586""
""focus"",""236"",""1717590""
","""event"",""trial"",""time""
""blur"",""236"",""1717586""
","""event"",""trial"",""time""
""focus"",""236"",""1717590""
","""event"",""trial"",""time""
""fullscreenenter"",""1"",""56809""
","
",,2248.1,run_exp/static/images/task_images/land.jpg,65,,,,,,,26,,,9,,,,,,,,10777,2,0,FALSE,,,
dig,241,1726457,0.0-79.0-0.0,"""event"",""trial"",""time""
""fullscreenenter"",""1"",""56809""
""blur"",""236"",""1717586""
""focus"",""236"",""1717590""
","""event"",""trial"",""time""
""blur"",""236"",""1717586""
","""event"",""trial"",""time""
""focus"",""236"",""1717590""
","""event"",""trial"",""time""
""fullscreenenter"",""1"",""56809""
","
",,,,,,,,,,,,"[{""stimulus"":""run_exp/static/images/task_images/dig.jpg"",""time"":0.3999999910593033},{""stimulus"":""run_exp/static/images/task_images/land.jpg"",""time"":259.8999999910593},{""stimulus"":""run_exp/static/images/task_images/dig.jpg"",""time"":505.3999999910593}]",[],9,,,,,,,,,,,,,,
harvest,242,1727465,0.0-79.0-1.0,"""event"",""trial"",""time""
""fullscreenenter"",""1"",""56809""
""blur"",""236"",""1717586""
""focus"",""236"",""1717590""
","""event"",""trial"",""time""
""blur"",""236"",""1717586""
","""event"",""trial"",""time""
""focus"",""236"",""1717590""
","""event"",""trial"",""time""
""fullscreenenter"",""1"",""56809""
","
",,null,run_exp/static/images/task_images/gems/26.jpg,null,,,,,,,5,,,9,,,,,26,0.184107064,0.192307692,,,,,,,
decision,243,1727814,0.0-79.0-2.0,"""event"",""trial"",""time""
""fullscreenenter"",""1"",""56809""
""blur"",""236"",""1717586""
""focus"",""236"",""1717590""
","""event"",""trial"",""time""
""blur"",""236"",""1717586""
","""event"",""trial"",""time""
""focus"",""236"",""1717590""
","""event"",""trial"",""time""
""fullscreenenter"",""1"",""56809""
","
",,344.6,run_exp/static/images/task_images/land.jpg,65,,,,,,,5,,,9,,,,,,,,12897,2,1,FALSE,,,
dig,244,1730482,0.0-80.0-0.0,"""event"",""trial"",""time""
""fullscreenenter"",""1"",""56809""
""blur"",""236"",""1717586""
""focus"",""236"",""1717590""
","""event"",""trial"",""time""
""blur"",""236"",""1717586""
","""event"",""trial"",""time""
""focus"",""236"",""1717590""
","""event"",""trial"",""time""
""fullscreenenter"",""1"",""56809""
","
",,,,,,,,,,,,"[{""stimulus"":""run_exp/static/images/task_images/dig.jpg"",""time"":0.4000000059604645},{""stimulus"":""run_exp/static/images/task_images/land.jpg"",""time"":893.0999999940395},{""stimulus"":""run_exp/static/images/task_images/dig.jpg"",""time"":1786.9000000059605}]",[],9,,,,,,,,,,,,,,
harvest,245,1731489,0.0-80.0-1.0,"""event"",""trial"",""time""
""fullscreenenter"",""1"",""56809""
""blur"",""236"",""1717586""
""focus"",""236"",""1717590""
","""event"",""trial"",""time""
""blur"",""236"",""1717586""
","""event"",""trial"",""time""
""focus"",""236"",""1717590""
","""event"",""trial"",""time""
""fullscreenenter"",""1"",""56809""
","
",,null,run_exp/static/images/task_images/gems/5.jpg,null,,,,,,,1,,,9,,,,,5,0.175320184,0.2,,,,,,,
decision,246,1732325,0.0-80.0-2.0,"""event"",""trial"",""time""
""fullscreenenter"",""1"",""56809""
""blur"",""236"",""1717586""
""focus"",""236"",""1717590""
","""event"",""trial"",""time""
""blur"",""236"",""1717586""
","""event"",""trial"",""time""
""focus"",""236"",""1717590""
","""event"",""trial"",""time""
""fullscreenenter"",""1"",""56809""
","
",,828.8,run_exp/static/images/task_images/land.jpg,65,,,,,,,1,,,9,,,,,,,,17408,2,2,FALSE,,,
dig,247,1734509,0.0-81.0-0.0,"""event"",""trial"",""time""
""fullscreenenter"",""1"",""56809""
""blur"",""236"",""1717586""
""focus"",""236"",""1717590""
","""event"",""trial"",""time""
""blur"",""236"",""1717586""
","""event"",""trial"",""time""
""focus"",""236"",""1717590""
","""event"",""trial"",""time""
""fullscreenenter"",""1"",""56809""
","
",,,,,,,,,,,,"[{""stimulus"":""run_exp/static/images/task_images/dig.jpg"",""time"":0.30000001192092896},{""stimulus"":""run_exp/static/images/task_images/land.jpg"",""time"":729.7000000029802},{""stimulus"":""run_exp/static/images/task_images/dig.jpg"",""time"":1447.800000011921}]",[],9,,,,,,,,,,,,,,
harvest,248,1735511,0.0-81.0-1.0,"""event"",""trial"",""time""
""fullscreenenter"",""1"",""56809""
""blur"",""236"",""1717586""
""focus"",""236"",""1717590""
","""event"",""trial"",""time""
""blur"",""236"",""1717586""
","""event"",""trial"",""time""
