trial_type,trial_index,time_elapsed,internal_node_id,success,rt,stimulus,key_press,prompt,subject_id,age,gender,button_pressed,next_reward,animation_sequence,responses,planet,curr_prac_trial,n_prac_rounds,alien,aliens,reward_received,decay_rate_actual,decay_rate_exp,time_in_block,block_num,prt,last_trial_on_planet,button_html,bonus,num_failures
pavlovia,0,4,0.0-0.0,,,,,,,,,,,,,,,,,,,,,,,,,,,
fullscreen,1,7987,0.0-1.0,TRUE,,,,,,,,,,,,,,,,,,,,,,,,,,
instruc_welcome,2,17717,0.0-2.0,,null,run_exp/static/audio/clip_1_welcome.m4a,null,"<p>Howdy! In this experiment, you’ll be an explorer traveling through space to collect space treasure.</p><p>Your mission is to collect as much treasure as possible.</p><br><br><p><img src='run_exp/static/images/task_images/opening_img-01.jpg' height='300' width='auto'></p>",yLNyOKoVGca8bOH_a5Ke5UddwllDBGZ_MLRP_6P5Zk5jSBoeZESq,11.59,female,,,,,,,,,,,,,,,,,,,
audio-keyboard-response,3,34292,0.0-3.0,,null,run_exp/static/audio/clip_2_move.m4a,null,,,,,,,,,,,,,,,,,,,,,,,
welcome_dec,4,37945,0.0-4.0,,3651.185,"<p>Howdy! In this experiment, you’ll be an explorer traveling through space to collect space treasure.</p><p>Your mission is to collect as much treasure as possible.</p><br><br><p><img src='run_exp/static/images/task_images/opening_img-01.jpg' height='300' width='auto'></p>",,,,,,1,,,,,,,,,,,,,,,,,,
html-keyboard-response,5,44964,0.0-5.0,,7017.16,"<p>Howdy! In this experiment, you’ll be an explorer traveling through space to collect space treasure.</p><p>Your mission is to collect as much treasure as possible.</p><br><br><p><img src='run_exp/static/images/task_images/opening_img-01.jpg' height='300' width='auto'></p><button class=""jspsych-html-btn-unchosen""><img src=""run_exp/static/images/task_images/planet-01.jpg"" height=""50""></button><button class=""jspsych-html-btn-chosen""><img src=""run_exp/static/images/task_images/planet-02.jpg"" height=""50""></button><p><b>[press the space bar to lock in your answer]<b><br></p>",32,,,,,,,,,,,,,,,,,,,,,,,
instruc_goal,6,54985,0.0-6.0-0.0,,null,run_exp/static/audio/clip_3_goal.m4a,null,"<p> As a space explorer, you’ll visit different planets to dig for space treasure, these pink gems.</p> <p> The more treasure you dig up, the more bonus money you’ll win! </p><br><br><p><img src='run_exp/static/images/task_images/pink_gem.jpg' height='300' width='auto'></p>",,,,,,,,,,,,,,,,,,,,,,
instruc_goal,7,56203,0.0-6.0-1.0,,1215.865,"<p> As a space explorer, you’ll visit different planets to dig for space treasure, these pink gems.</p> <p> The more treasure you dig up, the more bonus money you’ll win! </p><br><br><p><img src='run_exp/static/images/task_images/pink_gem.jpg' height='300' width='auto'></p>",,,,,,1,,,,,,,,,,,,,,,,,,
html-keyboard-response,8,57115,0.0-6.0-2.0,,910.655,"<p> As a space explorer, you’ll visit different planets to dig for space treasure, these pink gems.</p> <p> The more treasure you dig up, the more bonus money you’ll win! </p><br><br><p><img src='run_exp/static/images/task_images/pink_gem.jpg' height='300' width='auto'></p><button class=""jspsych-html-btn-unchosen""><img src=""run_exp/static/images/task_images/planet-01.jpg"" height=""50""></button><button class=""jspsych-html-btn-chosen""><img src=""run_exp/static/images/task_images/planet-02.jpg"" height=""50""></button><p><b>[press the space bar to lock in your answer]<b><br></p>",32,,,,,,,,,,,,,,,,,,,,,,,
instruc_dig,9,73119,0.0-7.0-0.0,,null,run_exp/static/audio/clip_4_dig.m4a,null,,,,,,100,,,,,,,,,,,,,,,,,
instruc_dig_try,10,73250,0.0-7.0-1.0,,129.78,"<p> When you’ve arrived at a new planet, you will dig once. </p> <p>Then, you get to decide if you want to stay on the planet and dig again or travel to a new planet and dig there.</p> <p> To stay and dig, press the letter <strong>‘A’</strong> on your keyboard. Try pressing it now! </p><p><img src='run_exp/static/images/task_images/land.jpg'  height='700' width='auto'></p>",65,"<p> When you’ve arrived at a new planet, you will dig once. </p> <p>Then, you get to decide if you want to stay on the planet and dig again or travel to a new planet and dig there.</p> <p> To stay and dig, press the letter <strong>‘A’</strong> on your keyboard. Try pressing it now! </p><p><img src='run_exp/static/images/task_images/land.jpg'  height='700' width='auto'></p>",,,,,100,,,,,,,,,,,,,,,,,
dig_prac,11,75272,0.0-7.0-2.0,,,,,,,,,,,"[{""stimulus"":""run_exp/static/images/task_images/dig.jpg"",""time"":0.24499999993713573},{""stimulus"":""run_exp/static/images/task_images/land.jpg"",""time"":685.3149999999441},{""stimulus"":""run_exp/static/images/task_images/dig.jpg"",""time"":1357.274999999965}]",[],,,,,,,,,,,,,,,
instruc_travel,12,111498,0.0-7.0-3.0,,null,run_exp/static/audio/clip_5_travel.m4a,null,"<p>Every time you dig up gems, there are less gems on the planet, so the more you dig on a planet the fewer gems you’ll get with each dig.</p><p>When gems are running low, you may want to travel to a new planet. </p> <p>  Planets are very far apart in this galaxy, so it will take some time to travel between them. </p> <br><p>There are lots and lots of planets for you to visit, so you won’t be able to return to any planets you’ve seen before. </p><br><p>To leave this planet and travel to a new one, press the letter <strong>‘L’</strong> on your keyboard. Try pressing it now! </p><p><img src='run_exp/static/images/task_images/rocket-01.jpg'  height='600' width='auto'></p>",,,,,,,,,,,,,,,,,,,,,,
instruc_travel_try,13,116588,0.0-7.0-4.0,,5089.17,"<p>Every time you dig up gems, there are less gems on the planet, so the more you dig on a planet the fewer gems you’ll get with each dig.</p><p>When gems are running low, you may want to travel to a new planet. </p> <p>  Planets are very far apart in this galaxy, so it will take some time to travel between them. </p> <br><p>There are lots and lots of planets for you to visit, so you won’t be able to return to any planets you’ve seen before. </p><br><p>To leave this planet and travel to a new one, press the letter <strong>‘L’</strong> on your keyboard. Try pressing it now! </p><p><img src='run_exp/static/images/task_images/rocket-01.jpg'  height='600' width='auto'></p>",76,"<p>Every time you dig up gems, there are less gems on the planet, so the more you dig on a planet the fewer gems you’ll get with each dig.</p><p>When gems are running low, you may want to travel to a new planet. </p> <p>  Planets are very far apart in this galaxy, so it will take some time to travel between them. </p> <br><p>There are lots and lots of planets for you to visit, so you won’t be able to return to any planets you’ve seen before. </p><br><p>To leave this planet and travel to a new one, press the letter <strong>‘L’</strong> on your keyboard. Try pressing it now! </p><p><img src='run_exp/static/images/task_images/rocket-01.jpg'  height='600' width='auto'></p>",,,,,,,,,,,,,,,,,,,,,,
travel_prac,14,126590,0.0-7.0-5.0,,,,,,,,,,,"[{""stimulus"":""run_exp/static/images/task_images/rocket-01.jpg"",""time"":0.19500000000698492},{""stimulus"":""run_exp/static/images/task_images/rocket-02.jpg"",""time"":1115.274999999965},{""stimulus"":""run_exp/static/images/task_images/rocket-03.jpg"",""time"":2224.8400000000256},{""stimulus"":""run_exp/static/images/task_images/rocket-04.jpg"",""time"":3351.435000000056},{""stimulus"":""run_exp/static/images/task_images/rocket-05.jpg"",""time"":4452.674999999988},{""stimulus"":""run_exp/static/images/task_images/rocket-06.jpg"",""time"":5573.690000000002},{""stimulus"":""run_exp/static/images/task_images/rocket-07.jpg"",""time"":6668.415000000037},{""stimulus"":""run_exp/static/images/task_images/rocket-08.jpg"",""time"":7792.395000000019},{""stimulus"":""run_exp/static/images/task_images/rocket-09.jpg"",""time"":8891.320000000007}]",[],0,,,,,,,,,,,,,,
instruc_alien_greet,15,153781,0.0-7.0-6.0,,null,run_exp/static/audio/clip_6_alien.m4a,null,"<p>When you arrive at a new planet, the alien who owns the treasure mine on that planet will greet you!</p><p>The better an alien takes care of their mine the easier it is to dig for gems. Some aliens take better care of their mine than others. So, you won’t get exactly the same amount of gems on each planet.</p><p>What the alien looks like does not tell you anything about how many gems there are on the planet.</p><br><p><img src=""run_exp/static/images/task_images/aliens/instructions_aliens/planet/alien_planet-1.jpg""  height=""600"" width=""auto""></p>",,,,,,,,,,,,,,,,,,,,,,
instruc_alien_greet,16,155732,0.0-7.0-7.0,,1949.79,"<p>When you arrive at a new planet, the alien who owns the treasure mine on that planet will greet you!</p><p>The better an alien takes care of their mine the easier it is to dig for gems. Some aliens take better care of their mine than others. So, you won’t get exactly the same amount of gems on each planet.</p><p>What the alien looks like does not tell you anything about how many gems there are on the planet.</p><br><p><img src=""run_exp/static/images/task_images/aliens/instructions_aliens/planet/alien_planet-1.jpg""  height=""600"" width=""auto""></p>",,,,,,1,,,,,,,,,,,,,,,,,,
html-keyboard-response,17,159061,0.0-7.0-8.0,,3328.04,"<p>When you arrive at a new planet, the alien who owns the treasure mine on that planet will greet you!</p><p>The better an alien takes care of their mine the easier it is to dig for gems. Some aliens take better care of their mine than others. So, you won’t get exactly the same amount of gems on each planet.</p><p>What the alien looks like does not tell you anything about how many gems there are on the planet.</p><br><p><img src=""run_exp/static/images/task_images/aliens/instructions_aliens/planet/alien_planet-1.jpg""  height=""600"" width=""auto""></p><button class=""jspsych-html-btn-unchosen""><img src=""run_exp/static/images/task_images/planet-01.jpg"" height=""50""></button><button class=""jspsych-html-btn-chosen""><img src=""run_exp/static/images/task_images/planet-02.jpg"" height=""50""></button><p><b>[press the space bar to lock in your answer]<b><br></p>",32,,,,,,,,,,,,,,,,,,,,,,,
time_out,18,170143,0.0-8.0-0.0,,null,run_exp/static/audio/clip_7_timeout.m4a,null,"<p>If you don't make your choice fast enough, you’ll have to wait a few seconds before you can make another one.</p><p>You can’t dig for more gems or travel to new planets. You just have to sit and wait.</p><br><p><img src='run_exp/static/images/task_images/time_out.jpg'  height='600' width='auto'></p>",,,,,,,,,,,,,,,,,,,,,,
time_out,19,171730,0.0-8.0-1.0,,1585.665,"<p>If you don't make your choice fast enough, you’ll have to wait a few seconds before you can make another one.</p><p>You can’t dig for more gems or travel to new planets. You just have to sit and wait.</p><br><p><img src='run_exp/static/images/task_images/time_out.jpg'  height='600' width='auto'></p>",,,,,,1,,,,,,,,,,,,,,,,,,
html-keyboard-response,20,172272,0.0-8.0-2.0,,540.455,"<p>If you don't make your choice fast enough, you’ll have to wait a few seconds before you can make another one.</p><p>You can’t dig for more gems or travel to new planets. You just have to sit and wait.</p><br><p><img src='run_exp/static/images/task_images/time_out.jpg'  height='600' width='auto'></p><button class=""jspsych-html-btn-unchosen""><img src=""run_exp/static/images/task_images/planet-01.jpg"" height=""50""></button><button class=""jspsych-html-btn-chosen""><img src=""run_exp/static/images/task_images/planet-02.jpg"" height=""50""></button><p><b>[press the space bar to lock in your answer]<b><br></p>",32,,,,,,,,,,,,,,,,,,,,,,,
instruc_break,21,187935,0.0-9.0-0.0,,null,run_exp/static/audio/clip_8_break.m4a,null,"<p> After digging and traveling for a while, you’ll be able to take a break at home base. </p><p>The game will last 20 minutes no matter what.</p><p>You will visit home base every 5 minutes, so, you will visit home base three times during the game.</p><br><p><img src='run_exp/static/images/task_images/home_base.jpg' height='600' width='auto'></p>",,,,,,,,,,,,,,,,,,,,,,
instruc_break,22,189451,0.0-9.0-1.0,,1514.77,"<p> After digging and traveling for a while, you’ll be able to take a break at home base. </p><p>The game will last 20 minutes no matter what.</p><p>You will visit home base every 5 minutes, so, you will visit home base three times during the game.</p><br><p><img src='run_exp/static/images/task_images/home_base.jpg' height='600' width='auto'></p>",,,,,,1,,,,,,,,,,,,,,,,,,
html-keyboard-response,23,189972,0.0-9.0-2.0,,518.825,"<p> After digging and traveling for a while, you’ll be able to take a break at home base. </p><p>The game will last 20 minutes no matter what.</p><p>You will visit home base every 5 minutes, so, you will visit home base three times during the game.</p><br><p><img src='run_exp/static/images/task_images/home_base.jpg' height='600' width='auto'></p><button class=""jspsych-html-btn-unchosen""><img src=""run_exp/static/images/task_images/planet-01.jpg"" height=""50""></button><button class=""jspsych-html-btn-chosen""><img src=""run_exp/static/images/task_images/planet-02.jpg"" height=""50""></button><p><b>[press the space bar to lock in your answer]<b><br></p>",32,,,,,,,,,,,,,,,,,,,,,,,
instruc_prac_game,24,200095,0.0-10.0-0.0,,null,run_exp/static/audio/clip_9_practice.m4a,null,"<p> Are you ready to play a practice game? </p> <p>In this practice game, you'll be digging up barrels of gems. But, in the real game, you'll be digging up the gems themselves. </p>",,,,,,,,,,,,,,,,,,,,,,
html-button-response,25,201152,0.0-10.0-1.0,,1056.47,"<p> Are you ready to play a practice game? </p> <p>In this practice game, you'll be digging up barrels of gems. But, in the real game, you'll be digging up the gems themselves. </p>",,,,,,0,,,,,,,,,,,,,,,,,,
alien_welcome_prac,26,206163,0.0-11.0-0.0,,null,run_exp/static/images/task_images/aliens/practice_aliens/planet/alien_planet-5.jpg,null,,,,,,,,,,,,,,,,,,,,,,,
land_prac,27,206675,0.0-11.0-1.0,,null,run_exp/static/images/task_images/land.jpg,null,,,,,,102,,,0,,,,,,,,,,,,,,
dig_prac,28,208680,0.0-11.0-2.0,,,,,,,,,,,"[{""stimulus"":""run_exp/static/images/task_images/dig.jpg"",""time"":0.17999999999301508},{""stimulus"":""run_exp/static/images/task_images/land.jpg"",""time"":681.320000000007},{""stimulus"":""run_exp/static/images/task_images/dig.jpg"",""time"":1343.695000000007}]",[],,,,,,,,,,,,,,,
harvest_prac,29,209694,0.0-11.0-3.0,,null,run_exp/static/images/task_images/barrel_text.jpg,null,,,,,,,,,,,,,,,,,,,,,,,
decision_prac,30,210560,0.0-11.0-4.0,,864.95,run_exp/static/images/task_images/land.jpg,65,,,,,,,,,,1,,,,,,,,,,,,,
dig_prac,31,212574,0.0-12.0-0.0,,,,,,,,,,,"[{""stimulus"":""run_exp/static/images/task_images/dig.jpg"",""time"":0.11499999999068677},{""stimulus"":""run_exp/static/images/task_images/land.jpg"",""time"":688.5050000000047},{""stimulus"":""run_exp/static/images/task_images/dig.jpg"",""time"":1339.054999999993}]",[],,,,,,,,,,,,,,,
harvest_prac,32,213575,0.0-12.0-1.0,,null,run_exp/static/images/task_images/barrel_text.jpg,null,,,,,,,,,,,,,,,,,,,,,,,
decision_prac,33,213778,0.0-12.0-2.0,,201.54,run_exp/static/images/task_images/land.jpg,65,,,,,,,,,,2,,,,,,,,,,,,,
dig_prac,34,215791,0.0-13.0-0.0,,,,,,,,,,,"[{""stimulus"":""run_exp/static/images/task_images/dig.jpg"",""time"":0.1499999999650754},{""stimulus"":""run_exp/static/images/task_images/land.jpg"",""time"":671.3250000000116},{""stimulus"":""run_exp/static/images/task_images/dig.jpg"",""time"":1335.265000000014}]",[],,,,,,,,,,,,,,,
harvest_prac,35,216809,0.0-13.0-1.0,,null,run_exp/static/images/task_images/barrel_text.jpg,null,,,,,,,,,,,,,,,,,,,,,,,
decision_prac,36,219320,0.0-13.0-2.0,,2509.595,run_exp/static/images/task_images/land.jpg,65,,,,,,,,,,3,,,,,,,,,,,,,
dig_prac,37,221342,0.0-14.0-0.0,,,,,,,,,,,"[{""stimulus"":""run_exp/static/images/task_images/dig.jpg"",""time"":0.12500000005820766},{""stimulus"":""run_exp/static/images/task_images/land.jpg"",""time"":673.3550000000396},{""stimulus"":""run_exp/static/images/task_images/dig.jpg"",""time"":1339.3300000000163}]",[],,,,,,,,,,,,,,,
harvest_prac,38,222355,0.0-14.0-1.0,,null,run_exp/static/images/task_images/barrel_text.jpg,null,,,,,,,,,,,,,,,,,,,,,,,
decision_prac,39,222956,0.0-14.0-2.0,,599.02,run_exp/static/images/task_images/land.jpg,65,,,,,,,,,,4,,,,,,,,,,,,,
dig_prac,40,224980,0.0-15.0-0.0,,,,,,,,,,,"[{""stimulus"":""run_exp/static/images/task_images/dig.jpg"",""time"":0.11999999999534339},{""stimulus"":""run_exp/static/images/task_images/land.jpg"",""time"":676.7999999999884},{""stimulus"":""run_exp/static/images/task_images/dig.jpg"",""time"":1348.8349999999627}]",[],,,,,,,,,,,,,,,
harvest_prac,41,225993,0.0-15.0-1.0,,null,run_exp/static/images/task_images/barrel_text.jpg,null,,,,,,,,,,,,,,,,,,,,,,,
decision_prac,42,225997,0.0-15.0-2.0,,2.44,run_exp/static/images/task_images/land.jpg,65,,,,,,,,,,,1,,,,,,,,,,,,
quiz_instruc,43,228740,0.0-16.0-0.0,,2740.425,run_exp/static/audio/clip_10_quiz.m4a,,,,,,0,,,,,,,,,,,,,,,,,,
instruc_repeat,44,271497,0.0-16.0-1.0,,null,"<p> Are you ready to play a practice game? </p> <p>In this practice game, you'll be digging up barrels of gems. But, in the real game, you'll be digging up the gems themselves. </p>",null,"<p>In this game, your goal is to collect as many gems as you can. That’s how you will win bonus money. </p> <p>The entire game will last 20 minutes no matter how many gems you collect or how many planets you visit. </p><p>To stay on a planet and dig again, press the letter A on your keyboard. To leave for a new planet, press the letter L.</p><p>The more you dig on a planet, the fewer gems you’ll get with each dig which is why you might consider leaving for a new planet. </p><p>When you arrive at a new planet, you’ll be greeted by an alien. What the alien looks like does not tell you anything about how much treasure is on the planet. </p>",,,,,,,,,,,,,,,,,,,,,,
instruc_repeat_continue,45,272336,0.0-16.0-2.0,,837.92,"<p> Are you ready to play a practice game? </p> <p>In this practice game, you'll be digging up barrels of gems. But, in the real game, you'll be digging up the gems themselves. </p>",,,,,,0,,,,,,,,,,,,,,,,,,
quiz_q_1_ask,46,274788,0.0-16.0-3.0,,2450.79,run_exp/static/audio/clip_11_q1_ask.m4a,,,,,,2,,,,,,,,,,,,,,,,,,
quiz_q_1_fb_correct,47,278623,0.0-17.0-0.0,,null,run_exp/static/audio/clip_12_q1_corrrect.m4a,null,<p>That’s correct. You win extra money by collecting more gems.</p>,,,,,,,,,,,,,,,,,,,,,,
quiz_q_2_ask,48,280523,0.0-17.0-1.0,,1898.095,run_exp/static/audio/clip_14_q2_ask.m4a,,,,,,1,,,,,,,,,,,,,,,,,,
quiz_q_2_fb_correct,49,284533,0.0-18.0-0.0,,null,run_exp/static/audio/clip_15_q2_correct.m4a,null,<p>That’s correct. The experiment is 20 minutes no matter what.</p>,,,,,,,,,,,,,,,,,,,,,,
quiz_q_3_ask,50,286424,0.0-18.0-1.0,,1889.82,run_exp/static/audio/clip_17_q3_ask.m4a,,,,,,1,,,,,,,,,,,,,,,,,,
quiz_q_3_fb_correct,51,290399,0.0-19.0-0.0,,null,run_exp/static/audio/clip_18_q3_correct.m4a,null,<p> That’s correct. You press the letter L to travel to a new planet.</p>,,,,,,,,,,,,,,,,,,,,,,
quiz_q_4_ask,52,295064,0.0-19.0-1.0,,4664.015,run_exp/static/audio/clip_20_q4_ask.m4a,,,,,,0,,,,,,,,,,,,,,,,,,
quiz_q_4_fb_correct,53,300383,0.0-20.0-0.0,,null,run_exp/static/audio/clip_21_q4_correct.m4a,null,<p> That’s correct. The more you dig on a planet the fewer gems you’ll get with each dig. </p>,,,,,,,,,,,,,,,,,,,,,,
quiz_q_5_ask,54,302849,0.0-20.0-1.0,,2464.27,run_exp/static/audio/clip_23_q5_ask.m4a,,,,,,1,,,,,,,,,,,,,,,,,,
quiz_q_5_fb_correct,55,307850,0.0-21.0-0.0,,null,run_exp/static/audio/clip_24_q5_correct.m4a,null,<p> That’s correct. The alien tells you nothing about how much treasure is on the planet.</p>,,,,,,,,,,,,,,,,,,,,,,
quiz_correct,56,311306,0.0-22.0-0.0,,null,run_exp/static/audio/clip_26_correct_quiz.m4a,null,,,,,,,,,,,,,,,,,,,,,,,
quiz_correct_continue,57,312822,0.0-22.0-1.0,,1515.315,<p>Good job! You're now ready to move on to the real game!</p>,,,,,,0,,,,,,,,,,,,,,,,,,
audio-keyboard-response,58,322932,0.0-22.0-2.0,,null,run_exp/static/audio/clip_28_real_game.m4a,null,,,,,,,,,,,,,,,,,,,,,,,
instruc_begin_exp_contine,59,323816,0.0-22.0-3.0,,883.01,"<p>Now that you know how  to dig for space treasure and travel to new planets,you can start exploring! </p><p>Do you want to go over the instructions again or get started with the real game?</p>",,,,,,1,,,,,,1,,,,,,,,,,,,
alien_welcome,60,328841,0.0-23.0-0.0,,null,run_exp/static/images/task_images/aliens/old_aliens/planet/alien_planet-75.jpg,null,,,,,,,,,,,,75,"75,30,46,73,8,22,47,12,70,21,33,69,65,67,56,3,34,48,5,53,4,9,59,38,51,7,26,58,29,28,54,1,55,40,20,6,27,72,74",,,,,,,,,,
land,61,329343,0.0-23.0-1.0,,null,run_exp/static/images/task_images/land.jpg,null,,,,,,102,,,1,,,,,,,,,,,,,,
dig,62,331347,0.0-23.0-2.0,,,,,,,,,,,"[{""stimulus"":""run_exp/static/images/task_images/dig.jpg"",""time"":0.17999999993480742},{""stimulus"":""run_exp/static/images/task_images/land.jpg"",""time"":668.5249999999069},{""stimulus"":""run_exp/static/images/task_images/dig.jpg"",""time"":1341.5050000000047}]",[],1,,,,,,,,,,,,,,
harvest,63,332361,0.0-23.0-3.0,,null,run_exp/static/images/task_images/gems/102.jpg,null,,,,,,21,,,1,,,,,102,0.203679371,0.205882353,,,,,,,
decision,64,334199,0.0-23.0-4.0,,1836.57,run_exp/static/images/task_images/land.jpg,65,,,,,,21,,,1,,,,,,,,10381,1,0,FALSE,,,
dig,65,335379,0.0-24.0-0.0,,,,,,,,,,,"[{""stimulus"":""run_exp/static/images/task_images/dig.jpg"",""time"":0.15000000002328306},{""stimulus"":""run_exp/static/images/task_images/land.jpg"",""time"":408.9899999999907},{""stimulus"":""run_exp/static/images/task_images/dig.jpg"",""time"":790.0850000000792}]",[],1,,,,,,,,,,,,,,
harvest,66,336382,0.0-24.0-1.0,,null,run_exp/static/images/task_images/gems/21.jpg,null,,,,,,5,,,1,,,,,21,0.253003823,0.238095238,,,,,,,
decision,67,337411,0.0-24.0-2.0,,1027.615,run_exp/static/images/task_images/land.jpg,65,,,,,,5,,,1,,,,,,,,13593,1,1,FALSE,,,
dig,68,339389,0.0-25.0-0.0,,,,,,,,,,,"[{""stimulus"":""run_exp/static/images/task_images/dig.jpg"",""time"":0.11000000010244548},{""stimulus"":""run_exp/static/images/task_images/land.jpg"",""time"":664.4250000000466},{""stimulus"":""run_exp/static/images/task_images/dig.jpg"",""time"":1336.3400000000838}]",[],1,,,,,,,,,,,,,,
harvest,69,340403,0.0-25.0-1.0,,null,run_exp/static/images/task_images/gems/5.jpg,null,,,,,,1,,,1,,,,,5,0.16972837,0.2,,,,,,,
decision,70,341514,0.0-25.0-2.0,,1110.06,run_exp/static/images/task_images/land.jpg,76,,,,,,1,,,1,,,,,,,,17697,1,2,TRUE,,,
travel,71,350419,0.0-26.0-0.0,,,,,,,,,,,"[{""stimulus"":""run_exp/static/images/task_images/rocket-01.jpg"",""time"":0.12000000011175871},{""stimulus"":""run_exp/static/images/task_images/rocket-02.jpg"",""time"":992.5200000000186},{""stimulus"":""run_exp/static/images/task_images/rocket-03.jpg"",""time"":1979.7700000000186},{""stimulus"":""run_exp/static/images/task_images/rocket-04.jpg"",""time"":2981.935000000056},{""stimulus"":""run_exp/static/images/task_images/rocket-05.jpg"",""time"":3953.320000000065},{""stimulus"":""run_exp/static/images/task_images/rocket-06.jpg"",""time"":4955.2050000000745},{""stimulus"":""run_exp/static/images/task_images/rocket-07.jpg"",""time"":5936.510000000009},{""stimulus"":""run_exp/static/images/task_images/rocket-08.jpg"",""time"":6918.20000000007},{""stimulus"":""run_exp/static/images/task_images/rocket-09.jpg"",""time"":7910.475000000093}]",[],1,,,,,,,,,,,,,,
alien_welcome,72,355432,0.0-26.0-1.0,,null,run_exp/static/images/task_images/aliens/old_aliens/planet/alien_planet-30.jpg,null,,,,,,,,,,,,30,"75,30,46,73,8,22,47,12,70,21,33,69,65,67,56,3,34,48,5,53,4,9,59,38,51,7,26,58,29,28,54,1,55,40,20,6,27,72,74",,,,,,,,,,
land,73,355944,0.0-26.0-2.0,,null,run_exp/static/images/task_images/land.jpg,null,,,,,,95,,,2,,,,,,,,,,,,,,
dig,74,357949,0.0-26.0-3.0,,,,,,,,,,,"[{""stimulus"":""run_exp/static/images/task_images/dig.jpg"",""time"":0.24999999988358468},{""stimulus"":""run_exp/static/images/task_images/land.jpg"",""time"":682.0100000000093},{""stimulus"":""run_exp/static/images/task_images/dig.jpg"",""time"":1343.6599999999162}]",[],2,,,,,,,,,,,,,,
harvest,75,358974,0.0-26.0-4.0,,null,run_exp/static/images/task_images/gems/95.jpg,null,,,,,,14,,,2,,,,,95,0.149107556,0.147368421,,,,,,,
decision,76,359382,0.0-26.0-5.0,,407.44,run_exp/static/images/task_images/land.jpg,65,,,,,,14,,,2,,,,,,,,35564,1,0,FALSE,,,
dig,77,361992,0.0-27.0-0.0,,,,,,,,,,,"[{""stimulus"":""run_exp/static/images/task_images/dig.jpg"",""time"":0.18499999993946403},{""stimulus"":""run_exp/static/images/task_images/land.jpg"",""time"":866.1449999999022},{""stimulus"":""run_exp/static/images/task_images/dig.jpg"",""time"":1732.4249999998137}]",[],2,,,,,,,,,,,,,,
harvest,78,363005,0.0-27.0-1.0,,null,run_exp/static/images/task_images/gems/14.jpg,null,,,,,,3,,,2,,,,,14,0.227222016,0.214285714,,,,,,,
decision,79,364265,0.0-27.0-2.0,,1258.26,run_exp/static/images/task_images/land.jpg,76,,,,,,3,,,2,,,,,,,,40448,1,1,TRUE,,,
travel,80,373010,0.0-28.0-0.0,,,,,,,,,,,"[{""stimulus"":""run_exp/static/images/task_images/rocket-01.jpg"",""time"":0.14500000013504177},{""stimulus"":""run_exp/static/images/task_images/rocket-02.jpg"",""time"":976.645000000135},{""stimulus"":""run_exp/static/images/task_images/rocket-03.jpg"",""time"":1958.1400000001304},{""stimulus"":""run_exp/static/images/task_images/rocket-04.jpg"",""time"":2928.865000000107},{""stimulus"":""run_exp/static/images/task_images/rocket-05.jpg"",""time"":3887.045000000042},{""stimulus"":""run_exp/static/images/task_images/rocket-06.jpg"",""time"":4859.550000000047},{""stimulus"":""run_exp/static/images/task_images/rocket-07.jpg"",""time"":5841.060000000056},{""stimulus"":""run_exp/static/images/task_images/rocket-08.jpg"",""time"":6801.355000000098},{""stimulus"":""run_exp/static/images/task_images/rocket-09.jpg"",""time"":7776.45000000007}]",[],2,,,,,,,,,,,,,,
alien_welcome,81,378014,0.0-28.0-1.0,,null,run_exp/static/images/task_images/aliens/old_aliens/planet/alien_planet-46.jpg,null,,,,,,,,,,,,46,"75,30,46,73,8,22,47,12,70,21,33,69,65,67,56,3,34,48,5,53,4,9,59,38,51,7,26,58,29,28,54,1,55,40,20,6,27,72,74",,,,,,,,,,
land,82,378537,0.0-28.0-2.0,,null,run_exp/static/images/task_images/land.jpg,null,,,,,,98,,,3,,,,,,,,,,,,,,
dig,83,380562,0.0-28.0-3.0,,,,,,,,,,,"[{""stimulus"":""run_exp/static/images/task_images/dig.jpg"",""time"":0.17999999993480742},{""stimulus"":""run_exp/static/images/task_images/land.jpg"",""time"":675.2249999999767},{""stimulus"":""run_exp/static/images/task_images/dig.jpg"",""time"":1341.4949999999953}]",[],3,,,,,,,,,,,,,,
harvest,84,381565,0.0-28.0-4.0,,null,run_exp/static/images/task_images/gems/98.jpg,null,,,,,,54,,,3,,,,,98,0.555746081,0.551020408,,,,,,,
decision,85,381915,0.0-28.0-5.0,,348.87,run_exp/static/images/task_images/land.jpg,65,,,,,,54,,,3,,,,,,,,58097,1,0,FALSE,,,
dig,86,384584,0.0-29.0-0.0,,,,,,,,,,,"[{""stimulus"":""run_exp/static/images/task_images/dig.jpg"",""time"":0.2449999999953434},{""stimulus"":""run_exp/static/images/task_images/land.jpg"",""time"":895.0350000000326},{""stimulus"":""run_exp/static/images/task_images/dig.jpg"",""time"":1769.9400000000605}]",[],3,,,,,,,,,,,,,,
harvest,87,385586,0.0-29.0-1.0,,null,run_exp/static/images/task_images/gems/54.jpg,null,,,,,,26,,,3,,,,,54,0.477625766,0.481481481,,,,,,,
decision,88,386851,0.0-29.0-2.0,,1263.965,run_exp/static/images/task_images/land.jpg,65,,,,,,26,,,3,,,,,,,,63034,1,1,FALSE,,,
dig,89,388595,0.0-30.0-0.0,,,,,,,,,,,"[{""stimulus"":""run_exp/static/images/task_images/dig.jpg"",""time"":0.11999999999534339},{""stimulus"":""run_exp/static/images/task_images/land.jpg"",""time"":599.8549999999814},{""stimulus"":""run_exp/static/images/task_images/dig.jpg"",""time"":1175.344999999972}]",[],3,,,,,,,,,,,,,,
harvest,90,389608,0.0-30.0-1.0,,null,run_exp/static/images/task_images/gems/26.jpg,null,,,,,,13,,,3,,,,,26,0.489873295,0.5,,,,,,,
decision,91,390623,0.0-30.0-2.0,,1013.535,run_exp/static/images/task_images/land.jpg,65,,,,,,13,,,3,,,,,,,,66806,1,2,FALSE,,,
dig,92,392627,0.0-31.0-0.0,,,,,,,,,,,"[{""stimulus"":""run_exp/static/images/task_images/dig.jpg"",""time"":0.18999999994412065},{""stimulus"":""run_exp/static/images/task_images/land.jpg"",""time"":671.5649999999441},{""stimulus"":""run_exp/static/images/task_images/dig.jpg"",""time"":1328.6399999998976}]",[],3,,,,,,,,,,,,,,
harvest,93,393630,0.0-31.0-1.0,,null,run_exp/static/images/task_images/gems/13.jpg,null,,,,,,7,,,3,,,,,13,0.547115896,0.538461538,,,,,,,
decision,94,394308,0.0-31.0-2.0,,677.01,run_exp/static/images/task_images/land.jpg,76,,,,,,7,,,3,,,,,,,,70491,1,3,TRUE,,,
travel,95,403636,0.0-32.0-0.0,,,,,,,,,,,"[{""stimulus"":""run_exp/static/images/task_images/rocket-01.jpg"",""time"":0.125},{""stimulus"":""run_exp/static/images/task_images/rocket-02.jpg"",""time"":1043.4099999999162},{""stimulus"":""run_exp/static/images/task_images/rocket-03.jpg"",""time"":2082.015000000014},{""stimulus"":""run_exp/static/images/task_images/rocket-04.jpg"",""time"":3126.960000000079},{""stimulus"":""run_exp/static/images/task_images/rocket-05.jpg"",""time"":4162.165000000037},{""stimulus"":""run_exp/static/images/task_images/rocket-06.jpg"",""time"":5175.680000000051},{""stimulus"":""run_exp/static/images/task_images/rocket-07.jpg"",""time"":6230.909999999916},{""stimulus"":""run_exp/static/images/task_images/rocket-08.jpg"",""time"":7252.829999999958},{""stimulus"":""run_exp/static/images/task_images/rocket-09.jpg"",""time"":8296.224999999977}]",[],3,,,,,,,,,,,,,,
alien_welcome,96,408638,0.0-32.0-1.0,,null,run_exp/static/images/task_images/aliens/old_aliens/planet/alien_planet-73.jpg,null,,,,,,,,,,,,73,"75,30,46,73,8,22,47,12,70,21,33,69,65,67,56,3,34,48,5,53,4,9,59,38,51,7,26,58,29,28,54,1,55,40,20,6,27,72,74",,,,,,,,,,
land,97,409160,0.0-32.0-2.0,,null,run_exp/static/images/task_images/land.jpg,null,,,,,,101,,,4,,,,,,,,,,,,,,
dig,98,411165,0.0-32.0-3.0,,,,,,,,,,,"[{""stimulus"":""run_exp/static/images/task_images/dig.jpg"",""time"":0.24499999987892807},{""stimulus"":""run_exp/static/images/task_images/land.jpg"",""time"":676.3149999999441},{""stimulus"":""run_exp/static/images/task_images/dig.jpg"",""time"":1343.3049999999348}]",[],4,,,,,,,,,,,,,,
harvest,99,412179,0.0-32.0-4.0,,null,run_exp/static/images/task_images/gems/101.jpg,null,,,,,,50,,,4,,,,,101,0.494978173,0.495049505,,,,,,,
decision,100,412521,0.0-32.0-5.0,,340.785,run_exp/static/images/task_images/land.jpg,65,,,,,,50,,,4,,,,,,,,88703,1,0,FALSE,,,
dig,101,415187,0.0-33.0-0.0,,,,,,,,,,,"[{""stimulus"":""run_exp/static/images/task_images/dig.jpg"",""time"":0.12500000011641532},{""stimulus"":""run_exp/static/images/task_images/land.jpg"",""time"":903.3699999999953},{""stimulus"":""run_exp/static/images/task_images/dig.jpg"",""time"":1778.8500000000931}]",[],4,,,,,,,,,,,,,,
harvest,102,416200,0.0-33.0-1.0,,null,run_exp/static/images/task_images/gems/50.jpg,null,,,,,,20,,,4,,,,,50,0.395250823,0.4,,,,,,,
decision,103,417678,0.0-33.0-2.0,,1476.58,run_exp/static/images/task_images/land.jpg,65,,,,,,20,,,4,,,,,,,,93860,1,1,FALSE,,,
dig,104,419209,0.0-34.0-0.0,,,,,,,,,,,"[{""stimulus"":""run_exp/static/images/task_images/dig.jpg"",""time"":0.11999999999534339},{""stimulus"":""run_exp/static/images/task_images/land.jpg"",""time"":516.3349999999627},{""stimulus"":""run_exp/static/images/task_images/dig.jpg"",""time"":1028.0399999999208}]",[],4,,,,,,,,,,,,,,
harvest,105,420222,0.0-34.0-1.0,,null,run_exp/static/images/task_images/gems/20.jpg,null,,,,,,9,,,4,,,,,20,0.472122087,0.45,,,,,,,
decision,106,421076,0.0-34.0-2.0,,852.02,run_exp/static/images/task_images/land.jpg,65,,,,,,9,,,4,,,,,,,,97258,1,2,FALSE,,,
dig,107,423240,0.0-35.0-0.0,,,,,,,,,,,"[{""stimulus"":""run_exp/static/images/task_images/dig.jpg"",""time"":0.125},{""stimulus"":""run_exp/static/images/task_images/land.jpg"",""time"":732.7749999999069},{""stimulus"":""run_exp/static/images/task_images/dig.jpg"",""time"":1447.6799999999348}]",[],4,,,,,,,,,,,,,,
harvest,108,424243,0.0-35.0-1.0,,null,run_exp/static/images/task_images/gems/9.jpg,null,,,,,,4,,,4,,,,,9,0.487884722,0.444444444,,,,,,,
decision,109,425028,0.0-35.0-2.0,,783.28,run_exp/static/images/task_images/land.jpg,76,,,,,,4,,,4,,,,,,,,101210,1,3,TRUE,,,
travel,110,434260,0.0-36.0-0.0,,,,,,,,,,,"[{""stimulus"":""run_exp/static/images/task_images/rocket-01.jpg"",""time"":0.1300000000046566},{""stimulus"":""run_exp/static/images/task_images/rocket-02.jpg"",""time"":1036.5250000000233},{""stimulus"":""run_exp/static/images/task_images/rocket-03.jpg"",""time"":2049.984999999986},{""stimulus"":""run_exp/static/images/task_images/rocket-04.jpg"",""time"":3085.0000000001164},{""stimulus"":""run_exp/static/images/task_images/rocket-05.jpg"",""time"":4107.125},{""stimulus"":""run_exp/static/images/task_images/rocket-06.jpg"",""time"":5121.854999999981},{""stimulus"":""run_exp/static/images/task_images/rocket-07.jpg"",""time"":6145.420000000042},{""stimulus"":""run_exp/static/images/task_images/rocket-08.jpg"",""time"":7170.0950000000885},{""stimulus"":""run_exp/static/images/task_images/rocket-09.jpg"",""time"":8204.11499999999}]",[],4,,,,,,,,,,,,,,
alien_welcome,111,439273,0.0-36.0-1.0,,null,run_exp/static/images/task_images/aliens/old_aliens/planet/alien_planet-8.jpg,null,,,,,,,,,,,,8,"75,30,46,73,8,22,47,12,70,21,33,69,65,67,56,3,34,48,5,53,4,9,59,38,51,7,26,58,29,28,54,1,55,40,20,6,27,72,74",,,,,,,,,,
land,112,439785,0.0-36.0-2.0,,null,run_exp/static/images/task_images/land.jpg,null,,,,,,99,,,5,,,,,,,,,,,,,,
dig,113,441790,0.0-36.0-3.0,,,,,,,,,,,"[{""stimulus"":""run_exp/static/images/task_images/dig.jpg"",""time"":0.19000000006053597},{""stimulus"":""run_exp/static/images/task_images/land.jpg"",""time"":681.390000000014},{""stimulus"":""run_exp/static/images/task_images/dig.jpg"",""time"":1353.265000000014}]",[],5,,,,,,,,,,,,,,
harvest,114,442792,0.0-36.0-4.0,,null,run_exp/static/images/task_images/gems/99.jpg,null,,,,,,41,,,5,,,,,99,0.411505342,0.414141414,,,,,,,
decision,115,443569,0.0-36.0-5.0,,775.555,run_exp/static/images/task_images/land.jpg,65,,,,,,41,,,5,,,,,,,,119751,1,0,FALSE,,,
dig,116,445800,0.0-37.0-0.0,,,,,,,,,,,"[{""stimulus"":""run_exp/static/images/task_images/dig.jpg"",""time"":0.2949999999254942},{""stimulus"":""run_exp/static/images/task_images/land.jpg"",""time"":756.7699999999022},{""stimulus"":""run_exp/static/images/task_images/dig.jpg"",""time"":1504.1599999999162}]",[],5,,,,,,,,,,,,,,
harvest,117,446802,0.0-37.0-1.0,,null,run_exp/static/images/task_images/gems/41.jpg,null,,,,,,20,,,5,,,,,41,0.489065902,0.487804878,,,,,,,
decision,118,447489,0.0-37.0-2.0,,686.02,run_exp/static/images/task_images/land.jpg,65,,,,,,20,,,5,,,,,,,,123671,1,1,FALSE,,,
dig,119,449816,0.0-38.0-0.0,,,,,,,,,,,"[{""stimulus"":""run_exp/static/images/task_images/dig.jpg"",""time"":0.11000000010244548},{""stimulus"":""run_exp/static/images/task_images/land.jpg"",""time"":773.1150000001071},{""stimulus"":""run_exp/static/images/task_images/dig.jpg"",""time"":1551.2900000000373}]",[],5,,,,,,,,,,,,,,
harvest,120,450825,0.0-38.0-1.0,,null,run_exp/static/images/task_images/gems/20.jpg,null,,,,,,9,,,5,,,,,20,0.46120499,0.45,,,,,,,
decision,121,451333,0.0-38.0-2.0,,506.87,run_exp/static/images/task_images/land.jpg,76,,,,,,9,,,5,,,,,,,,127516,1,2,TRUE,,,
travel,122,460834,0.0-39.0-0.0,,,,,,,,,,,"[{""stimulus"":""run_exp/static/images/task_images/rocket-01.jpg"",""time"":0.12000000011175871},{""stimulus"":""run_exp/static/images/task_images/rocket-02.jpg"",""time"":1056.6950000000652},{""stimulus"":""run_exp/static/images/task_images/rocket-03.jpg"",""time"":2123.390000000014},{""stimulus"":""run_exp/static/images/task_images/rocket-04.jpg"",""time"":3179.5250000000233},{""stimulus"":""run_exp/static/images/task_images/rocket-05.jpg"",""time"":4224.765000000014},{""stimulus"":""run_exp/static/images/task_images/rocket-06.jpg"",""time"":5281.265000000014},{""stimulus"":""run_exp/static/images/task_images/rocket-07.jpg"",""time"":6336.5950000000885},{""stimulus"":""run_exp/static/images/task_images/rocket-08.jpg"",""time"":7382.060000000056},{""stimulus"":""run_exp/static/images/task_images/rocket-09.jpg"",""time"":8438.320000000065}]",[],5,,,,,,,,,,,,,,
alien_welcome,123,465853,0.0-39.0-1.0,,null,run_exp/static/images/task_images/aliens/old_aliens/planet/alien_planet-22.jpg,null,,,,,,,,,,,,22,"75,30,46,73,8,22,47,12,70,21,33,69,65,67,56,3,34,48,5,53,4,9,59,38,51,7,26,58,29,28,54,1,55,40,20,6,27,72,74",,,,,,,,,,
land,124,466355,0.0-39.0-2.0,,null,run_exp/static/images/task_images/land.jpg,null,,,,,,108,,,6,,,,,,,,,,,,,,
dig,125,468360,0.0-39.0-3.0,,,,,,,,,,,"[{""stimulus"":""run_exp/static/images/task_images/dig.jpg"",""time"":0.2900000000372529},{""stimulus"":""run_exp/static/images/task_images/land.jpg"",""time"":670.625},{""stimulus"":""run_exp/static/images/task_images/dig.jpg"",""time"":1352.9400000000605}]",[],6,,,,,,,,,,,,,,
harvest,126,469364,0.0-39.0-4.0,,null,run_exp/static/images/task_images/gems/108.jpg,null,,,,,,87,,,6,,,,,108,0.802750914,0.805555556,,,,,,,
decision,127,470302,0.0-39.0-5.0,,936.44,run_exp/static/images/task_images/land.jpg,65,,,,,,87,,,6,,,,,,,,146484,1,0,FALSE,,,
dig,128,472381,0.0-40.0-0.0,,,,,,,,,,,"[{""stimulus"":""run_exp/static/images/task_images/dig.jpg"",""time"":0.11499999999068677},{""stimulus"":""run_exp/static/images/task_images/land.jpg"",""time"":691.0199999999022},{""stimulus"":""run_exp/static/images/task_images/dig.jpg"",""time"":1383.859999999986}]",[],6,,,,,,,,,,,,,,
harvest,129,473394,0.0-40.0-1.0,,null,run_exp/static/images/task_images/gems/87.jpg,null,,,,,,72,,,6,,,,,87,0.824466861,0.827586207,,,,,,,
decision,130,473609,0.0-40.0-2.0,,212.63,run_exp/static/images/task_images/land.jpg,65,,,,,,72,,,6,,,,,,,,149791,1,1,FALSE,,,
dig,131,476413,0.0-41.0-0.0,,,,,,,,,,,"[{""stimulus"":""run_exp/static/images/task_images/dig.jpg"",""time"":0.11499999987427145},{""stimulus"":""run_exp/static/images/task_images/land.jpg"",""time"":935.1349999998929},{""stimulus"":""run_exp/static/images/task_images/dig.jpg"",""time"":1874.0599999999395}]",[],6,,,,,,,,,,,,,,
harvest,132,477416,0.0-41.0-1.0,,null,run_exp/static/images/task_images/gems/72.jpg,null,,,,,,59,,,6,,,,,72,0.821500764,0.819444444,,,,,,,
decision,133,478581,0.0-41.0-2.0,,1164.225,run_exp/static/images/task_images/land.jpg,65,,,,,,59,,,6,,,,,,,,154764,1,2,FALSE,,,
dig,134,480423,0.0-42.0-0.0,,,,,,,,,,,"[{""stimulus"":""run_exp/static/images/task_images/dig.jpg"",""time"":0.12000000011175871},{""stimulus"":""run_exp/static/images/task_images/land.jpg"",""time"":624.3000000000466},{""stimulus"":""run_exp/static/images/task_images/dig.jpg"",""time"":1232.420000000042}]",[],6,,,,,,,,,,,,,,
harvest,135,481427,0.0-42.0-1.0,,null,run_exp/static/images/task_images/gems/59.jpg,null,,,,,,51,,,6,,,,,59,0.864491949,0.86440678,,,,,,,
decision,136,481685,0.0-42.0-2.0,,256.735,run_exp/static/images/task_images/land.jpg,65,,,,,,51,,,6,,,,,,,,157867,1,3,FALSE,,,
dig,137,484434,0.0-43.0-0.0,,,,,,,,,,,"[{""stimulus"":""run_exp/static/images/task_images/dig.jpg"",""time"":0.10999999998603016},{""stimulus"":""run_exp/static/images/task_images/land.jpg"",""time"":928},{""stimulus"":""run_exp/static/images/task_images/dig.jpg"",""time"":1841.1900000000605}]",[],6,,,,,,,,,,,,,,
harvest,138,485437,0.0-43.0-1.0,,null,run_exp/static/images/task_images/gems/51.jpg,null,,,,,,40,,,6,,,,,51,0.791936782,0.784313725,,,,,,,
decision,139,486341,0.0-43.0-2.0,,903.33,run_exp/static/images/task_images/land.jpg,65,,,,,,40,,,6,,,,,,,,162523,1,4,FALSE,,,
dig,140,488456,0.0-44.0-0.0,,,,,,,,,,,"[{""stimulus"":""run_exp/static/images/task_images/dig.jpg"",""time"":0.19000000006053597},{""stimulus"":""run_exp/static/images/task_images/land.jpg"",""time"":714.3200000000652},{""stimulus"":""run_exp/static/images/task_images/dig.jpg"",""time"":1417.7800000001444}]",[],6,,,,,,,,,,,,,,
harvest,141,489469,0.0-44.0-1.0,,null,run_exp/static/images/task_images/gems/40.jpg,null,,,,,,37,,,6,,,,,40,0.920906316,0.925,,,,,,,
decision,142,489668,0.0-44.0-2.0,,197.91,run_exp/static/images/task_images/land.jpg,65,,,,,,37,,,6,,,,,,,,165850,1,5,FALSE,,,
dig,143,492488,0.0-45.0-0.0,,,,,,,,,,,"[{""stimulus"":""run_exp/static/images/task_images/dig.jpg"",""time"":0.11499999987427145},{""stimulus"":""run_exp/static/images/task_images/land.jpg"",""time"":950.4899999998743},{""stimulus"":""run_exp/static/images/task_images/dig.jpg"",""time"":1878.1500000000233}]",[],6,,,,,,,,,,,,,,
harvest,144,493502,0.0-45.0-1.0,,null,run_exp/static/images/task_images/gems/37.jpg,null,,,,,,29,,,6,,,,,37,0.784643181,0.783783784,,,,,,,
decision,145,494048,0.0-45.0-2.0,,544.605,run_exp/static/images/task_images/land.jpg,65,,,,,,29,,,6,,,,,,,,170230,1,6,FALSE,,,
dig,146,496509,0.0-46.0-0.0,,,,,,,,,,,"[{""stimulus"":""run_exp/static/images/task_images/dig.jpg"",""time"":0.11499999999068677},{""stimulus"":""run_exp/static/images/task_images/land.jpg"",""time"":838.3800000000047},{""stimulus"":""run_exp/static/images/task_images/dig.jpg"",""time"":1649.2899999999208}]",[],6,,,,,,,,,,,,,,
harvest,147,497512,0.0-46.0-1.0,,null,run_exp/static/images/task_images/gems/29.jpg,null,,,,,,24,,,6,,,,,29,0.833147932,0.827586207,,,,,,,
decision,148,497801,0.0-46.0-2.0,,288.695,run_exp/static/images/task_images/land.jpg,65,,,,,,24,,,6,,,,,,,,173983,1,7,FALSE,,,
dig,149,500520,0.0-47.0-0.0,,,,,,,,,,,"[{""stimulus"":""run_exp/static/images/task_images/dig.jpg"",""time"":0.1150000001071021},{""stimulus"":""run_exp/static/images/task_images/land.jpg"",""time"":914.1500000001397},{""stimulus"":""run_exp/static/images/task_images/dig.jpg"",""time"":1809.7900000000373}]",[],6,,,,,,,,,,,,,,
harvest,150,501534,0.0-47.0-1.0,,null,run_exp/static/images/task_images/gems/24.jpg,null,,,,,,21,,,6,,,,,24,0.876947686,0.875,,,,,,,
decision,151,502345,0.0-47.0-2.0,,810.09,run_exp/static/images/task_images/land.jpg,76,,,,,,21,,,6,,,,,,,,178527,1,8,TRUE,,,
travel,152,511549,0.0-48.0-0.0,,,,,,,,,,,"[{""stimulus"":""run_exp/static/images/task_images/rocket-01.jpg"",""time"":0.12000000011175871},{""stimulus"":""run_exp/static/images/task_images/rocket-02.jpg"",""time"":1031.7750000000233},{""stimulus"":""run_exp/static/images/task_images/rocket-03.jpg"",""time"":2045.0950000000885},{""stimulus"":""run_exp/static/images/task_images/rocket-04.jpg"",""time"":3068.600000000093},{""stimulus"":""run_exp/static/images/task_images/rocket-05.jpg"",""time"":4103.160000000033},{""stimulus"":""run_exp/static/images/task_images/rocket-06.jpg"",""time"":5106.310000000056},{""stimulus"":""run_exp/static/images/task_images/rocket-07.jpg"",""time"":6140.395000000019},{""stimulus"":""run_exp/static/images/task_images/rocket-08.jpg"",""time"":7164.584999999963},{""stimulus"":""run_exp/static/images/task_images/rocket-09.jpg"",""time"":8178.215000000084}]",[],6,,,,,,,,,,,,,,
alien_welcome,153,516552,0.0-48.0-1.0,,null,run_exp/static/images/task_images/aliens/old_aliens/planet/alien_planet-47.jpg,null,,,,,,,,,,,,47,"75,30,46,73,8,22,47,12,70,21,33,69,65,67,56,3,34,48,5,53,4,9,59,38,51,7,26,58,29,28,54,1,55,40,20,6,27,72,74",,,,,,,,,,
land,154,517054,0.0-48.0-2.0,,null,run_exp/static/images/task_images/land.jpg,null,,,,,,102,,,7,,,,,,,,,,,,,,
dig,155,519070,0.0-48.0-3.0,,,,,,,,,,,"[{""stimulus"":""run_exp/static/images/task_images/dig.jpg"",""time"":0.19499999994877726},{""stimulus"":""run_exp/static/images/task_images/land.jpg"",""time"":669.8599999998696},{""stimulus"":""run_exp/static/images/task_images/dig.jpg"",""time"":1343.204999999958}]",[],7,,,,,,,,,,,,,,
harvest,156,520083,0.0-48.0-4.0,,null,run_exp/static/images/task_images/gems/102.jpg,null,,,,,,78,,,7,,,,,102,0.760880657,0.764705882,,,,,,,
decision,157,520641,0.0-48.0-5.0,,556.48,run_exp/static/images/task_images/land.jpg,65,,,,,,78,,,7,,,,,,,,196823,1,0,FALSE,,,
dig,158,523091,0.0-49.0-0.0,,,,,,,,,,,"[{""stimulus"":""run_exp/static/images/task_images/dig.jpg"",""time"":0.1150000001071021},{""stimulus"":""run_exp/static/images/task_images/land.jpg"",""time"":825.9600000000792},{""stimulus"":""run_exp/static/images/task_images/dig.jpg"",""time"":1646.8550000000978}]",[],7,,,,,,,,,,,,,,
harvest,159,524094,0.0-49.0-1.0,,null,run_exp/static/images/task_images/gems/78.jpg,null,,,,,,64,,,7,,,,,78,0.824718602,0.820512821,,,,,,,
decision,160,524541,0.0-49.0-2.0,,445.83,run_exp/static/images/task_images/land.jpg,65,,,,,,64,,,7,,,,,,,,200723,1,1,FALSE,,,
dig,161,527112,0.0-50.0-0.0,,,,,,,,,,,"[{""stimulus"":""run_exp/static/images/task_images/dig.jpg"",""time"":0.14499999990221113},{""stimulus"":""run_exp/static/images/task_images/land.jpg"",""time"":872.4549999999581},{""stimulus"":""run_exp/static/images/task_images/dig.jpg"",""time"":1715.884999999893}]",[],7,,,,,,,,,,,,,,
harvest,162,528126,0.0-50.0-1.0,,null,run_exp/static/images/task_images/gems/64.jpg,null,,,,,,53,,,7,,,,,64,0.825019525,0.828125,,,,,,,
decision,163,528548,0.0-50.0-2.0,,421.43,run_exp/static/images/task_images/land.jpg,65,,,,,,53,,,7,,,,,,,,204731,1,2,FALSE,,,
dig,164,531144,0.0-51.0-0.0,,,,,,,,,,,"[{""stimulus"":""run_exp/static/images/task_images/dig.jpg"",""time"":0.11999999999534339},{""stimulus"":""run_exp/static/images/task_images/land.jpg"",""time"":876.5300000000279},{""stimulus"":""run_exp/static/images/task_images/dig.jpg"",""time"":1729.359999999986}]",[],7,,,,,,,,,,,,,,
harvest,165,532148,0.0-51.0-1.0,,null,run_exp/static/images/task_images/gems/53.jpg,null,,,,,,43,,,7,,,,,53,0.80462818,0.811320755,,,,,,,
decision,166,533974,0.0-51.0-2.0,,1824.805,run_exp/static/images/task_images/land.jpg,65,,,,,,43,,,7,,,,,,,,210156,1,3,FALSE,,,
dig,167,535166,0.0-52.0-0.0,,,,,,,,,,,"[{""stimulus"":""run_exp/static/images/task_images/dig.jpg"",""time"":0.13500000000931323},{""stimulus"":""run_exp/static/images/task_images/land.jpg"",""time"":408.32499999995343},{""stimulus"":""run_exp/static/images/task_images/dig.jpg"",""time"":792.2299999999814}]",[],7,,,,,,,,,,,,,,
harvest,168,536168,0.0-52.0-1.0,,null,run_exp/static/images/task_images/gems/43.jpg,null,,,,,,37,,,7,,,,,43,0.851379931,0.860465116,,,,,,,
decision,169,536573,0.0-52.0-2.0,,402.73,run_exp/static/images/task_images/land.jpg,65,,,,,,37,,,7,,,,,,,,212755,1,4,FALSE,,,
dig,170,539177,0.0-53.0-0.0,,,,,,,,,,,"[{""stimulus"":""run_exp/static/images/task_images/dig.jpg"",""time"":0.125},{""stimulus"":""run_exp/static/images/task_images/land.jpg"",""time"":872.8200000000652},{""stimulus"":""run_exp/static/images/task_images/dig.jpg"",""time"":1748.5500000000466}]",[],7,,,,,,,,,,,,,,
harvest,171,540190,0.0-53.0-1.0,,null,run_exp/static/images/task_images/gems/37.jpg,null,,,,,,32,,,7,,,,,37,0.873678032,0.864864865,,,,,,,
decision,172,540686,0.0-53.0-2.0,,495.305,run_exp/static/images/task_images/land.jpg,65,,,,,,32,,,7,,,,,,,,216868,1,5,FALSE,,,
dig,173,543209,0.0-54.0-0.0,,,,,,,,,,,"[{""stimulus"":""run_exp/static/images/task_images/dig.jpg"",""time"":0.11499999999068677},{""stimulus"":""run_exp/static/images/task_images/land.jpg"",""time"":845.8950000000186},{""stimulus"":""run_exp/static/images/task_images/dig.jpg"",""time"":1676.6950000000652}]",[],7,,,,,,,,,,,,,,
harvest,174,544211,0.0-54.0-1.0,,null,run_exp/static/images/task_images/gems/32.jpg,null,,,,,,29,,,7,,,,,32,0.919542469,0.90625,,,,,,,
decision,175,545898,0.0-54.0-2.0,,1683.33,run_exp/static/images/task_images/land.jpg,76,,,,,,29,,,7,,,,,,,,222081,1,6,TRUE,,,
travel,176,554238,0.0-55.0-0.0,,,,,,,,,,,"[{""stimulus"":""run_exp/static/images/task_images/rocket-01.jpg"",""time"":0.1699999999254942},{""stimulus"":""run_exp/static/images/task_images/rocket-02.jpg"",""time"":932.1249999998836},{""stimulus"":""run_exp/static/images/task_images/rocket-03.jpg"",""time"":1861.6599999999162},{""stimulus"":""run_exp/static/images/task_images/rocket-04.jpg"",""time"":2790.144999999902},{""stimulus"":""run_exp/static/images/task_images/rocket-05.jpg"",""time"":3707.439999999944},{""stimulus"":""run_exp/static/images/task_images/rocket-06.jpg"",""time"":4635.145000000019},{""stimulus"":""run_exp/static/images/task_images/rocket-07.jpg"",""time"":5552.439999999944},{""stimulus"":""run_exp/static/images/task_images/rocket-08.jpg"",""time"":6480.454999999958},{""stimulus"":""run_exp/static/images/task_images/rocket-09.jpg"",""time"":7408.614999999991}]",[],7,,,,,,,,,,,,,,
alien_welcome,177,559245,0.0-55.0-1.0,,null,run_exp/static/images/task_images/aliens/old_aliens/planet/alien_planet-12.jpg,null,,,,,,,,,,,,12,"75,30,46,73,8,22,47,12,70,21,33,69,65,67,56,3,34,48,5,53,4,9,59,38,51,7,26,58,29,28,54,1,55,40,20,6,27,72,74",,,,,,,,,,
land,178,559763,0.0-55.0-2.0,,null,run_exp/static/images/task_images/land.jpg,null,,,,,,96,,,8,,,,,,,,,,,,,,
dig,179,561768,0.0-55.0-3.0,,,,,,,,,,,"[{""stimulus"":""run_exp/static/images/task_images/dig.jpg"",""time"":0.26500000001396984},{""stimulus"":""run_exp/static/images/task_images/land.jpg"",""time"":681.890000000014},{""stimulus"":""run_exp/static/images/task_images/dig.jpg"",""time"":1343.1900000000605}]",[],8,,,,,,,,,,,,,,
harvest,180,562771,0.0-55.0-4.0,,null,run_exp/static/images/task_images/gems/96.jpg,null,,,,,,74,,,8,,,,,96,0.774856857,0.770833333,,,,,,,
decision,181,563110,0.0-55.0-5.0,,337.41,run_exp/static/images/task_images/land.jpg,65,,,,,,74,,,8,,,,,,,,239292,1,0,FALSE,,,
dig,182,565779,0.0-56.0-0.0,,,,,,,,,,,"[{""stimulus"":""run_exp/static/images/task_images/dig.jpg"",""time"":0.125},{""stimulus"":""run_exp/static/images/task_images/land.jpg"",""time"":895.9400000000605},{""stimulus"":""run_exp/static/images/task_images/dig.jpg"",""time"":1786.1800000000512}]",[],8,,,,,,,,,,,,,,
harvest,183,566792,0.0-56.0-1.0,,null,run_exp/static/images/task_images/gems/74.jpg,null,,,,,,62,,,8,,,,,74,0.841439365,0.837837838,,,,,,,
decision,184,566980,0.0-56.0-2.0,,186.495,run_exp/static/images/task_images/land.jpg,65,,,,,,62,,,8,,,,,,,,243162,1,1,FALSE,,,
dig,185,569794,0.0-57.0-0.0,,,,,,,,,,,"[{""stimulus"":""run_exp/static/images/task_images/dig.jpg"",""time"":0.12000000011175871},{""stimulus"":""run_exp/static/images/task_images/land.jpg"",""time"":940.9800000000978},{""stimulus"":""run_exp/static/images/task_images/dig.jpg"",""time"":1890.615000000107}]",[],8,,,,,,,,,,,,,,
harvest,186,570803,0.0-57.0-1.0,,null,run_exp/static/images/task_images/gems/62.jpg,null,,,,,,51,,,8,,,,,62,0.815808927,0.822580645,,,,,,,
decision,187,571207,0.0-57.0-2.0,,401.755,run_exp/static/images/task_images/land.jpg,65,,,,,,51,,,8,,,,,,,,247389,1,2,FALSE,,,
dig,188,573822,0.0-58.0-0.0,,,,,,,,,,,"[{""stimulus"":""run_exp/static/images/task_images/dig.jpg"",""time"":0.2099999999627471},{""stimulus"":""run_exp/static/images/task_images/land.jpg"",""time"":872.2099999999627},{""stimulus"":""run_exp/static/images/task_images/dig.jpg"",""time"":1747.579999999958}]",[],8,,,,,,,,,,,,,,
harvest,189,574835,0.0-58.0-1.0,,null,run_exp/static/images/task_images/gems/51.jpg,null,,,,,,39,,,8,,,,,51,0.760458241,0.764705882,,,,,,,
decision,190,575555,0.0-58.0-2.0,,717.72,run_exp/static/images/task_images/land.jpg,65,,,,,,39,,,8,,,,,,,,251737,1,3,FALSE,,,
dig,191,577843,0.0-59.0-0.0,,,,,,,,,,,"[{""stimulus"":""run_exp/static/images/task_images/dig.jpg"",""time"":0.1150000001071021},{""stimulus"":""run_exp/static/images/task_images/land.jpg"",""time"":782.1900000000605},{""stimulus"":""run_exp/static/images/task_images/dig.jpg"",""time"":1528.5700000000652}]",[],8,,,,,,,,,,,,,,
harvest,192,578857,0.0-59.0-1.0,,null,run_exp/static/images/task_images/gems/39.jpg,null,,,,,,32,,,8,,,,,39,0.819767518,0.820512821,,,,,,,
decision,193,579270,0.0-59.0-2.0,,411.63,run_exp/static/images/task_images/land.jpg,65,,,,,,32,,,8,,,,,,,,255452,1,4,FALSE,,,
dig,194,581875,0.0-60.0-0.0,,,,,,,,,,,"[{""stimulus"":""run_exp/static/images/task_images/dig.jpg"",""time"":0.15499999991152436},{""stimulus"":""run_exp/static/images/task_images/land.jpg"",""time"":864.2299999999814},{""stimulus"":""run_exp/static/images/task_images/dig.jpg"",""time"":1725.344999999972}]",[],8,,,,,,,,,,,,,,
harvest,195,582889,0.0-60.0-1.0,,null,run_exp/static/images/task_images/gems/32.jpg,null,,,,,,25,,,8,,,,,32,0.7730101,0.78125,,,,,,,
decision,196,583201,0.0-60.0-2.0,,310.635,run_exp/static/images/task_images/land.jpg,65,,,,,,25,,,8,,,,,,,,259383,1,5,FALSE,,,
dig,197,585896,0.0-61.0-0.0,,,,,,,,,,,"[{""stimulus"":""run_exp/static/images/task_images/dig.jpg"",""time"":0.11499999999068677},{""stimulus"":""run_exp/static/images/task_images/land.jpg"",""time"":912.6300000001211},{""stimulus"":""run_exp/static/images/task_images/dig.jpg"",""time"":1807.9550000000745}]",[],8,,,,,,,,,,,,,,
harvest,198,586900,0.0-61.0-1.0,,null,run_exp/static/images/task_images/gems/25.jpg,null,,,,,,21,,,8,,,,,25,0.820512929,0.84,,,,,,,
decision,199,587884,0.0-61.0-2.0,,982.81,run_exp/static/images/task_images/land.jpg,76,,,,,,21,,,8,,,,,,,,264066,1,6,TRUE,,,
travel,200,596916,0.0-62.0-0.0,,,,,,,,,,,"[{""stimulus"":""run_exp/static/images/task_images/rocket-01.jpg"",""time"":0.15000000002328306},{""stimulus"":""run_exp/static/images/task_images/rocket-02.jpg"",""time"":1007.8150000000605},{""stimulus"":""run_exp/static/images/task_images/rocket-03.jpg"",""time"":2009.8000000000466},{""stimulus"":""run_exp/static/images/task_images/rocket-04.jpg"",""time"":3023.4250000000466},{""stimulus"":""run_exp/static/images/task_images/rocket-05.jpg"",""time"":4023.7249999999767},{""stimulus"":""run_exp/static/images/task_images/rocket-06.jpg"",""time"":5017.964999999967},{""stimulus"":""run_exp/static/images/task_images/rocket-07.jpg"",""time"":6010.089999999967},{""stimulus"":""run_exp/static/images/task_images/rocket-08.jpg"",""time"":7012.744999999995},{""stimulus"":""run_exp/static/images/task_images/rocket-09.jpg"",""time"":8015.3300000000745}]",[],8,,,,,,,,,,,,,,
alien_welcome,201,601919,0.0-62.0-1.0,,null,run_exp/static/images/task_images/aliens/old_aliens/planet/alien_planet-70.jpg,null,,,,,,,,,,,,70,"75,30,46,73,8,22,47,12,70,21,33,69,65,67,56,3,34,48,5,53,4,9,59,38,51,7,26,58,29,28,54,1,55,40,20,6,27,72,74",,,,,,,,,,
land,202,602420,0.0-62.0-2.0,,null,run_exp/static/images/task_images/land.jpg,null,,,,,,99,,,9,,,,,,,,,,,,,,
dig,203,604424,0.0-62.0-3.0,,,,,,,,,,,"[{""stimulus"":""run_exp/static/images/task_images/dig.jpg"",""time"":0.19500000006519258},{""stimulus"":""run_exp/static/images/task_images/land.jpg"",""time"":669.6949999999488},{""stimulus"":""run_exp/static/images/task_images/dig.jpg"",""time"":1352.719999999972}]",[],9,,,,,,,,,,,,,,
harvest,204,605427,0.0-62.0-4.0,,null,run_exp/static/images/task_images/gems/99.jpg,null,,,,,,27,,,9,,,,,99,0.271156276,0.272727273,,,,,,,
decision,205,605503,0.0-62.0-5.0,,75.25,run_exp/static/images/task_images/land.jpg,65,,,,,,27,,,9,,,,,,,,281685,1,0,FALSE,,,
dig,206,608435,0.0-63.0-0.0,,,,,,,,,,,"[{""stimulus"":""run_exp/static/images/task_images/dig.jpg"",""time"":0.1300000000046566},{""stimulus"":""run_exp/static/images/task_images/land.jpg"",""time"":974.7750000000233},{""stimulus"":""run_exp/static/images/task_images/dig.jpg"",""time"":1969.2850000000326}]",[],9,,,,,,,,,,,,,,
harvest,207,609437,0.0-63.0-1.0,,null,run_exp/static/images/task_images/gems/27.jpg,null,,,,,,7,,,9,,,,,27,0.270822119,0.259259259,,,,,,,
decision,208,610001,0.0-63.0-2.0,,562.2,run_exp/static/images/task_images/land.jpg,65,,,,,,7,,,9,,,,,,,,286183,1,1,FALSE,,,
dig,209,612446,0.0-64.0-0.0,,,,,,,,,,,"[{""stimulus"":""run_exp/static/images/task_images/dig.jpg"",""time"":0.1349999998928979},{""stimulus"":""run_exp/static/images/task_images/land.jpg"",""time"":817.4499999999534},{""stimulus"":""run_exp/static/images/task_images/dig.jpg"",""time"":1630.6450000000186}]",[],9,,,,,,,,,,,,,,
harvest,210,613449,0.0-64.0-1.0,,null,run_exp/static/images/task_images/gems/7.jpg,null,,,,,,0,,,9,,,,,7,0.069103642,0,,,,,,,
decision,211,613913,0.0-64.0-2.0,,462.41,run_exp/static/images/task_images/land.jpg,76,,,,,,0,,,9,,,,,,,,290095,1,2,TRUE,,,
travel,212,623453,0.0-65.0-0.0,,,,,,,,,,,"[{""stimulus"":""run_exp/static/images/task_images/rocket-01.jpg"",""time"":0.11999999987892807},{""stimulus"":""run_exp/static/images/task_images/rocket-02.jpg"",""time"":1080.2899999999208},{""stimulus"":""run_exp/static/images/task_images/rocket-03.jpg"",""time"":2136.0299999999115},{""stimulus"":""run_exp/static/images/task_images/rocket-04.jpg"",""time"":3192.054999999935},{""stimulus"":""run_exp/static/images/task_images/rocket-05.jpg"",""time"":4237.374999999884},{""stimulus"":""run_exp/static/images/task_images/rocket-06.jpg"",""time"":5304.1549999999115},{""stimulus"":""run_exp/static/images/task_images/rocket-07.jpg"",""time"":6356.224999999977},{""stimulus"":""run_exp/static/images/task_images/rocket-08.jpg"",""time"":7415.909999999916},{""stimulus"":""run_exp/static/images/task_images/rocket-09.jpg"",""time"":8482.939999999944}]",[],9,,,,,,,,,,,,,,
alien_welcome,213,628457,0.0-65.0-1.0,,null,run_exp/static/images/task_images/aliens/old_aliens/planet/alien_planet-21.jpg,null,,,,,,,,,,,,21,"75,30,46,73,8,22,47,12,70,21,33,69,65,67,56,3,34,48,5,53,4,9,59,38,51,7,26,58,29,28,54,1,55,40,20,6,27,72,74",,,,,,,,,,
land,214,628969,0.0-65.0-2.0,,null,run_exp/static/images/task_images/land.jpg,null,,,,,,99,,,10,,,,,,,,,,,,,,
dig,215,630984,0.0-65.0-3.0,,,,,,,,,,,"[{""stimulus"":""run_exp/static/images/task_images/dig.jpg"",""time"":0.17999999993480742},{""stimulus"":""run_exp/static/images/task_images/land.jpg"",""time"":668.7550000000047},{""stimulus"":""run_exp/static/images/task_images/dig.jpg"",""time"":1342.5649999999441}]",[],10,,,,,,,,,,,,,,
harvest,216,631998,0.0-65.0-4.0,,null,run_exp/static/images/task_images/gems/99.jpg,null,,,,,,14,,,10,,,,,99,0.139970702,0.141414141,,,,,,,
decision,217,632127,0.0-65.0-5.0,,126.545,run_exp/static/images/task_images/land.jpg,65,,,,,,14,,,10,,,,,,,,308309,1,0,TRUE,,,
end_of_block_continue,218,640959,0.0-66.0-0.0,,null,run_exp/static/audio/clip_32_block_end.m4a,,,,,,null,,,,,,,,,,,,,,,,,,
alien_welcome,219,645967,0.0-67.0-0.0,,null,run_exp/static/images/task_images/aliens/old_aliens/planet/alien_planet-33.jpg,null,,,,,,,,,,,,33,"75,30,46,73,8,22,47,12,70,21,33,69,65,67,56,3,34,48,5,53,4,9,59,38,51,7,26,58,29,28,54,1,55,40,20,6,27,72,74",,,,,,,,,,
land,220,646482,0.0-67.0-1.0,,null,run_exp/static/images/task_images/land.jpg,null,,,,,,101,,,11,,,,,,,,,,,,,,
dig,221,648726,0.0-67.0-2.0,,,,,,,,,,,"[{""stimulus"":""run_exp/static/images/task_images/dig.jpg"",""time"":0.17999999993480742},{""stimulus"":""run_exp/static/images/task_images/land.jpg"",""time"":679.1999999999534},{""stimulus"":""run_exp/static/images/task_images/dig.jpg"",""time"":1336.2499999998836}]",[],11,,,,,,,,,,,,,,
harvest,222,649728,0.0-67.0-3.0,,null,run_exp/static/images/task_images/gems/101.jpg,null,,,,,,14,,,11,,,,,101,0.14231503,0.138613861,,,,,,,
decision,223,650787,0.0-67.0-4.0,,1058.365,run_exp/static/images/task_images/land.jpg,65,,,,,,14,,,11,,,,,,,,9825,2,0,FALSE,,,
dig,224,652733,0.0-68.0-0.0,,,,,,,,,,,"[{""stimulus"":""run_exp/static/images/task_images/dig.jpg"",""time"":0.1600000000325963},{""stimulus"":""run_exp/static/images/task_images/land.jpg"",""time"":659.0549999999348},{""stimulus"":""run_exp/static/images/task_images/dig.jpg"",""time"":1295.655000000028}]",[],11,,,,,,,,,,,,,,
harvest,225,653741,0.0-68.0-1.0,,null,run_exp/static/images/task_images/gems/14.jpg,null,,,,,,3,,,11,,,,,14,0.193129171,0.214285714,,,,,,,
decision,226,654629,0.0-68.0-2.0,,886.33,run_exp/static/images/task_images/land.jpg,65,,,,,,3,,,11,,,,,,,,13667,2,1,FALSE,,,
dig,227,656749,0.0-69.0-0.0,,,,,,,,,,,"[{""stimulus"":""run_exp/static/images/task_images/dig.jpg"",""time"":0.2000000000698492},{""stimulus"":""run_exp/static/images/task_images/land.jpg"",""time"":713.6199999999953},{""stimulus"":""run_exp/static/images/task_images/dig.jpg"",""time"":1424.2600000000093}]",[],11,,,,,,,,,,,,,,
harvest,228,657757,0.0-69.0-1.0,,null,run_exp/static/images/task_images/gems/3.jpg,null,,,,,,1,,,11,,,,,3,0.187522661,0.333333333,,,,,,,
decision,229,658638,0.0-69.0-2.0,,879.74,run_exp/static/images/task_images/land.jpg,76,,,,,,1,,,11,,,,,,,,17676,2,2,TRUE,,,
travel,230,667773,0.0-70.0-0.0,,,,,,,,,,,"[{""stimulus"":""run_exp/static/images/task_images/rocket-01.jpg"",""time"":0.17500000004656613},{""stimulus"":""run_exp/static/images/task_images/rocket-02.jpg"",""time"":1014.7899999999208},{""stimulus"":""run_exp/static/images/task_images/rocket-03.jpg"",""time"":2032.2299999999814},{""stimulus"":""run_exp/static/images/task_images/rocket-04.jpg"",""time"":3051.439999999944},{""stimulus"":""run_exp/static/images/task_images/rocket-05.jpg"",""time"":4065.1600000000326},{""stimulus"":""run_exp/static/images/task_images/rocket-06.jpg"",""time"":5078.354999999981},{""stimulus"":""run_exp/static/images/task_images/rocket-07.jpg"",""time"":6080.024999999907},{""stimulus"":""run_exp/static/images/task_images/rocket-08.jpg"",""time"":7094.334999999963},{""stimulus"":""run_exp/static/images/task_images/rocket-09.jpg"",""time"":8118.089999999967}]",[],11,,,,,,,,,,,,,,
alien_welcome,231,672782,0.0-70.0-1.0,,null,run_exp/static/images/task_images/aliens/old_aliens/planet/alien_planet-69.jpg,null,,,,,,,,,,,,69,"75,30,46,73,8,22,47,12,70,21,33,69,65,67,56,3,34,48,5,53,4,9,59,38,51,7,26,58,29,28,54,1,55,40,20,6,27,72,74",,,,,,,,,,
land,232,673296,0.0-70.0-2.0,,null,run_exp/static/images/task_images/land.jpg,null,,,,,,94,,,12,,,,,,,,,,,,,,
dig,233,675304,0.0-70.0-3.0,,,,,,,,,,,"[{""stimulus"":""run_exp/static/images/task_images/dig.jpg"",""time"":0.21000000007916242},{""stimulus"":""run_exp/static/images/task_images/land.jpg"",""time"":678.8149999999441},{""stimulus"":""run_exp/static/images/task_images/dig.jpg"",""time"":1350.5350000000326}]",[],12,,,,,,,,,,,,,,
harvest,234,676306,0.0-70.0-4.0,,null,run_exp/static/images/task_images/gems/94.jpg,null,,,,,,22,,,12,,,,,94,0.229818564,0.234042553,,,,,,,
decision,235,676575,0.0-70.0-5.0,,267.285,run_exp/static/images/task_images/land.jpg,65,,,,,,22,,,12,,,,,,,,35613,2,0,FALSE,,,
dig,236,679314,0.0-71.0-0.0,,,,,,,,,,,"[{""stimulus"":""run_exp/static/images/task_images/dig.jpg"",""time"":0.18999999994412065},{""stimulus"":""run_exp/static/images/task_images/land.jpg"",""time"":923.5749999999534},{""stimulus"":""run_exp/static/images/task_images/dig.jpg"",""time"":1835.405000000028}]",[],12,,,,,,,,,,,,,,
harvest,237,680317,0.0-71.0-1.0,,null,run_exp/static/images/task_images/gems/22.jpg,null,,,,,,3,,,12,,,,,22,0.135989691,0.136363636,,,,,,,
decision,238,680485,0.0-71.0-2.0,,167.31,run_exp/static/images/task_images/land.jpg,65,,,,,,3,,,12,,,,,,,,39523,2,1,FALSE,,,
dig,239,683336,0.0-72.0-0.0,,,,,,,,,,,"[{""stimulus"":""run_exp/static/images/task_images/dig.jpg"",""time"":0.14000000001396984},{""stimulus"":""run_exp/static/images/task_images/land.jpg"",""time"":959.6500000000233},{""stimulus"":""run_exp/static/images/task_images/dig.jpg"",""time"":1898.3100000000559}]",[],12,,,,,,,,,,,,,,
harvest,240,684339,0.0-72.0-1.0,,null,run_exp/static/images/task_images/gems/3.jpg,null,,,,,,1,,,12,,,,,3,0.201701,0.333333333,,,,,,,
decision,241,684854,0.0-72.0-2.0,,514.165,run_exp/static/images/task_images/land.jpg,76,,,,,,1,,,12,,,,,,,,43892,2,2,TRUE,,,
travel,242,694344,0.0-73.0-0.0,,,,,,,,,,,"[{""stimulus"":""run_exp/static/images/task_images/rocket-01.jpg"",""time"":0.14500000001862645},{""stimulus"":""run_exp/static/images/task_images/rocket-02.jpg"",""time"":1060.4250000000466},{""stimulus"":""run_exp/static/images/task_images/rocket-03.jpg"",""time"":2115.8950000000186},{""stimulus"":""run_exp/static/images/task_images/rocket-04.jpg"",""time"":3160.820000000065},{""stimulus"":""run_exp/static/images/task_images/rocket-05.jpg"",""time"":4224.445000000065},{""stimulus"":""run_exp/static/images/task_images/rocket-06.jpg"",""time"":5284.4400000000605},{""stimulus"":""run_exp/static/images/task_images/rocket-07.jpg"",""time"":6340.795000000042},{""stimulus"":""run_exp/static/images/task_images/rocket-08.jpg"",""time"":7385.994999999995},{""stimulus"":""run_exp/static/images/task_images/rocket-09.jpg"",""time"":8441.48999999999}]",[],12,,,,,,,,,,,,,,
alien_welcome,243,699357,0.0-73.0-1.0,,null,run_exp/static/images/task_images/aliens/old_aliens/planet/alien_planet-65.jpg,null,,,,,,,,,,,,65,"75,30,46,73,8,22,47,12,70,21,33,69,65,67,56,3,34,48,5,53,4,9,59,38,51,7,26,58,29,28,54,1,55,40,20,6,27,72,74",,,,,,,,,,
land,244,699880,0.0-73.0-2.0,,null,run_exp/static/images/task_images/land.jpg,null,,,,,,101,,,13,,,,,,,,,,,,,,
dig,245,701891,0.0-73.0-3.0,,,,,,,,,,,"[{""stimulus"":""run_exp/static/images/task_images/dig.jpg"",""time"":0.3049999999348074},{""stimulus"":""run_exp/static/images/task_images/land.jpg"",""time"":670.9449999999488},{""stimulus"":""run_exp/static/images/task_images/dig.jpg"",""time"":1337.5149999998976}]",[],13,,,,,,,,,,,,,,
harvest,246,702899,0.0-73.0-4.0,,null,run_exp/static/images/task_images/gems/101.jpg,null,,,,,,18,,,13,,,,,101,0.18202812,0.178217822,,,,,,,
decision,247,703102,0.0-73.0-5.0,,201.285,run_exp/static/images/task_images/land.jpg,65,,,,,,18,,,13,,,,,,,,62140,2,0,FALSE,,,
dig,248,705918,0.0-74.0-0.0,,,,,,,,,,,"[{""stimulus"":""run_exp/static/images/task_images/dig.jpg"",""time"":0.11499999999068677},{""stimulus"":""run_exp/static/images/task_images/land.jpg"",""time"":946.1900000000605},{""stimulus"":""run_exp/static/images/task_images/dig.jpg"",""time"":1874.0650000000605}]",[],13,,,,,,,,,,,,,,
harvest,249,706920,0.0-74.0-1.0,,null,run_exp/static/images/task_images/gems/18.jpg,null,,,,,,4,,,13,,,,,18,0.239347603,0.222222222,,,,,,,
decision,250,707321,0.0-74.0-2.0,,399.65,run_exp/static/images/task_images/land.jpg,65,,,,,,4,,,13,,,,,,,,66359,2,1,FALSE,,,
dig,251,709939,0.0-75.0-0.0,,,,,,,,,,,"[{""stimulus"":""run_exp/static/images/task_images/dig.jpg"",""time"":0.13500000000931323},{""stimulus"":""run_exp/static/images/task_images/land.jpg"",""time"":876.0849999999627},{""stimulus"":""run_exp/static/images/task_images/dig.jpg"",""time"":1740.1149999998743}]",[],13,,,,,,,,,,,,,,
harvest,252,710942,0.0-75.0-1.0,,null,run_exp/static/images/task_images/gems/4.jpg,null,,,,,,1,,,13,,,,,4,0.226114014,0.25,,,,,,,
decision,253,711312,0.0-75.0-2.0,,367.995,run_exp/static/images/task_images/land.jpg,65,,,,,,1,,,13,,,,,,,,70350,2,2,FALSE,,,
dig,254,713954,0.0-76.0-0.0,,,,,,,,,,,"[{""stimulus"":""run_exp/static/images/task_images/dig.jpg"",""time"":0.18499999993946403},{""stimulus"":""run_exp/static/images/task_images/land.jpg"",""time"":897.0500000000466},{""stimulus"":""run_exp/static/images/task_images/dig.jpg"",""time"":1760.8549999999814}]",[],13,,,,,,,,,,,,,,
harvest,255,714963,0.0-76.0-1.0,,null,run_exp/static/images/task_images/gems/1.jpg,null,,,,,,0,,,13,,,,,1,0.20340139,0,,,,,,,
decision,256,716393,0.0-76.0-2.0,,1429.19,run_exp/static/images/task_images/land.jpg,76,,,,,,0,,,13,,,,,,,,75431,2,3,TRUE,,,
travel,257,724969,0.0-77.0-0.0,,,,,,,,,,,"[{""stimulus"":""run_exp/static/images/task_images/rocket-01.jpg"",""time"":0.11999999999534339},{""stimulus"":""run_exp/static/images/task_images/rocket-02.jpg"",""time"":967.6850000000559},{""stimulus"":""run_exp/static/images/task_images/rocket-03.jpg"",""time"":1904.8199999999488},{""stimulus"":""run_exp/static/images/task_images/rocket-04.jpg"",""time"":2857.079999999958},{""stimulus"":""run_exp/static/images/task_images/rocket-05.jpg"",""time"":3825.3800000000047},{""stimulus"":""run_exp/static/images/task_images/rocket-06.jpg"",""time"":4764.734999999986},{""stimulus"":""run_exp/static/images/task_images/rocket-07.jpg"",""time"":5714.260000000009},{""stimulus"":""run_exp/static/images/task_images/rocket-08.jpg"",""time"":6684.505000000005},{""stimulus"":""run_exp/static/images/task_images/rocket-09.jpg"",""time"":7633.944999999949}]",[],13,,,,,,,,,,,,,,
alien_welcome,258,729992,0.0-77.0-1.0,,null,run_exp/static/images/task_images/aliens/old_aliens/planet/alien_planet-67.jpg,null,,,,,,,,,,,,67,"75,30,46,73,8,22,47,12,70,21,33,69,65,67,56,3,34,48,5,53,4,9,59,38,51,7,26,58,29,28,54,1,55,40,20,6,27,72,74",,,,,,,,,,
land,259,730504,0.0-77.0-2.0,,null,run_exp/static/images/task_images/land.jpg,null,,,,,,106,,,14,,,,,,,,,,,,,,
dig,260,732520,0.0-77.0-3.0,,,,,,,,,,,"[{""stimulus"":""run_exp/static/images/task_images/dig.jpg"",""time"":0.2000000000698492},{""stimulus"":""run_exp/static/images/task_images/land.jpg"",""time"":671.3550000000978},{""stimulus"":""run_exp/static/images/task_images/dig.jpg"",""time"":1337.7600000000093}]",[],14,,,,,,,,,,,,,,
harvest,261,733523,0.0-77.0-4.0,,null,run_exp/static/images/task_images/gems/106.jpg,null,,,,,,85,,,14,,,,,106,0.805860342,0.801886792,,,,,,,
decision,262,733875,0.0-77.0-5.0,,349.965,run_exp/static/images/task_images/land.jpg,65,,,,,,85,,,14,,,,,,,,92913,2,0,FALSE,,,
dig,263,736542,0.0-78.0-0.0,,,,,,,,,,,"[{""stimulus"":""run_exp/static/images/task_images/dig.jpg"",""time"":0.14500000001862645},{""stimulus"":""run_exp/static/images/task_images/land.jpg"",""time"":902.8900000001304},{""stimulus"":""run_exp/static/images/task_images/dig.jpg"",""time"":1788.1650000001537}]",[],14,,,,,,,,,,,,,,
harvest,264,737555,0.0-78.0-1.0,,null,run_exp/static/images/task_images/gems/85.jpg,null,,,,,,62,,,14,,,,,85,0.725353594,0.729411765,,,,,,,
decision,265,737974,0.0-78.0-2.0,,417.385,run_exp/static/images/task_images/land.jpg,65,,,,,,62,,,14,,,,,,,,97012,2,1,FALSE,,,
dig,266,740574,0.0-79.0-0.0,,,,,,,,,,,"[{""stimulus"":""run_exp/static/images/task_images/dig.jpg"",""time"":0.11999999999534339},{""stimulus"":""run_exp/static/images/task_images/land.jpg"",""time"":879.8050000000512},{""stimulus"":""run_exp/static/images/task_images/dig.jpg"",""time"":1733.390000000014}]",[],14,,,,,,,,,,,,,,
harvest,267,741576,0.0-79.0-1.0,,null,run_exp/static/images/task_images/gems/62.jpg,null,,,,,,52,,,14,,,,,62,0.837071536,0.838709677,,,,,,,
decision,268,741946,0.0-79.0-2.0,,368.975,run_exp/static/images/task_images/land.jpg,65,,,,,,52,,,14,,,,,,,,100984,2,2,FALSE,,,
dig,269,744584,0.0-80.0-0.0,,,,,,,,,,,"[{""stimulus"":""run_exp/static/images/task_images/dig.jpg"",""time"":0.11499999987427145},{""stimulus"":""run_exp/static/images/task_images/land.jpg"",""time"":896.8949999999022},{""stimulus"":""run_exp/static/images/task_images/dig.jpg"",""time"":1760.9349999999395}]",[],14,,,,,,,,,,,,,,
harvest,270,745597,0.0-80.0-1.0,,null,run_exp/static/images/task_images/gems/52.jpg,null,,,,,,38,,,14,,,,,52,0.736921184,0.730769231,,,,,,,
decision,271,746795,0.0-80.0-2.0,,1195.92,run_exp/static/images/task_images/land.jpg,65,,,,,,38,,,14,,,,,,,,105833,2,3,FALSE,,,
dig,272,748606,0.0-81.0-0.0,,,,,,,,,,,"[{""stimulus"":""run_exp/static/images/task_images/dig.jpg"",""time"":0.14500000001862645},{""stimulus"":""run_exp/static/images/task_images/land.jpg"",""time"":611.7550000000047},{""stimulus"":""run_exp/static/images/task_images/dig.jpg"",""time"":1219.265000000014}]",[],14,,,,,,,,,,,,,,
harvest,273,749609,0.0-81.0-1.0,,null,run_exp/static/images/task_images/gems/38.jpg,null,,,,,,32,,,14,,,,,38,0.840216652,0.842105263,,,,,,,
decision,274,750111,0.0-81.0-2.0,,499.685,run_exp/static/images/task_images/land.jpg,65,,,,,,32,,,14,,,,,,,,109149,2,4,FALSE,,,
dig,275,752617,0.0-82.0-0.0,,,,,,,,,,,"[{""stimulus"":""run_exp/static/images/task_images/dig.jpg"",""time"":0.11999999999534339},{""stimulus"":""run_exp/static/images/task_images/land.jpg"",""time"":849.3449999999721},{""stimulus"":""run_exp/static/images/task_images/dig.jpg"",""time"":1671.0699999999488}]",[],14,,,,,,,,,,,,,,
harvest,276,753619,0.0-82.0-1.0,,null,run_exp/static/images/task_images/gems/32.jpg,null,,,,,,27,,,14,,,,,32,0.847032248,0.84375,,,,,,,
decision,277,753859,0.0-82.0-2.0,,238.7,run_exp/static/images/task_images/land.jpg,65,,,,,,27,,,14,,,,,,,,112897,2,5,FALSE,,,
dig,278,756627,0.0-83.0-0.0,,,,,,,,,,,"[{""stimulus"":""run_exp/static/images/task_images/dig.jpg"",""time"":0.1150000001071021},{""stimulus"":""run_exp/static/images/task_images/land.jpg"",""time"":941.5700000000652},{""stimulus"":""run_exp/static/images/task_images/dig.jpg"",""time"":1847.795000000042}]",[],14,,,,,,,,,,,,,,
harvest,279,757630,0.0-83.0-1.0,,null,run_exp/static/images/task_images/gems/27.jpg,null,,,,,,22,,,14,,,,,27,0.801920957,0.814814815,,,,,,,
decision,280,757749,0.0-83.0-2.0,,117.025,run_exp/static/images/task_images/land.jpg,65,,,,,,22,,,14,,,,,,,,116787,2,6,FALSE,,,
dig,281,760638,0.0-84.0-0.0,,,,,,,,,,,"[{""stimulus"":""run_exp/static/images/task_images/dig.jpg"",""time"":0.14499999990221113},{""stimulus"":""run_exp/static/images/task_images/land.jpg"",""time"":976.3549999999814},{""stimulus"":""run_exp/static/images/task_images/dig.jpg"",""time"":1926.0800000000745}]",[],14,,,,,,,,,,,,,,
harvest,282,761640,0.0-84.0-1.0,,null,run_exp/static/images/task_images/gems/22.jpg,null,,,,,,19,,,14,,,,,22,0.853084686,0.863636364,,,,,,,
decision,283,762057,0.0-84.0-2.0,,415.565,run_exp/static/images/task_images/land.jpg,76,,,,,,19,,,14,,,,,,,,121095,2,7,TRUE,,,
travel,284,771646,0.0-85.0-0.0,,,,,,,,,,,"[{""stimulus"":""run_exp/static/images/task_images/rocket-01.jpg"",""time"":0.12000000011175871},{""stimulus"":""run_exp/static/images/task_images/rocket-02.jpg"",""time"":1074.3100000001723},{""stimulus"":""run_exp/static/images/task_images/rocket-03.jpg"",""time"":2141.0400000001537},{""stimulus"":""run_exp/static/images/task_images/rocket-04.jpg"",""time"":3207.605000000098},{""stimulus"":""run_exp/static/images/task_images/rocket-05.jpg"",""time"":4263.750000000116},{""stimulus"":""run_exp/static/images/task_images/rocket-06.jpg"",""time"":5330.420000000042},{""stimulus"":""run_exp/static/images/task_images/rocket-07.jpg"",""time"":6386.655000000028},{""stimulus"":""run_exp/static/images/task_images/rocket-08.jpg"",""time"":7453.335000000196},{""stimulus"":""run_exp/static/images/task_images/rocket-09.jpg"",""time"":8519.459999999963}]",[],14,,,,,,,,,,,,,,
alien_welcome,285,776649,0.0-85.0-1.0,,null,run_exp/static/images/task_images/aliens/old_aliens/planet/alien_planet-56.jpg,null,,,,,,,,,,,,56,"75,30,46,73,8,22,47,12,70,21,33,69,65,67,56,3,34,48,5,53,4,9,59,38,51,7,26,58,29,28,54,1,55,40,20,6,27,72,74",,,,,,,,,,
land,286,777161,0.0-85.0-2.0,,null,run_exp/static/images/task_images/land.jpg,null,,,,,,99,,,15,,,,,,,,,,,,,,
dig,287,779176,0.0-85.0-3.0,,,,,,,,,,,"[{""stimulus"":""run_exp/static/images/task_images/dig.jpg"",""time"":0.17999999993480742},{""stimulus"":""run_exp/static/images/task_images/land.jpg"",""time"":670.0749999999534},{""stimulus"":""run_exp/static/images/task_images/dig.jpg"",""time"":1341.6899999999441}]",[],15,,,,,,,,,,,,,,
harvest,288,780179,0.0-85.0-4.0,,null,run_exp/static/images/task_images/gems/99.jpg,null,,,,,,82,,,15,,,,,99,0.828894097,0.828282828,,,,,,,
decision,289,780490,0.0-85.0-5.0,,309.035,run_exp/static/images/task_images/land.jpg,65,,,,,,82,,,15,,,,,,,,139528,2,0,FALSE,,,
dig,290,783192,0.0-86.0-0.0,,,,,,,,,,,"[{""stimulus"":""run_exp/static/images/task_images/dig.jpg"",""time"":0.1150000001071021},{""stimulus"":""run_exp/static/images/task_images/land.jpg"",""time"":902.4600000000792},{""stimulus"":""run_exp/static/images/task_images/dig.jpg"",""time"":1798.3549999999814}]",[],15,,,,,,,,,,,,,,
harvest,291,784200,0.0-86.0-1.0,,null,run_exp/static/images/task_images/gems/82.jpg,null,,,,,,56,,,15,,,,,82,0.683764615,0.682926829,,,,,,,
decision,292,784510,0.0-86.0-2.0,,308.135,run_exp/static/images/task_images/land.jpg,65,,,,,,56,,,15,,,,,,,,143548,2,1,FALSE,,,
dig,293,787213,0.0-87.0-0.0,,,,,,,,,,,"[{""stimulus"":""run_exp/static/images/task_images/dig.jpg"",""time"":0.1150000001071021},{""stimulus"":""run_exp/static/images/task_images/land.jpg"",""time"":914.2749999999069},{""stimulus"":""run_exp/static/images/task_images/dig.jpg"",""time"":1809.6249999998836}]",[],15,,,,,,,,,,,,,,
harvest,294,788233,0.0-87.0-1.0,,null,run_exp/static/images/task_images/gems/56.jpg,null,,,,,,50,,,15,,,,,56,0.89823141,0.892857143,,,,,,,
decision,295,789084,0.0-87.0-2.0,,849.775,run_exp/static/images/task_images/land.jpg,65,,,,,,50,,,15,,,,,,,,148122,2,2,FALSE,,,
dig,296,791251,0.0-88.0-0.0,,,,,,,,,,,"[{""stimulus"":""run_exp/static/images/task_images/dig.jpg"",""time"":0.11999999987892807},{""stimulus"":""run_exp/static/images/task_images/land.jpg"",""time"":733.7949999998091},{""stimulus"":""run_exp/static/images/task_images/dig.jpg"",""time"":1448.3350000000792}]",[],15,,,,,,,,,,,,,,
harvest,297,792265,0.0-88.0-1.0,,null,run_exp/static/images/task_images/gems/50.jpg,null,,,,,,37,,,15,,,,,50,0.735503684,0.74,,,,,,,
decision,298,792876,0.0-88.0-2.0,,610.04,run_exp/static/images/task_images/land.jpg,65,,,,,,37,,,15,,,,,,,,151915,2,3,FALSE,,,
dig,299,795283,0.0-89.0-0.0,,,,,,,,,,,"[{""stimulus"":""run_exp/static/images/task_images/dig.jpg"",""time"":0.18999999994412065},{""stimulus"":""run_exp/static/images/task_images/land.jpg"",""time"":813.5950000000885},{""stimulus"":""run_exp/static/images/task_images/dig.jpg"",""time"":1602.7350000001024}]",[],15,,,,,,,,,,,,,,
harvest,300,796285,0.0-89.0-1.0,,null,run_exp/static/images/task_images/gems/37.jpg,null,,,,,,33,,,15,,,,,37,0.904134444,0.891891892,,,,,,,
decision,301,796429,0.0-89.0-2.0,,142.44,run_exp/static/images/task_images/land.jpg,76,,,,,,33,,,15,,,,,,,,155467,2,4,TRUE,,,
travel,302,806291,0.0-90.0-0.0,,,,,,,,,,,"[{""stimulus"":""run_exp/static/images/task_images/rocket-01.jpg"",""time"":0.1100000002188608},{""stimulus"":""run_exp/static/images/task_images/rocket-02.jpg"",""time"":1112.580000000191},{""stimulus"":""run_exp/static/images/task_images/rocket-03.jpg"",""time"":2211.580000000191},{""stimulus"":""run_exp/static/images/task_images/rocket-04.jpg"",""time"":3288.5400000000373},{""stimulus"":""run_exp/static/images/task_images/rocket-05.jpg"",""time"":4392.270000000135},{""stimulus"":""run_exp/static/images/task_images/rocket-06.jpg"",""time"":5485.730000000098},{""stimulus"":""run_exp/static/images/task_images/rocket-07.jpg"",""time"":6574.000000000116},{""stimulus"":""run_exp/static/images/task_images/rocket-08.jpg"",""time"":7683.460000000196},{""stimulus"":""run_exp/static/images/task_images/rocket-09.jpg"",""time"":8761.0900000002}]",[],15,,,,,,,,,,,,,,
alien_welcome,303,811305,0.0-90.0-1.0,,null,run_exp/static/images/task_images/aliens/old_aliens/planet/alien_planet-3.jpg,null,,,,,,,,,,,,3,"75,30,46,73,8,22,47,12,70,21,33,69,65,67,56,3,34,48,5,53,4,9,59,38,51,7,26,58,29,28,54,1,55,40,20,6,27,72,74",,,,,,,,,,
land,304,811827,0.0-90.0-2.0,,null,run_exp/static/images/task_images/land.jpg,null,,,,,,104,,,16,,,,,,,,,,,,,,
dig,305,813843,0.0-90.0-3.0,,,,,,,,,,,"[{""stimulus"":""run_exp/static/images/task_images/dig.jpg"",""time"":0.3250000001862645},{""stimulus"":""run_exp/static/images/task_images/land.jpg"",""time"":671.0250000001397},{""stimulus"":""run_exp/static/images/task_images/dig.jpg"",""time"":1336.295000000042}]",[],16,,,,,,,,,,,,,,
harvest,306,814856,0.0-90.0-4.0,,null,run_exp/static/images/task_images/gems/104.jpg,null,,,,,,85,,,16,,,,,104,0.818411719,0.817307692,,,,,,,
decision,307,815240,0.0-90.0-5.0,,382.29,run_exp/static/images/task_images/land.jpg,65,,,,,,85,,,16,,,,,,,,174278,2,0,FALSE,,,
dig,308,817874,0.0-91.0-0.0,,,,,,,,,,,"[{""stimulus"":""run_exp/static/images/task_images/dig.jpg"",""time"":0.12500000011641532},{""stimulus"":""run_exp/static/images/task_images/land.jpg"",""time"":893.0400000001537},{""stimulus"":""run_exp/static/images/task_images/dig.jpg"",""time"":1746.3200000000652}]",[],16,,,,,,,,,,,,,,
harvest,309,818876,0.0-91.0-1.0,,null,run_exp/static/images/task_images/gems/85.jpg,null,,,,,,71,,,16,,,,,85,0.831847471,0.835294118,,,,,,,
decision,310,821885,0.0-91.0-2.0,,null,run_exp/static/images/task_images/land.jpg,null,,,,,,71,,,16,,,,,,,,180924,2,1,FALSE,,,
time_out,311,823891,0.0-92.0-0.0,,null,run_exp/static/images/task_images/time_out.jpg,null,,,,,,71,,,,,,,,,,,,,,,,,
decision,312,824569,0.0-92.0-1.0,,676.85,run_exp/static/images/task_images/land.jpg,65,,,,,,71,,,16,,,,,,,,183608,2,1,FALSE,,,
dig,313,826898,0.0-93.0-0.0,,,,,,,,,,,"[{""stimulus"":""run_exp/static/images/task_images/dig.jpg"",""time"":0.1299999998882413},{""stimulus"":""run_exp/static/images/task_images/land.jpg"",""time"":789.7749999999069},{""stimulus"":""run_exp/static/images/task_images/dig.jpg"",""time"":1568.884999999893}]",[],16,,,,,,,,,,,,,,
harvest,314,827913,0.0-93.0-1.0,,null,run_exp/static/images/task_images/gems/71.jpg,null,,,,,,56,,,16,,,,,71,0.783479438,0.788732394,,,,,,,
decision,315,828856,0.0-93.0-2.0,,941.8,run_exp/static/images/task_images/land.jpg,65,,,,,,56,,,16,,,,,,,,187894,2,2,FALSE,,,
dig,316,830931,0.0-94.0-0.0,,,,,,,,,,,"[{""stimulus"":""run_exp/static/images/task_images/dig.jpg"",""time"":0.15499999991152436},{""stimulus"":""run_exp/static/images/task_images/land.jpg"",""time"":694.5199999999022},{""stimulus"":""run_exp/static/images/task_images/dig.jpg"",""time"":1378.1499999999069}]",[],16,,,,,,,,,,,,,,
harvest,317,831933,0.0-94.0-1.0,,null,run_exp/static/images/task_images/gems/56.jpg,null,,,,,,39,,,16,,,,,56,0.696300842,0.696428571,,,,,,,
decision,318,833164,0.0-94.0-2.0,,1229.39,run_exp/static/images/task_images/land.jpg,65,,,,,,39,,,16,,,,,,,,192202,2,3,FALSE,,,
dig,319,834952,0.0-95.0-0.0,,,,,,,,,,,"[{""stimulus"":""run_exp/static/images/task_images/dig.jpg"",""time"":0.1150000001071021},{""stimulus"":""run_exp/static/images/task_images/land.jpg"",""time"":610.9000000001397},{""stimulus"":""run_exp/static/images/task_images/dig.jpg"",""time"":1197.3399999999674}]",[],16,,,,,,,,,,,,,,
harvest,320,835965,0.0-95.0-1.0,,null,run_exp/static/images/task_images/gems/39.jpg,null,,,,,,32,,,16,,,,,39,0.832180477,0.820512821,,,,,,,
decision,321,836583,0.0-95.0-2.0,,615.955,run_exp/static/images/task_images/land.jpg,76,,,,,,32,,,16,,,,,,,,195621,2,4,TRUE,,,
travel,322,845971,0.0-96.0-0.0,,,,,,,,,,,"[{""stimulus"":""run_exp/static/images/task_images/rocket-01.jpg"",""time"":0.125},{""stimulus"":""run_exp/static/images/task_images/rocket-02.jpg"",""time"":1043.4000000001397},{""stimulus"":""run_exp/static/images/task_images/rocket-03.jpg"",""time"":2099.6299999998882},{""stimulus"":""run_exp/static/images/task_images/rocket-04.jpg"",""time"":3144.649999999907},{""stimulus"":""run_exp/static/images/task_images/rocket-05.jpg"",""time"":4179.34999999986},{""stimulus"":""run_exp/static/images/task_images/rocket-06.jpg"",""time"":5214.649999999907},{""stimulus"":""run_exp/static/images/task_images/rocket-07.jpg"",""time"":6260},{""stimulus"":""run_exp/static/images/task_images/rocket-08.jpg"",""time"":7315.60999999987},{""stimulus"":""run_exp/static/images/task_images/rocket-09.jpg"",""time"":8339.535000000149}]",[],16,,,,,,,,,,,,,,
alien_welcome,323,850984,0.0-96.0-1.0,,null,run_exp/static/images/task_images/aliens/old_aliens/planet/alien_planet-34.jpg,null,,,,,,,,,,,,34,"75,30,46,73,8,22,47,12,70,21,33,69,65,67,56,3,34,48,5,53,4,9,59,38,51,7,26,58,29,28,54,1,55,40,20,6,27,72,74",,,,,,,,,,
land,324,851506,0.0-96.0-2.0,,null,run_exp/static/images/task_images/land.jpg,null,,,,,,101,,,17,,,,,,,,,,,,,,
dig,325,853512,0.0-96.0-3.0,,,,,,,,,,,"[{""stimulus"":""run_exp/static/images/task_images/dig.jpg"",""time"":0.17999999993480742},{""stimulus"":""run_exp/static/images/task_images/land.jpg"",""time"":670.3700000001118},{""stimulus"":""run_exp/static/images/task_images/dig.jpg"",""time"":1344.8600000001024}]",[],17,,,,,,,,,,,,,,
harvest,326,854515,0.0-96.0-4.0,,null,run_exp/static/images/task_images/gems/101.jpg,null,,,,,,78,,,17,,,,,101,0.77572952,0.772277228,,,,,,,
decision,327,854826,0.0-96.0-5.0,,309.095,run_exp/static/images/task_images/land.jpg,65,,,,,,78,,,17,,,,,,,,213864,2,0,FALSE,,,
dig,328,857532,0.0-97.0-0.0,,,,,,,,,,,"[{""stimulus"":""run_exp/static/images/task_images/dig.jpg"",""time"":0.125},{""stimulus"":""run_exp/static/images/task_images/land.jpg"",""time"":899.4599999997299},{""stimulus"":""run_exp/static/images/task_images/dig.jpg"",""time"":1808.5799999998417}]",[],17,,,,,,,,,,,,,,
harvest,329,858557,0.0-97.0-1.0,,null,run_exp/static/images/task_images/gems/78.jpg,null,,,,,,65,,,17,,,,,78,0.830151883,0.833333333,,,,,,,
decision,330,858751,0.0-97.0-2.0,,191.85,run_exp/static/images/task_images/land.jpg,65,,,,,,65,,,17,,,,,,,,217789,2,1,FALSE,,,
dig,331,861565,0.0-98.0-0.0,,,,,,,,,,,"[{""stimulus"":""run_exp/static/images/task_images/dig.jpg"",""time"":0.12500000023283064},{""stimulus"":""run_exp/static/images/task_images/land.jpg"",""time"":941.440000000177},{""stimulus"":""run_exp/static/images/task_images/dig.jpg"",""time"":1883.5250000001397}]",[],17,,,,,,,,,,,,,,
harvest,332,862568,0.0-98.0-1.0,,null,run_exp/static/images/task_images/gems/65.jpg,null,,,,,,56,,,17,,,,,65,0.864507786,0.861538462,,,,,,,
decision,333,863118,0.0-98.0-2.0,,547.64,run_exp/static/images/task_images/land.jpg,65,,,,,,56,,,17,,,,,,,,222156,2,2,FALSE,,,
dig,334,865586,0.0-99.0-0.0,,,,,,,,,,,"[{""stimulus"":""run_exp/static/images/task_images/dig.jpg"",""time"":0.11499999999068677},{""stimulus"":""run_exp/static/images/task_images/land.jpg"",""time"":832.9650000000838},{""stimulus"":""run_exp/static/images/task_images/dig.jpg"",""time"":1644.0300000002608}]",[],17,,,,,,,,,,,,,,
harvest,335,866600,0.0-99.0-1.0,,null,run_exp/static/images/task_images/gems/56.jpg,null,,,,,,45,,,17,,,,,56,0.807821677,0.803571429,,,,,,,
decision,336,868815,0.0-99.0-2.0,,2213.74,run_exp/static/images/task_images/land.jpg,65,,,,,,45,,,17,,,,,,,,227853,2,3,FALSE,,,
dig,337,869608,0.0-100.0-0.0,,,,,,,,,,,"[{""stimulus"":""run_exp/static/images/task_images/dig.jpg"",""time"":0.23499999986961484},{""stimulus"":""run_exp/static/images/task_images/land.jpg"",""time"":276.63999999989755},{""stimulus"":""run_exp/static/images/task_images/dig.jpg"",""time"":543.6400000001304}]",[],17,,,,,,,,,,,,,,
harvest,338,870621,0.0-100.0-1.0,,null,run_exp/static/images/task_images/gems/45.jpg,null,,,,,,36,,,17,,,,,45,0.794498478,0.8,,,,,,,
decision,339,871412,0.0-100.0-2.0,,788.89,run_exp/static/images/task_images/land.jpg,76,,,,,,36,,,17,,,,,,,,230450,2,4,TRUE,,,
travel,340,880627,0.0-101.0-0.0,,,,,,,,,,,"[{""stimulus"":""run_exp/static/images/task_images/rocket-01.jpg"",""time"":0.11499999999068677},{""stimulus"":""run_exp/static/images/task_images/rocket-02.jpg"",""time"":1034.9499999999534},{""stimulus"":""run_exp/static/images/task_images/rocket-03.jpg"",""time"":2064.2700000000186},{""stimulus"":""run_exp/static/images/task_images/rocket-04.jpg"",""time"":3088.1200000001118},{""stimulus"":""run_exp/static/images/task_images/rocket-05.jpg"",""time"":4101.895000000019},{""stimulus"":""run_exp/static/images/task_images/rocket-06.jpg"",""time"":5136.084999999963},{""stimulus"":""run_exp/static/images/task_images/rocket-07.jpg"",""time"":6139.364999999991},{""stimulus"":""run_exp/static/images/task_images/rocket-08.jpg"",""time"":7163.280000000028},{""stimulus"":""run_exp/static/images/task_images/rocket-09.jpg"",""time"":8187.1349999997765}]",[],17,,,,,,,,,,,,,,
alien_welcome,341,885641,0.0-101.0-1.0,,null,run_exp/static/images/task_images/aliens/old_aliens/planet/alien_planet-48.jpg,null,,,,,,,,,,,,48,"75,30,46,73,8,22,47,12,70,21,33,69,65,67,56,3,34,48,5,53,4,9,59,38,51,7,26,58,29,28,54,1,55,40,20,6,27,72,74",,,,,,,,,,
land,342,886163,0.0-101.0-2.0,,null,run_exp/static/images/task_images/land.jpg,null,,,,,,90,,,18,,,,,,,,,,,,,,
dig,343,888168,0.0-101.0-3.0,,,,,,,,,,,"[{""stimulus"":""run_exp/static/images/task_images/dig.jpg"",""time"":0.21500000008381903},{""stimulus"":""run_exp/static/images/task_images/land.jpg"",""time"":670.6049999999814},{""stimulus"":""run_exp/static/images/task_images/dig.jpg"",""time"":1342.2950000001583}]",[],18,,,,,,,,,,,,,,
harvest,344,889181,0.0-101.0-4.0,,null,run_exp/static/images/task_images/gems/90.jpg,null,,,,,,70,,,18,,,,,90,0.775296971,0.777777778,,,,,,,
decision,345,889573,0.0-101.0-5.0,,390.25,run_exp/static/images/task_images/land.jpg,65,,,,,,70,,,18,,,,,,,,248611,2,0,FALSE,,,
dig,346,892190,0.0-102.0-0.0,,,,,,,,,,,"[{""stimulus"":""run_exp/static/images/task_images/dig.jpg"",""time"":0.125},{""stimulus"":""run_exp/static/images/task_images/land.jpg"",""time"":885.7450000001118},{""stimulus"":""run_exp/static/images/task_images/dig.jpg"",""time"":1749.7350000001024}]",[],18,,,,,,,,,,,,,,
harvest,347,893203,0.0-102.0-1.0,,null,run_exp/static/images/task_images/gems/70.jpg,null,,,,,,52,,,18,,,,,70,0.736930772,0.742857143,,,,,,,
decision,348,893445,0.0-102.0-2.0,,241.38,run_exp/static/images/task_images/land.jpg,65,,,,,,52,,,18,,,,,,,,252484,2,1,FALSE,,,
dig,349,896211,0.0-103.0-0.0,,,,,,,,,,,"[{""stimulus"":""run_exp/static/images/task_images/dig.jpg"",""time"":0.14500000001862645},{""stimulus"":""run_exp/static/images/task_images/land.jpg"",""time"":927.7700000000186},{""stimulus"":""run_exp/static/images/task_images/dig.jpg"",""time"":1855.5349999999162}]",[],18,,,,,,,,,,,,,,
harvest,350,897219,0.0-103.0-1.0,,null,run_exp/static/images/task_images/gems/52.jpg,null,,,,,,43,,,18,,,,,52,0.833219137,0.826923077,,,,,,,
decision,351,897931,0.0-103.0-2.0,,711.295,run_exp/static/images/task_images/land.jpg,65,,,,,,43,,,18,,,,,,,,256969,2,2,FALSE,,,
dig,352,900231,0.0-104.0-0.0,,,,,,,,,,,"[{""stimulus"":""run_exp/static/images/task_images/dig.jpg"",""time"":0.13500000000931323},{""stimulus"":""run_exp/static/images/task_images/land.jpg"",""time"":772.190000000177},{""stimulus"":""run_exp/static/images/task_images/dig.jpg"",""time"":1529.7450000001118}]",[],18,,,,,,,,,,,,,,
harvest,353,901234,0.0-104.0-1.0,,null,run_exp/static/images/task_images/gems/43.jpg,null,,,,,,31,,,18,,,,,43,0.72553435,0.720930233,,,,,,,
decision,354,901268,0.0-104.0-2.0,,32.25,run_exp/static/images/task_images/land.jpg,65,,,,,,31,,,18,,,,,,,,260306,2,3,FALSE,,,
dig,355,904247,0.0-105.0-0.0,,,,,,,,,,,"[{""stimulus"":""run_exp/static/images/task_images/dig.jpg"",""time"":0.125},{""stimulus"":""run_exp/static/images/task_images/land.jpg"",""time"":998.4699999999721},{""stimulus"":""run_exp/static/images/task_images/dig.jpg"",""time"":1980.5400000000373}]",[],18,,,,,,,,,,,,,,
harvest,356,905256,0.0-105.0-1.0,,null,run_exp/static/images/task_images/gems/31.jpg,null,,,,,,26,,,18,,,,,31,0.832529822,0.838709677,,,,,,,
decision,357,905525,0.0-105.0-2.0,,266.975,run_exp/static/images/task_images/land.jpg,65,,,,,,26,,,18,,,,,,,,264563,2,4,FALSE,,,
dig,358,908264,0.0-106.0-0.0,,,,,,,,,,,"[{""stimulus"":""run_exp/static/images/task_images/dig.jpg"",""time"":0.16499999980442226},{""stimulus"":""run_exp/static/images/task_images/land.jpg"",""time"":923.0700000000652},{""stimulus"":""run_exp/static/images/task_images/dig.jpg"",""time"":1829.8950000000186}]",[],18,,,,,,,,,,,,,,
harvest,359,909278,0.0-106.0-1.0,,null,run_exp/static/images/task_images/gems/26.jpg,null,,,,,,22,,,18,,,,,26,0.844316664,0.846153846,,,,,,,
decision,360,909801,0.0-106.0-2.0,,521.455,run_exp/static/images/task_images/land.jpg,76,,,,,,22,,,18,,,,,,,,268839,2,5,TRUE,,,
travel,361,919283,0.0-107.0-0.0,,,,,,,,,,,"[{""stimulus"":""run_exp/static/images/task_images/rocket-01.jpg"",""time"":0.13500000000931323},{""stimulus"":""run_exp/static/images/task_images/rocket-02.jpg"",""time"":1074.0549999999348},{""stimulus"":""run_exp/static/images/task_images/rocket-03.jpg"",""time"":2118.864999999758},{""stimulus"":""run_exp/static/images/task_images/rocket-04.jpg"",""time"":3164.5449999999255},{""stimulus"":""run_exp/static/images/task_images/rocket-05.jpg"",""time"":4232.014999999898},{""stimulus"":""run_exp/static/images/task_images/rocket-06.jpg"",""time"":5266.449999999953},{""stimulus"":""run_exp/static/images/task_images/rocket-07.jpg"",""time"":6333.054999999935},{""stimulus"":""run_exp/static/images/task_images/rocket-08.jpg"",""time"":7388.659999999916},{""stimulus"":""run_exp/static/images/task_images/rocket-09.jpg"",""time"":8433.97499999986}]",[],18,,,,,,,,,,,,,,
alien_welcome,362,924297,0.0-107.0-1.0,,null,run_exp/static/images/task_images/aliens/old_aliens/planet/alien_planet-5.jpg,null,,,,,,,,,,,,5,"75,30,46,73,8,22,47,12,70,21,33,69,65,67,56,3,34,48,5,53,4,9,59,38,51,7,26,58,29,28,54,1,55,40,20,6,27,72,74",,,,,,,,,,
land,363,924819,0.0-107.0-2.0,,null,run_exp/static/images/task_images/land.jpg,null,,,,,,106,,,19,,,,,,,,,,,,,,
dig,364,926846,0.0-107.0-3.0,,,,,,,,,,,"[{""stimulus"":""run_exp/static/images/task_images/dig.jpg"",""time"":0.3000000002793968},{""stimulus"":""run_exp/static/images/task_images/land.jpg"",""time"":669.75},{""stimulus"":""run_exp/static/images/task_images/dig.jpg"",""time"":1340.8650000002235}]",[],19,,,,,,,,,,,,,,
harvest,365,927859,0.0-107.0-4.0,,null,run_exp/static/images/task_images/gems/106.jpg,null,,,,,,61,,,19,,,,,106,0.571036487,0.575471698,,,,,,,
decision,366,928103,0.0-107.0-5.0,,242.49,run_exp/static/images/task_images/land.jpg,65,,,,,,61,,,19,,,,,,,,287141,2,0,FALSE,,,
dig,367,930877,0.0-108.0-0.0,,,,,,,,,,,"[{""stimulus"":""run_exp/static/images/task_images/dig.jpg"",""time"":0.125},{""stimulus"":""run_exp/static/images/task_images/land.jpg"",""time"":925.5250000001397},{""stimulus"":""run_exp/static/images/task_images/dig.jpg"",""time"":1853.9950000001118}]",[],19,,,,,,,,,,,,,,
harvest,368,931891,0.0-108.0-1.0,,null,run_exp/static/images/task_images/gems/61.jpg,null,,,,,,34,,,19,,,,,61,0.557632809,0.557377049,,,,,,,
decision,369,932125,0.0-108.0-2.0,,232.555,run_exp/static/images/task_images/land.jpg,65,,,,,,34,,,19,,,,,,,,291163,2,1,FALSE,,,
dig,370,934910,0.0-109.0-0.0,,,,,,,,,,,"[{""stimulus"":""run_exp/static/images/task_images/dig.jpg"",""time"":0.11499999975785613},{""stimulus"":""run_exp/static/images/task_images/land.jpg"",""time"":924.7249999998603},{""stimulus"":""run_exp/static/images/task_images/dig.jpg"",""time"":1863.404999999795}]",[],19,,,,,,,,,,,,,,
harvest,371,935923,0.0-109.0-1.0,,null,run_exp/static/images/task_images/gems/34.jpg,null,,,,,,17,,,19,,,,,34,0.497756347,0.5,,,,,,,
decision,372,936852,0.0-109.0-2.0,,927.76,run_exp/static/images/task_images/land.jpg,76,,,,,,17,,,19,,,,,,,,295890,2,2,TRUE,,,
travel,373,945949,0.0-110.0-0.0,,,,,,,,,,,"[{""stimulus"":""run_exp/static/images/task_images/rocket-01.jpg"",""time"":0.125},{""stimulus"":""run_exp/static/images/task_images/rocket-02.jpg"",""time"":1020.6000000000931},{""stimulus"":""run_exp/static/images/task_images/rocket-03.jpg"",""time"":2017.4350000000559},{""stimulus"":""run_exp/static/images/task_images/rocket-04.jpg"",""time"":3036.0149999998976},{""stimulus"":""run_exp/static/images/task_images/rocket-05.jpg"",""time"":4033.3549999999814},{""stimulus"":""run_exp/static/images/task_images/rocket-06.jpg"",""time"":5041.550000000047},{""stimulus"":""run_exp/static/images/task_images/rocket-07.jpg"",""time"":6054.51500000013},{""stimulus"":""run_exp/static/images/task_images/rocket-08.jpg"",""time"":7057.779999999795},{""stimulus"":""run_exp/static/images/task_images/rocket-09.jpg"",""time"":8071.465000000084}]",[],19,,,,,,,,,,,,,,
alien_welcome,374,950963,0.0-110.0-1.0,,null,run_exp/static/images/task_images/aliens/old_aliens/planet/alien_planet-53.jpg,null,,,,,,,,,,,,53,"75,30,46,73,8,22,47,12,70,21,33,69,65,67,56,3,34,48,5,53,4,9,59,38,51,7,26,58,29,28,54,1,55,40,20,6,27,72,74",,,,,,,,,,
land,375,951475,0.0-110.0-2.0,,null,run_exp/static/images/task_images/land.jpg,null,,,,,,101,,,20,,,,,,,,,,,,,,
dig,376,953480,0.0-110.0-3.0,,,,,,,,,,,"[{""stimulus"":""run_exp/static/images/task_images/dig.jpg"",""time"":0.2949999999254942},{""stimulus"":""run_exp/static/images/task_images/land.jpg"",""time"":670.6999999999534},{""stimulus"":""run_exp/static/images/task_images/dig.jpg"",""time"":1342.0149999998976}]",[],20,,,,,,,,,,,,,,
harvest,377,954494,0.0-110.0-4.0,,null,run_exp/static/images/task_images/gems/101.jpg,null,,,,,,87,,,20,,,,,101,0.863387042,0.861386139,,,,,,,
decision,378,954939,0.0-110.0-5.0,,443.525,run_exp/static/images/task_images/land.jpg,65,,,,,,87,,,20,,,,,,,,313977,2,0,TRUE,,,
end_of_block_continue,379,958154,0.0-111.0-0.0,,3210.735,run_exp/static/audio/clip_32_block_end.m4a,,,,,,0,,,,,,,,,,,,,,,,,,
alien_welcome,380,963166,0.0-112.0-0.0,,null,run_exp/static/images/task_images/aliens/old_aliens/planet/alien_planet-4.jpg,null,,,,,,,,,,,,4,"75,30,46,73,8,22,47,12,70,21,33,69,65,67,56,3,34,48,5,53,4,9,59,38,51,7,26,58,29,28,54,1,55,40,20,6,27,72,74",,,,,,,,,,
land,381,963688,0.0-112.0-1.0,,null,run_exp/static/images/task_images/land.jpg,null,,,,,,100,,,21,,,,,,,,,,,,,,
dig,382,965693,0.0-112.0-2.0,,,,,,,,,,,"[{""stimulus"":""run_exp/static/images/task_images/dig.jpg"",""time"":0.2249999998603016},{""stimulus"":""run_exp/static/images/task_images/land.jpg"",""time"":670.6799999999348},{""stimulus"":""run_exp/static/images/task_images/dig.jpg"",""time"":1342.3549999999814}]",[],21,,,,,,,,,,,,,,
harvest,383,966707,0.0-112.0-3.0,,null,run_exp/static/images/task_images/gems/100.jpg,null,,,,,,47,,,21,,,,,100,0.470148899,0.47,,,,,,,
decision,384,967161,0.0-112.0-4.0,,452.43,run_exp/static/images/task_images/land.jpg,65,,,,,,47,,,21,,,,,,,,9004,3,0,FALSE,,,
dig,385,969715,0.0-113.0-0.0,,,,,,,,,,,"[{""stimulus"":""run_exp/static/images/task_images/dig.jpg"",""time"":0.14999999990686774},{""stimulus"":""run_exp/static/images/task_images/land.jpg"",""time"":854.6099999998696},{""stimulus"":""run_exp/static/images/task_images/dig.jpg"",""time"":1707.4749999998603}]",[],21,,,,,,,,,,,,,,
harvest,386,970728,0.0-113.0-1.0,,null,run_exp/static/images/task_images/gems/47.jpg,null,,,,,,28,,,21,,,,,47,0.598575328,0.595744681,,,,,,,
decision,387,970940,0.0-113.0-2.0,,210.86,run_exp/static/images/task_images/land.jpg,65,,,,,,28,,,21,,,,,,,,12783,3,1,FALSE,,,
dig,388,973747,0.0-114.0-0.0,,,,,,,,,,,"[{""stimulus"":""run_exp/static/images/task_images/dig.jpg"",""time"":0.13500000000931323},{""stimulus"":""run_exp/static/images/task_images/land.jpg"",""time"":936.8899999998976},{""stimulus"":""run_exp/static/images/task_images/dig.jpg"",""time"":1873.5049999998882}]",[],21,,,,,,,,,,,,,,
harvest,389,974750,0.0-114.0-1.0,,null,run_exp/static/images/task_images/gems/28.jpg,null,,,,,,13,,,21,,,,,28,0.471565828,0.464285714,,,,,,,
decision,390,974923,0.0-114.0-2.0,,172.035,run_exp/static/images/task_images/land.jpg,65,,,,,,13,,,21,,,,,,,,16766,3,2,FALSE,,,
dig,391,977768,0.0-115.0-0.0,,,,,,,,,,,"[{""stimulus"":""run_exp/static/images/task_images/dig.jpg"",""time"":0.12000000011175871},{""stimulus"":""run_exp/static/images/task_images/land.jpg"",""time"":954.2800000000279},{""stimulus"":""run_exp/static/images/task_images/dig.jpg"",""time"":1884.7800000002608}]",[],21,,,,,,,,,,,,,,
harvest,392,978771,0.0-115.0-1.0,,null,run_exp/static/images/task_images/gems/13.jpg,null,,,,,,7,,,21,,,,,13,0.507164671,0.538461538,,,,,,,
decision,393,979595,0.0-115.0-2.0,,822.995,run_exp/static/images/task_images/land.jpg,76,,,,,,7,,,21,,,,,,,,21438,3,3,TRUE,,,
travel,394,988776,0.0-116.0-0.0,,,,,,,,,,,"[{""stimulus"":""run_exp/static/images/task_images/rocket-01.jpg"",""time"":0.12000000011175871},{""stimulus"":""run_exp/static/images/task_images/rocket-02.jpg"",""time"":1038.9450000000652},{""stimulus"":""run_exp/static/images/task_images/rocket-03.jpg"",""time"":2041.6200000001118},{""stimulus"":""run_exp/static/images/task_images/rocket-04.jpg"",""time"":3076.9550000000745},{""stimulus"":""run_exp/static/images/task_images/rocket-05.jpg"",""time"":4089.590000000084},{""stimulus"":""run_exp/static/images/task_images/rocket-06.jpg"",""time"":5103.15000000014},{""stimulus"":""run_exp/static/images/task_images/rocket-07.jpg"",""time"":6127.0449999999255},{""stimulus"":""run_exp/static/images/task_images/rocket-08.jpg"",""time"":7140.610000000102},{""stimulus"":""run_exp/static/images/task_images/rocket-09.jpg"",""time"":8164.510000000009}]",[],21,,,,,,,,,,,,,,
alien_welcome,395,993790,0.0-116.0-1.0,,null,run_exp/static/images/task_images/aliens/old_aliens/planet/alien_planet-9.jpg,null,,,,,,,,,,,,9,"75,30,46,73,8,22,47,12,70,21,33,69,65,67,56,3,34,48,5,53,4,9,59,38,51,7,26,58,29,28,54,1,55,40,20,6,27,72,74",,,,,,,,,,
land,396,994306,0.0-116.0-2.0,,null,run_exp/static/images/task_images/land.jpg,null,,,,,,99,,,22,,,,,,,,,,,,,,
dig,397,996328,0.0-116.0-3.0,,,,,,,,,,,"[{""stimulus"":""run_exp/static/images/task_images/dig.jpg"",""time"":0.19999999995343387},{""stimulus"":""run_exp/static/images/task_images/land.jpg"",""time"":688.3900000001304},{""stimulus"":""run_exp/static/images/task_images/dig.jpg"",""time"":1338.1850000000559}]",[],22,,,,,,,,,,,,,,
