trial_type,trial_index,time_elapsed,internal_node_id,success,rt,stimulus,key_press,prompt,subject_id,age,gender,button_pressed,next_reward,animation_sequence,responses,planet,curr_prac_trial,n_prac_rounds,alien,aliens,reward_received,decay_rate_actual,decay_rate_exp,time_in_block,block_num,prt,last_trial_on_planet,button_html,bonus,num_failures
pavlovia,0,3,0.0-0.0,,,,,,,,,,,,,,,,,,,,,,,,,,,
fullscreen,1,4714,0.0-1.0,TRUE,,,,,,,,,,,,,,,,,,,,,,,,,,
instruc_welcome,2,14485,0.0-2.0,,null,run_exp/static/audio/clip_1_welcome.m4a,null,"<p>Howdy! In this experiment, you’ll be an explorer traveling through space to collect space treasure.</p><p>Your mission is to collect as much treasure as possible.</p><br><br><p><img src='run_exp/static/images/task_images/opening_img-01.jpg' height='300' width='auto'></p>",QFth44Y2vlatbHS_1Y3uCvx5VSxv8Zo_MLRP_868NOQtuWCa8cbs,14.75,male,,,,,,,,,,,,,,,,,,,
audio-keyboard-response,3,31059,0.0-3.0,,null,run_exp/static/audio/clip_2_move.m4a,null,,,,,,,,,,,,,,,,,,,,,,,
welcome_dec,4,34774,0.0-4.0,,3705.7,"<p>Howdy! In this experiment, you’ll be an explorer traveling through space to collect space treasure.</p><p>Your mission is to collect as much treasure as possible.</p><br><br><p><img src='run_exp/static/images/task_images/opening_img-01.jpg' height='300' width='auto'></p>",,,,,,1,,,,,,,,,,,,,,,,,,
html-keyboard-response,5,36041,0.0-5.0,,1263,"<p>Howdy! In this experiment, you’ll be an explorer traveling through space to collect space treasure.</p><p>Your mission is to collect as much treasure as possible.</p><br><br><p><img src='run_exp/static/images/task_images/opening_img-01.jpg' height='300' width='auto'></p><button class=""jspsych-html-btn-unchosen""><img src=""run_exp/static/images/task_images/planet-01.jpg"" height=""50""></button><button class=""jspsych-html-btn-chosen""><img src=""run_exp/static/images/task_images/planet-02.jpg"" height=""50""></button><p><b>[press the space bar to lock in your answer]<b><br></p>",32,,,,,,,,,,,,,,,,,,,,,,,
instruc_goal,6,46078,0.0-6.0-0.0,,null,run_exp/static/audio/clip_3_goal.m4a,null,"<p> As a space explorer, you’ll visit different planets to dig for space treasure, these pink gems.</p> <p> The more treasure you dig up, the more bonus money you’ll win! </p><br><br><p><img src='run_exp/static/images/task_images/pink_gem.jpg' height='300' width='auto'></p>",,,,,,,,,,,,,,,,,,,,,,
instruc_goal,7,50244,0.0-6.0-1.0,,4157.7,"<p> As a space explorer, you’ll visit different planets to dig for space treasure, these pink gems.</p> <p> The more treasure you dig up, the more bonus money you’ll win! </p><br><br><p><img src='run_exp/static/images/task_images/pink_gem.jpg' height='300' width='auto'></p>",,,,,,1,,,,,,,,,,,,,,,,,,
html-keyboard-response,8,50414,0.0-6.0-2.0,,167.1,"<p> As a space explorer, you’ll visit different planets to dig for space treasure, these pink gems.</p> <p> The more treasure you dig up, the more bonus money you’ll win! </p><br><br><p><img src='run_exp/static/images/task_images/pink_gem.jpg' height='300' width='auto'></p><button class=""jspsych-html-btn-unchosen""><img src=""run_exp/static/images/task_images/planet-01.jpg"" height=""50""></button><button class=""jspsych-html-btn-chosen""><img src=""run_exp/static/images/task_images/planet-02.jpg"" height=""50""></button><p><b>[press the space bar to lock in your answer]<b><br></p>",32,,,,,,,,,,,,,,,,,,,,,,,
instruc_dig,9,66408,0.0-7.0-0.0,,null,run_exp/static/audio/clip_4_dig.m4a,null,,,,,,100,,,,,,,,,,,,,,,,,
instruc_dig_try,10,67312,0.0-7.0-1.0,,900.7,"<p> When you’ve arrived at a new planet, you will dig once. </p> <p>Then, you get to decide if you want to stay on the planet and dig again or travel to a new planet and dig there.</p> <p> To stay and dig, press the letter <strong>‘A’</strong> on your keyboard. Try pressing it now! </p><p><img src='run_exp/static/images/task_images/land.jpg'  height='700' width='auto'></p>",65,"<p> When you’ve arrived at a new planet, you will dig once. </p> <p>Then, you get to decide if you want to stay on the planet and dig again or travel to a new planet and dig there.</p> <p> To stay and dig, press the letter <strong>‘A’</strong> on your keyboard. Try pressing it now! </p><p><img src='run_exp/static/images/task_images/land.jpg'  height='700' width='auto'></p>",,,,,100,,,,,,,,,,,,,,,,,
dig_prac,11,69327,0.0-7.0-2.0,,,,,,,,,,,"[{""stimulus"":""run_exp/static/images/task_images/dig.jpg"",""time"":0.4000000059604645},{""stimulus"":""run_exp/static/images/task_images/land.jpg"",""time"":671.5},{""stimulus"":""run_exp/static/images/task_images/dig.jpg"",""time"":1340.5}]",[],,,,,,,,,,,,,,,
instruc_travel,12,105555,0.0-7.0-3.0,,null,run_exp/static/audio/clip_5_travel.m4a,null,"<p>Every time you dig up gems, there are less gems on the planet, so the more you dig on a planet the fewer gems you’ll get with each dig.</p><p>When gems are running low, you may want to travel to a new planet. </p> <p>  Planets are very far apart in this galaxy, so it will take some time to travel between them. </p> <br><p>There are lots and lots of planets for you to visit, so you won’t be able to return to any planets you’ve seen before. </p><br><p>To leave this planet and travel to a new one, press the letter <strong>‘L’</strong> on your keyboard. Try pressing it now! </p><p><img src='run_exp/static/images/task_images/rocket-01.jpg'  height='600' width='auto'></p>",,,,,,,,,,,,,,,,,,,,,,
instruc_travel_try,13,106453,0.0-7.0-4.0,,895.3,"<p>Every time you dig up gems, there are less gems on the planet, so the more you dig on a planet the fewer gems you’ll get with each dig.</p><p>When gems are running low, you may want to travel to a new planet. </p> <p>  Planets are very far apart in this galaxy, so it will take some time to travel between them. </p> <br><p>There are lots and lots of planets for you to visit, so you won’t be able to return to any planets you’ve seen before. </p><br><p>To leave this planet and travel to a new one, press the letter <strong>‘L’</strong> on your keyboard. Try pressing it now! </p><p><img src='run_exp/static/images/task_images/rocket-01.jpg'  height='600' width='auto'></p>",76,"<p>Every time you dig up gems, there are less gems on the planet, so the more you dig on a planet the fewer gems you’ll get with each dig.</p><p>When gems are running low, you may want to travel to a new planet. </p> <p>  Planets are very far apart in this galaxy, so it will take some time to travel between them. </p> <br><p>There are lots and lots of planets for you to visit, so you won’t be able to return to any planets you’ve seen before. </p><br><p>To leave this planet and travel to a new one, press the letter <strong>‘L’</strong> on your keyboard. Try pressing it now! </p><p><img src='run_exp/static/images/task_images/rocket-01.jpg'  height='600' width='auto'></p>",,,,,,,,,,,,,,,,,,,,,,
travel_prac,14,116461,0.0-7.0-5.0,,,,,,,,,,,"[{""stimulus"":""run_exp/static/images/task_images/rocket-01.jpg"",""time"":0.800000011920929},{""stimulus"":""run_exp/static/images/task_images/rocket-02.jpg"",""time"":1115.0999999940395},{""stimulus"":""run_exp/static/images/task_images/rocket-03.jpg"",""time"":2229.0999999940395},{""stimulus"":""run_exp/static/images/task_images/rocket-04.jpg"",""time"":3339.5999999940395},{""stimulus"":""run_exp/static/images/task_images/rocket-05.jpg"",""time"":4450.5999999940395},{""stimulus"":""run_exp/static/images/task_images/rocket-06.jpg"",""time"":5562},{""stimulus"":""run_exp/static/images/task_images/rocket-07.jpg"",""time"":6673},{""stimulus"":""run_exp/static/images/task_images/rocket-08.jpg"",""time"":7782.4000000059605},{""stimulus"":""run_exp/static/images/task_images/rocket-09.jpg"",""time"":8892.699999988079}]",[],0,,,,,,,,,,,,,,
instruc_alien_greet,15,143635,0.0-7.0-6.0,,null,run_exp/static/audio/clip_6_alien.m4a,null,"<p>When you arrive at a new planet, the alien who owns the treasure mine on that planet will greet you!</p><p>The better an alien takes care of their mine the easier it is to dig for gems. Some aliens take better care of their mine than others. So, you won’t get exactly the same amount of gems on each planet.</p><p>What the alien looks like does not tell you anything about how many gems there are on the planet.</p><br><p><img src=""run_exp/static/images/task_images/aliens/instructions_aliens/planet/alien_planet-1.jpg""  height=""600"" width=""auto""></p>",,,,,,,,,,,,,,,,,,,,,,
instruc_alien_greet,16,145186,0.0-7.0-7.0,,1547.5,"<p>When you arrive at a new planet, the alien who owns the treasure mine on that planet will greet you!</p><p>The better an alien takes care of their mine the easier it is to dig for gems. Some aliens take better care of their mine than others. So, you won’t get exactly the same amount of gems on each planet.</p><p>What the alien looks like does not tell you anything about how many gems there are on the planet.</p><br><p><img src=""run_exp/static/images/task_images/aliens/instructions_aliens/planet/alien_planet-1.jpg""  height=""600"" width=""auto""></p>",,,,,,1,,,,,,,,,,,,,,,,,,
html-keyboard-response,17,145816,0.0-7.0-8.0,,627.8,"<p>When you arrive at a new planet, the alien who owns the treasure mine on that planet will greet you!</p><p>The better an alien takes care of their mine the easier it is to dig for gems. Some aliens take better care of their mine than others. So, you won’t get exactly the same amount of gems on each planet.</p><p>What the alien looks like does not tell you anything about how many gems there are on the planet.</p><br><p><img src=""run_exp/static/images/task_images/aliens/instructions_aliens/planet/alien_planet-1.jpg""  height=""600"" width=""auto""></p><button class=""jspsych-html-btn-unchosen""><img src=""run_exp/static/images/task_images/planet-01.jpg"" height=""50""></button><button class=""jspsych-html-btn-chosen""><img src=""run_exp/static/images/task_images/planet-02.jpg"" height=""50""></button><p><b>[press the space bar to lock in your answer]<b><br></p>",32,,,,,,,,,,,,,,,,,,,,,,,
time_out,18,156883,0.0-8.0-0.0,,null,run_exp/static/audio/clip_7_timeout.m4a,null,"<p>If you don't make your choice fast enough, you’ll have to wait a few seconds before you can make another one.</p><p>You can’t dig for more gems or travel to new planets. You just have to sit and wait.</p><br><p><img src='run_exp/static/images/task_images/time_out.jpg'  height='600' width='auto'></p>",,,,,,,,,,,,,,,,,,,,,,
time_out,19,158224,0.0-8.0-1.0,,1338.4,"<p>If you don't make your choice fast enough, you’ll have to wait a few seconds before you can make another one.</p><p>You can’t dig for more gems or travel to new planets. You just have to sit and wait.</p><br><p><img src='run_exp/static/images/task_images/time_out.jpg'  height='600' width='auto'></p>",,,,,,1,,,,,,,,,,,,,,,,,,
html-keyboard-response,20,159384,0.0-8.0-2.0,,1157.5,"<p>If you don't make your choice fast enough, you’ll have to wait a few seconds before you can make another one.</p><p>You can’t dig for more gems or travel to new planets. You just have to sit and wait.</p><br><p><img src='run_exp/static/images/task_images/time_out.jpg'  height='600' width='auto'></p><button class=""jspsych-html-btn-unchosen""><img src=""run_exp/static/images/task_images/planet-01.jpg"" height=""50""></button><button class=""jspsych-html-btn-chosen""><img src=""run_exp/static/images/task_images/planet-02.jpg"" height=""50""></button><p><b>[press the space bar to lock in your answer]<b><br></p>",32,,,,,,,,,,,,,,,,,,,,,,,
instruc_break,21,175037,0.0-9.0-0.0,,null,run_exp/static/audio/clip_8_break.m4a,null,"<p> After digging and traveling for a while, you’ll be able to take a break at home base. </p><p>The game will last 20 minutes no matter what.</p><p>You will visit home base every 5 minutes, so, you will visit home base three times during the game.</p><br><p><img src='run_exp/static/images/task_images/home_base.jpg' height='600' width='auto'></p>",,,,,,,,,,,,,,,,,,,,,,
instruc_break,22,177777,0.0-9.0-1.0,,2735.9,"<p> After digging and traveling for a while, you’ll be able to take a break at home base. </p><p>The game will last 20 minutes no matter what.</p><p>You will visit home base every 5 minutes, so, you will visit home base three times during the game.</p><br><p><img src='run_exp/static/images/task_images/home_base.jpg' height='600' width='auto'></p>",,,,,,1,,,,,,,,,,,,,,,,,,
html-keyboard-response,23,178389,0.0-9.0-2.0,,610.3,"<p> After digging and traveling for a while, you’ll be able to take a break at home base. </p><p>The game will last 20 minutes no matter what.</p><p>You will visit home base every 5 minutes, so, you will visit home base three times during the game.</p><br><p><img src='run_exp/static/images/task_images/home_base.jpg' height='600' width='auto'></p><button class=""jspsych-html-btn-unchosen""><img src=""run_exp/static/images/task_images/planet-01.jpg"" height=""50""></button><button class=""jspsych-html-btn-chosen""><img src=""run_exp/static/images/task_images/planet-02.jpg"" height=""50""></button><p><b>[press the space bar to lock in your answer]<b><br></p>",32,,,,,,,,,,,,,,,,,,,,,,,
instruc_prac_game,24,188499,0.0-10.0-0.0,,null,run_exp/static/audio/clip_9_practice.m4a,null,"<p> Are you ready to play a practice game? </p> <p>In this practice game, you'll be digging up barrels of gems. But, in the real game, you'll be digging up the gems themselves. </p>",,,,,,,,,,,,,,,,,,,,,,
html-button-response,25,190253,0.0-10.0-1.0,,1752.1,"<p> Are you ready to play a practice game? </p> <p>In this practice game, you'll be digging up barrels of gems. But, in the real game, you'll be digging up the gems themselves. </p>",,,,,,0,,,,,,,,,,,,,,,,,,
alien_welcome_prac,26,195261,0.0-11.0-0.0,,null,run_exp/static/images/task_images/aliens/practice_aliens/planet/alien_planet-5.jpg,null,,,,,,,,,,,,,,,,,,,,,,,
land_prac,27,195769,0.0-11.0-1.0,,null,run_exp/static/images/task_images/land.jpg,null,,,,,,107,,,0,,,,,,,,,,,,,,
dig_prac,28,197778,0.0-11.0-2.0,,,,,,,,,,,"[{""stimulus"":""run_exp/static/images/task_images/dig.jpg"",""time"":0.699999988079071},{""stimulus"":""run_exp/static/images/task_images/land.jpg"",""time"":674.0999999940395},{""stimulus"":""run_exp/static/images/task_images/dig.jpg"",""time"":1341.0999999940395}]",[],,,,,,,,,,,,,,,
harvest_prac,29,198781,0.0-11.0-3.0,,null,run_exp/static/images/task_images/barrel_text.jpg,null,,,,,,,,,,,,,,,,,,,,,,,
decision_prac,30,200184,0.0-11.0-4.0,,1400.4,run_exp/static/images/task_images/land.jpg,65,,,,,,,,,,1,,,,,,,,,,,,,
dig_prac,31,202196,0.0-12.0-0.0,,,,,,,,,,,"[{""stimulus"":""run_exp/static/images/task_images/dig.jpg"",""time"":0.5},{""stimulus"":""run_exp/static/images/task_images/land.jpg"",""time"":673.6999999880791},{""stimulus"":""run_exp/static/images/task_images/dig.jpg"",""time"":1338.5}]",[],,,,,,,,,,,,,,,
harvest_prac,32,203200,0.0-12.0-1.0,,null,run_exp/static/images/task_images/barrel_text.jpg,null,,,,,,,,,,,,,,,,,,,,,,,
decision_prac,33,203911,0.0-12.0-2.0,,708.7,run_exp/static/images/task_images/land.jpg,65,,,,,,,,,,2,,,,,,,,,,,,,
dig_prac,34,205916,0.0-13.0-0.0,,,,,,,,,,,"[{""stimulus"":""run_exp/static/images/task_images/dig.jpg"",""time"":0.09999999403953552},{""stimulus"":""run_exp/static/images/task_images/land.jpg"",""time"":673.2999999821186},{""stimulus"":""run_exp/static/images/task_images/dig.jpg"",""time"":1340.2999999821186}]",[],,,,,,,,,,,,,,,
harvest_prac,35,206920,0.0-13.0-1.0,,null,run_exp/static/images/task_images/barrel_text.jpg,null,,,,,,,,,,,,,,,,,,,,,,,
decision_prac,36,207690,0.0-13.0-2.0,,769.1,run_exp/static/images/task_images/land.jpg,65,,,,,,,,,,3,,,,,,,,,,,,,
dig_prac,37,209703,0.0-14.0-0.0,,,,,,,,,,,"[{""stimulus"":""run_exp/static/images/task_images/dig.jpg"",""time"":0.20000001788139343},{""stimulus"":""run_exp/static/images/task_images/land.jpg"",""time"":672.9000000059605},{""stimulus"":""run_exp/static/images/task_images/dig.jpg"",""time"":1340.7000000178814}]",[],,,,,,,,,,,,,,,
harvest_prac,38,210706,0.0-14.0-1.0,,null,run_exp/static/images/task_images/barrel_text.jpg,null,,,,,,,,,,,,,,,,,,,,,,,
decision_prac,39,211114,0.0-14.0-2.0,,405.4,run_exp/static/images/task_images/land.jpg,65,,,,,,,,,,4,,,,,,,,,,,,,
dig_prac,40,213126,0.0-15.0-0.0,,,,,,,,,,,"[{""stimulus"":""run_exp/static/images/task_images/dig.jpg"",""time"":0.09999999403953552},{""stimulus"":""run_exp/static/images/task_images/land.jpg"",""time"":673.5999999940395},{""stimulus"":""run_exp/static/images/task_images/dig.jpg"",""time"":1340.4000000059605}]",[],,,,,,,,,,,,,,,
harvest_prac,41,214132,0.0-15.0-1.0,,null,run_exp/static/images/task_images/barrel_text.jpg,null,,,,,,,,,,,,,,,,,,,,,,,
decision_prac,42,214674,0.0-15.0-2.0,,539.5,run_exp/static/images/task_images/land.jpg,65,,,,,,,,,,,1,,,,,,,,,,,,
quiz_instruc,43,226866,0.0-16.0-0.0,,12185.3,run_exp/static/audio/clip_10_quiz.m4a,,,,,,0,,,,,,,,,,,,,,,,,,
instruc_repeat,44,269608,0.0-16.0-1.0,,null,"<p> Are you ready to play a practice game? </p> <p>In this practice game, you'll be digging up barrels of gems. But, in the real game, you'll be digging up the gems themselves. </p>",null,"<p>In this game, your goal is to collect as many gems as you can. That’s how you will win bonus money. </p> <p>The entire game will last 20 minutes no matter how many gems you collect or how many planets you visit. </p><p>To stay on a planet and dig again, press the letter A on your keyboard. To leave for a new planet, press the letter L.</p><p>The more you dig on a planet, the fewer gems you’ll get with each dig which is why you might consider leaving for a new planet. </p><p>When you arrive at a new planet, you’ll be greeted by an alien. What the alien looks like does not tell you anything about how much treasure is on the planet. </p>",,,,,,,,,,,,,,,,,,,,,,
instruc_repeat_continue,45,270975,0.0-16.0-2.0,,1365.3,"<p> Are you ready to play a practice game? </p> <p>In this practice game, you'll be digging up barrels of gems. But, in the real game, you'll be digging up the gems themselves. </p>",,,,,,0,,,,,,,,,,,,,,,,,,
quiz_q_1_ask,46,274659,0.0-16.0-3.0,,3682.7,run_exp/static/audio/clip_11_q1_ask.m4a,,,,,,2,,,,,,,,,,,,,,,,,,
quiz_q_1_fb_correct,47,278504,0.0-17.0-0.0,,null,run_exp/static/audio/clip_12_q1_corrrect.m4a,null,<p>That’s correct. You win extra money by collecting more gems.</p>,,,,,,,,,,,,,,,,,,,,,,
quiz_q_2_ask,48,281189,0.0-17.0-1.0,,2682,run_exp/static/audio/clip_14_q2_ask.m4a,,,,,,1,,,,,,,,,,,,,,,,,,
quiz_q_2_fb_correct,49,285181,0.0-18.0-0.0,,null,run_exp/static/audio/clip_15_q2_correct.m4a,null,<p>That’s correct. The experiment is 20 minutes no matter what.</p>,,,,,,,,,,,,,,,,,,,,,,
quiz_q_3_ask,50,287500,0.0-18.0-1.0,,2316.2,run_exp/static/audio/clip_17_q3_ask.m4a,,,,,,1,,,,,,,,,,,,,,,,,,
quiz_q_3_fb_correct,51,291475,0.0-19.0-0.0,,null,run_exp/static/audio/clip_18_q3_correct.m4a,null,<p> That’s correct. You press the letter L to travel to a new planet.</p>,,,,,,,,,,,,,,,,,,,,,,
quiz_q_4_ask,52,295726,0.0-19.0-1.0,,4248.1,run_exp/static/audio/clip_20_q4_ask.m4a,,,,,,0,,,,,,,,,,,,,,,,,,
quiz_q_4_fb_correct,53,301032,0.0-20.0-0.0,,null,run_exp/static/audio/clip_21_q4_correct.m4a,null,<p> That’s correct. The more you dig on a planet the fewer gems you’ll get with each dig. </p>,,,,,,,,,,,,,,,,,,,,,,
quiz_q_5_ask,54,303601,0.0-20.0-1.0,,2565.8,run_exp/static/audio/clip_23_q5_ask.m4a,,,,,,1,,,,,,,,,,,,,,,,,,
quiz_q_5_fb_correct,55,308605,0.0-21.0-0.0,,null,run_exp/static/audio/clip_24_q5_correct.m4a,null,<p> That’s correct. The alien tells you nothing about how much treasure is on the planet.</p>,,,,,,,,,,,,,,,,,,,,,,
quiz_correct,56,312040,0.0-22.0-0.0,,null,run_exp/static/audio/clip_26_correct_quiz.m4a,null,,,,,,,,,,,,,,,,,,,,,,,
quiz_correct_continue,57,313280,0.0-22.0-1.0,,1236.8,<p>Good job! You're now ready to move on to the real game!</p>,,,,,,0,,,,,,,,,,,,,,,,,,
audio-keyboard-response,58,323389,0.0-22.0-2.0,,null,run_exp/static/audio/clip_28_real_game.m4a,null,,,,,,,,,,,,,,,,,,,,,,,
instruc_begin_exp_contine,59,324348,0.0-22.0-3.0,,957.4,"<p>Now that you know how  to dig for space treasure and travel to new planets,you can start exploring! </p><p>Do you want to go over the instructions again or get started with the real game?</p>",,,,,,1,,,,,,1,,,,,,,,,,,,
alien_welcome,60,329355,0.0-23.0-0.0,,null,run_exp/static/images/task_images/aliens/old_aliens/planet/alien_planet-4.jpg,null,,,,,,,,,,,,4,"4,9,1,35,18,74,45,29,44,39,60,2,48,65,16,19,57,41,13,76,64,5,77,27,51,71,42,62,49,75,34,37,40,70,56,24,68,38,6,36,21,73,53,28,59",,,,,,,,,,
land,61,329861,0.0-23.0-1.0,,null,run_exp/static/images/task_images/land.jpg,null,,,,,,98,,,1,,,,,,,,,,,,,,
dig,62,331870,0.0-23.0-2.0,,,,,,,,,,,"[{""stimulus"":""run_exp/static/images/task_images/dig.jpg"",""time"":0.6000000238418579},{""stimulus"":""run_exp/static/images/task_images/land.jpg"",""time"":673},{""stimulus"":""run_exp/static/images/task_images/dig.jpg"",""time"":1340.5}]",[],1,,,,,,,,,,,,,,
harvest,63,332874,0.0-23.0-3.0,,null,run_exp/static/images/task_images/gems/98.jpg,null,,,,,,19,,,1,,,,,98,0.197775265,0.193877551,,,,,,,
decision,64,333411,0.0-23.0-4.0,,534,run_exp/static/images/task_images/land.jpg,65,,,,,,19,,,1,,,,,,,,9059,1,0,FALSE,,,
dig,65,335884,0.0-24.0-0.0,,,,,,,,,,,"[{""stimulus"":""run_exp/static/images/task_images/dig.jpg"",""time"":0.30000001192092896},{""stimulus"":""run_exp/static/images/task_images/land.jpg"",""time"":827.5999999940395},{""stimulus"":""run_exp/static/images/task_images/dig.jpg"",""time"":1645.5999999940395}]",[],1,,,,,,,,,,,,,,
harvest,66,336887,0.0-24.0-1.0,,null,run_exp/static/images/task_images/gems/19.jpg,null,,,,,,3,,,1,,,,,19,0.162466014,0.157894737,,,,,,,
decision,67,337370,0.0-24.0-2.0,,481.2,run_exp/static/images/task_images/land.jpg,65,,,,,,3,,,1,,,,,,,,13018,1,1,FALSE,,,
dig,68,339893,0.0-25.0-0.0,,,,,,,,,,,"[{""stimulus"":""run_exp/static/images/task_images/dig.jpg"",""time"":0.09999999403953552},{""stimulus"":""run_exp/static/images/task_images/land.jpg"",""time"":845.4000000059605},{""stimulus"":""run_exp/static/images/task_images/dig.jpg"",""time"":1684.4000000059605}]",[],1,,,,,,,,,,,,,,
harvest,69,340901,0.0-25.0-1.0,,null,run_exp/static/images/task_images/gems/3.jpg,null,,,,,,0,,,1,,,,,3,0.12045099,0,,,,,,,
decision,70,342161,0.0-25.0-2.0,,1257.5,run_exp/static/images/task_images/land.jpg,76,,,,,,0,,,1,,,,,,,,17809,1,2,TRUE,,,
travel,71,350909,0.0-26.0-0.0,,,,,,,,,,,"[{""stimulus"":""run_exp/static/images/task_images/rocket-01.jpg"",""time"":0.4000000059604645},{""stimulus"":""run_exp/static/images/task_images/rocket-02.jpg"",""time"":977.6999999880791},{""stimulus"":""run_exp/static/images/task_images/rocket-03.jpg"",""time"":1946.0999999940395},{""stimulus"":""run_exp/static/images/task_images/rocket-04.jpg"",""time"":2919.699999988079},{""stimulus"":""run_exp/static/images/task_images/rocket-05.jpg"",""time"":3890.5999999940395},{""stimulus"":""run_exp/static/images/task_images/rocket-06.jpg"",""time"":4857.5999999940395},{""stimulus"":""run_exp/static/images/task_images/rocket-07.jpg"",""time"":5832.5999999940395},{""stimulus"":""run_exp/static/images/task_images/rocket-08.jpg"",""time"":6803.299999982119},{""stimulus"":""run_exp/static/images/task_images/rocket-09.jpg"",""time"":7771.299999982119}]",[],1,,,,,,,,,,,,,,
alien_welcome,72,355917,0.0-26.0-1.0,,null,run_exp/static/images/task_images/aliens/old_aliens/planet/alien_planet-9.jpg,null,,,,,,,,,,,,9,"4,9,1,35,18,74,45,29,44,39,60,2,48,65,16,19,57,41,13,76,64,5,77,27,51,71,42,62,49,75,34,37,40,70,56,24,68,38,6,36,21,73,53,28,59",,,,,,,,,,
land,73,356425,0.0-26.0-2.0,,null,run_exp/static/images/task_images/land.jpg,null,,,,,,113,,,2,,,,,,,,,,,,,,
dig,74,358435,0.0-26.0-3.0,,,,,,,,,,,"[{""stimulus"":""run_exp/static/images/task_images/dig.jpg"",""time"":0.7000000178813934},{""stimulus"":""run_exp/static/images/task_images/land.jpg"",""time"":674.0999999940395},{""stimulus"":""run_exp/static/images/task_images/dig.jpg"",""time"":1341.0999999940395}]",[],2,,,,,,,,,,,,,,
harvest,75,359438,0.0-26.0-4.0,,null,run_exp/static/images/task_images/gems/113.jpg,null,,,,,,28,,,2,,,,,113,0.249243189,0.247787611,,,,,,,
decision,76,359912,0.0-26.0-5.0,,471.7,run_exp/static/images/task_images/land.jpg,65,,,,,,28,,,2,,,,,,,,35561,1,0,FALSE,,,
dig,77,362444,0.0-27.0-0.0,,,,,,,,,,,"[{""stimulus"":""run_exp/static/images/task_images/dig.jpg"",""time"":0.4000000059604645},{""stimulus"":""run_exp/static/images/task_images/land.jpg"",""time"":847.2000000178814},{""stimulus"":""run_exp/static/images/task_images/dig.jpg"",""time"":1687.7000000178814}]",[],2,,,,,,,,,,,,,,
harvest,78,363447,0.0-27.0-1.0,,null,run_exp/static/images/task_images/gems/28.jpg,null,,,,,,4,,,2,,,,,28,0.155444508,0.142857143,,,,,,,
decision,79,363798,0.0-27.0-2.0,,348.2,run_exp/static/images/task_images/land.jpg,65,,,,,,4,,,2,,,,,,,,39446,1,1,FALSE,,,
dig,80,366455,0.0-28.0-0.0,,,,,,,,,,,"[{""stimulus"":""run_exp/static/images/task_images/dig.jpg"",""time"":0.30000001192092896},{""stimulus"":""run_exp/static/images/task_images/land.jpg"",""time"":885.5999999940395},{""stimulus"":""run_exp/static/images/task_images/dig.jpg"",""time"":1772.5}]",[],2,,,,,,,,,,,,,,
harvest,81,367461,0.0-28.0-1.0,,null,run_exp/static/images/task_images/gems/4.jpg,null,,,,,,1,,,2,,,,,4,0.298419252,0.25,,,,,,,
decision,82,367854,0.0-28.0-2.0,,390.5,run_exp/static/images/task_images/land.jpg,65,,,,,,1,,,2,,,,,,,,43503,1,2,FALSE,,,
dig,83,370470,0.0-29.0-0.0,,,,,,,,,,,"[{""stimulus"":""run_exp/static/images/task_images/dig.jpg"",""time"":0.29999998211860657},{""stimulus"":""run_exp/static/images/task_images/land.jpg"",""time"":875.5},{""stimulus"":""run_exp/static/images/task_images/dig.jpg"",""time"":1744.4000000059605}]",[],2,,,,,,,,,,,,,,
harvest,84,371475,0.0-29.0-1.0,,null,run_exp/static/images/task_images/gems/1.jpg,null,,,,,,0,,,2,,,,,1,0.164547781,0,,,,,,,
decision,85,371777,0.0-29.0-2.0,,299.3,run_exp/static/images/task_images/land.jpg,65,,,,,,0,,,2,,,,,,,,47425,1,3,FALSE,,,
dig,86,374486,0.0-30.0-0.0,,,,,,,,,,,"[{""stimulus"":""run_exp/static/images/task_images/dig.jpg"",""time"":0.3999999761581421},{""stimulus"":""run_exp/static/images/task_images/land.jpg"",""time"":902.7999999821186},{""stimulus"":""run_exp/static/images/task_images/dig.jpg"",""time"":1803}]",[],2,,,,,,,,,,,,,,
harvest,87,375491,0.0-30.0-1.0,,null,run_exp/static/images/task_images/gems/0.jpg,null,,,,,,0,,,2,,,,,0,0.204271507,NaN,,,,,,,
decision,88,376880,0.0-30.0-2.0,,1386.4,run_exp/static/images/task_images/land.jpg,76,,,,,,0,,,2,,,,,,,,52528,1,4,TRUE,,,
travel,89,385501,0.0-31.0-0.0,,,,,,,,,,,"[{""stimulus"":""run_exp/static/images/task_images/rocket-01.jpg"",""time"":0.4000000059604645},{""stimulus"":""run_exp/static/images/task_images/rocket-02.jpg"",""time"":963.5999999940395},{""stimulus"":""run_exp/static/images/task_images/rocket-03.jpg"",""time"":1920.5999999940395},{""stimulus"":""run_exp/static/images/task_images/rocket-04.jpg"",""time"":2877.5999999940395},{""stimulus"":""run_exp/static/images/task_images/rocket-05.jpg"",""time"":3834.5},{""stimulus"":""run_exp/static/images/task_images/rocket-06.jpg"",""time"":4791.4000000059605},{""stimulus"":""run_exp/static/images/task_images/rocket-07.jpg"",""time"":5744.299999982119},{""stimulus"":""run_exp/static/images/task_images/rocket-08.jpg"",""time"":6705.5999999940395},{""stimulus"":""run_exp/static/images/task_images/rocket-09.jpg"",""time"":7662.5999999940395}]",[],2,,,,,,,,,,,,,,
alien_welcome,90,390508,0.0-31.0-1.0,,null,run_exp/static/images/task_images/aliens/old_aliens/planet/alien_planet-1.jpg,null,,,,,,,,,,,,1,"4,9,1,35,18,74,45,29,44,39,60,2,48,65,16,19,57,41,13,76,64,5,77,27,51,71,42,62,49,75,34,37,40,70,56,24,68,38,6,36,21,73,53,28,59",,,,,,,,,,
land,91,391011,0.0-31.0-2.0,,null,run_exp/static/images/task_images/land.jpg,null,,,,,,100,,,3,,,,,,,,,,,,,,
dig,92,393021,0.0-31.0-3.0,,,,,,,,,,,"[{""stimulus"":""run_exp/static/images/task_images/dig.jpg"",""time"":0.5999999940395355},{""stimulus"":""run_exp/static/images/task_images/land.jpg"",""time"":673.9000000059605},{""stimulus"":""run_exp/static/images/task_images/dig.jpg"",""time"":1340.9000000059605}]",[],3,,,,,,,,,,,,,,
harvest,93,394024,0.0-31.0-4.0,,null,run_exp/static/images/task_images/gems/100.jpg,null,,,,,,56,,,3,,,,,100,0.562939647,0.56,,,,,,,
decision,94,394468,0.0-31.0-5.0,,440.8,run_exp/static/images/task_images/land.jpg,65,,,,,,56,,,3,,,,,,,,70116,1,0,FALSE,,,
dig,95,397033,0.0-32.0-0.0,,,,,,,,,,,"[{""stimulus"":""run_exp/static/images/task_images/dig.jpg"",""time"":0.09999999403953552},{""stimulus"":""run_exp/static/images/task_images/land.jpg"",""time"":859.2999999821186},{""stimulus"":""run_exp/static/images/task_images/dig.jpg"",""time"":1712.5}]",[],3,,,,,,,,,,,,,,
harvest,96,398037,0.0-32.0-1.0,,null,run_exp/static/images/task_images/gems/56.jpg,null,,,,,,25,,,3,,,,,56,0.444931847,0.446428571,,,,,,,
decision,97,398412,0.0-32.0-2.0,,372,run_exp/static/images/task_images/land.jpg,65,,,,,,25,,,3,,,,,,,,74060,1,1,FALSE,,,
dig,98,401049,0.0-33.0-0.0,,,,,,,,,,,"[{""stimulus"":""run_exp/static/images/task_images/dig.jpg"",""time"":0.29999998211860657},{""stimulus"":""run_exp/static/images/task_images/land.jpg"",""time"":881.7999999821186},{""stimulus"":""run_exp/static/images/task_images/dig.jpg"",""time"":1757.8999999761581}]",[],3,,,,,,,,,,,,,,
harvest,99,402055,0.0-33.0-1.0,,null,run_exp/static/images/task_images/gems/25.jpg,null,,,,,,13,,,3,,,,,25,0.535347428,0.52,,,,,,,
decision,100,402511,0.0-33.0-2.0,,454,run_exp/static/images/task_images/land.jpg,65,,,,,,13,,,3,,,,,,,,78159,1,2,FALSE,,,
dig,101,405062,0.0-34.0-0.0,,,,,,,,,,,"[{""stimulus"":""run_exp/static/images/task_images/dig.jpg"",""time"":0.29999998211860657},{""stimulus"":""run_exp/static/images/task_images/land.jpg"",""time"":854.5999999940395},{""stimulus"":""run_exp/static/images/task_images/dig.jpg"",""time"":1702.2999999821186}]",[],3,,,,,,,,,,,,,,
harvest,102,406070,0.0-34.0-1.0,,null,run_exp/static/images/task_images/gems/13.jpg,null,,,,,,7,,,3,,,,,13,0.511760996,0.538461538,,,,,,,
decision,103,406533,0.0-34.0-2.0,,460.9,run_exp/static/images/task_images/land.jpg,65,,,,,,7,,,3,,,,,,,,82181,1,3,FALSE,,,
dig,104,409077,0.0-35.0-0.0,,,,,,,,,,,"[{""stimulus"":""run_exp/static/images/task_images/dig.jpg"",""time"":0.29999998211860657},{""stimulus"":""run_exp/static/images/task_images/land.jpg"",""time"":852.7999999821186},{""stimulus"":""run_exp/static/images/task_images/dig.jpg"",""time"":1699}]",[],3,,,,,,,,,,,,,,
harvest,105,410084,0.0-35.0-1.0,,null,run_exp/static/images/task_images/gems/7.jpg,null,,,,,,3,,,3,,,,,7,0.479088744,0.428571429,,,,,,,
decision,106,410408,0.0-35.0-2.0,,320.9,run_exp/static/images/task_images/land.jpg,65,,,,,,3,,,3,,,,,,,,86056,1,4,FALSE,,,
dig,107,413096,0.0-36.0-0.0,,,,,,,,,,,"[{""stimulus"":""run_exp/static/images/task_images/dig.jpg"",""time"":0.30000001192092896},{""stimulus"":""run_exp/static/images/task_images/land.jpg"",""time"":899.5999999940395},{""stimulus"":""run_exp/static/images/task_images/dig.jpg"",""time"":1792.5}]",[],3,,,,,,,,,,,,,,
harvest,108,414103,0.0-36.0-1.0,,null,run_exp/static/images/task_images/gems/3.jpg,null,,,,,,1,,,3,,,,,3,0.436307105,0.333333333,,,,,,,
decision,109,414361,0.0-36.0-2.0,,255.8,run_exp/static/images/task_images/land.jpg,76,,,,,,1,,,3,,,,,,,,90009,1,5,TRUE,,,
travel,110,424111,0.0-37.0-0.0,,,,,,,,,,,"[{""stimulus"":""run_exp/static/images/task_images/rocket-01.jpg"",""time"":0.30000001192092896},{""stimulus"":""run_exp/static/images/task_images/rocket-02.jpg"",""time"":1088.699999988079},{""stimulus"":""run_exp/static/images/task_images/rocket-03.jpg"",""time"":2168.800000011921},{""stimulus"":""run_exp/static/images/task_images/rocket-04.jpg"",""time"":3249.199999988079},{""stimulus"":""run_exp/static/images/task_images/rocket-05.jpg"",""time"":4334.5999999940395},{""stimulus"":""run_exp/static/images/task_images/rocket-06.jpg"",""time"":5416.5},{""stimulus"":""run_exp/static/images/task_images/rocket-07.jpg"",""time"":6498.5},{""stimulus"":""run_exp/static/images/task_images/rocket-08.jpg"",""time"":7580.5},{""stimulus"":""run_exp/static/images/task_images/rocket-09.jpg"",""time"":8662.59999999404}]",[],3,,,,,,,,,,,,,,
alien_welcome,111,429117,0.0-37.0-1.0,,null,run_exp/static/images/task_images/aliens/old_aliens/planet/alien_planet-35.jpg,null,,,,,,,,,,,,35,"4,9,1,35,18,74,45,29,44,39,60,2,48,65,16,19,57,41,13,76,64,5,77,27,51,71,42,62,49,75,34,37,40,70,56,24,68,38,6,36,21,73,53,28,59",,,,,,,,,,
land,112,429621,0.0-37.0-2.0,,null,run_exp/static/images/task_images/land.jpg,null,,,,,,96,,,4,,,,,,,,,,,,,,
dig,113,431631,0.0-37.0-3.0,,,,,,,,,,,"[{""stimulus"":""run_exp/static/images/task_images/dig.jpg"",""time"":0.699999988079071},{""stimulus"":""run_exp/static/images/task_images/land.jpg"",""time"":673.8000000119209},{""stimulus"":""run_exp/static/images/task_images/dig.jpg"",""time"":1339.5999999940395}]",[],4,,,,,,,,,,,,,,
harvest,114,432637,0.0-37.0-4.0,,null,run_exp/static/images/task_images/gems/96.jpg,null,,,,,,49,,,4,,,,,96,0.51163211,0.510416667,,,,,,,
decision,115,433178,0.0-37.0-5.0,,539.5,run_exp/static/images/task_images/land.jpg,65,,,,,,49,,,4,,,,,,,,108826,1,0,FALSE,,,
dig,116,435645,0.0-38.0-0.0,,,,,,,,,,,"[{""stimulus"":""run_exp/static/images/task_images/dig.jpg"",""time"":0.20000001788139343},{""stimulus"":""run_exp/static/images/task_images/land.jpg"",""time"":823},{""stimulus"":""run_exp/static/images/task_images/dig.jpg"",""time"":1646.300000011921}]",[],4,,,,,,,,,,,,,,
harvest,117,436653,0.0-38.0-1.0,,null,run_exp/static/images/task_images/gems/49.jpg,null,,,,,,25,,,4,,,,,49,0.508063718,0.510204082,,,,,,,
decision,118,436990,0.0-38.0-2.0,,334.8,run_exp/static/images/task_images/land.jpg,65,,,,,,25,,,4,,,,,,,,112638,1,1,FALSE,,,
dig,119,439663,0.0-39.0-0.0,,,,,,,,,,,"[{""stimulus"":""run_exp/static/images/task_images/dig.jpg"",""time"":0.30000001192092896},{""stimulus"":""run_exp/static/images/task_images/land.jpg"",""time"":894.0999999940395},{""stimulus"":""run_exp/static/images/task_images/dig.jpg"",""time"":1782.699999988079}]",[],4,,,,,,,,,,,,,,
harvest,120,440667,0.0-39.0-1.0,,null,run_exp/static/images/task_images/gems/25.jpg,null,,,,,,13,,,4,,,,,25,0.53944124,0.52,,,,,,,
decision,121,441237,0.0-39.0-2.0,,567.4,run_exp/static/images/task_images/land.jpg,65,,,,,,13,,,4,,,,,,,,116885,1,2,FALSE,,,
dig,122,443675,0.0-40.0-0.0,,,,,,,,,,,"[{""stimulus"":""run_exp/static/images/task_images/dig.jpg"",""time"":0.09999999403953552},{""stimulus"":""run_exp/static/images/task_images/land.jpg"",""time"":816.2999999821186},{""stimulus"":""run_exp/static/images/task_images/dig.jpg"",""time"":1626.199999988079}]",[],4,,,,,,,,,,,,,,
harvest,123,444677,0.0-40.0-1.0,,null,run_exp/static/images/task_images/gems/13.jpg,null,,,,,,7,,,4,,,,,13,0.511225792,0.538461538,,,,,,,
decision,124,444964,0.0-40.0-2.0,,284.5,run_exp/static/images/task_images/land.jpg,65,,,,,,7,,,4,,,,,,,,120613,1,3,FALSE,,,
dig,125,447688,0.0-41.0-0.0,,,,,,,,,,,"[{""stimulus"":""run_exp/static/images/task_images/dig.jpg"",""time"":0.30000001192092896},{""stimulus"":""run_exp/static/images/task_images/land.jpg"",""time"":909},{""stimulus"":""run_exp/static/images/task_images/dig.jpg"",""time"":1816.199999988079}]",[],4,,,,,,,,,,,,,,
harvest,126,448695,0.0-41.0-1.0,,null,run_exp/static/images/task_images/gems/7.jpg,null,,,,,,3,,,4,,,,,7,0.462019454,0.428571429,,,,,,,
decision,127,448905,0.0-41.0-2.0,,207.5,run_exp/static/images/task_images/land.jpg,65,,,,,,3,,,4,,,,,,,,124554,1,4,FALSE,,,
dig,128,451703,0.0-42.0-0.0,,,,,,,,,,,"[{""stimulus"":""run_exp/static/images/task_images/dig.jpg"",""time"":0.09999999403953552},{""stimulus"":""run_exp/static/images/task_images/land.jpg"",""time"":932.8000000119209},{""stimulus"":""run_exp/static/images/task_images/dig.jpg"",""time"":1866.4000000059605}]",[],4,,,,,,,,,,,,,,
harvest,129,452710,0.0-42.0-1.0,,null,run_exp/static/images/task_images/gems/3.jpg,null,,,,,,2,,,4,,,,,3,0.560523245,0.666666667,,,,,,,
decision,130,452987,0.0-42.0-2.0,,274.1,run_exp/static/images/task_images/land.jpg,65,,,,,,2,,,4,,,,,,,,128635,1,5,FALSE,,,
dig,131,455718,0.0-43.0-0.0,,,,,,,,,,,"[{""stimulus"":""run_exp/static/images/task_images/dig.jpg"",""time"":0.09999999403953552},{""stimulus"":""run_exp/static/images/task_images/land.jpg"",""time"":913.3999999761581},{""stimulus"":""run_exp/static/images/task_images/dig.jpg"",""time"":1822.3999999761581}]",[],4,,,,,,,,,,,,,,
harvest,132,456722,0.0-43.0-1.0,,null,run_exp/static/images/task_images/gems/2.jpg,null,,,,,,1,,,4,,,,,2,0.507543541,0.5,,,,,,,
decision,133,457680,0.0-43.0-2.0,,956.1,run_exp/static/images/task_images/land.jpg,76,,,,,,1,,,4,,,,,,,,133328,1,6,TRUE,,,
travel,134,466724,0.0-44.0-0.0,,,,,,,,,,,"[{""stimulus"":""run_exp/static/images/task_images/rocket-01.jpg"",""time"":0.5},{""stimulus"":""run_exp/static/images/task_images/rocket-02.jpg"",""time"":1005.5999999940395},{""stimulus"":""run_exp/static/images/task_images/rocket-03.jpg"",""time"":2011.5},{""stimulus"":""run_exp/static/images/task_images/rocket-04.jpg"",""time"":3013.9000000059605},{""stimulus"":""run_exp/static/images/task_images/rocket-05.jpg"",""time"":4017.5999999940395},{""stimulus"":""run_exp/static/images/task_images/rocket-06.jpg"",""time"":5023.5},{""stimulus"":""run_exp/static/images/task_images/rocket-07.jpg"",""time"":6027.5},{""stimulus"":""run_exp/static/images/task_images/rocket-08.jpg"",""time"":7033.9000000059605},{""stimulus"":""run_exp/static/images/task_images/rocket-09.jpg"",""time"":8033.699999988079}]",[],4,,,,,,,,,,,,,,
alien_welcome,135,471728,0.0-44.0-1.0,,null,run_exp/static/images/task_images/aliens/old_aliens/planet/alien_planet-18.jpg,null,,,,,,,,,,,,18,"4,9,1,35,18,74,45,29,44,39,60,2,48,65,16,19,57,41,13,76,64,5,77,27,51,71,42,62,49,75,34,37,40,70,56,24,68,38,6,36,21,73,53,28,59",,,,,,,,,,
land,136,472235,0.0-44.0-2.0,,null,run_exp/static/images/task_images/land.jpg,null,,,,,,104,,,5,,,,,,,,,,,,,,
dig,137,474244,0.0-44.0-3.0,,,,,,,,,,,"[{""stimulus"":""run_exp/static/images/task_images/dig.jpg"",""time"":0.5999999940395355},{""stimulus"":""run_exp/static/images/task_images/land.jpg"",""time"":669.5999999940395},{""stimulus"":""run_exp/static/images/task_images/dig.jpg"",""time"":1337.2999999821186}]",[],5,,,,,,,,,,,,,,
harvest,138,475250,0.0-44.0-4.0,,null,run_exp/static/images/task_images/gems/104.jpg,null,,,,,,44,,,5,,,,,104,0.426751589,0.423076923,,,,,,,
decision,139,475757,0.0-44.0-5.0,,504.2,run_exp/static/images/task_images/land.jpg,65,,,,,,44,,,5,,,,,,,,151405,1,0,FALSE,,,
dig,140,478259,0.0-45.0-0.0,,,,,,,,,,,"[{""stimulus"":""run_exp/static/images/task_images/dig.jpg"",""time"":0.30000001192092896},{""stimulus"":""run_exp/static/images/task_images/land.jpg"",""time"":837.8000000119209},{""stimulus"":""run_exp/static/images/task_images/dig.jpg"",""time"":1668.800000011921}]",[],5,,,,,,,,,,,,,,
harvest,141,479266,0.0-45.0-1.0,,null,run_exp/static/images/task_images/gems/44.jpg,null,,,,,,22,,,5,,,,,44,0.50476574,0.5,,,,,,,
decision,142,479633,0.0-45.0-2.0,,364.5,run_exp/static/images/task_images/land.jpg,65,,,,,,22,,,5,,,,,,,,155281,1,1,FALSE,,,
dig,143,482274,0.0-46.0-0.0,,,,,,,,,,,"[{""stimulus"":""run_exp/static/images/task_images/dig.jpg"",""time"":0.5},{""stimulus"":""run_exp/static/images/task_images/land.jpg"",""time"":880.2999999821186},{""stimulus"":""run_exp/static/images/task_images/dig.jpg"",""time"":1762.699999988079}]",[],5,,,,,,,,,,,,,,
harvest,144,483281,0.0-46.0-1.0,,null,run_exp/static/images/task_images/gems/22.jpg,null,,,,,,11,,,5,,,,,22,0.48415492,0.5,,,,,,,
decision,145,483716,0.0-46.0-2.0,,432.3,run_exp/static/images/task_images/land.jpg,65,,,,,,11,,,5,,,,,,,,159364,1,2,FALSE,,,
dig,146,486289,0.0-47.0-0.0,,,,,,,,,,,"[{""stimulus"":""run_exp/static/images/task_images/dig.jpg"",""time"":0.30000001192092896},{""stimulus"":""run_exp/static/images/task_images/land.jpg"",""time"":857.4000000059605},{""stimulus"":""run_exp/static/images/task_images/dig.jpg"",""time"":1715.300000011921}]",[],5,,,,,,,,,,,,,,
harvest,147,487296,0.0-47.0-1.0,,null,run_exp/static/images/task_images/gems/11.jpg,null,,,,,,6,,,5,,,,,11,0.508348465,0.545454545,,,,,,,
decision,148,487584,0.0-47.0-2.0,,285.2,run_exp/static/images/task_images/land.jpg,65,,,,,,6,,,5,,,,,,,,163232,1,3,FALSE,,,
dig,149,490304,0.0-48.0-0.0,,,,,,,,,,,"[{""stimulus"":""run_exp/static/images/task_images/dig.jpg"",""time"":0.19999998807907104},{""stimulus"":""run_exp/static/images/task_images/land.jpg"",""time"":910.5},{""stimulus"":""run_exp/static/images/task_images/dig.jpg"",""time"":1814.4000000059605}]",[],5,,,,,,,,,,,,,,
harvest,150,491311,0.0-48.0-1.0,,null,run_exp/static/images/task_images/gems/6.jpg,null,,,,,,3,,,5,,,,,6,0.498435907,0.5,,,,,,,
decision,151,491624,0.0-48.0-2.0,,310.5,run_exp/static/images/task_images/land.jpg,76,,,,,,3,,,5,,,,,,,,167273,1,4,TRUE,,,
travel,152,501320,0.0-49.0-0.0,,,,,,,,,,,"[{""stimulus"":""run_exp/static/images/task_images/rocket-01.jpg"",""time"":0.19999998807907104},{""stimulus"":""run_exp/static/images/task_images/rocket-02.jpg"",""time"":1082.5999999940395},{""stimulus"":""run_exp/static/images/task_images/rocket-03.jpg"",""time"":2156.699999988079},{""stimulus"":""run_exp/static/images/task_images/rocket-04.jpg"",""time"":3231.699999988079},{""stimulus"":""run_exp/static/images/task_images/rocket-05.jpg"",""time"":4310.299999982119},{""stimulus"":""run_exp/static/images/task_images/rocket-06.jpg"",""time"":5386.4000000059605},{""stimulus"":""run_exp/static/images/task_images/rocket-07.jpg"",""time"":6462.4000000059605},{""stimulus"":""run_exp/static/images/task_images/rocket-08.jpg"",""time"":7538.299999982119},{""stimulus"":""run_exp/static/images/task_images/rocket-09.jpg"",""time"":8614.40000000596}]",[],5,,,,,,,,,,,,,,
alien_welcome,153,506324,0.0-49.0-1.0,,null,run_exp/static/images/task_images/aliens/old_aliens/planet/alien_planet-74.jpg,null,,,,,,,,,,,,74,"4,9,1,35,18,74,45,29,44,39,60,2,48,65,16,19,57,41,13,76,64,5,77,27,51,71,42,62,49,75,34,37,40,70,56,24,68,38,6,36,21,73,53,28,59",,,,,,,,,,
land,154,506831,0.0-49.0-2.0,,null,run_exp/static/images/task_images/land.jpg,null,,,,,,93,,,6,,,,,,,,,,,,,,
dig,155,508842,0.0-49.0-3.0,,,,,,,,,,,"[{""stimulus"":""run_exp/static/images/task_images/dig.jpg"",""time"":0.5999999940395355},{""stimulus"":""run_exp/static/images/task_images/land.jpg"",""time"":674},{""stimulus"":""run_exp/static/images/task_images/dig.jpg"",""time"":1341.0999999940395}]",[],6,,,,,,,,,,,,,,
harvest,156,509849,0.0-49.0-4.0,,null,run_exp/static/images/task_images/gems/93.jpg,null,,,,,,77,,,6,,,,,93,0.830514972,0.827956989,,,,,,,
decision,157,510213,0.0-49.0-5.0,,361,run_exp/static/images/task_images/land.jpg,65,,,,,,77,,,6,,,,,,,,185861,1,0,FALSE,,,
dig,158,512856,0.0-50.0-0.0,,,,,,,,,,,"[{""stimulus"":""run_exp/static/images/task_images/dig.jpg"",""time"":0.29999998211860657},{""stimulus"":""run_exp/static/images/task_images/land.jpg"",""time"":884.0999999940395},{""stimulus"":""run_exp/static/images/task_images/dig.jpg"",""time"":1764.4000000059605}]",[],6,,,,,,,,,,,,,,
harvest,159,513861,0.0-50.0-1.0,,null,run_exp/static/images/task_images/gems/77.jpg,null,,,,,,65,,,6,,,,,77,0.845997872,0.844155844,,,,,,,
decision,160,514132,0.0-50.0-2.0,,268.5,run_exp/static/images/task_images/land.jpg,65,,,,,,65,,,6,,,,,,,,189781,1,1,FALSE,,,
dig,161,516870,0.0-51.0-0.0,,,,,,,,,,,"[{""stimulus"":""run_exp/static/images/task_images/dig.jpg"",""time"":0.5},{""stimulus"":""run_exp/static/images/task_images/land.jpg"",""time"":914},{""stimulus"":""run_exp/static/images/task_images/dig.jpg"",""time"":1826.800000011921}]",[],6,,,,,,,,,,,,,,
harvest,162,517873,0.0-51.0-1.0,,null,run_exp/static/images/task_images/gems/65.jpg,null,,,,,,58,,,6,,,,,65,0.89738368,0.892307692,,,,,,,
decision,163,518218,0.0-51.0-2.0,,342.6,run_exp/static/images/task_images/land.jpg,65,,,,,,58,,,6,,,,,,,,193866,1,2,FALSE,,,
dig,164,520885,0.0-52.0-0.0,,,,,,,,,,,"[{""stimulus"":""run_exp/static/images/task_images/dig.jpg"",""time"":0.09999999403953552},{""stimulus"":""run_exp/static/images/task_images/land.jpg"",""time"":888.0999999940395},{""stimulus"":""run_exp/static/images/task_images/dig.jpg"",""time"":1772.800000011921}]",[],6,,,,,,,,,,,,,,
harvest,165,521892,0.0-52.0-1.0,,null,run_exp/static/images/task_images/gems/58.jpg,null,,,,,,43,,,6,,,,,58,0.744325379,0.74137931,,,,,,,
decision,166,521953,0.0-52.0-2.0,,58,run_exp/static/images/task_images/land.jpg,65,,,,,,43,,,6,,,,,,,,197601,1,3,FALSE,,,
dig,167,524902,0.0-53.0-0.0,,,,,,,,,,,"[{""stimulus"":""run_exp/static/images/task_images/dig.jpg"",""time"":0.09999999403953552},{""stimulus"":""run_exp/static/images/task_images/land.jpg"",""time"":986.1999999880791},{""stimulus"":""run_exp/static/images/task_images/dig.jpg"",""time"":1961.5999999940395}]",[],6,,,,,,,,,,,,,,
harvest,168,525910,0.0-53.0-1.0,,null,run_exp/static/images/task_images/gems/43.jpg,null,,,,,,35,,,6,,,,,43,0.8203744,0.813953488,,,,,,,
decision,169,526833,0.0-53.0-2.0,,921.3,run_exp/static/images/task_images/land.jpg,65,,,,,,35,,,6,,,,,,,,202482,1,4,FALSE,,,
dig,170,528915,0.0-54.0-0.0,,,,,,,,,,,"[{""stimulus"":""run_exp/static/images/task_images/dig.jpg"",""time"":0.3999999761581421},{""stimulus"":""run_exp/static/images/task_images/land.jpg"",""time"":694.2999999821186},{""stimulus"":""run_exp/static/images/task_images/dig.jpg"",""time"":1387.199999988079}]",[],6,,,,,,,,,,,,,,
harvest,171,529923,0.0-54.0-1.0,,null,run_exp/static/images/task_images/gems/35.jpg,null,,,,,,28,,,6,,,,,35,0.800645576,0.8,,,,,,,
decision,172,531063,0.0-54.0-2.0,,1137.5,run_exp/static/images/task_images/land.jpg,65,,,,,,28,,,6,,,,,,,,206711,1,5,FALSE,,,
dig,173,532931,0.0-55.0-0.0,,,,,,,,,,,"[{""stimulus"":""run_exp/static/images/task_images/dig.jpg"",""time"":0.30000001192092896},{""stimulus"":""run_exp/static/images/task_images/land.jpg"",""time"":623.1999999880791},{""stimulus"":""run_exp/static/images/task_images/dig.jpg"",""time"":1246.800000011921}]",[],6,,,,,,,,,,,,,,
harvest,174,533938,0.0-55.0-1.0,,null,run_exp/static/images/task_images/gems/28.jpg,null,,,,,,24,,,6,,,,,28,0.859330309,0.857142857,,,,,,,
decision,175,534478,0.0-55.0-2.0,,536.9,run_exp/static/images/task_images/land.jpg,65,,,,,,24,,,6,,,,,,,,210126,1,6,FALSE,,,
dig,176,536948,0.0-56.0-0.0,,,,,,,,,,,"[{""stimulus"":""run_exp/static/images/task_images/dig.jpg"",""time"":0.5},{""stimulus"":""run_exp/static/images/task_images/land.jpg"",""time"":827.6999999880791},{""stimulus"":""run_exp/static/images/task_images/dig.jpg"",""time"":1648.5999999940395}]",[],6,,,,,,,,,,,,,,
harvest,177,537955,0.0-56.0-1.0,,null,run_exp/static/images/task_images/gems/24.jpg,null,,,,,,19,,,6,,,,,24,0.807860123,0.791666667,,,,,,,
decision,178,538295,0.0-56.0-2.0,,336.9,run_exp/static/images/task_images/land.jpg,65,,,,,,19,,,6,,,,,,,,213943,1,7,FALSE,,,
dig,179,540963,0.0-57.0-0.0,,,,,,,,,,,"[{""stimulus"":""run_exp/static/images/task_images/dig.jpg"",""time"":0.30000001192092896},{""stimulus"":""run_exp/static/images/task_images/land.jpg"",""time"":893.6000000238419},{""stimulus"":""run_exp/static/images/task_images/dig.jpg"",""time"":1780.6000000238419}]",[],6,,,,,,,,,,,,,,
harvest,180,541967,0.0-57.0-1.0,,null,run_exp/static/images/task_images/gems/19.jpg,null,,,,,,16,,,6,,,,,19,0.847427635,0.842105263,,,,,,,
decision,181,542203,0.0-57.0-2.0,,232.9,run_exp/static/images/task_images/land.jpg,65,,,,,,16,,,6,,,,,,,,217851,1,8,FALSE,,,
dig,182,544975,0.0-58.0-0.0,,,,,,,,,,,"[{""stimulus"":""run_exp/static/images/task_images/dig.jpg"",""time"":0.19999998807907104},{""stimulus"":""run_exp/static/images/task_images/land.jpg"",""time"":925.2999999821186},{""stimulus"":""run_exp/static/images/task_images/dig.jpg"",""time"":1850.5999999940395}]",[],6,,,,,,,,,,,,,,
harvest,183,545978,0.0-58.0-1.0,,null,run_exp/static/images/task_images/gems/16.jpg,null,,,,,,14,,,6,,,,,16,0.867494634,0.875,,,,,,,
decision,184,546231,0.0-58.0-2.0,,250,run_exp/static/images/task_images/land.jpg,65,,,,,,14,,,6,,,,,,,,221879,1,9,FALSE,,,
dig,185,548991,0.0-59.0-0.0,,,,,,,,,,,"[{""stimulus"":""run_exp/static/images/task_images/dig.jpg"",""time"":0.30000001192092896},{""stimulus"":""run_exp/static/images/task_images/land.jpg"",""time"":922.7000000178814},{""stimulus"":""run_exp/static/images/task_images/dig.jpg"",""time"":1838.6000000238419}]",[],6,,,,,,,,,,,,,,
harvest,186,549998,0.0-59.0-1.0,,null,run_exp/static/images/task_images/gems/14.jpg,null,,,,,,12,,,6,,,,,14,0.880921025,0.857142857,,,,,,,
decision,187,550111,0.0-59.0-2.0,,110.8,run_exp/static/images/task_images/land.jpg,76,,,,,,12,,,6,,,,,,,,225760,1,10,TRUE,,,
travel,188,560006,0.0-60.0-0.0,,,,,,,,,,,"[{""stimulus"":""run_exp/static/images/task_images/rocket-01.jpg"",""time"":0.19999998807907104},{""stimulus"":""run_exp/static/images/task_images/rocket-02.jpg"",""time"":1100.800000011921},{""stimulus"":""run_exp/static/images/task_images/rocket-03.jpg"",""time"":2202.5},{""stimulus"":""run_exp/static/images/task_images/rocket-04.jpg"",""time"":3295.5},{""stimulus"":""run_exp/static/images/task_images/rocket-05.jpg"",""time"":4393.5999999940395},{""stimulus"":""run_exp/static/images/task_images/rocket-06.jpg"",""time"":5496.4000000059605},{""stimulus"":""run_exp/static/images/task_images/rocket-07.jpg"",""time"":6594.300000011921},{""stimulus"":""run_exp/static/images/task_images/rocket-08.jpg"",""time"":7692.199999988079},{""stimulus"":""run_exp/static/images/task_images/rocket-09.jpg"",""time"":8786.800000011921}]",[],6,,,,,,,,,,,,,,
alien_welcome,189,565014,0.0-60.0-1.0,,null,run_exp/static/images/task_images/aliens/old_aliens/planet/alien_planet-45.jpg,null,,,,,,,,,,,,45,"4,9,1,35,18,74,45,29,44,39,60,2,48,65,16,19,57,41,13,76,64,5,77,27,51,71,42,62,49,75,34,37,40,70,56,24,68,38,6,36,21,73,53,28,59",,,,,,,,,,
land,190,565522,0.0-60.0-2.0,,null,run_exp/static/images/task_images/land.jpg,null,,,,,,102,,,7,,,,,,,,,,,,,,
dig,191,567530,0.0-60.0-3.0,,,,,,,,,,,"[{""stimulus"":""run_exp/static/images/task_images/dig.jpg"",""time"":0.7000000178813934},{""stimulus"":""run_exp/static/images/task_images/land.jpg"",""time"":674},{""stimulus"":""run_exp/static/images/task_images/dig.jpg"",""time"":1341.0999999940395}]",[],7,,,,,,,,,,,,,,
harvest,192,568537,0.0-60.0-4.0,,null,run_exp/static/images/task_images/gems/102.jpg,null,,,,,,88,,,7,,,,,102,0.866122404,0.862745098,,,,,,,
decision,193,569070,0.0-60.0-5.0,,529.9,run_exp/static/images/task_images/land.jpg,65,,,,,,88,,,7,,,,,,,,244718,1,0,FALSE,,,
dig,194,571548,0.0-61.0-0.0,,,,,,,,,,,"[{""stimulus"":""run_exp/static/images/task_images/dig.jpg"",""time"":0.30000001192092896},{""stimulus"":""run_exp/static/images/task_images/land.jpg"",""time"":828.3000000119209},{""stimulus"":""run_exp/static/images/task_images/dig.jpg"",""time"":1652.7000000178814}]",[],7,,,,,,,,,,,,,,
harvest,195,572554,0.0-61.0-1.0,,null,run_exp/static/images/task_images/gems/88.jpg,null,,,,,,69,,,7,,,,,88,0.789331754,0.784090909,,,,,,,
decision,196,572871,0.0-61.0-2.0,,314,run_exp/static/images/task_images/land.jpg,65,,,,,,69,,,7,,,,,,,,248519,1,1,FALSE,,,
dig,197,575565,0.0-62.0-0.0,,,,,,,,,,,"[{""stimulus"":""run_exp/static/images/task_images/dig.jpg"",""time"":0.4000000059604645},{""stimulus"":""run_exp/static/images/task_images/land.jpg"",""time"":900.5},{""stimulus"":""run_exp/static/images/task_images/dig.jpg"",""time"":1796.5999999940395}]",[],7,,,,,,,,,,,,,,
harvest,198,576570,0.0-62.0-1.0,,null,run_exp/static/images/task_images/gems/69.jpg,null,,,,,,61,,,7,,,,,69,0.886952874,0.884057971,,,,,,,
decision,199,576662,0.0-62.0-2.0,,88.69999999,run_exp/static/images/task_images/land.jpg,65,,,,,,61,,,7,,,,,,,,252310,1,2,FALSE,,,
dig,200,579583,0.0-63.0-0.0,,,,,,,,,,,"[{""stimulus"":""run_exp/static/images/task_images/dig.jpg"",""time"":0.5},{""stimulus"":""run_exp/static/images/task_images/land.jpg"",""time"":976.7000000178814},{""stimulus"":""run_exp/static/images/task_images/dig.jpg"",""time"":1942.2000000178814}]",[],7,,,,,,,,,,,,,,
harvest,201,580587,0.0-63.0-1.0,,null,run_exp/static/images/task_images/gems/61.jpg,null,,,,,,48,,,7,,,,,61,0.784395728,0.786885246,,,,,,,
decision,202,580953,0.0-63.0-2.0,,363.3,run_exp/static/images/task_images/land.jpg,76,,,,,,48,,,7,,,,,,,,256601,1,3,TRUE,,,
travel,203,590594,0.0-64.0-0.0,,,,,,,,,,,"[{""stimulus"":""run_exp/static/images/task_images/rocket-01.jpg"",""time"":0},{""stimulus"":""run_exp/static/images/task_images/rocket-02.jpg"",""time"":1076.699999988079},{""stimulus"":""run_exp/static/images/task_images/rocket-03.jpg"",""time"":2146.699999988079},{""stimulus"":""run_exp/static/images/task_images/rocket-04.jpg"",""time"":3216.5999999940395},{""stimulus"":""run_exp/static/images/task_images/rocket-05.jpg"",""time"":4286.199999988079},{""stimulus"":""run_exp/static/images/task_images/rocket-06.jpg"",""time"":5356.5999999940395},{""stimulus"":""run_exp/static/images/task_images/rocket-07.jpg"",""time"":6426.5},{""stimulus"":""run_exp/static/images/task_images/rocket-08.jpg"",""time"":7496.699999988079},{""stimulus"":""run_exp/static/images/task_images/rocket-09.jpg"",""time"":8566.59999999404}]",[],7,,,,,,,,,,,,,,
alien_welcome,204,595602,0.0-64.0-1.0,,null,run_exp/static/images/task_images/aliens/old_aliens/planet/alien_planet-29.jpg,null,,,,,,,,,,,,29,"4,9,1,35,18,74,45,29,44,39,60,2,48,65,16,19,57,41,13,76,64,5,77,27,51,71,42,62,49,75,34,37,40,70,56,24,68,38,6,36,21,73,53,28,59",,,,,,,,,,
land,205,596107,0.0-64.0-2.0,,null,run_exp/static/images/task_images/land.jpg,null,,,,,,106,,,8,,,,,,,,,,,,,,
dig,206,598113,0.0-64.0-3.0,,,,,,,,,,,"[{""stimulus"":""run_exp/static/images/task_images/dig.jpg"",""time"":0.5},{""stimulus"":""run_exp/static/images/task_images/land.jpg"",""time"":673.8000000119209},{""stimulus"":""run_exp/static/images/task_images/dig.jpg"",""time"":1341}]",[],8,,,,,,,,,,,,,,
harvest,207,599120,0.0-64.0-4.0,,null,run_exp/static/images/task_images/gems/106.jpg,null,,,,,,84,,,8,,,,,106,0.788861364,0.79245283,,,,,,,
decision,208,600828,0.0-64.0-5.0,,1705.7,run_exp/static/images/task_images/land.jpg,65,,,,,,84,,,8,,,,,,,,276476,1,0,FALSE,,,
dig,209,602128,0.0-65.0-0.0,,,,,,,,,,,"[{""stimulus"":""run_exp/static/images/task_images/dig.jpg"",""time"":0.4000000059604645},{""stimulus"":""run_exp/static/images/task_images/land.jpg"",""time"":435.40000000596046},{""stimulus"":""run_exp/static/images/task_images/dig.jpg"",""time"":866.4000000059605}]",[],8,,,,,,,,,,,,,,
harvest,210,603136,0.0-65.0-1.0,,null,run_exp/static/images/task_images/gems/84.jpg,null,,,,,,63,,,8,,,,,84,0.748171771,0.75,,,,,,,
decision,211,603364,0.0-65.0-2.0,,225.9,run_exp/static/images/task_images/land.jpg,65,,,,,,63,,,8,,,,,,,,279013,1,1,FALSE,,,
dig,212,606145,0.0-66.0-0.0,,,,,,,,,,,"[{""stimulus"":""run_exp/static/images/task_images/dig.jpg"",""time"":0.19999998807907104},{""stimulus"":""run_exp/static/images/task_images/land.jpg"",""time"":929.1999999880791},{""stimulus"":""run_exp/static/images/task_images/dig.jpg"",""time"":1854.3999999761581}]",[],8,,,,,,,,,,,,,,
harvest,213,607152,0.0-66.0-1.0,,null,run_exp/static/images/task_images/gems/63.jpg,null,,,,,,55,,,8,,,,,63,0.875174142,0.873015873,,,,,,,
decision,214,607291,0.0-66.0-2.0,,136.1,run_exp/static/images/task_images/land.jpg,65,,,,,,55,,,8,,,,,,,,282939,1,2,FALSE,,,
dig,215,610164,0.0-67.0-0.0,,,,,,,,,,,"[{""stimulus"":""run_exp/static/images/task_images/dig.jpg"",""time"":0.09999999403953552},{""stimulus"":""run_exp/static/images/task_images/land.jpg"",""time"":955.9000000059605},{""stimulus"":""run_exp/static/images/task_images/dig.jpg"",""time"":1914.4000000059605}]",[],8,,,,,,,,,,,,,,
harvest,216,611171,0.0-67.0-1.0,,null,run_exp/static/images/task_images/gems/55.jpg,null,,,,,,42,,,8,,,,,55,0.756400939,0.763636364,,,,,,,
decision,217,611549,0.0-67.0-2.0,,375.1,run_exp/static/images/task_images/land.jpg,76,,,,,,42,,,8,,,,,,,,287197,1,3,TRUE,,,
travel,218,621181,0.0-68.0-0.0,,,,,,,,,,,"[{""stimulus"":""run_exp/static/images/task_images/rocket-01.jpg"",""time"":0.4000000059604645},{""stimulus"":""run_exp/static/images/task_images/rocket-02.jpg"",""time"":1075.4000000059605},{""stimulus"":""run_exp/static/images/task_images/rocket-03.jpg"",""time"":2140.4000000059605},{""stimulus"":""run_exp/static/images/task_images/rocket-04.jpg"",""time"":3213.5999999940395},{""stimulus"":""run_exp/static/images/task_images/rocket-05.jpg"",""time"":4279.800000011921},{""stimulus"":""run_exp/static/images/task_images/rocket-06.jpg"",""time"":5347.9000000059605},{""stimulus"":""run_exp/static/images/task_images/rocket-07.jpg"",""time"":6420.5},{""stimulus"":""run_exp/static/images/task_images/rocket-08.jpg"",""time"":7489.5999999940395},{""stimulus"":""run_exp/static/images/task_images/rocket-09.jpg"",""time"":8555.300000011921}]",[],8,,,,,,,,,,,,,,
alien_welcome,219,626190,0.0-68.0-1.0,,null,run_exp/static/images/task_images/aliens/old_aliens/planet/alien_planet-44.jpg,null,,,,,,,,,,,,44,"4,9,1,35,18,74,45,29,44,39,60,2,48,65,16,19,57,41,13,76,64,5,77,27,51,71,42,62,49,75,34,37,40,70,56,24,68,38,6,36,21,73,53,28,59",,,,,,,,,,
land,220,626692,0.0-68.0-2.0,,null,run_exp/static/images/task_images/land.jpg,null,,,,,,104,,,9,,,,,,,,,,,,,,
dig,221,628698,0.0-68.0-3.0,,,,,,,,,,,"[{""stimulus"":""run_exp/static/images/task_images/dig.jpg"",""time"":0.5},{""stimulus"":""run_exp/static/images/task_images/land.jpg"",""time"":672.8000000119209},{""stimulus"":""run_exp/static/images/task_images/dig.jpg"",""time"":1340.800000011921}]",[],9,,,,,,,,,,,,,,
harvest,222,629701,0.0-68.0-4.0,,null,run_exp/static/images/task_images/gems/104.jpg,null,,,,,,25,,,9,,,,,104,0.242113415,0.240384615,,,,,,,
decision,223,630062,0.0-68.0-5.0,,358.5,run_exp/static/images/task_images/land.jpg,65,,,,,,25,,,9,,,,,,,,305710,1,0,TRUE,,,
end_of_block_continue,224,638887,0.0-69.0-0.0,,null,run_exp/static/audio/clip_32_block_end.m4a,,,,,,null,,,,,,,,,,,,,,,,,,
alien_welcome,225,643901,0.0-70.0-0.0,,null,run_exp/static/images/task_images/aliens/old_aliens/planet/alien_planet-39.jpg,null,,,,,,,,,,,,39,"4,9,1,35,18,74,45,29,44,39,60,2,48,65,16,19,57,41,13,76,64,5,77,27,51,71,42,62,49,75,34,37,40,70,56,24,68,38,6,36,21,73,53,28,59",,,,,,,,,,
land,226,644403,0.0-70.0-1.0,,null,run_exp/static/images/task_images/land.jpg,null,,,,,,96,,,10,,,,,,,,,,,,,,
dig,227,646411,0.0-70.0-2.0,,,,,,,,,,,"[{""stimulus"":""run_exp/static/images/task_images/dig.jpg"",""time"":0.30000001192092896},{""stimulus"":""run_exp/static/images/task_images/land.jpg"",""time"":668.5},{""stimulus"":""run_exp/static/images/task_images/dig.jpg"",""time"":1335.9000000059605}]",[],10,,,,,,,,,,,,,,
harvest,228,647418,0.0-70.0-3.0,,null,run_exp/static/images/task_images/gems/96.jpg,null,,,,,,14,,,10,,,,,96,0.147501542,0.145833333,,,,,,,
decision,229,648582,0.0-70.0-4.0,,1161.5,run_exp/static/images/task_images/land.jpg,65,,,,,,14,,,10,,,,,,,,9685,2,0,FALSE,,,
dig,230,650426,0.0-71.0-0.0,,,,,,,,,,,"[{""stimulus"":""run_exp/static/images/task_images/dig.jpg"",""time"":0.09999999403953552},{""stimulus"":""run_exp/static/images/task_images/land.jpg"",""time"":618.1999999880791},{""stimulus"":""run_exp/static/images/task_images/dig.jpg"",""time"":1227.5}]",[],10,,,,,,,,,,,,,,
harvest,231,651433,0.0-71.0-1.0,,null,run_exp/static/images/task_images/gems/14.jpg,null,,,,,,3,,,10,,,,,14,0.210541283,0.214285714,,,,,,,
decision,232,651875,0.0-71.0-2.0,,439.2,run_exp/static/images/task_images/land.jpg,65,,,,,,3,,,10,,,,,,,,12978,2,1,FALSE,,,
dig,233,654442,0.0-72.0-0.0,,,,,,,,,,,"[{""stimulus"":""run_exp/static/images/task_images/dig.jpg"",""time"":0.19999998807907104},{""stimulus"":""run_exp/static/images/task_images/land.jpg"",""time"":856.5999999940395},{""stimulus"":""run_exp/static/images/task_images/dig.jpg"",""time"":1710.199999988079}]",[],10,,,,,,,,,,,,,,
harvest,234,655449,0.0-72.0-1.0,,null,run_exp/static/images/task_images/gems/3.jpg,null,,,,,,1,,,10,,,,,3,0.271754852,0.333333333,,,,,,,
decision,235,655822,0.0-72.0-2.0,,369.9,run_exp/static/images/task_images/land.jpg,76,,,,,,1,,,10,,,,,,,,16925,2,2,TRUE,,,
travel,236,665463,0.0-73.0-0.0,,,,,,,,,,,"[{""stimulus"":""run_exp/static/images/task_images/rocket-01.jpg"",""time"":0.4000000059604645},{""stimulus"":""run_exp/static/images/task_images/rocket-02.jpg"",""time"":1073},{""stimulus"":""run_exp/static/images/task_images/rocket-03.jpg"",""time"":2146.800000011921},{""stimulus"":""run_exp/static/images/task_images/rocket-04.jpg"",""time"":3214.4000000059605},{""stimulus"":""run_exp/static/images/task_images/rocket-05.jpg"",""time"":4286.4000000059605},{""stimulus"":""run_exp/static/images/task_images/rocket-06.jpg"",""time"":5352.4000000059605},{""stimulus"":""run_exp/static/images/task_images/rocket-07.jpg"",""time"":6426.600000023842},{""stimulus"":""run_exp/static/images/task_images/rocket-08.jpg"",""time"":7496.600000023842},{""stimulus"":""run_exp/static/images/task_images/rocket-09.jpg"",""time"":8565.200000017881}]",[],10,,,,,,,,,,,,,,
alien_welcome,237,670471,0.0-73.0-1.0,,null,run_exp/static/images/task_images/aliens/old_aliens/planet/alien_planet-60.jpg,null,,,,,,,,,,,,60,"4,9,1,35,18,74,45,29,44,39,60,2,48,65,16,19,57,41,13,76,64,5,77,27,51,71,42,62,49,75,34,37,40,70,56,24,68,38,6,36,21,73,53,28,59",,,,,,,,,,
land,238,670976,0.0-73.0-2.0,,null,run_exp/static/images/task_images/land.jpg,null,,,,,,89,,,11,,,,,,,,,,,,,,
dig,239,672986,0.0-73.0-3.0,,,,,,,,,,,"[{""stimulus"":""run_exp/static/images/task_images/dig.jpg"",""time"":0.5999999940395355},{""stimulus"":""run_exp/static/images/task_images/land.jpg"",""time"":670.0999999940395},{""stimulus"":""run_exp/static/images/task_images/dig.jpg"",""time"":1336.0999999940395}]",[],11,,,,,,,,,,,,,,
harvest,240,673994,0.0-73.0-4.0,,null,run_exp/static/images/task_images/gems/89.jpg,null,,,,,,15,,,11,,,,,89,0.171506552,0.168539326,,,,,,,
decision,241,674433,0.0-73.0-5.0,,436.7,run_exp/static/images/task_images/land.jpg,65,,,,,,15,,,11,,,,,,,,35536,2,0,FALSE,,,
dig,242,677003,0.0-74.0-0.0,,,,,,,,,,,"[{""stimulus"":""run_exp/static/images/task_images/dig.jpg"",""time"":0.4000000059604645},{""stimulus"":""run_exp/static/images/task_images/land.jpg"",""time"":855.5999999940395},{""stimulus"":""run_exp/static/images/task_images/dig.jpg"",""time"":1714.699999988079}]",[],11,,,,,,,,,,,,,,
harvest,243,678010,0.0-74.0-1.0,,null,run_exp/static/images/task_images/gems/15.jpg,null,,,,,,4,,,11,,,,,15,0.238624768,0.266666667,,,,,,,
decision,244,678261,0.0-74.0-2.0,,248.3,run_exp/static/images/task_images/land.jpg,76,,,,,,4,,,11,,,,,,,,39364,2,1,TRUE,,,
travel,245,688018,0.0-75.0-0.0,,,,,,,,,,,"[{""stimulus"":""run_exp/static/images/task_images/rocket-01.jpg"",""time"":0.30000001192092896},{""stimulus"":""run_exp/static/images/task_images/rocket-02.jpg"",""time"":1087},{""stimulus"":""run_exp/static/images/task_images/rocket-03.jpg"",""time"":2170.699999988079},{""stimulus"":""run_exp/static/images/task_images/rocket-04.jpg"",""time"":3251.5},{""stimulus"":""run_exp/static/images/task_images/rocket-05.jpg"",""time"":4337.5},{""stimulus"":""run_exp/static/images/task_images/rocket-06.jpg"",""time"":5421.5},{""stimulus"":""run_exp/static/images/task_images/rocket-07.jpg"",""time"":6504.4000000059605},{""stimulus"":""run_exp/static/images/task_images/rocket-08.jpg"",""time"":7587.4000000059605},{""stimulus"":""run_exp/static/images/task_images/rocket-09.jpg"",""time"":8667.300000011921}]",[],11,,,,,,,,,,,,,,
alien_welcome,246,693027,0.0-75.0-1.0,,null,run_exp/static/images/task_images/aliens/old_aliens/planet/alien_planet-2.jpg,null,,,,,,,,,,,,2,"4,9,1,35,18,74,45,29,44,39,60,2,48,65,16,19,57,41,13,76,64,5,77,27,51,71,42,62,49,75,34,37,40,70,56,24,68,38,6,36,21,73,53,28,59",,,,,,,,,,
land,247,693535,0.0-75.0-2.0,,null,run_exp/static/images/task_images/land.jpg,null,,,,,,104,,,12,,,,,,,,,,,,,,
dig,248,695545,0.0-75.0-3.0,,,,,,,,,,,"[{""stimulus"":""run_exp/static/images/task_images/dig.jpg"",""time"":0.5999999940395355},{""stimulus"":""run_exp/static/images/task_images/land.jpg"",""time"":674},{""stimulus"":""run_exp/static/images/task_images/dig.jpg"",""time"":1340.7999999821186}]",[],12,,,,,,,,,,,,,,
harvest,249,696551,0.0-75.0-4.0,,null,run_exp/static/images/task_images/gems/104.jpg,null,,,,,,24,,,12,,,,,104,0.227183172,0.230769231,,,,,,,
decision,250,696929,0.0-75.0-5.0,,375.3,run_exp/static/images/task_images/land.jpg,65,,,,,,24,,,12,,,,,,,,58032,2,0,FALSE,,,
dig,251,699563,0.0-76.0-0.0,,,,,,,,,,,"[{""stimulus"":""run_exp/static/images/task_images/dig.jpg"",""time"":0.09999999403953552},{""stimulus"":""run_exp/static/images/task_images/land.jpg"",""time"":880.5},{""stimulus"":""run_exp/static/images/task_images/dig.jpg"",""time"":1754.4000000059605}]",[],12,,,,,,,,,,,,,,
harvest,252,700570,0.0-76.0-1.0,,null,run_exp/static/images/task_images/gems/24.jpg,null,,,,,,4,,,12,,,,,24,0.178741423,0.166666667,,,,,,,
decision,253,700816,0.0-76.0-2.0,,244.7,run_exp/static/images/task_images/land.jpg,76,,,,,,4,,,12,,,,,,,,61919,2,1,TRUE,,,
travel,254,710570,0.0-77.0-0.0,,,,,,,,,,,"[{""stimulus"":""run_exp/static/images/task_images/rocket-01.jpg"",""time"":0.20000001788139343},{""stimulus"":""run_exp/static/images/task_images/rocket-02.jpg"",""time"":1089.4000000059605},{""stimulus"":""run_exp/static/images/task_images/rocket-03.jpg"",""time"":2170.7000000178814},{""stimulus"":""run_exp/static/images/task_images/rocket-04.jpg"",""time"":3255.300000011921},{""stimulus"":""run_exp/static/images/task_images/rocket-05.jpg"",""time"":4337.300000011921},{""stimulus"":""run_exp/static/images/task_images/rocket-06.jpg"",""time"":5420.200000017881},{""stimulus"":""run_exp/static/images/task_images/rocket-07.jpg"",""time"":6504.4000000059605},{""stimulus"":""run_exp/static/images/task_images/rocket-08.jpg"",""time"":7587.4000000059605},{""stimulus"":""run_exp/static/images/task_images/rocket-09.jpg"",""time"":8668.300000011921}]",[],12,,,,,,,,,,,,,,
alien_welcome,255,715573,0.0-77.0-1.0,,null,run_exp/static/images/task_images/aliens/old_aliens/planet/alien_planet-48.jpg,null,,,,,,,,,,,,48,"4,9,1,35,18,74,45,29,44,39,60,2,48,65,16,19,57,41,13,76,64,5,77,27,51,71,42,62,49,75,34,37,40,70,56,24,68,38,6,36,21,73,53,28,59",,,,,,,,,,
land,256,716081,0.0-77.0-2.0,,null,run_exp/static/images/task_images/land.jpg,null,,,,,,102,,,13,,,,,,,,,,,,,,
dig,257,718091,0.0-77.0-3.0,,,,,,,,,,,"[{""stimulus"":""run_exp/static/images/task_images/dig.jpg"",""time"":0.5999999940395355},{""stimulus"":""run_exp/static/images/task_images/land.jpg"",""time"":673},{""stimulus"":""run_exp/static/images/task_images/dig.jpg"",""time"":1337.7000000178814}]",[],13,,,,,,,,,,,,,,
harvest,258,719099,0.0-77.0-4.0,,null,run_exp/static/images/task_images/gems/102.jpg,null,,,,,,81,,,13,,,,,102,0.795470349,0.794117647,,,,,,,
decision,259,719667,0.0-77.0-5.0,,566.2,run_exp/static/images/task_images/land.jpg,65,,,,,,81,,,13,,,,,,,,80771,2,0,FALSE,,,
dig,260,722107,0.0-78.0-0.0,,,,,,,,,,,"[{""stimulus"":""run_exp/static/images/task_images/dig.jpg"",""time"":0.4000000059604645},{""stimulus"":""run_exp/static/images/task_images/land.jpg"",""time"":817.5999999940395},{""stimulus"":""run_exp/static/images/task_images/dig.jpg"",""time"":1628.699999988079}]",[],13,,,,,,,,,,,,,,
harvest,261,723111,0.0-78.0-1.0,,null,run_exp/static/images/task_images/gems/81.jpg,null,,,,,,60,,,13,,,,,81,0.74135339,0.740740741,,,,,,,
decision,262,723258,0.0-78.0-2.0,,144.6,run_exp/static/images/task_images/land.jpg,65,,,,,,60,,,13,,,,,,,,84361,2,1,FALSE,,,
dig,263,726118,0.0-79.0-0.0,,,,,,,,,,,"[{""stimulus"":""run_exp/static/images/task_images/dig.jpg"",""time"":0.20000001788139343},{""stimulus"":""run_exp/static/images/task_images/land.jpg"",""time"":957.4000000059605},{""stimulus"":""run_exp/static/images/task_images/dig.jpg"",""time"":1908.5}]",[],13,,,,,,,,,,,,,,
harvest,264,727120,0.0-79.0-1.0,,null,run_exp/static/images/task_images/gems/60.jpg,null,,,,,,46,,,13,,,,,60,0.77058762,0.766666667,,,,,,,
decision,265,727260,0.0-79.0-2.0,,137.4,run_exp/static/images/task_images/land.jpg,65,,,,,,46,,,13,,,,,,,,88363,2,2,FALSE,,,
dig,266,730131,0.0-80.0-0.0,,,,,,,,,,,"[{""stimulus"":""run_exp/static/images/task_images/dig.jpg"",""time"":0.19999998807907104},{""stimulus"":""run_exp/static/images/task_images/land.jpg"",""time"":960.3999999761581},{""stimulus"":""run_exp/static/images/task_images/dig.jpg"",""time"":1911.199999988079}]",[],13,,,,,,,,,,,,,,
harvest,267,731137,0.0-80.0-1.0,,null,run_exp/static/images/task_images/gems/46.jpg,null,,,,,,38,,,13,,,,,46,0.83154065,0.826086957,,,,,,,
decision,268,731388,0.0-80.0-2.0,,248.7,run_exp/static/images/task_images/land.jpg,65,,,,,,38,,,13,,,,,,,,92491,2,3,FALSE,,,
dig,269,734148,0.0-81.0-0.0,,,,,,,,,,,"[{""stimulus"":""run_exp/static/images/task_images/dig.jpg"",""time"":0.20000001788139343},{""stimulus"":""run_exp/static/images/task_images/land.jpg"",""time"":923.6000000238419},{""stimulus"":""run_exp/static/images/task_images/dig.jpg"",""time"":1840.6000000238419}]",[],13,,,,,,,,,,,,,,
harvest,270,735156,0.0-81.0-1.0,,null,run_exp/static/images/task_images/gems/38.jpg,null,,,,,,32,,,13,,,,,38,0.84559868,0.842105263,,,,,,,
decision,271,735778,0.0-81.0-2.0,,619.4,run_exp/static/images/task_images/land.jpg,76,,,,,,32,,,13,,,,,,,,96882,2,4,TRUE,,,
travel,272,745169,0.0-82.0-0.0,,,,,,,,,,,"[{""stimulus"":""run_exp/static/images/task_images/rocket-01.jpg"",""time"":0.20000001788139343},{""stimulus"":""run_exp/static/images/task_images/rocket-02.jpg"",""time"":1045.4000000059605},{""stimulus"":""run_exp/static/images/task_images/rocket-03.jpg"",""time"":2090.0999999940395},{""stimulus"":""run_exp/static/images/task_images/rocket-04.jpg"",""time"":3132.5},{""stimulus"":""run_exp/static/images/task_images/rocket-05.jpg"",""time"":4174.4000000059605},{""stimulus"":""run_exp/static/images/task_images/rocket-06.jpg"",""time"":5215.9000000059605},{""stimulus"":""run_exp/static/images/task_images/rocket-07.jpg"",""time"":6258.200000017881},{""stimulus"":""run_exp/static/images/task_images/rocket-08.jpg"",""time"":7296.300000011921},{""stimulus"":""run_exp/static/images/task_images/rocket-09.jpg"",""time"":8339.300000011921}]",[],13,,,,,,,,,,,,,,
alien_welcome,273,750174,0.0-82.0-1.0,,null,run_exp/static/images/task_images/aliens/old_aliens/planet/alien_planet-65.jpg,null,,,,,,,,,,,,65,"4,9,1,35,18,74,45,29,44,39,60,2,48,65,16,19,57,41,13,76,64,5,77,27,51,71,42,62,49,75,34,37,40,70,56,24,68,38,6,36,21,73,53,28,59",,,,,,,,,,
land,274,750682,0.0-82.0-2.0,,null,run_exp/static/images/task_images/land.jpg,null,,,,,,96,,,14,,,,,,,,,,,,,,
dig,275,752689,0.0-82.0-3.0,,,,,,,,,,,"[{""stimulus"":""run_exp/static/images/task_images/dig.jpg"",""time"":0.5999999940395355},{""stimulus"":""run_exp/static/images/task_images/land.jpg"",""time"":669.0999999940395},{""stimulus"":""run_exp/static/images/task_images/dig.jpg"",""time"":1341}]",[],14,,,,,,,,,,,,,,
harvest,276,753694,0.0-82.0-4.0,,null,run_exp/static/images/task_images/gems/96.jpg,null,,,,,,75,,,14,,,,,96,0.785499202,0.78125,,,,,,,
decision,277,753963,0.0-82.0-5.0,,266.6,run_exp/static/images/task_images/land.jpg,65,,,,,,75,,,14,,,,,,,,115066,2,0,FALSE,,,
dig,278,756702,0.0-83.0-0.0,,,,,,,,,,,"[{""stimulus"":""run_exp/static/images/task_images/dig.jpg"",""time"":0.19999998807907104},{""stimulus"":""run_exp/static/images/task_images/land.jpg"",""time"":917.6999999880791},{""stimulus"":""run_exp/static/images/task_images/dig.jpg"",""time"":1828.5}]",[],14,,,,,,,,,,,,,,
harvest,279,757710,0.0-83.0-1.0,,null,run_exp/static/images/task_images/gems/75.jpg,null,,,,,,64,,,14,,,,,75,0.851159659,0.853333333,,,,,,,
decision,280,758019,0.0-83.0-2.0,,306.2,run_exp/static/images/task_images/land.jpg,65,,,,,,64,,,14,,,,,,,,119122,2,1,FALSE,,,
dig,281,760721,0.0-84.0-0.0,,,,,,,,,,,"[{""stimulus"":""run_exp/static/images/task_images/dig.jpg"",""time"":0.30000001192092896},{""stimulus"":""run_exp/static/images/task_images/land.jpg"",""time"":900.7000000178814},{""stimulus"":""run_exp/static/images/task_images/dig.jpg"",""time"":1800.5}]",[],14,,,,,,,,,,,,,,
harvest,282,761729,0.0-84.0-1.0,,null,run_exp/static/images/task_images/gems/64.jpg,null,,,,,,56,,,14,,,,,64,0.881407198,0.875,,,,,,,
decision,283,762176,0.0-84.0-2.0,,444.4,run_exp/static/images/task_images/land.jpg,65,,,,,,56,,,14,,,,,,,,123279,2,2,FALSE,,,
dig,284,764737,0.0-85.0-0.0,,,,,,,,,,,"[{""stimulus"":""run_exp/static/images/task_images/dig.jpg"",""time"":0.4000000059604645},{""stimulus"":""run_exp/static/images/task_images/land.jpg"",""time"":853.7000000178814},{""stimulus"":""run_exp/static/images/task_images/dig.jpg"",""time"":1708.7000000178814}]",[],14,,,,,,,,,,,,,,
harvest,285,765745,0.0-85.0-1.0,,null,run_exp/static/images/task_images/gems/56.jpg,null,,,,,,46,,,14,,,,,56,0.813834923,0.821428571,,,,,,,
decision,286,765881,0.0-85.0-2.0,,134.3,run_exp/static/images/task_images/land.jpg,65,,,,,,46,,,14,,,,,,,,126985,2,3,FALSE,,,
dig,287,768753,0.0-86.0-0.0,,,,,,,,,,,"[{""stimulus"":""run_exp/static/images/task_images/dig.jpg"",""time"":0.4000000059604645},{""stimulus"":""run_exp/static/images/task_images/land.jpg"",""time"":961.8000000119209},{""stimulus"":""run_exp/static/images/task_images/dig.jpg"",""time"":1912.2000000178814}]",[],14,,,,,,,,,,,,,,
harvest,288,769760,0.0-86.0-1.0,,null,run_exp/static/images/task_images/gems/46.jpg,null,,,,,,38,,,14,,,,,46,0.835573299,0.826086957,,,,,,,
decision,289,769833,0.0-86.0-2.0,,69.59999999,run_exp/static/images/task_images/land.jpg,65,,,,,,38,,,14,,,,,,,,130936,2,4,FALSE,,,
dig,290,772768,0.0-87.0-0.0,,,,,,,,,,,"[{""stimulus"":""run_exp/static/images/task_images/dig.jpg"",""time"":0.4000000059604645},{""stimulus"":""run_exp/static/images/task_images/land.jpg"",""time"":979.5999999940395},{""stimulus"":""run_exp/static/images/task_images/dig.jpg"",""time"":1957.7000000178814}]",[],14,,,,,,,,,,,,,,
harvest,291,773776,0.0-87.0-1.0,,null,run_exp/static/images/task_images/gems/38.jpg,null,,,,,,31,,,14,,,,,38,0.802680956,0.815789474,,,,,,,
decision,292,773848,0.0-87.0-2.0,,69.40000001,run_exp/static/images/task_images/land.jpg,76,,,,,,31,,,14,,,,,,,,134951,2,5,TRUE,,,
travel,293,783788,0.0-88.0-0.0,,,,,,,,,,,"[{""stimulus"":""run_exp/static/images/task_images/rocket-01.jpg"",""time"":0.29999998211860657},{""stimulus"":""run_exp/static/images/task_images/rocket-02.jpg"",""time"":1106},{""stimulus"":""run_exp/static/images/task_images/rocket-03.jpg"",""time"":2210},{""stimulus"":""run_exp/static/images/task_images/rocket-04.jpg"",""time"":3315.2999999821186},{""stimulus"":""run_exp/static/images/task_images/rocket-05.jpg"",""time"":4418.5},{""stimulus"":""run_exp/static/images/task_images/rocket-06.jpg"",""time"":5517.4000000059605},{""stimulus"":""run_exp/static/images/task_images/rocket-07.jpg"",""time"":6621.5999999940395},{""stimulus"":""run_exp/static/images/task_images/rocket-08.jpg"",""time"":7727.699999988079},{""stimulus"":""run_exp/static/images/task_images/rocket-09.jpg"",""time"":8828.5}]",[],14,,,,,,,,,,,,,,
alien_welcome,294,788796,0.0-88.0-1.0,,null,run_exp/static/images/task_images/aliens/old_aliens/planet/alien_planet-16.jpg,null,,,,,,,,,,,,16,"4,9,1,35,18,74,45,29,44,39,60,2,48,65,16,19,57,41,13,76,64,5,77,27,51,71,42,62,49,75,34,37,40,70,56,24,68,38,6,36,21,73,53,28,59",,,,,,,,,,
land,295,789304,0.0-88.0-2.0,,null,run_exp/static/images/task_images/land.jpg,null,,,,,,100,,,15,,,,,,,,,,,,,,
dig,296,791311,0.0-88.0-3.0,,,,,,,,,,,"[{""stimulus"":""run_exp/static/images/task_images/dig.jpg"",""time"":0.7000000178813934},{""stimulus"":""run_exp/static/images/task_images/land.jpg"",""time"":674},{""stimulus"":""run_exp/static/images/task_images/dig.jpg"",""time"":1339.300000011921}]",[],15,,,,,,,,,,,,,,
harvest,297,792319,0.0-88.0-4.0,,null,run_exp/static/images/task_images/gems/100.jpg,null,,,,,,73,,,15,,,,,100,0.730972014,0.73,,,,,,,
decision,298,792827,0.0-88.0-5.0,,505.8,run_exp/static/images/task_images/land.jpg,65,,,,,,73,,,15,,,,,,,,153930,2,0,FALSE,,,
dig,299,795326,0.0-89.0-0.0,,,,,,,,,,,"[{""stimulus"":""run_exp/static/images/task_images/dig.jpg"",""time"":0.09999999403953552},{""stimulus"":""run_exp/static/images/task_images/land.jpg"",""time"":837.3000000119209},{""stimulus"":""run_exp/static/images/task_images/dig.jpg"",""time"":1668.300000011921}]",[],15,,,,,,,,,,,,,,
harvest,300,796329,0.0-89.0-1.0,,null,run_exp/static/images/task_images/gems/73.jpg,null,,,,,,60,,,15,,,,,73,0.817518272,0.821917808,,,,,,,
decision,301,796848,0.0-89.0-2.0,,516.3,run_exp/static/images/task_images/land.jpg,65,,,,,,60,,,15,,,,,,,,157952,2,1,FALSE,,,
dig,302,799337,0.0-90.0-0.0,,,,,,,,,,,"[{""stimulus"":""run_exp/static/images/task_images/dig.jpg"",""time"":0.30000001192092896},{""stimulus"":""run_exp/static/images/task_images/land.jpg"",""time"":832.7000000178814},{""stimulus"":""run_exp/static/images/task_images/dig.jpg"",""time"":1657.2000000178814}]",[],15,,,,,,,,,,,,,,
harvest,303,800345,0.0-90.0-1.0,,null,run_exp/static/images/task_images/gems/60.jpg,null,,,,,,46,,,15,,,,,60,0.761282624,0.766666667,,,,,,,
decision,304,800500,0.0-90.0-2.0,,152.2,run_exp/static/images/task_images/land.jpg,65,,,,,,46,,,15,,,,,,,,161603,2,2,FALSE,,,
dig,305,803355,0.0-91.0-0.0,,,,,,,,,,,"[{""stimulus"":""run_exp/static/images/task_images/dig.jpg"",""time"":0.09999999403953552},{""stimulus"":""run_exp/static/images/task_images/land.jpg"",""time"":955.6999999880791},{""stimulus"":""run_exp/static/images/task_images/dig.jpg"",""time"":1900.7999999821186}]",[],15,,,,,,,,,,,,,,
harvest,306,804357,0.0-91.0-1.0,,null,run_exp/static/images/task_images/gems/46.jpg,null,,,,,,36,,,15,,,,,46,0.792975572,0.782608696,,,,,,,
decision,307,804562,0.0-91.0-2.0,,202.5,run_exp/static/images/task_images/land.jpg,65,,,,,,36,,,15,,,,,,,,165665,2,3,FALSE,,,
dig,308,807365,0.0-92.0-0.0,,,,,,,,,,,"[{""stimulus"":""run_exp/static/images/task_images/dig.jpg"",""time"":0.19999998807907104},{""stimulus"":""run_exp/static/images/task_images/land.jpg"",""time"":938.2999999821186},{""stimulus"":""run_exp/static/images/task_images/dig.jpg"",""time"":1869}]",[],15,,,,,,,,,,,,,,
harvest,309,808370,0.0-92.0-1.0,,null,run_exp/static/images/task_images/gems/36.jpg,null,,,,,,28,,,15,,,,,36,0.768912013,0.777777778,,,,,,,
decision,310,808677,0.0-92.0-2.0,,304,run_exp/static/images/task_images/land.jpg,76,,,,,,28,,,15,,,,,,,,169780,2,4,TRUE,,,
travel,311,818382,0.0-93.0-0.0,,,,,,,,,,,"[{""stimulus"":""run_exp/static/images/task_images/rocket-01.jpg"",""time"":0.30000001192092896},{""stimulus"":""run_exp/static/images/task_images/rocket-02.jpg"",""time"":1078.9000000059605},{""stimulus"":""run_exp/static/images/task_images/rocket-03.jpg"",""time"":2160.4000000059605},{""stimulus"":""run_exp/static/images/task_images/rocket-04.jpg"",""time"":3237.4000000059605},{""stimulus"":""run_exp/static/images/task_images/rocket-05.jpg"",""time"":4314.4000000059605},{""stimulus"":""run_exp/static/images/task_images/rocket-06.jpg"",""time"":5391.600000023842},{""stimulus"":""run_exp/static/images/task_images/rocket-07.jpg"",""time"":6468.600000023842},{""stimulus"":""run_exp/static/images/task_images/rocket-08.jpg"",""time"":7541.9000000059605},{""stimulus"":""run_exp/static/images/task_images/rocket-09.jpg"",""time"":8622.5}]",[],15,,,,,,,,,,,,,,
alien_welcome,312,823390,0.0-93.0-1.0,,null,run_exp/static/images/task_images/aliens/old_aliens/planet/alien_planet-19.jpg,null,,,,,,,,,,,,19,"4,9,1,35,18,74,45,29,44,39,60,2,48,65,16,19,57,41,13,76,64,5,77,27,51,71,42,62,49,75,34,37,40,70,56,24,68,38,6,36,21,73,53,28,59",,,,,,,,,,
land,313,823893,0.0-93.0-2.0,,null,run_exp/static/images/task_images/land.jpg,null,,,,,,107,,,16,,,,,,,,,,,,,,
dig,314,825904,0.0-93.0-3.0,,,,,,,,,,,"[{""stimulus"":""run_exp/static/images/task_images/dig.jpg"",""time"":0.6000000238418579},{""stimulus"":""run_exp/static/images/task_images/land.jpg"",""time"":670.8000000119209},{""stimulus"":""run_exp/static/images/task_images/dig.jpg"",""time"":1341.2000000178814}]",[],16,,,,,,,,,,,,,,
harvest,315,826912,0.0-93.0-4.0,,null,run_exp/static/images/task_images/gems/107.jpg,null,,,,,,79,,,16,,,,,107,0.741993153,0.738317757,,,,,,,
decision,316,827329,0.0-93.0-5.0,,415,run_exp/static/images/task_images/land.jpg,65,,,,,,79,,,16,,,,,,,,188432,2,0,FALSE,,,
dig,317,829920,0.0-94.0-0.0,,,,,,,,,,,"[{""stimulus"":""run_exp/static/images/task_images/dig.jpg"",""time"":0.09999999403953552},{""stimulus"":""run_exp/static/images/task_images/land.jpg"",""time"":863},{""stimulus"":""run_exp/static/images/task_images/dig.jpg"",""time"":1728.199999988079}]",[],16,,,,,,,,,,,,,,
harvest,318,830927,0.0-94.0-1.0,,null,run_exp/static/images/task_images/gems/79.jpg,null,,,,,,63,,,16,,,,,79,0.796014363,0.797468354,,,,,,,
decision,319,831207,0.0-94.0-2.0,,276.5,run_exp/static/images/task_images/land.jpg,65,,,,,,63,,,16,,,,,,,,192310,2,1,FALSE,,,
dig,320,833935,0.0-95.0-0.0,,,,,,,,,,,"[{""stimulus"":""run_exp/static/images/task_images/dig.jpg"",""time"":0.09999999403953552},{""stimulus"":""run_exp/static/images/task_images/land.jpg"",""time"":911.0999999940395},{""stimulus"":""run_exp/static/images/task_images/dig.jpg"",""time"":1820.5}]",[],16,,,,,,,,,,,,,,
harvest,321,834943,0.0-95.0-1.0,,null,run_exp/static/images/task_images/gems/63.jpg,null,,,,,,49,,,16,,,,,63,0.774911808,0.777777778,,,,,,,
decision,322,835069,0.0-95.0-2.0,,122.8,run_exp/static/images/task_images/land.jpg,65,,,,,,49,,,16,,,,,,,,196172,2,2,FALSE,,,
dig,323,837953,0.0-96.0-0.0,,,,,,,,,,,"[{""stimulus"":""run_exp/static/images/task_images/dig.jpg"",""time"":0.09999999403953552},{""stimulus"":""run_exp/static/images/task_images/land.jpg"",""time"":965.1999999880791},{""stimulus"":""run_exp/static/images/task_images/dig.jpg"",""time"":1924.199999988079}]",[],16,,,,,,,,,,,,,,
harvest,324,838960,0.0-96.0-1.0,,null,run_exp/static/images/task_images/gems/49.jpg,null,,,,,,39,,,16,,,,,49,0.786083652,0.795918367,,,,,,,
decision,325,839253,0.0-96.0-2.0,,290,run_exp/static/images/task_images/land.jpg,65,,,,,,39,,,16,,,,,,,,200356,2,3,FALSE,,,
dig,326,841971,0.0-97.0-0.0,,,,,,,,,,,"[{""stimulus"":""run_exp/static/images/task_images/dig.jpg"",""time"":0.09999999403953552},{""stimulus"":""run_exp/static/images/task_images/land.jpg"",""time"":909.2000000178814},{""stimulus"":""run_exp/static/images/task_images/dig.jpg"",""time"":1811.2000000178814}]",[],16,,,,,,,,,,,,,,
harvest,327,842978,0.0-97.0-1.0,,null,run_exp/static/images/task_images/gems/39.jpg,null,,,,,,32,,,16,,,,,39,0.81485407,0.820512821,,,,,,,
decision,328,843194,0.0-97.0-2.0,,212.8,run_exp/static/images/task_images/land.jpg,65,,,,,,32,,,16,,,,,,,,204297,2,4,FALSE,,,
dig,329,845990,0.0-98.0-0.0,,,,,,,,,,,"[{""stimulus"":""run_exp/static/images/task_images/dig.jpg"",""time"":0.5},{""stimulus"":""run_exp/static/images/task_images/land.jpg"",""time"":933.6000000238419},{""stimulus"":""run_exp/static/images/task_images/dig.jpg"",""time"":1862.800000011921}]",[],16,,,,,,,,,,,,,,
harvest,330,846998,0.0-98.0-1.0,,null,run_exp/static/images/task_images/gems/32.jpg,null,,,,,,27,,,16,,,,,32,0.854326277,0.84375,,,,,,,
decision,331,847307,0.0-98.0-2.0,,305.8,run_exp/static/images/task_images/land.jpg,65,,,,,,27,,,16,,,,,,,,208410,2,5,FALSE,,,
dig,332,850013,0.0-99.0-0.0,,,,,,,,,,,"[{""stimulus"":""run_exp/static/images/task_images/dig.jpg"",""time"":0.19999998807907104},{""stimulus"":""run_exp/static/images/task_images/land.jpg"",""time"":900.8999999761581},{""stimulus"":""run_exp/static/images/task_images/dig.jpg"",""time"":1802.3999999761581}]",[],16,,,,,,,,,,,,,,
harvest,333,851021,0.0-99.0-1.0,,null,run_exp/static/images/task_images/gems/27.jpg,null,,,,,,22,,,16,,,,,27,0.803830304,0.814814815,,,,,,,
decision,334,851218,0.0-99.0-2.0,,193.7,run_exp/static/images/task_images/land.jpg,65,,,,,,22,,,16,,,,,,,,212321,2,6,FALSE,,,
dig,335,854030,0.0-100.0-0.0,,,,,,,,,,,"[{""stimulus"":""run_exp/static/images/task_images/dig.jpg"",""time"":0.5},{""stimulus"":""run_exp/static/images/task_images/land.jpg"",""time"":941.6999999880791},{""stimulus"":""run_exp/static/images/task_images/dig.jpg"",""time"":1876.699999988079}]",[],16,,,,,,,,,,,,,,
harvest,336,855037,0.0-100.0-1.0,,null,run_exp/static/images/task_images/gems/22.jpg,null,,,,,,18,,,16,,,,,22,0.835490571,0.818181818,,,,,,,
decision,337,855185,0.0-100.0-2.0,,145.3,run_exp/static/images/task_images/land.jpg,76,,,,,,18,,,16,,,,,,,,216289,2,7,TRUE,,,
travel,338,865041,0.0-101.0-0.0,,,,,,,,,,,"[{""stimulus"":""run_exp/static/images/task_images/rocket-01.jpg"",""time"":0.20000001788139343},{""stimulus"":""run_exp/static/images/task_images/rocket-02.jpg"",""time"":1100.4000000059605},{""stimulus"":""run_exp/static/images/task_images/rocket-03.jpg"",""time"":2193.9000000059605},{""stimulus"":""run_exp/static/images/task_images/rocket-04.jpg"",""time"":3288.4000000059605},{""stimulus"":""run_exp/static/images/task_images/rocket-05.jpg"",""time"":4382.4000000059605},{""stimulus"":""run_exp/static/images/task_images/rocket-06.jpg"",""time"":5472.300000011921},{""stimulus"":""run_exp/static/images/task_images/rocket-07.jpg"",""time"":6570.4000000059605},{""stimulus"":""run_exp/static/images/task_images/rocket-08.jpg"",""time"":7664.4000000059605},{""stimulus"":""run_exp/static/images/task_images/rocket-09.jpg"",""time"":8753.40000000596}]",[],16,,,,,,,,,,,,,,
alien_welcome,339,870045,0.0-101.0-1.0,,null,run_exp/static/images/task_images/aliens/old_aliens/planet/alien_planet-57.jpg,null,,,,,,,,,,,,57,"4,9,1,35,18,74,45,29,44,39,60,2,48,65,16,19,57,41,13,76,64,5,77,27,51,71,42,62,49,75,34,37,40,70,56,24,68,38,6,36,21,73,53,28,59",,,,,,,,,,
land,340,870553,0.0-101.0-2.0,,null,run_exp/static/images/task_images/land.jpg,null,,,,,,102,,,17,,,,,,,,,,,,,,
dig,341,872563,0.0-101.0-3.0,,,,,,,,,,,"[{""stimulus"":""run_exp/static/images/task_images/dig.jpg"",""time"":0.699999988079071},{""stimulus"":""run_exp/static/images/task_images/land.jpg"",""time"":672.5},{""stimulus"":""run_exp/static/images/task_images/dig.jpg"",""time"":1336}]",[],17,,,,,,,,,,,,,,
harvest,342,873570,0.0-101.0-4.0,,null,run_exp/static/images/task_images/gems/102.jpg,null,,,,,,81,,,17,,,,,102,0.794391172,0.794117647,,,,,,,
decision,343,873804,0.0-101.0-5.0,,231.5,run_exp/static/images/task_images/land.jpg,65,,,,,,81,,,17,,,,,,,,234907,2,0,FALSE,,,
dig,344,876578,0.0-102.0-0.0,,,,,,,,,,,"[{""stimulus"":""run_exp/static/images/task_images/dig.jpg"",""time"":0.19999998807907104},{""stimulus"":""run_exp/static/images/task_images/land.jpg"",""time"":926.2999999821186},{""stimulus"":""run_exp/static/images/task_images/dig.jpg"",""time"":1850.2999999821186}]",[],17,,,,,,,,,,,,,,
harvest,345,877586,0.0-102.0-1.0,,null,run_exp/static/images/task_images/gems/81.jpg,null,,,,,,63,,,17,,,,,81,0.774686561,0.777777778,,,,,,,
decision,346,877729,0.0-102.0-2.0,,140,run_exp/static/images/task_images/land.jpg,65,,,,,,63,,,17,,,,,,,,238832,2,1,FALSE,,,
dig,347,880598,0.0-103.0-0.0,,,,,,,,,,,"[{""stimulus"":""run_exp/static/images/task_images/dig.jpg"",""time"":0.20000001788139343},{""stimulus"":""run_exp/static/images/task_images/land.jpg"",""time"":957.9000000059605},{""stimulus"":""run_exp/static/images/task_images/dig.jpg"",""time"":1910.0999999940395}]",[],17,,,,,,,,,,,,,,
harvest,348,881605,0.0-103.0-1.0,,null,run_exp/static/images/task_images/gems/63.jpg,null,,,,,,50,,,17,,,,,63,0.792670981,0.793650794,,,,,,,
decision,349,882601,0.0-103.0-2.0,,992.7,run_exp/static/images/task_images/land.jpg,65,,,,,,50,,,17,,,,,,,,243704,2,2,FALSE,,,
dig,350,884616,0.0-104.0-0.0,,,,,,,,,,,"[{""stimulus"":""run_exp/static/images/task_images/dig.jpg"",""time"":0.20000001788139343},{""stimulus"":""run_exp/static/images/task_images/land.jpg"",""time"":672.6000000238419},{""stimulus"":""run_exp/static/images/task_images/dig.jpg"",""time"":1344.1000000238419}]",[],17,,,,,,,,,,,,,,
harvest,351,885624,0.0-104.0-1.0,,null,run_exp/static/images/task_images/gems/50.jpg,null,,,,,,44,,,17,,,,,50,0.889135091,0.88,,,,,,,
decision,352,885924,0.0-104.0-2.0,,297.3,run_exp/static/images/task_images/land.jpg,65,,,,,,44,,,17,,,,,,,,247028,2,3,FALSE,,,
dig,353,888633,0.0-105.0-0.0,,,,,,,,,,,"[{""stimulus"":""run_exp/static/images/task_images/dig.jpg"",""time"":0.09999999403953552},{""stimulus"":""run_exp/static/images/task_images/land.jpg"",""time"":906.3999999761581},{""stimulus"":""run_exp/static/images/task_images/dig.jpg"",""time"":1806.5}]",[],17,,,,,,,,,,,,,,
harvest,354,889640,0.0-105.0-1.0,,null,run_exp/static/images/task_images/gems/44.jpg,null,,,,,,36,,,17,,,,,44,0.819262784,0.818181818,,,,,,,
decision,355,889861,0.0-105.0-2.0,,218,run_exp/static/images/task_images/land.jpg,65,,,,,,36,,,17,,,,,,,,250965,2,4,FALSE,,,
dig,356,892650,0.0-106.0-0.0,,,,,,,,,,,"[{""stimulus"":""run_exp/static/images/task_images/dig.jpg"",""time"":0.09999999403953552},{""stimulus"":""run_exp/static/images/task_images/land.jpg"",""time"":933.4000000059605},{""stimulus"":""run_exp/static/images/task_images/dig.jpg"",""time"":1860.4000000059605}]",[],17,,,,,,,,,,,,,,
harvest,357,893655,0.0-106.0-1.0,,null,run_exp/static/images/task_images/gems/36.jpg,null,,,,,,31,,,17,,,,,36,0.854240901,0.861111111,,,,,,,
decision,358,893741,0.0-106.0-2.0,,83.69999999,run_exp/static/images/task_images/land.jpg,76,,,,,,31,,,17,,,,,,,,254845,2,5,TRUE,,,
travel,359,903662,0.0-107.0-0.0,,,,,,,,,,,"[{""stimulus"":""run_exp/static/images/task_images/rocket-01.jpg"",""time"":0.20000001788139343},{""stimulus"":""run_exp/static/images/task_images/rocket-02.jpg"",""time"":1107.5},{""stimulus"":""run_exp/static/images/task_images/rocket-03.jpg"",""time"":2207.2000000178814},{""stimulus"":""run_exp/static/images/task_images/rocket-04.jpg"",""time"":3305.7000000178814},{""stimulus"":""run_exp/static/images/task_images/rocket-05.jpg"",""time"":4408.0999999940395},{""stimulus"":""run_exp/static/images/task_images/rocket-06.jpg"",""time"":5511.4000000059605},{""stimulus"":""run_exp/static/images/task_images/rocket-07.jpg"",""time"":6612.300000011921},{""stimulus"":""run_exp/static/images/task_images/rocket-08.jpg"",""time"":7713.300000011921},{""stimulus"":""run_exp/static/images/task_images/rocket-09.jpg"",""time"":8814.300000011921}]",[],17,,,,,,,,,,,,,,
alien_welcome,360,908668,0.0-107.0-1.0,,null,run_exp/static/images/task_images/aliens/old_aliens/planet/alien_planet-41.jpg,null,,,,,,,,,,,,41,"4,9,1,35,18,74,45,29,44,39,60,2,48,65,16,19,57,41,13,76,64,5,77,27,51,71,42,62,49,75,34,37,40,70,56,24,68,38,6,36,21,73,53,28,59",,,,,,,,,,
land,361,909172,0.0-107.0-2.0,,null,run_exp/static/images/task_images/land.jpg,null,,,,,,93,,,18,,,,,,,,,,,,,,
dig,362,911183,0.0-107.0-3.0,,,,,,,,,,,"[{""stimulus"":""run_exp/static/images/task_images/dig.jpg"",""time"":0.5999999940395355},{""stimulus"":""run_exp/static/images/task_images/land.jpg"",""time"":674},{""stimulus"":""run_exp/static/images/task_images/dig.jpg"",""time"":1340.9000000059605}]",[],18,,,,,,,,,,,,,,
harvest,363,912190,0.0-107.0-4.0,,null,run_exp/static/images/task_images/gems/93.jpg,null,,,,,,54,,,18,,,,,93,0.577795185,0.580645161,,,,,,,
decision,364,912346,0.0-107.0-5.0,,153.2,run_exp/static/images/task_images/land.jpg,76,,,,,,54,,,18,,,,,,,,273449,2,0,TRUE,,,
travel,365,922204,0.0-108.0-0.0,,,,,,,,,,,"[{""stimulus"":""run_exp/static/images/task_images/rocket-01.jpg"",""time"":0.19999998807907104},{""stimulus"":""run_exp/static/images/task_images/rocket-02.jpg"",""time"":1100.2999999821186},{""stimulus"":""run_exp/static/images/task_images/rocket-03.jpg"",""time"":2194.399999976158},{""stimulus"":""run_exp/static/images/task_images/rocket-04.jpg"",""time"":3288.2999999821186},{""stimulus"":""run_exp/static/images/task_images/rocket-05.jpg"",""time"":4382.299999982119},{""stimulus"":""run_exp/static/images/task_images/rocket-06.jpg"",""time"":5476.299999982119},{""stimulus"":""run_exp/static/images/task_images/rocket-07.jpg"",""time"":6566.199999988079},{""stimulus"":""run_exp/static/images/task_images/rocket-08.jpg"",""time"":7664.5},{""stimulus"":""run_exp/static/images/task_images/rocket-09.jpg"",""time"":8758.5}]",[],18,,,,,,,,,,,,,,
alien_welcome,366,927213,0.0-108.0-1.0,,null,run_exp/static/images/task_images/aliens/old_aliens/planet/alien_planet-13.jpg,null,,,,,,,,,,,,13,"4,9,1,35,18,74,45,29,44,39,60,2,48,65,16,19,57,41,13,76,64,5,77,27,51,71,42,62,49,75,34,37,40,70,56,24,68,38,6,36,21,73,53,28,59",,,,,,,,,,
land,367,927717,0.0-108.0-2.0,,null,run_exp/static/images/task_images/land.jpg,null,,,,,,103,,,19,,,,,,,,,,,,,,
dig,368,929724,0.0-108.0-3.0,,,,,,,,,,,"[{""stimulus"":""run_exp/static/images/task_images/dig.jpg"",""time"":0.800000011920929},{""stimulus"":""run_exp/static/images/task_images/land.jpg"",""time"":673.9000000059605},{""stimulus"":""run_exp/static/images/task_images/dig.jpg"",""time"":1337.1000000238419}]",[],19,,,,,,,,,,,,,,
harvest,369,930731,0.0-108.0-4.0,,null,run_exp/static/images/task_images/gems/103.jpg,null,,,,,,81,,,19,,,,,103,0.785673126,0.786407767,,,,,,,
decision,370,931088,0.0-108.0-5.0,,353.8,run_exp/static/images/task_images/land.jpg,76,,,,,,81,,,19,,,,,,,,292192,2,0,TRUE,,,
travel,371,940740,0.0-109.0-0.0,,,,,,,,,,,"[{""stimulus"":""run_exp/static/images/task_images/rocket-01.jpg"",""time"":0.19999998807907104},{""stimulus"":""run_exp/static/images/task_images/rocket-02.jpg"",""time"":1077.5999999940395},{""stimulus"":""run_exp/static/images/task_images/rocket-03.jpg"",""time"":2143.7999999821186},{""stimulus"":""run_exp/static/images/task_images/rocket-04.jpg"",""time"":3216.7999999821186},{""stimulus"":""run_exp/static/images/task_images/rocket-05.jpg"",""time"":4290.5},{""stimulus"":""run_exp/static/images/task_images/rocket-06.jpg"",""time"":5361.5},{""stimulus"":""run_exp/static/images/task_images/rocket-07.jpg"",""time"":6432.5999999940395},{""stimulus"":""run_exp/static/images/task_images/rocket-08.jpg"",""time"":7503.5},{""stimulus"":""run_exp/static/images/task_images/rocket-09.jpg"",""time"":8571.199999988079}]",[],19,,,,,,,,,,,,,,
alien_welcome,372,945749,0.0-109.0-1.0,,null,run_exp/static/images/task_images/aliens/old_aliens/planet/alien_planet-76.jpg,null,,,,,,,,,,,,76,"4,9,1,35,18,74,45,29,44,39,60,2,48,65,16,19,57,41,13,76,64,5,77,27,51,71,42,62,49,75,34,37,40,70,56,24,68,38,6,36,21,73,53,28,59",,,,,,,,,,
land,373,946253,0.0-109.0-2.0,,null,run_exp/static/images/task_images/land.jpg,null,,,,,,92,,,20,,,,,,,,,,,,,,
dig,374,948262,0.0-109.0-3.0,,,,,,,,,,,"[{""stimulus"":""run_exp/static/images/task_images/dig.jpg"",""time"":0.5999999940395355},{""stimulus"":""run_exp/static/images/task_images/land.jpg"",""time"":673.7999999821186},{""stimulus"":""run_exp/static/images/task_images/dig.jpg"",""time"":1340.8999999761581}]",[],20,,,,,,,,,,,,,,
harvest,375,949270,0.0-109.0-4.0,,null,run_exp/static/images/task_images/gems/92.jpg,null,,,,,,75,,,20,,,,,92,0.819202342,0.815217391,,,,,,,
decision,376,949564,0.0-109.0-5.0,,291.1,run_exp/static/images/task_images/land.jpg,65,,,,,,75,,,20,,,,,,,,310668,2,0,TRUE,,,
end_of_block_continue,377,954153,0.0-110.0-0.0,,4580.9,run_exp/static/audio/clip_32_block_end.m4a,,,,,,0,,,,,,,,,,,,,,,,,,
alien_welcome,378,959160,0.0-111.0-0.0,,null,run_exp/static/images/task_images/aliens/old_aliens/planet/alien_planet-64.jpg,null,,,,,,,,,,,,64,"4,9,1,35,18,74,45,29,44,39,60,2,48,65,16,19,57,41,13,76,64,5,77,27,51,71,42,62,49,75,34,37,40,70,56,24,68,38,6,36,21,73,53,28,59",,,,,,,,,,
land,379,959668,0.0-111.0-1.0,,null,run_exp/static/images/task_images/land.jpg,null,,,,,,97,,,21,,,,,,,,,,,,,,
dig,380,961679,0.0-111.0-2.0,,,,,,,,,,,"[{""stimulus"":""run_exp/static/images/task_images/dig.jpg"",""time"":0.5999999940395355},{""stimulus"":""run_exp/static/images/task_images/land.jpg"",""time"":674.0999999940395},{""stimulus"":""run_exp/static/images/task_images/dig.jpg"",""time"":1336}]",[],21,,,,,,,,,,,,,,
harvest,381,962686,0.0-111.0-3.0,,null,run_exp/static/images/task_images/gems/97.jpg,null,,,,,,52,,,21,,,,,97,0.537128612,0.536082474,,,,,,,
decision,382,963060,0.0-111.0-4.0,,370.9,run_exp/static/images/task_images/land.jpg,65,,,,,,52,,,21,,,,,,,,8903,3,0,FALSE,,,
dig,383,965696,0.0-112.0-0.0,,,,,,,,,,,"[{""stimulus"":""run_exp/static/images/task_images/dig.jpg"",""time"":0.19999998807907104},{""stimulus"":""run_exp/static/images/task_images/land.jpg"",""time"":879.3000000119209},{""stimulus"":""run_exp/static/images/task_images/dig.jpg"",""time"":1757.800000011921}]",[],21,,,,,,,,,,,,,,
harvest,384,966705,0.0-112.0-1.0,,null,run_exp/static/images/task_images/gems/52.jpg,null,,,,,,28,,,21,,,,,52,0.545716913,0.538461538,,,,,,,
decision,385,967222,0.0-112.0-2.0,,514.4,run_exp/static/images/task_images/land.jpg,65,,,,,,28,,,21,,,,,,,,13065,3,1,FALSE,,,
dig,386,969714,0.0-113.0-0.0,,,,,,,,,,,"[{""stimulus"":""run_exp/static/images/task_images/dig.jpg"",""time"":0.4000000059604645},{""stimulus"":""run_exp/static/images/task_images/land.jpg"",""time"":834.5999999940395},{""stimulus"":""run_exp/static/images/task_images/dig.jpg"",""time"":1662.7999999821186}]",[],21,,,,,,,,,,,,,,
harvest,387,970721,0.0-113.0-1.0,,null,run_exp/static/images/task_images/gems/28.jpg,null,,,,,,14,,,21,,,,,28,0.493294258,0.5,,,,,,,
decision,388,971280,0.0-113.0-2.0,,555.7,run_exp/static/images/task_images/land.jpg,65,,,,,,14,,,21,,,,,,,,17122,3,2,FALSE,,,
dig,389,973732,0.0-114.0-0.0,,,,,,,,,,,"[{""stimulus"":""run_exp/static/images/task_images/dig.jpg"",""time"":0.30000001192092896},{""stimulus"":""run_exp/static/images/task_images/land.jpg"",""time"":820.6000000238419},{""stimulus"":""run_exp/static/images/task_images/dig.jpg"",""time"":1634.7000000178814}]",[],21,,,,,,,,,,,,,,
harvest,390,974738,0.0-114.0-1.0,,null,run_exp/static/images/task_images/gems/14.jpg,null,,,,,,7,,,21,,,,,14,0.501359198,0.5,,,,,,,
decision,391,974920,0.0-114.0-2.0,,179.3,run_exp/static/images/task_images/land.jpg,65,,,,,,7,,,21,,,,,,,,20762,3,3,FALSE,,,
dig,392,977747,0.0-115.0-0.0,,,,,,,,,,,"[{""stimulus"":""run_exp/static/images/task_images/dig.jpg"",""time"":0.4000000059604645},{""stimulus"":""run_exp/static/images/task_images/land.jpg"",""time"":946},{""stimulus"":""run_exp/static/images/task_images/dig.jpg"",""time"":1881.9000000059605}]",[],21,,,,,,,,,,,,,,
harvest,393,978754,0.0-115.0-1.0,,null,run_exp/static/images/task_images/gems/7.jpg,null,,,,,,4,,,21,,,,,7,0.518888083,0.571428571,,,,,,,
decision,394,978905,0.0-115.0-2.0,,147.7,run_exp/static/images/task_images/land.jpg,76,,,,,,4,,,21,,,,,,,,24747,3,4,TRUE,,,
travel,395,988764,0.0-116.0-0.0,,,,,,,,,,,"[{""stimulus"":""run_exp/static/images/task_images/rocket-01.jpg"",""time"":0.09999999403953552},{""stimulus"":""run_exp/static/images/task_images/rocket-02.jpg"",""time"":1100.5},{""stimulus"":""run_exp/static/images/task_images/rocket-03.jpg"",""time"":2194.2999999821186},{""stimulus"":""run_exp/static/images/task_images/rocket-04.jpg"",""time"":3288.4000000059605},{""stimulus"":""run_exp/static/images/task_images/rocket-05.jpg"",""time"":4379.799999982119},{""stimulus"":""run_exp/static/images/task_images/rocket-06.jpg"",""time"":5473.5999999940395},{""stimulus"":""run_exp/static/images/task_images/rocket-07.jpg"",""time"":6568.699999988079},{""stimulus"":""run_exp/static/images/task_images/rocket-08.jpg"",""time"":7664.4000000059605},{""stimulus"":""run_exp/static/images/task_images/rocket-09.jpg"",""time"":8758.5}]",[],21,,,,,,,,,,,,,,
alien_welcome,396,993772,0.0-116.0-1.0,,null,run_exp/static/images/task_images/aliens/old_aliens/planet/alien_planet-5.jpg,null,,,,,,,,,,,,5,"4,9,1,35,18,74,45,29,44,39,60,2,48,65,16,19,57,41,13,76,64,5,77,27,51,71,42,62,49,75,34,37,40,70,56,24,68,38,6,36,21,73,53,28,59",,,,,,,,,,
land,397,994278,0.0-116.0-2.0,,null,run_exp/static/images/task_images/land.jpg,null,,,,,,95,,,22,,,,,,,,,,,,,,
dig,398,996286,0.0-116.0-3.0,,,,,,,,,,,"[{""stimulus"":""run_exp/static/images/task_images/dig.jpg"",""time"":0.5999999940395355},{""stimulus"":""run_exp/static/images/task_images/land.jpg"",""time"":674},{""stimulus"":""run_exp/static/images/task_images/dig.jpg"",""time"":1340.5}]",[],22,,,,,,,,,,,,,,
harvest,399,997294,0.0-116.0-4.0,,null,run_exp/static/images/task_images/gems/95.jpg,null,,,,,,78,,,22,,,,,95,0.816613097,0.821052632,,,,,,,
decision,400,998556,0.0-116.0-5.0,,1259.5,run_exp/static/images/task_images/land.jpg,65,,,,,,78,,,22,,,,,,,,44399,3,0,FALSE,,,
