trial_type,trial_index,time_elapsed,internal_node_id,interactions,blur_events,focus_events,fullscreenenter_events,fullscreenexit_events,success,rt,stimulus,key_press,prompt,subject_id,participant_id,age,gender,button_pressed,next_reward,animation_sequence,responses,planet,curr_prac_trial,n_prac_rounds,alien,aliens,reward_received,decay_rate_actual,decay_rate_exp,time_in_block,block_num,prt,last_trial_on_planet,button_html,bonus,num_failures
pavlovia,0,13,0.0-0.0,"""event"",""trial"",""time""
""blur"",""0"",""0""
""focus"",""0"",""0""
""blur"",""1"",""207""
""focus"",""1"",""1601""
""fullscreenenter"",""1"",""3664""
","""event"",""trial"",""time""
""blur"",""0"",""0""
""blur"",""1"",""207""
","""event"",""trial"",""time""
""focus"",""0"",""0""
""focus"",""1"",""1601""
","""event"",""trial"",""time""
""fullscreenenter"",""1"",""3664""
","
",,,,,,,,,,,,,,,,,,,,,,,,,,,,
fullscreen,1,4643,0.0-1.0,"""event"",""trial"",""time""
""blur"",""0"",""0""
""focus"",""0"",""0""
""blur"",""1"",""207""
""focus"",""1"",""1601""
""fullscreenenter"",""1"",""3664""
""fullscreenexit"",""2"",""5502""
""blur"",""2"",""10021""
""focus"",""2"",""11530""
","""event"",""trial"",""time""
""blur"",""0"",""0""
""blur"",""1"",""207""
""blur"",""2"",""10021""
","""event"",""trial"",""time""
""focus"",""0"",""0""
""focus"",""1"",""1601""
""focus"",""2"",""11530""
","""event"",""trial"",""time""
""fullscreenenter"",""1"",""3664""
","""event"",""trial"",""time""
""fullscreenexit"",""2"",""5502""
",TRUE,,,,,,,,,,,,,,,,,,,,,,,,,,,
instruc_welcome,2,14648,0.0-2.0,"""event"",""trial"",""time""
""blur"",""0"",""0""
""focus"",""0"",""0""
""blur"",""1"",""207""
""focus"",""1"",""1601""
""fullscreenenter"",""1"",""3664""
""fullscreenexit"",""2"",""5502""
""blur"",""2"",""10021""
""focus"",""2"",""11530""
""blur"",""3"",""20157""
""focus"",""3"",""20329""
""blur"",""3"",""21215""
""focus"",""3"",""21257""
","""event"",""trial"",""time""
""blur"",""0"",""0""
""blur"",""1"",""207""
""blur"",""2"",""10021""
""blur"",""3"",""20157""
""blur"",""3"",""21215""
","""event"",""trial"",""time""
""focus"",""0"",""0""
""focus"",""1"",""1601""
""focus"",""2"",""11530""
""focus"",""3"",""20329""
""focus"",""3"",""21257""
","""event"",""trial"",""time""
""fullscreenenter"",""1"",""3664""
","""event"",""trial"",""time""
""fullscreenexit"",""2"",""5502""
",,null,run_exp/static/audio/clip_1_welcome.m4a,null,"<p>Howdy! In this experiment, you’ll be an explorer traveling through space to collect space treasure.</p><p>Your mission is to collect as much treasure as possible.</p><br><br><p><img src='run_exp/static/images/task_images/opening_img-01.jpg' height='300' width='auto'></p>",9360,284,13.07,Male,,,,,,,,,,,,,,,,,,,
audio-keyboard-response,3,31315,0.0-3.0,"""event"",""trial"",""time""
""blur"",""0"",""0""
""focus"",""0"",""0""
""blur"",""1"",""207""
""focus"",""1"",""1601""
""fullscreenenter"",""1"",""3664""
""fullscreenexit"",""2"",""5502""
""blur"",""2"",""10021""
""focus"",""2"",""11530""
""blur"",""3"",""20157""
""focus"",""3"",""20329""
""blur"",""3"",""21215""
""focus"",""3"",""21257""
","""event"",""trial"",""time""
""blur"",""0"",""0""
""blur"",""1"",""207""
""blur"",""2"",""10021""
""blur"",""3"",""20157""
""blur"",""3"",""21215""
","""event"",""trial"",""time""
""focus"",""0"",""0""
""focus"",""1"",""1601""
""focus"",""2"",""11530""
""focus"",""3"",""20329""
""focus"",""3"",""21257""
","""event"",""trial"",""time""
""fullscreenenter"",""1"",""3664""
","""event"",""trial"",""time""
""fullscreenexit"",""2"",""5502""
",,null,run_exp/static/audio/clip_2_move.m4a,null,,,,,,,,,,,,,,,,,,,,,,,,
welcome_dec,4,33886,0.0-4.0,"""event"",""trial"",""time""
""blur"",""0"",""0""
""focus"",""0"",""0""
""blur"",""1"",""207""
""focus"",""1"",""1601""
""fullscreenenter"",""1"",""3664""
""fullscreenexit"",""2"",""5502""
""blur"",""2"",""10021""
""focus"",""2"",""11530""
""blur"",""3"",""20157""
""focus"",""3"",""20329""
""blur"",""3"",""21215""
""focus"",""3"",""21257""
","""event"",""trial"",""time""
""blur"",""0"",""0""
""blur"",""1"",""207""
""blur"",""2"",""10021""
""blur"",""3"",""20157""
""blur"",""3"",""21215""
","""event"",""trial"",""time""
""focus"",""0"",""0""
""focus"",""1"",""1601""
""focus"",""2"",""11530""
""focus"",""3"",""20329""
""focus"",""3"",""21257""
","""event"",""trial"",""time""
""fullscreenenter"",""1"",""3664""
","""event"",""trial"",""time""
""fullscreenexit"",""2"",""5502""
",,2547.8,"<p>Howdy! In this experiment, you’ll be an explorer traveling through space to collect space treasure.</p><p>Your mission is to collect as much treasure as possible.</p><br><br><p><img src='run_exp/static/images/task_images/opening_img-01.jpg' height='300' width='auto'></p>",,,,,,,0,,,,,,,,,,,,,,,,,,
html-keyboard-response,5,41181,0.0-5.0,"""event"",""trial"",""time""
""blur"",""0"",""0""
""focus"",""0"",""0""
""blur"",""1"",""207""
""focus"",""1"",""1601""
""fullscreenenter"",""1"",""3664""
""fullscreenexit"",""2"",""5502""
""blur"",""2"",""10021""
""focus"",""2"",""11530""
""blur"",""3"",""20157""
""focus"",""3"",""20329""
""blur"",""3"",""21215""
""focus"",""3"",""21257""
""blur"",""6"",""45468""
""focus"",""6"",""49675""
","""event"",""trial"",""time""
""blur"",""0"",""0""
""blur"",""1"",""207""
""blur"",""2"",""10021""
""blur"",""3"",""20157""
""blur"",""3"",""21215""
""blur"",""6"",""45468""
","""event"",""trial"",""time""
""focus"",""0"",""0""
""focus"",""1"",""1601""
""focus"",""2"",""11530""
""focus"",""3"",""20329""
""focus"",""3"",""21257""
""focus"",""6"",""49675""
","""event"",""trial"",""time""
""fullscreenenter"",""1"",""3664""
","""event"",""trial"",""time""
""fullscreenexit"",""2"",""5502""
",,7285.3,"<p>Howdy! In this experiment, you’ll be an explorer traveling through space to collect space treasure.</p><p>Your mission is to collect as much treasure as possible.</p><br><br><p><img src='run_exp/static/images/task_images/opening_img-01.jpg' height='300' width='auto'></p><button class=""jspsych-html-btn-chosen""><img src=""run_exp/static/images/task_images/planet-01.jpg"" height=""50""></button><button class=""jspsych-html-btn-unchosen""><img src=""run_exp/static/images/task_images/planet-02.jpg"" height=""50""></button><p><b>[press the space bar to lock in your answer]<b><br></p>",32,,,,,,,,,,,,,,,,,,,,,,,,
instruc_welcome,6,50984,0.0-6.0-0.0,"""event"",""trial"",""time""
""blur"",""0"",""0""
""focus"",""0"",""0""
""blur"",""1"",""207""
""focus"",""1"",""1601""
""fullscreenenter"",""1"",""3664""
""fullscreenexit"",""2"",""5502""
""blur"",""2"",""10021""
""focus"",""2"",""11530""
""blur"",""3"",""20157""
""focus"",""3"",""20329""
""blur"",""3"",""21215""
""focus"",""3"",""21257""
""blur"",""6"",""45468""
""focus"",""6"",""49675""
","""event"",""trial"",""time""
""blur"",""0"",""0""
""blur"",""1"",""207""
""blur"",""2"",""10021""
""blur"",""3"",""20157""
""blur"",""3"",""21215""
""blur"",""6"",""45468""
","""event"",""trial"",""time""
""focus"",""0"",""0""
""focus"",""1"",""1601""
""focus"",""2"",""11530""
""focus"",""3"",""20329""
""focus"",""3"",""21257""
""focus"",""6"",""49675""
","""event"",""trial"",""time""
""fullscreenenter"",""1"",""3664""
","""event"",""trial"",""time""
""fullscreenexit"",""2"",""5502""
",,null,run_exp/static/audio/clip_1_welcome.m4a,null,"<p>Howdy! In this experiment, you’ll be an explorer traveling through space to collect space treasure.</p><p>Your mission is to collect as much treasure as possible.</p><br><br><p><img src='run_exp/static/images/task_images/opening_img-01.jpg' height='300' width='auto'></p>",9360,284,13.07,Male,,,,,,,,,,,,,,,,,,,
audio-keyboard-response,7,67645,0.0-6.0-1.0,"""event"",""trial"",""time""
""blur"",""0"",""0""
""focus"",""0"",""0""
""blur"",""1"",""207""
""focus"",""1"",""1601""
""fullscreenenter"",""1"",""3664""
""fullscreenexit"",""2"",""5502""
""blur"",""2"",""10021""
""focus"",""2"",""11530""
""blur"",""3"",""20157""
""focus"",""3"",""20329""
""blur"",""3"",""21215""
""focus"",""3"",""21257""
""blur"",""6"",""45468""
""focus"",""6"",""49675""
","""event"",""trial"",""time""
""blur"",""0"",""0""
""blur"",""1"",""207""
""blur"",""2"",""10021""
""blur"",""3"",""20157""
""blur"",""3"",""21215""
""blur"",""6"",""45468""
","""event"",""trial"",""time""
""focus"",""0"",""0""
""focus"",""1"",""1601""
""focus"",""2"",""11530""
""focus"",""3"",""20329""
""focus"",""3"",""21257""
""focus"",""6"",""49675""
","""event"",""trial"",""time""
""fullscreenenter"",""1"",""3664""
","""event"",""trial"",""time""
""fullscreenexit"",""2"",""5502""
",,null,run_exp/static/audio/clip_2_move.m4a,null,,,,,,,,,,,,,,,,,,,,,,,,
welcome_dec,8,70726,0.0-6.0-2.0,"""event"",""trial"",""time""
""blur"",""0"",""0""
""focus"",""0"",""0""
""blur"",""1"",""207""
""focus"",""1"",""1601""
""fullscreenenter"",""1"",""3664""
""fullscreenexit"",""2"",""5502""
""blur"",""2"",""10021""
""focus"",""2"",""11530""
""blur"",""3"",""20157""
""focus"",""3"",""20329""
""blur"",""3"",""21215""
""focus"",""3"",""21257""
""blur"",""6"",""45468""
""focus"",""6"",""49675""
","""event"",""trial"",""time""
""blur"",""0"",""0""
""blur"",""1"",""207""
""blur"",""2"",""10021""
""blur"",""3"",""20157""
""blur"",""3"",""21215""
""blur"",""6"",""45468""
","""event"",""trial"",""time""
""focus"",""0"",""0""
""focus"",""1"",""1601""
""focus"",""2"",""11530""
""focus"",""3"",""20329""
""focus"",""3"",""21257""
""focus"",""6"",""49675""
","""event"",""trial"",""time""
""fullscreenenter"",""1"",""3664""
","""event"",""trial"",""time""
""fullscreenexit"",""2"",""5502""
",,3072.6,"<p>Howdy! In this experiment, you’ll be an explorer traveling through space to collect space treasure.</p><p>Your mission is to collect as much treasure as possible.</p><br><br><p><img src='run_exp/static/images/task_images/opening_img-01.jpg' height='300' width='auto'></p>",,,,,,,1,,,,,,,,,,,,,,,,,,
html-keyboard-response,9,71654,0.0-6.0-3.0,"""event"",""trial"",""time""
""blur"",""0"",""0""
""focus"",""0"",""0""
""blur"",""1"",""207""
""focus"",""1"",""1601""
""fullscreenenter"",""1"",""3664""
""fullscreenexit"",""2"",""5502""
""blur"",""2"",""10021""
""focus"",""2"",""11530""
""blur"",""3"",""20157""
""focus"",""3"",""20329""
""blur"",""3"",""21215""
""focus"",""3"",""21257""
""blur"",""6"",""45468""
""focus"",""6"",""49675""
","""event"",""trial"",""time""
""blur"",""0"",""0""
""blur"",""1"",""207""
""blur"",""2"",""10021""
""blur"",""3"",""20157""
""blur"",""3"",""21215""
""blur"",""6"",""45468""
","""event"",""trial"",""time""
""focus"",""0"",""0""
""focus"",""1"",""1601""
""focus"",""2"",""11530""
""focus"",""3"",""20329""
""focus"",""3"",""21257""
""focus"",""6"",""49675""
","""event"",""trial"",""time""
""fullscreenenter"",""1"",""3664""
","""event"",""trial"",""time""
""fullscreenexit"",""2"",""5502""
",,920.9,"<p>Howdy! In this experiment, you’ll be an explorer traveling through space to collect space treasure.</p><p>Your mission is to collect as much treasure as possible.</p><br><br><p><img src='run_exp/static/images/task_images/opening_img-01.jpg' height='300' width='auto'></p><button class=""jspsych-html-btn-unchosen""><img src=""run_exp/static/images/task_images/planet-01.jpg"" height=""50""></button><button class=""jspsych-html-btn-chosen""><img src=""run_exp/static/images/task_images/planet-02.jpg"" height=""50""></button><p><b>[press the space bar to lock in your answer]<b><br></p>",32,,,,,,,,,,,,,,,,,,,,,,,,
instruc_goal,10,81765,0.0-7.0-0.0,"""event"",""trial"",""time""
""blur"",""0"",""0""
""focus"",""0"",""0""
""blur"",""1"",""207""
""focus"",""1"",""1601""
""fullscreenenter"",""1"",""3664""
""fullscreenexit"",""2"",""5502""
""blur"",""2"",""10021""
""focus"",""2"",""11530""
""blur"",""3"",""20157""
""focus"",""3"",""20329""
""blur"",""3"",""21215""
""focus"",""3"",""21257""
""blur"",""6"",""45468""
""focus"",""6"",""49675""
","""event"",""trial"",""time""
""blur"",""0"",""0""
""blur"",""1"",""207""
""blur"",""2"",""10021""
""blur"",""3"",""20157""
""blur"",""3"",""21215""
""blur"",""6"",""45468""
","""event"",""trial"",""time""
""focus"",""0"",""0""
""focus"",""1"",""1601""
""focus"",""2"",""11530""
""focus"",""3"",""20329""
""focus"",""3"",""21257""
""focus"",""6"",""49675""
","""event"",""trial"",""time""
""fullscreenenter"",""1"",""3664""
","""event"",""trial"",""time""
""fullscreenexit"",""2"",""5502""
",,null,run_exp/static/audio/clip_3_goal.m4a,null,"<p> As a space explorer, you’ll visit different planets to dig for space treasure, these pink gems.</p> <p> The more treasure you dig up, the more bonus money you’ll win! </p><br><br><p><img src='run_exp/static/images/task_images/pink_gem.jpg' height='300' width='auto'></p>",,,,,,,,,,,,,,,,,,,,,,,
instruc_goal,11,83995,0.0-7.0-1.0,"""event"",""trial"",""time""
""blur"",""0"",""0""
""focus"",""0"",""0""
""blur"",""1"",""207""
""focus"",""1"",""1601""
""fullscreenenter"",""1"",""3664""
""fullscreenexit"",""2"",""5502""
""blur"",""2"",""10021""
""focus"",""2"",""11530""
""blur"",""3"",""20157""
""focus"",""3"",""20329""
""blur"",""3"",""21215""
""focus"",""3"",""21257""
""blur"",""6"",""45468""
""focus"",""6"",""49675""
","""event"",""trial"",""time""
""blur"",""0"",""0""
""blur"",""1"",""207""
""blur"",""2"",""10021""
""blur"",""3"",""20157""
""blur"",""3"",""21215""
""blur"",""6"",""45468""
","""event"",""trial"",""time""
""focus"",""0"",""0""
""focus"",""1"",""1601""
""focus"",""2"",""11530""
""focus"",""3"",""20329""
""focus"",""3"",""21257""
""focus"",""6"",""49675""
","""event"",""trial"",""time""
""fullscreenenter"",""1"",""3664""
","""event"",""trial"",""time""
""fullscreenexit"",""2"",""5502""
",,2221.8,"<p> As a space explorer, you’ll visit different planets to dig for space treasure, these pink gems.</p> <p> The more treasure you dig up, the more bonus money you’ll win! </p><br><br><p><img src='run_exp/static/images/task_images/pink_gem.jpg' height='300' width='auto'></p>",,,,,,,1,,,,,,,,,,,,,,,,,,
html-keyboard-response,12,84312,0.0-7.0-2.0,"""event"",""trial"",""time""
""blur"",""0"",""0""
""focus"",""0"",""0""
""blur"",""1"",""207""
""focus"",""1"",""1601""
""fullscreenenter"",""1"",""3664""
""fullscreenexit"",""2"",""5502""
""blur"",""2"",""10021""
""focus"",""2"",""11530""
""blur"",""3"",""20157""
""focus"",""3"",""20329""
""blur"",""3"",""21215""
""focus"",""3"",""21257""
""blur"",""6"",""45468""
""focus"",""6"",""49675""
","""event"",""trial"",""time""
""blur"",""0"",""0""
""blur"",""1"",""207""
""blur"",""2"",""10021""
""blur"",""3"",""20157""
""blur"",""3"",""21215""
""blur"",""6"",""45468""
","""event"",""trial"",""time""
""focus"",""0"",""0""
""focus"",""1"",""1601""
""focus"",""2"",""11530""
""focus"",""3"",""20329""
""focus"",""3"",""21257""
""focus"",""6"",""49675""
","""event"",""trial"",""time""
""fullscreenenter"",""1"",""3664""
","""event"",""trial"",""time""
""fullscreenexit"",""2"",""5502""
",,311.7,"<p> As a space explorer, you’ll visit different planets to dig for space treasure, these pink gems.</p> <p> The more treasure you dig up, the more bonus money you’ll win! </p><br><br><p><img src='run_exp/static/images/task_images/pink_gem.jpg' height='300' width='auto'></p><button class=""jspsych-html-btn-unchosen""><img src=""run_exp/static/images/task_images/planet-01.jpg"" height=""50""></button><button class=""jspsych-html-btn-chosen""><img src=""run_exp/static/images/task_images/planet-02.jpg"" height=""50""></button><p><b>[press the space bar to lock in your answer]<b><br></p>",32,,,,,,,,,,,,,,,,,,,,,,,,
instruc_dig,13,100384,0.0-8.0-0.0,"""event"",""trial"",""time""
""blur"",""0"",""0""
""focus"",""0"",""0""
""blur"",""1"",""207""
""focus"",""1"",""1601""
""fullscreenenter"",""1"",""3664""
""fullscreenexit"",""2"",""5502""
""blur"",""2"",""10021""
""focus"",""2"",""11530""
""blur"",""3"",""20157""
""focus"",""3"",""20329""
""blur"",""3"",""21215""
""focus"",""3"",""21257""
""blur"",""6"",""45468""
""focus"",""6"",""49675""
","""event"",""trial"",""time""
""blur"",""0"",""0""
""blur"",""1"",""207""
""blur"",""2"",""10021""
""blur"",""3"",""20157""
""blur"",""3"",""21215""
""blur"",""6"",""45468""
","""event"",""trial"",""time""
""focus"",""0"",""0""
""focus"",""1"",""1601""
""focus"",""2"",""11530""
""focus"",""3"",""20329""
""focus"",""3"",""21257""
""focus"",""6"",""49675""
","""event"",""trial"",""time""
""fullscreenenter"",""1"",""3664""
","""event"",""trial"",""time""
""fullscreenexit"",""2"",""5502""
",,null,run_exp/static/audio/clip_4_dig.m4a,null,,,,,,,100,,,,,,,,,,,,,,,,,
instruc_dig_try,14,103704,0.0-8.0-1.0,"""event"",""trial"",""time""
""blur"",""0"",""0""
""focus"",""0"",""0""
""blur"",""1"",""207""
""focus"",""1"",""1601""
""fullscreenenter"",""1"",""3664""
""fullscreenexit"",""2"",""5502""
""blur"",""2"",""10021""
""focus"",""2"",""11530""
""blur"",""3"",""20157""
""focus"",""3"",""20329""
""blur"",""3"",""21215""
""focus"",""3"",""21257""
""blur"",""6"",""45468""
""focus"",""6"",""49675""
","""event"",""trial"",""time""
""blur"",""0"",""0""
""blur"",""1"",""207""
""blur"",""2"",""10021""
""blur"",""3"",""20157""
""blur"",""3"",""21215""
""blur"",""6"",""45468""
","""event"",""trial"",""time""
""focus"",""0"",""0""
""focus"",""1"",""1601""
""focus"",""2"",""11530""
""focus"",""3"",""20329""
""focus"",""3"",""21257""
""focus"",""6"",""49675""
","""event"",""trial"",""time""
""fullscreenenter"",""1"",""3664""
","""event"",""trial"",""time""
""fullscreenexit"",""2"",""5502""
",,3312.7,"<p> When you’ve arrived at a new planet, you will dig once. </p> <p>Then, you get to decide if you want to stay on the planet and dig again or travel to a new planet and dig there.</p> <p> To stay and dig, press the letter <strong>‘A’</strong> on your keyboard. Try pressing it now! </p><p><img src='run_exp/static/images/task_images/land.jpg'  height='700' width='auto'></p>",65,"<p> When you’ve arrived at a new planet, you will dig once. </p> <p>Then, you get to decide if you want to stay on the planet and dig again or travel to a new planet and dig there.</p> <p> To stay and dig, press the letter <strong>‘A’</strong> on your keyboard. Try pressing it now! </p><p><img src='run_exp/static/images/task_images/land.jpg'  height='700' width='auto'></p>",,,,,,100,,,,,,,,,,,,,,,,,
dig_prac,15,105738,0.0-8.0-2.0,"""event"",""trial"",""time""
""blur"",""0"",""0""
""focus"",""0"",""0""
""blur"",""1"",""207""
""focus"",""1"",""1601""
""fullscreenenter"",""1"",""3664""
""fullscreenexit"",""2"",""5502""
""blur"",""2"",""10021""
""focus"",""2"",""11530""
""blur"",""3"",""20157""
""focus"",""3"",""20329""
""blur"",""3"",""21215""
""focus"",""3"",""21257""
""blur"",""6"",""45468""
""focus"",""6"",""49675""
","""event"",""trial"",""time""
""blur"",""0"",""0""
""blur"",""1"",""207""
""blur"",""2"",""10021""
""blur"",""3"",""20157""
""blur"",""3"",""21215""
""blur"",""6"",""45468""
","""event"",""trial"",""time""
""focus"",""0"",""0""
""focus"",""1"",""1601""
""focus"",""2"",""11530""
""focus"",""3"",""20329""
""focus"",""3"",""21257""
""focus"",""6"",""49675""
","""event"",""trial"",""time""
""fullscreenenter"",""1"",""3664""
","""event"",""trial"",""time""
""fullscreenexit"",""2"",""5502""
",,,,,,,,,,,,"[{""stimulus"":""run_exp/static/images/task_images/dig.jpg"",""time"":0.7000000029802322},{""stimulus"":""run_exp/static/images/task_images/land.jpg"",""time"":671},{""stimulus"":""run_exp/static/images/task_images/dig.jpg"",""time"":1348.2999999970198}]",[],,,,,,,,,,,,,,,
instruc_travel,16,142064,0.0-8.0-3.0,"""event"",""trial"",""time""
""blur"",""0"",""0""
""focus"",""0"",""0""
""blur"",""1"",""207""
""focus"",""1"",""1601""
""fullscreenenter"",""1"",""3664""
""fullscreenexit"",""2"",""5502""
""blur"",""2"",""10021""
""focus"",""2"",""11530""
""blur"",""3"",""20157""
""focus"",""3"",""20329""
""blur"",""3"",""21215""
""focus"",""3"",""21257""
""blur"",""6"",""45468""
""focus"",""6"",""49675""
","""event"",""trial"",""time""
""blur"",""0"",""0""
""blur"",""1"",""207""
""blur"",""2"",""10021""
""blur"",""3"",""20157""
""blur"",""3"",""21215""
""blur"",""6"",""45468""
","""event"",""trial"",""time""
""focus"",""0"",""0""
""focus"",""1"",""1601""
""focus"",""2"",""11530""
""focus"",""3"",""20329""
""focus"",""3"",""21257""
""focus"",""6"",""49675""
","""event"",""trial"",""time""
""fullscreenenter"",""1"",""3664""
","""event"",""trial"",""time""
""fullscreenexit"",""2"",""5502""
",,null,run_exp/static/audio/clip_5_travel.m4a,null,"<p>Every time you dig up gems, there are less gems on the planet, so the more you dig on a planet the fewer gems you’ll get with each dig.</p><p>When gems are running low, you may want to travel to a new planet. </p> <p>  Planets are very far apart in this galaxy, so it will take some time to travel between them. </p> <br><p>There are lots and lots of planets for you to visit, so you won’t be able to return to any planets you’ve seen before. </p><br><p>To leave this planet and travel to a new one, press the letter <strong>‘L’</strong> on your keyboard. Try pressing it now! </p><p><img src='run_exp/static/images/task_images/rocket-01.jpg'  height='600' width='auto'></p>",,,,,,,,,,,,,,,,,,,,,,,
instruc_travel_try,17,142482,0.0-8.0-4.0,"""event"",""trial"",""time""
""blur"",""0"",""0""
""focus"",""0"",""0""
""blur"",""1"",""207""
""focus"",""1"",""1601""
""fullscreenenter"",""1"",""3664""
""fullscreenexit"",""2"",""5502""
""blur"",""2"",""10021""
""focus"",""2"",""11530""
""blur"",""3"",""20157""
""focus"",""3"",""20329""
""blur"",""3"",""21215""
""focus"",""3"",""21257""
""blur"",""6"",""45468""
""focus"",""6"",""49675""
","""event"",""trial"",""time""
""blur"",""0"",""0""
""blur"",""1"",""207""
""blur"",""2"",""10021""
""blur"",""3"",""20157""
""blur"",""3"",""21215""
""blur"",""6"",""45468""
","""event"",""trial"",""time""
""focus"",""0"",""0""
""focus"",""1"",""1601""
""focus"",""2"",""11530""
""focus"",""3"",""20329""
""focus"",""3"",""21257""
""focus"",""6"",""49675""
","""event"",""trial"",""time""
""fullscreenenter"",""1"",""3664""
","""event"",""trial"",""time""
""fullscreenexit"",""2"",""5502""
",,411.1,"<p>Every time you dig up gems, there are less gems on the planet, so the more you dig on a planet the fewer gems you’ll get with each dig.</p><p>When gems are running low, you may want to travel to a new planet. </p> <p>  Planets are very far apart in this galaxy, so it will take some time to travel between them. </p> <br><p>There are lots and lots of planets for you to visit, so you won’t be able to return to any planets you’ve seen before. </p><br><p>To leave this planet and travel to a new one, press the letter <strong>‘L’</strong> on your keyboard. Try pressing it now! </p><p><img src='run_exp/static/images/task_images/rocket-01.jpg'  height='600' width='auto'></p>",76,"<p>Every time you dig up gems, there are less gems on the planet, so the more you dig on a planet the fewer gems you’ll get with each dig.</p><p>When gems are running low, you may want to travel to a new planet. </p> <p>  Planets are very far apart in this galaxy, so it will take some time to travel between them. </p> <br><p>There are lots and lots of planets for you to visit, so you won’t be able to return to any planets you’ve seen before. </p><br><p>To leave this planet and travel to a new one, press the letter <strong>‘L’</strong> on your keyboard. Try pressing it now! </p><p><img src='run_exp/static/images/task_images/rocket-01.jpg'  height='600' width='auto'></p>",,,,,,,,,,,,,,,,,,,,,,,
travel_prac,18,152500,0.0-8.0-5.0,"""event"",""trial"",""time""
""blur"",""0"",""0""
""focus"",""0"",""0""
""blur"",""1"",""207""
""focus"",""1"",""1601""
""fullscreenenter"",""1"",""3664""
""fullscreenexit"",""2"",""5502""
""blur"",""2"",""10021""
""focus"",""2"",""11530""
""blur"",""3"",""20157""
""focus"",""3"",""20329""
""blur"",""3"",""21215""
""focus"",""3"",""21257""
""blur"",""6"",""45468""
""focus"",""6"",""49675""
","""event"",""trial"",""time""
""blur"",""0"",""0""
""blur"",""1"",""207""
""blur"",""2"",""10021""
""blur"",""3"",""20157""
""blur"",""3"",""21215""
""blur"",""6"",""45468""
","""event"",""trial"",""time""
""focus"",""0"",""0""
""focus"",""1"",""1601""
""focus"",""2"",""11530""
""focus"",""3"",""20329""
""focus"",""3"",""21257""
""focus"",""6"",""49675""
","""event"",""trial"",""time""
""fullscreenenter"",""1"",""3664""
","""event"",""trial"",""time""
""fullscreenexit"",""2"",""5502""
",,,,,,,,,,,,"[{""stimulus"":""run_exp/static/images/task_images/rocket-01.jpg"",""time"":1.2000000029802322},{""stimulus"":""run_exp/static/images/task_images/rocket-02.jpg"",""time"":1116.8000000044703},{""stimulus"":""run_exp/static/images/task_images/rocket-03.jpg"",""time"":2240.5},{""stimulus"":""run_exp/static/images/task_images/rocket-04.jpg"",""time"":3348.8000000044703},{""stimulus"":""run_exp/static/images/task_images/rocket-05.jpg"",""time"":4462},{""stimulus"":""run_exp/static/images/task_images/rocket-06.jpg"",""time"":5566.10000000149},{""stimulus"":""run_exp/static/images/task_images/rocket-07.jpg"",""time"":6679.39999999851},{""stimulus"":""run_exp/static/images/task_images/rocket-08.jpg"",""time"":7793},{""stimulus"":""run_exp/static/images/task_images/rocket-09.jpg"",""time"":8903.20000000298}]",[],0,,,,,,,,,,,,,,
instruc_alien_greet,19,179754,0.0-8.0-6.0,"""event"",""trial"",""time""
""blur"",""0"",""0""
""focus"",""0"",""0""
""blur"",""1"",""207""
""focus"",""1"",""1601""
""fullscreenenter"",""1"",""3664""
""fullscreenexit"",""2"",""5502""
""blur"",""2"",""10021""
""focus"",""2"",""11530""
""blur"",""3"",""20157""
""focus"",""3"",""20329""
""blur"",""3"",""21215""
""focus"",""3"",""21257""
""blur"",""6"",""45468""
""focus"",""6"",""49675""
","""event"",""trial"",""time""
""blur"",""0"",""0""
""blur"",""1"",""207""
""blur"",""2"",""10021""
""blur"",""3"",""20157""
""blur"",""3"",""21215""
""blur"",""6"",""45468""
","""event"",""trial"",""time""
""focus"",""0"",""0""
""focus"",""1"",""1601""
""focus"",""2"",""11530""
""focus"",""3"",""20329""
""focus"",""3"",""21257""
""focus"",""6"",""49675""
","""event"",""trial"",""time""
""fullscreenenter"",""1"",""3664""
","""event"",""trial"",""time""
""fullscreenexit"",""2"",""5502""
",,null,run_exp/static/audio/clip_6_alien.m4a,null,"<p>When you arrive at a new planet, the alien who owns the treasure mine on that planet will greet you!</p><p>The better an alien takes care of their mine the easier it is to dig for gems. Some aliens take better care of their mine than others. So, you won’t get exactly the same amount of gems on each planet.</p><p>What the alien looks like does not tell you anything about how many gems there are on the planet.</p><br><p><img src=""run_exp/static/images/task_images/aliens/instructions_aliens/planet/alien_planet-1.jpg""  height=""600"" width=""auto""></p>",,,,,,,,,,,,,,,,,,,,,,,
instruc_alien_greet,20,188557,0.0-8.0-7.0,"""event"",""trial"",""time""
""blur"",""0"",""0""
""focus"",""0"",""0""
""blur"",""1"",""207""
""focus"",""1"",""1601""
""fullscreenenter"",""1"",""3664""
""fullscreenexit"",""2"",""5502""
""blur"",""2"",""10021""
""focus"",""2"",""11530""
""blur"",""3"",""20157""
""focus"",""3"",""20329""
""blur"",""3"",""21215""
""focus"",""3"",""21257""
""blur"",""6"",""45468""
""focus"",""6"",""49675""
","""event"",""trial"",""time""
""blur"",""0"",""0""
""blur"",""1"",""207""
""blur"",""2"",""10021""
""blur"",""3"",""20157""
""blur"",""3"",""21215""
""blur"",""6"",""45468""
","""event"",""trial"",""time""
""focus"",""0"",""0""
""focus"",""1"",""1601""
""focus"",""2"",""11530""
""focus"",""3"",""20329""
""focus"",""3"",""21257""
""focus"",""6"",""49675""
","""event"",""trial"",""time""
""fullscreenenter"",""1"",""3664""
","""event"",""trial"",""time""
""fullscreenexit"",""2"",""5502""
",,8793.8,"<p>When you arrive at a new planet, the alien who owns the treasure mine on that planet will greet you!</p><p>The better an alien takes care of their mine the easier it is to dig for gems. Some aliens take better care of their mine than others. So, you won’t get exactly the same amount of gems on each planet.</p><p>What the alien looks like does not tell you anything about how many gems there are on the planet.</p><br><p><img src=""run_exp/static/images/task_images/aliens/instructions_aliens/planet/alien_planet-1.jpg""  height=""600"" width=""auto""></p>",,,,,,,1,,,,,,,,,,,,,,,,,,
html-keyboard-response,21,190131,0.0-8.0-8.0,"""event"",""trial"",""time""
""blur"",""0"",""0""
""focus"",""0"",""0""
""blur"",""1"",""207""
""focus"",""1"",""1601""
""fullscreenenter"",""1"",""3664""
""fullscreenexit"",""2"",""5502""
""blur"",""2"",""10021""
""focus"",""2"",""11530""
""blur"",""3"",""20157""
""focus"",""3"",""20329""
""blur"",""3"",""21215""
""focus"",""3"",""21257""
""blur"",""6"",""45468""
""focus"",""6"",""49675""
","""event"",""trial"",""time""
""blur"",""0"",""0""
""blur"",""1"",""207""
""blur"",""2"",""10021""
""blur"",""3"",""20157""
""blur"",""3"",""21215""
""blur"",""6"",""45468""
","""event"",""trial"",""time""
""focus"",""0"",""0""
""focus"",""1"",""1601""
""focus"",""2"",""11530""
""focus"",""3"",""20329""
""focus"",""3"",""21257""
""focus"",""6"",""49675""
","""event"",""trial"",""time""
""fullscreenenter"",""1"",""3664""
","""event"",""trial"",""time""
""fullscreenexit"",""2"",""5502""
",,1567.1,"<p>When you arrive at a new planet, the alien who owns the treasure mine on that planet will greet you!</p><p>The better an alien takes care of their mine the easier it is to dig for gems. Some aliens take better care of their mine than others. So, you won’t get exactly the same amount of gems on each planet.</p><p>What the alien looks like does not tell you anything about how many gems there are on the planet.</p><br><p><img src=""run_exp/static/images/task_images/aliens/instructions_aliens/planet/alien_planet-1.jpg""  height=""600"" width=""auto""></p><button class=""jspsych-html-btn-unchosen""><img src=""run_exp/static/images/task_images/planet-01.jpg"" height=""50""></button><button class=""jspsych-html-btn-chosen""><img src=""run_exp/static/images/task_images/planet-02.jpg"" height=""50""></button><p><b>[press the space bar to lock in your answer]<b><br></p>",32,,,,,,,,,,,,,,,,,,,,,,,,
time_out,22,201258,0.0-9.0-0.0,"""event"",""trial"",""time""
""blur"",""0"",""0""
""focus"",""0"",""0""
""blur"",""1"",""207""
""focus"",""1"",""1601""
""fullscreenenter"",""1"",""3664""
""fullscreenexit"",""2"",""5502""
""blur"",""2"",""10021""
""focus"",""2"",""11530""
""blur"",""3"",""20157""
""focus"",""3"",""20329""
""blur"",""3"",""21215""
""focus"",""3"",""21257""
""blur"",""6"",""45468""
""focus"",""6"",""49675""
""blur"",""23"",""214392""
""focus"",""23"",""218558""
""blur"",""23"",""225552""
""focus"",""23"",""284953""
""blur"",""23"",""298114""
""focus"",""23"",""298143""
""blur"",""23"",""299475""
""focus"",""23"",""301063""
","""event"",""trial"",""time""
""blur"",""0"",""0""
""blur"",""1"",""207""
""blur"",""2"",""10021""
""blur"",""3"",""20157""
""blur"",""3"",""21215""
""blur"",""6"",""45468""
""blur"",""23"",""214392""
""blur"",""23"",""225552""
""blur"",""23"",""298114""
""blur"",""23"",""299475""
","""event"",""trial"",""time""
""focus"",""0"",""0""
""focus"",""1"",""1601""
""focus"",""2"",""11530""
""focus"",""3"",""20329""
""focus"",""3"",""21257""
""focus"",""6"",""49675""
""focus"",""23"",""218558""
""focus"",""23"",""284953""
""focus"",""23"",""298143""
""focus"",""23"",""301063""
","""event"",""trial"",""time""
""fullscreenenter"",""1"",""3664""
","""event"",""trial"",""time""
""fullscreenexit"",""2"",""5502""
",,null,run_exp/static/audio/clip_7_timeout.m4a,null,"<p>If you don't make your choice fast enough, you’ll have to wait a few seconds before you can make another one.</p><p>You can’t dig for more gems or travel to new planets. You just have to sit and wait.</p><br><p><img src='run_exp/static/images/task_images/time_out.jpg'  height='600' width='auto'></p>",,,,,,,,,,,,,,,,,,,,,,,
time_out,23,311194,0.0-9.0-1.0,"""event"",""trial"",""time""
""blur"",""0"",""0""
""focus"",""0"",""0""
""blur"",""1"",""207""
""focus"",""1"",""1601""
""fullscreenenter"",""1"",""3664""
""fullscreenexit"",""2"",""5502""
""blur"",""2"",""10021""
""focus"",""2"",""11530""
""blur"",""3"",""20157""
""focus"",""3"",""20329""
""blur"",""3"",""21215""
""focus"",""3"",""21257""
""blur"",""6"",""45468""
""focus"",""6"",""49675""
""blur"",""23"",""214392""
""focus"",""23"",""218558""
""blur"",""23"",""225552""
""focus"",""23"",""284953""
""blur"",""23"",""298114""
""focus"",""23"",""298143""
""blur"",""23"",""299475""
""focus"",""23"",""301063""
","""event"",""trial"",""time""
""blur"",""0"",""0""
""blur"",""1"",""207""
""blur"",""2"",""10021""
""blur"",""3"",""20157""
""blur"",""3"",""21215""
""blur"",""6"",""45468""
""blur"",""23"",""214392""
""blur"",""23"",""225552""
""blur"",""23"",""298114""
""blur"",""23"",""299475""
","""event"",""trial"",""time""
""focus"",""0"",""0""
""focus"",""1"",""1601""
""focus"",""2"",""11530""
""focus"",""3"",""20329""
""focus"",""3"",""21257""
""focus"",""6"",""49675""
""focus"",""23"",""218558""
""focus"",""23"",""284953""
""focus"",""23"",""298143""
""focus"",""23"",""301063""
","""event"",""trial"",""time""
""fullscreenenter"",""1"",""3664""
","""event"",""trial"",""time""
""fullscreenexit"",""2"",""5502""
",,109927.9,"<p>If you don't make your choice fast enough, you’ll have to wait a few seconds before you can make another one.</p><p>You can’t dig for more gems or travel to new planets. You just have to sit and wait.</p><br><p><img src='run_exp/static/images/task_images/time_out.jpg'  height='600' width='auto'></p>",,,,,,,1,,,,,,,,,,,,,,,,,,
html-keyboard-response,24,312666,0.0-9.0-2.0,"""event"",""trial"",""time""
""blur"",""0"",""0""
""focus"",""0"",""0""
""blur"",""1"",""207""
""focus"",""1"",""1601""
""fullscreenenter"",""1"",""3664""
""fullscreenexit"",""2"",""5502""
""blur"",""2"",""10021""
""focus"",""2"",""11530""
""blur"",""3"",""20157""
""focus"",""3"",""20329""
""blur"",""3"",""21215""
""focus"",""3"",""21257""
""blur"",""6"",""45468""
""focus"",""6"",""49675""
""blur"",""23"",""214392""
""focus"",""23"",""218558""
""blur"",""23"",""225552""
""focus"",""23"",""284953""
""blur"",""23"",""298114""
""focus"",""23"",""298143""
""blur"",""23"",""299475""
""focus"",""23"",""301063""
","""event"",""trial"",""time""
""blur"",""0"",""0""
""blur"",""1"",""207""
""blur"",""2"",""10021""
""blur"",""3"",""20157""
""blur"",""3"",""21215""
""blur"",""6"",""45468""
""blur"",""23"",""214392""
""blur"",""23"",""225552""
""blur"",""23"",""298114""
""blur"",""23"",""299475""
","""event"",""trial"",""time""
""focus"",""0"",""0""
""focus"",""1"",""1601""
""focus"",""2"",""11530""
""focus"",""3"",""20329""
""focus"",""3"",""21257""
""focus"",""6"",""49675""
""focus"",""23"",""218558""
""focus"",""23"",""284953""
""focus"",""23"",""298143""
""focus"",""23"",""301063""
","""event"",""trial"",""time""
""fullscreenenter"",""1"",""3664""
","""event"",""trial"",""time""
""fullscreenexit"",""2"",""5502""
",,1464.5,"<p>If you don't make your choice fast enough, you’ll have to wait a few seconds before you can make another one.</p><p>You can’t dig for more gems or travel to new planets. You just have to sit and wait.</p><br><p><img src='run_exp/static/images/task_images/time_out.jpg'  height='600' width='auto'></p><button class=""jspsych-html-btn-unchosen""><img src=""run_exp/static/images/task_images/planet-01.jpg"" height=""50""></button><button class=""jspsych-html-btn-chosen""><img src=""run_exp/static/images/task_images/planet-02.jpg"" height=""50""></button><p><b>[press the space bar to lock in your answer]<b><br></p>",32,,,,,,,,,,,,,,,,,,,,,,,,
instruc_break,25,328443,0.0-10.0-0.0,"""event"",""trial"",""time""
""blur"",""0"",""0""
""focus"",""0"",""0""
""blur"",""1"",""207""
""focus"",""1"",""1601""
""fullscreenenter"",""1"",""3664""
""fullscreenexit"",""2"",""5502""
""blur"",""2"",""10021""
""focus"",""2"",""11530""
""blur"",""3"",""20157""
""focus"",""3"",""20329""
""blur"",""3"",""21215""
""focus"",""3"",""21257""
""blur"",""6"",""45468""
""focus"",""6"",""49675""
""blur"",""23"",""214392""
""focus"",""23"",""218558""
""blur"",""23"",""225552""
""focus"",""23"",""284953""
""blur"",""23"",""298114""
""focus"",""23"",""298143""
""blur"",""23"",""299475""
""focus"",""23"",""301063""
","""event"",""trial"",""time""
""blur"",""0"",""0""
""blur"",""1"",""207""
""blur"",""2"",""10021""
""blur"",""3"",""20157""
""blur"",""3"",""21215""
""blur"",""6"",""45468""
""blur"",""23"",""214392""
""blur"",""23"",""225552""
""blur"",""23"",""298114""
""blur"",""23"",""299475""
","""event"",""trial"",""time""
""focus"",""0"",""0""
""focus"",""1"",""1601""
""focus"",""2"",""11530""
""focus"",""3"",""20329""
""focus"",""3"",""21257""
""focus"",""6"",""49675""
""focus"",""23"",""218558""
""focus"",""23"",""284953""
""focus"",""23"",""298143""
""focus"",""23"",""301063""
","""event"",""trial"",""time""
""fullscreenenter"",""1"",""3664""
","""event"",""trial"",""time""
""fullscreenexit"",""2"",""5502""
",,null,run_exp/static/audio/clip_8_break.m4a,null,"<p> After digging and traveling for a while, you’ll be able to take a break at home base. </p><p>The game will last 20 minutes no matter what.</p><p>You will visit home base every 5 minutes, so, you will visit home base three times during the game.</p><br><p><img src='run_exp/static/images/task_images/home_base.jpg' height='600' width='auto'></p>",,,,,,,,,,,,,,,,,,,,,,,
instruc_break,26,332237,0.0-10.0-1.0,"""event"",""trial"",""time""
""blur"",""0"",""0""
""focus"",""0"",""0""
""blur"",""1"",""207""
""focus"",""1"",""1601""
""fullscreenenter"",""1"",""3664""
""fullscreenexit"",""2"",""5502""
""blur"",""2"",""10021""
""focus"",""2"",""11530""
""blur"",""3"",""20157""
""focus"",""3"",""20329""
""blur"",""3"",""21215""
""focus"",""3"",""21257""
""blur"",""6"",""45468""
""focus"",""6"",""49675""
""blur"",""23"",""214392""
""focus"",""23"",""218558""
""blur"",""23"",""225552""
""focus"",""23"",""284953""
""blur"",""23"",""298114""
""focus"",""23"",""298143""
""blur"",""23"",""299475""
""focus"",""23"",""301063""
","""event"",""trial"",""time""
""blur"",""0"",""0""
""blur"",""1"",""207""
""blur"",""2"",""10021""
""blur"",""3"",""20157""
""blur"",""3"",""21215""
""blur"",""6"",""45468""
""blur"",""23"",""214392""
""blur"",""23"",""225552""
""blur"",""23"",""298114""
""blur"",""23"",""299475""
","""event"",""trial"",""time""
""focus"",""0"",""0""
""focus"",""1"",""1601""
""focus"",""2"",""11530""
""focus"",""3"",""20329""
""focus"",""3"",""21257""
""focus"",""6"",""49675""
""focus"",""23"",""218558""
""focus"",""23"",""284953""
""focus"",""23"",""298143""
""focus"",""23"",""301063""
","""event"",""trial"",""time""
""fullscreenenter"",""1"",""3664""
","""event"",""trial"",""time""
""fullscreenexit"",""2"",""5502""
",,3776.5,"<p> After digging and traveling for a while, you’ll be able to take a break at home base. </p><p>The game will last 20 minutes no matter what.</p><p>You will visit home base every 5 minutes, so, you will visit home base three times during the game.</p><br><p><img src='run_exp/static/images/task_images/home_base.jpg' height='600' width='auto'></p>",,,,,,,1,,,,,,,,,,,,,,,,,,
html-keyboard-response,27,332980,0.0-10.0-2.0,"""event"",""trial"",""time""
""blur"",""0"",""0""
""focus"",""0"",""0""
""blur"",""1"",""207""
""focus"",""1"",""1601""
""fullscreenenter"",""1"",""3664""
""fullscreenexit"",""2"",""5502""
""blur"",""2"",""10021""
""focus"",""2"",""11530""
""blur"",""3"",""20157""
""focus"",""3"",""20329""
""blur"",""3"",""21215""
""focus"",""3"",""21257""
""blur"",""6"",""45468""
""focus"",""6"",""49675""
""blur"",""23"",""214392""
""focus"",""23"",""218558""
""blur"",""23"",""225552""
""focus"",""23"",""284953""
""blur"",""23"",""298114""
""focus"",""23"",""298143""
""blur"",""23"",""299475""
""focus"",""23"",""301063""
","""event"",""trial"",""time""
""blur"",""0"",""0""
""blur"",""1"",""207""
""blur"",""2"",""10021""
""blur"",""3"",""20157""
""blur"",""3"",""21215""
""blur"",""6"",""45468""
""blur"",""23"",""214392""
""blur"",""23"",""225552""
""blur"",""23"",""298114""
""blur"",""23"",""299475""
","""event"",""trial"",""time""
""focus"",""0"",""0""
""focus"",""1"",""1601""
""focus"",""2"",""11530""
""focus"",""3"",""20329""
""focus"",""3"",""21257""
""focus"",""6"",""49675""
""focus"",""23"",""218558""
""focus"",""23"",""284953""
""focus"",""23"",""298143""
""focus"",""23"",""301063""
","""event"",""trial"",""time""
""fullscreenenter"",""1"",""3664""
","""event"",""trial"",""time""
""fullscreenexit"",""2"",""5502""
",,736.4,"<p> After digging and traveling for a while, you’ll be able to take a break at home base. </p><p>The game will last 20 minutes no matter what.</p><p>You will visit home base every 5 minutes, so, you will visit home base three times during the game.</p><br><p><img src='run_exp/static/images/task_images/home_base.jpg' height='600' width='auto'></p><button class=""jspsych-html-btn-unchosen""><img src=""run_exp/static/images/task_images/planet-01.jpg"" height=""50""></button><button class=""jspsych-html-btn-chosen""><img src=""run_exp/static/images/task_images/planet-02.jpg"" height=""50""></button><p><b>[press the space bar to lock in your answer]<b><br></p>",32,,,,,,,,,,,,,,,,,,,,,,,,
instruc_prac_game,28,343162,0.0-11.0-0.0,"""event"",""trial"",""time""
""blur"",""0"",""0""
""focus"",""0"",""0""
""blur"",""1"",""207""
""focus"",""1"",""1601""
""fullscreenenter"",""1"",""3664""
""fullscreenexit"",""2"",""5502""
""blur"",""2"",""10021""
""focus"",""2"",""11530""
""blur"",""3"",""20157""
""focus"",""3"",""20329""
""blur"",""3"",""21215""
""focus"",""3"",""21257""
""blur"",""6"",""45468""
""focus"",""6"",""49675""
""blur"",""23"",""214392""
""focus"",""23"",""218558""
""blur"",""23"",""225552""
""focus"",""23"",""284953""
""blur"",""23"",""298114""
""focus"",""23"",""298143""
""blur"",""23"",""299475""
""focus"",""23"",""301063""
""blur"",""29"",""586595""
""focus"",""29"",""591326""
","""event"",""trial"",""time""
""blur"",""0"",""0""
""blur"",""1"",""207""
""blur"",""2"",""10021""
""blur"",""3"",""20157""
""blur"",""3"",""21215""
""blur"",""6"",""45468""
""blur"",""23"",""214392""
""blur"",""23"",""225552""
""blur"",""23"",""298114""
""blur"",""23"",""299475""
""blur"",""29"",""586595""
","""event"",""trial"",""time""
""focus"",""0"",""0""
""focus"",""1"",""1601""
""focus"",""2"",""11530""
""focus"",""3"",""20329""
""focus"",""3"",""21257""
""focus"",""6"",""49675""
""focus"",""23"",""218558""
""focus"",""23"",""284953""
""focus"",""23"",""298143""
""focus"",""23"",""301063""
""focus"",""29"",""591326""
","""event"",""trial"",""time""
""fullscreenenter"",""1"",""3664""
","""event"",""trial"",""time""
""fullscreenexit"",""2"",""5502""
",,null,run_exp/static/audio/clip_9_practice.m4a,null,"<p> Are you ready to play a practice game? </p> <p>In this practice game, you'll be digging up barrels of gems. But, in the real game, you'll be digging up the gems themselves. </p>",,,,,,,,,,,,,,,,,,,,,,,
html-button-response,29,593040,0.0-11.0-1.0,"""event"",""trial"",""time""
""blur"",""0"",""0""
""focus"",""0"",""0""
""blur"",""1"",""207""
""focus"",""1"",""1601""
""fullscreenenter"",""1"",""3664""
""fullscreenexit"",""2"",""5502""
""blur"",""2"",""10021""
""focus"",""2"",""11530""
""blur"",""3"",""20157""
""focus"",""3"",""20329""
""blur"",""3"",""21215""
""focus"",""3"",""21257""
""blur"",""6"",""45468""
""focus"",""6"",""49675""
""blur"",""23"",""214392""
""focus"",""23"",""218558""
""blur"",""23"",""225552""
""focus"",""23"",""284953""
""blur"",""23"",""298114""
""focus"",""23"",""298143""
""blur"",""23"",""299475""
""focus"",""23"",""301063""
""blur"",""29"",""586595""
""focus"",""29"",""591326""
","""event"",""trial"",""time""
""blur"",""0"",""0""
""blur"",""1"",""207""
""blur"",""2"",""10021""
""blur"",""3"",""20157""
""blur"",""3"",""21215""
""blur"",""6"",""45468""
""blur"",""23"",""214392""
""blur"",""23"",""225552""
""blur"",""23"",""298114""
""blur"",""23"",""299475""
""blur"",""29"",""586595""
","""event"",""trial"",""time""
""focus"",""0"",""0""
""focus"",""1"",""1601""
""focus"",""2"",""11530""
""focus"",""3"",""20329""
""focus"",""3"",""21257""
""focus"",""6"",""49675""
""focus"",""23"",""218558""
""focus"",""23"",""284953""
""focus"",""23"",""298143""
""focus"",""23"",""301063""
""focus"",""29"",""591326""
","""event"",""trial"",""time""
""fullscreenenter"",""1"",""3664""
","""event"",""trial"",""time""
""fullscreenexit"",""2"",""5502""
",,249871.5,"<p> Are you ready to play a practice game? </p> <p>In this practice game, you'll be digging up barrels of gems. But, in the real game, you'll be digging up the gems themselves. </p>",,,,,,,0,,,,,,,,,,,,,,,,,,
alien_welcome_prac,30,598065,0.0-12.0-0.0,"""event"",""trial"",""time""
""blur"",""0"",""0""
""focus"",""0"",""0""
""blur"",""1"",""207""
""focus"",""1"",""1601""
""fullscreenenter"",""1"",""3664""
""fullscreenexit"",""2"",""5502""
""blur"",""2"",""10021""
""focus"",""2"",""11530""
""blur"",""3"",""20157""
""focus"",""3"",""20329""
""blur"",""3"",""21215""
""focus"",""3"",""21257""
""blur"",""6"",""45468""
""focus"",""6"",""49675""
""blur"",""23"",""214392""
""focus"",""23"",""218558""
""blur"",""23"",""225552""
""focus"",""23"",""284953""
""blur"",""23"",""298114""
""focus"",""23"",""298143""
""blur"",""23"",""299475""
""focus"",""23"",""301063""
""blur"",""29"",""586595""
""focus"",""29"",""591326""
","""event"",""trial"",""time""
""blur"",""0"",""0""
""blur"",""1"",""207""
""blur"",""2"",""10021""
""blur"",""3"",""20157""
""blur"",""3"",""21215""
""blur"",""6"",""45468""
""blur"",""23"",""214392""
""blur"",""23"",""225552""
""blur"",""23"",""298114""
""blur"",""23"",""299475""
""blur"",""29"",""586595""
","""event"",""trial"",""time""
""focus"",""0"",""0""
""focus"",""1"",""1601""
""focus"",""2"",""11530""
""focus"",""3"",""20329""
""focus"",""3"",""21257""
""focus"",""6"",""49675""
""focus"",""23"",""218558""
""focus"",""23"",""284953""
""focus"",""23"",""298143""
""focus"",""23"",""301063""
""focus"",""29"",""591326""
","""event"",""trial"",""time""
""fullscreenenter"",""1"",""3664""
","""event"",""trial"",""time""
""fullscreenexit"",""2"",""5502""
",,null,run_exp/static/images/task_images/aliens/practice_aliens/planet/alien_planet-5.jpg,null,,,,,,,,,,,,,,,,,,,,,,,,
land_prac,31,598572,0.0-12.0-1.0,"""event"",""trial"",""time""
""blur"",""0"",""0""
""focus"",""0"",""0""
""blur"",""1"",""207""
""focus"",""1"",""1601""
""fullscreenenter"",""1"",""3664""
""fullscreenexit"",""2"",""5502""
""blur"",""2"",""10021""
""focus"",""2"",""11530""
""blur"",""3"",""20157""
""focus"",""3"",""20329""
""blur"",""3"",""21215""
""focus"",""3"",""21257""
""blur"",""6"",""45468""
""focus"",""6"",""49675""
""blur"",""23"",""214392""
""focus"",""23"",""218558""
""blur"",""23"",""225552""
""focus"",""23"",""284953""
""blur"",""23"",""298114""
""focus"",""23"",""298143""
""blur"",""23"",""299475""
""focus"",""23"",""301063""
""blur"",""29"",""586595""
""focus"",""29"",""591326""
","""event"",""trial"",""time""
""blur"",""0"",""0""
""blur"",""1"",""207""
""blur"",""2"",""10021""
""blur"",""3"",""20157""
""blur"",""3"",""21215""
""blur"",""6"",""45468""
""blur"",""23"",""214392""
""blur"",""23"",""225552""
""blur"",""23"",""298114""
""blur"",""23"",""299475""
""blur"",""29"",""586595""
","""event"",""trial"",""time""
""focus"",""0"",""0""
""focus"",""1"",""1601""
""focus"",""2"",""11530""
""focus"",""3"",""20329""
""focus"",""3"",""21257""
""focus"",""6"",""49675""
""focus"",""23"",""218558""
""focus"",""23"",""284953""
""focus"",""23"",""298143""
""focus"",""23"",""301063""
""focus"",""29"",""591326""
","""event"",""trial"",""time""
""fullscreenenter"",""1"",""3664""
","""event"",""trial"",""time""
""fullscreenexit"",""2"",""5502""
",,null,run_exp/static/images/task_images/land.jpg,null,,,,,,,97,,,0,,,,,,,,,,,,,,
dig_prac,32,600591,0.0-12.0-2.0,"""event"",""trial"",""time""
""blur"",""0"",""0""
""focus"",""0"",""0""
""blur"",""1"",""207""
""focus"",""1"",""1601""
""fullscreenenter"",""1"",""3664""
""fullscreenexit"",""2"",""5502""
""blur"",""2"",""10021""
""focus"",""2"",""11530""
""blur"",""3"",""20157""
""focus"",""3"",""20329""
""blur"",""3"",""21215""
""focus"",""3"",""21257""
""blur"",""6"",""45468""
""focus"",""6"",""49675""
""blur"",""23"",""214392""
""focus"",""23"",""218558""
""blur"",""23"",""225552""
""focus"",""23"",""284953""
""blur"",""23"",""298114""
""focus"",""23"",""298143""
""blur"",""23"",""299475""
""focus"",""23"",""301063""
""blur"",""29"",""586595""
""focus"",""29"",""591326""
","""event"",""trial"",""time""
""blur"",""0"",""0""
""blur"",""1"",""207""
""blur"",""2"",""10021""
""blur"",""3"",""20157""
""blur"",""3"",""21215""
""blur"",""6"",""45468""
""blur"",""23"",""214392""
""blur"",""23"",""225552""
""blur"",""23"",""298114""
""blur"",""23"",""299475""
""blur"",""29"",""586595""
","""event"",""trial"",""time""
""focus"",""0"",""0""
""focus"",""1"",""1601""
""focus"",""2"",""11530""
""focus"",""3"",""20329""
""focus"",""3"",""21257""
""focus"",""6"",""49675""
""focus"",""23"",""218558""
""focus"",""23"",""284953""
""focus"",""23"",""298143""
""focus"",""23"",""301063""
""focus"",""29"",""591326""
","""event"",""trial"",""time""
""fullscreenenter"",""1"",""3664""
","""event"",""trial"",""time""
""fullscreenexit"",""2"",""5502""
",,,,,,,,,,,,"[{""stimulus"":""run_exp/static/images/task_images/dig.jpg"",""time"":0.6000000014901161},{""stimulus"":""run_exp/static/images/task_images/land.jpg"",""time"":669.5},{""stimulus"":""run_exp/static/images/task_images/dig.jpg"",""time"":1338.7999999970198}]",[],,,,,,,,,,,,,,,
harvest_prac,33,601593,0.0-12.0-3.0,"""event"",""trial"",""time""
""blur"",""0"",""0""
""focus"",""0"",""0""
""blur"",""1"",""207""
""focus"",""1"",""1601""
""fullscreenenter"",""1"",""3664""
""fullscreenexit"",""2"",""5502""
""blur"",""2"",""10021""
""focus"",""2"",""11530""
""blur"",""3"",""20157""
""focus"",""3"",""20329""
""blur"",""3"",""21215""
""focus"",""3"",""21257""
""blur"",""6"",""45468""
""focus"",""6"",""49675""
""blur"",""23"",""214392""
""focus"",""23"",""218558""
""blur"",""23"",""225552""
""focus"",""23"",""284953""
""blur"",""23"",""298114""
""focus"",""23"",""298143""
""blur"",""23"",""299475""
""focus"",""23"",""301063""
""blur"",""29"",""586595""
""focus"",""29"",""591326""
","""event"",""trial"",""time""
""blur"",""0"",""0""
""blur"",""1"",""207""
""blur"",""2"",""10021""
""blur"",""3"",""20157""
""blur"",""3"",""21215""
""blur"",""6"",""45468""
""blur"",""23"",""214392""
""blur"",""23"",""225552""
""blur"",""23"",""298114""
""blur"",""23"",""299475""
""blur"",""29"",""586595""
","""event"",""trial"",""time""
""focus"",""0"",""0""
""focus"",""1"",""1601""
""focus"",""2"",""11530""
""focus"",""3"",""20329""
""focus"",""3"",""21257""
""focus"",""6"",""49675""
""focus"",""23"",""218558""
""focus"",""23"",""284953""
""focus"",""23"",""298143""
""focus"",""23"",""301063""
""focus"",""29"",""591326""
","""event"",""trial"",""time""
""fullscreenenter"",""1"",""3664""
","""event"",""trial"",""time""
""fullscreenexit"",""2"",""5502""
",,null,run_exp/static/images/task_images/barrel_text.jpg,null,,,,,,,,,,,,,,,,,,,,,,,,
decision_prac,34,602259,0.0-12.0-4.0,"""event"",""trial"",""time""
""blur"",""0"",""0""
""focus"",""0"",""0""
""blur"",""1"",""207""
""focus"",""1"",""1601""
""fullscreenenter"",""1"",""3664""
""fullscreenexit"",""2"",""5502""
""blur"",""2"",""10021""
""focus"",""2"",""11530""
""blur"",""3"",""20157""
""focus"",""3"",""20329""
""blur"",""3"",""21215""
""focus"",""3"",""21257""
""blur"",""6"",""45468""
""focus"",""6"",""49675""
""blur"",""23"",""214392""
""focus"",""23"",""218558""
""blur"",""23"",""225552""
""focus"",""23"",""284953""
""blur"",""23"",""298114""
""focus"",""23"",""298143""
""blur"",""23"",""299475""
""focus"",""23"",""301063""
""blur"",""29"",""586595""
""focus"",""29"",""591326""
","""event"",""trial"",""time""
""blur"",""0"",""0""
""blur"",""1"",""207""
""blur"",""2"",""10021""
""blur"",""3"",""20157""
""blur"",""3"",""21215""
""blur"",""6"",""45468""
""blur"",""23"",""214392""
""blur"",""23"",""225552""
""blur"",""23"",""298114""
""blur"",""23"",""299475""
""blur"",""29"",""586595""
","""event"",""trial"",""time""
""focus"",""0"",""0""
""focus"",""1"",""1601""
""focus"",""2"",""11530""
""focus"",""3"",""20329""
""focus"",""3"",""21257""
""focus"",""6"",""49675""
""focus"",""23"",""218558""
""focus"",""23"",""284953""
""focus"",""23"",""298143""
""focus"",""23"",""301063""
""focus"",""29"",""591326""
","""event"",""trial"",""time""
""fullscreenenter"",""1"",""3664""
","""event"",""trial"",""time""
""fullscreenexit"",""2"",""5502""
",,661.3,run_exp/static/images/task_images/land.jpg,76,,,,,,,,,,,1,,,,,,,,,,,,,
travel,35,611609,0.0-13.0-0.0,"""event"",""trial"",""time""
""blur"",""0"",""0""
""focus"",""0"",""0""
""blur"",""1"",""207""
""focus"",""1"",""1601""
""fullscreenenter"",""1"",""3664""
""fullscreenexit"",""2"",""5502""
""blur"",""2"",""10021""
""focus"",""2"",""11530""
""blur"",""3"",""20157""
""focus"",""3"",""20329""
""blur"",""3"",""21215""
""focus"",""3"",""21257""
""blur"",""6"",""45468""
""focus"",""6"",""49675""
""blur"",""23"",""214392""
""focus"",""23"",""218558""
""blur"",""23"",""225552""
""focus"",""23"",""284953""
""blur"",""23"",""298114""
""focus"",""23"",""298143""
""blur"",""23"",""299475""
""focus"",""23"",""301063""
""blur"",""29"",""586595""
""focus"",""29"",""591326""
","""event"",""trial"",""time""
""blur"",""0"",""0""
""blur"",""1"",""207""
""blur"",""2"",""10021""
""blur"",""3"",""20157""
""blur"",""3"",""21215""
""blur"",""6"",""45468""
""blur"",""23"",""214392""
""blur"",""23"",""225552""
""blur"",""23"",""298114""
""blur"",""23"",""299475""
""blur"",""29"",""586595""
","""event"",""trial"",""time""
""focus"",""0"",""0""
""focus"",""1"",""1601""
""focus"",""2"",""11530""
""focus"",""3"",""20329""
""focus"",""3"",""21257""
""focus"",""6"",""49675""
""focus"",""23"",""218558""
""focus"",""23"",""284953""
""focus"",""23"",""298143""
""focus"",""23"",""301063""
""focus"",""29"",""591326""
","""event"",""trial"",""time""
""fullscreenenter"",""1"",""3664""
","""event"",""trial"",""time""
""fullscreenexit"",""2"",""5502""
",,,,,,,,,,,,"[{""stimulus"":""run_exp/static/images/task_images/rocket-01.jpg"",""time"":0.6000000014901161},{""stimulus"":""run_exp/static/images/task_images/rocket-02.jpg"",""time"":1052.3999999985099},{""stimulus"":""run_exp/static/images/task_images/rocket-03.jpg"",""time"":2079.6999999955297},{""stimulus"":""run_exp/static/images/task_images/rocket-04.jpg"",""time"":3123.89999999851},{""stimulus"":""run_exp/static/images/task_images/rocket-05.jpg"",""time"":4160.39999999851},{""stimulus"":""run_exp/static/images/task_images/rocket-06.jpg"",""time"":5191.60000000149},{""stimulus"":""run_exp/static/images/task_images/rocket-07.jpg"",""time"":6226.19999999553},{""stimulus"":""run_exp/static/images/task_images/rocket-08.jpg"",""time"":7263.60000000149},{""stimulus"":""run_exp/static/images/task_images/rocket-09.jpg"",""time"":8300}]",[],0,,,,,,,,,,,,,,
alien_welcome_prac,36,616626,0.0-13.0-1.0,"""event"",""trial"",""time""
""blur"",""0"",""0""
""focus"",""0"",""0""
""blur"",""1"",""207""
""focus"",""1"",""1601""
""fullscreenenter"",""1"",""3664""
""fullscreenexit"",""2"",""5502""
""blur"",""2"",""10021""
""focus"",""2"",""11530""
""blur"",""3"",""20157""
""focus"",""3"",""20329""
""blur"",""3"",""21215""
""focus"",""3"",""21257""
""blur"",""6"",""45468""
""focus"",""6"",""49675""
""blur"",""23"",""214392""
""focus"",""23"",""218558""
""blur"",""23"",""225552""
""focus"",""23"",""284953""
""blur"",""23"",""298114""
""focus"",""23"",""298143""
""blur"",""23"",""299475""
""focus"",""23"",""301063""
""blur"",""29"",""586595""
""focus"",""29"",""591326""
","""event"",""trial"",""time""
""blur"",""0"",""0""
""blur"",""1"",""207""
""blur"",""2"",""10021""
""blur"",""3"",""20157""
""blur"",""3"",""21215""
""blur"",""6"",""45468""
""blur"",""23"",""214392""
""blur"",""23"",""225552""
""blur"",""23"",""298114""
""blur"",""23"",""299475""
""blur"",""29"",""586595""
","""event"",""trial"",""time""
""focus"",""0"",""0""
""focus"",""1"",""1601""
""focus"",""2"",""11530""
""focus"",""3"",""20329""
""focus"",""3"",""21257""
""focus"",""6"",""49675""
""focus"",""23"",""218558""
""focus"",""23"",""284953""
""focus"",""23"",""298143""
""focus"",""23"",""301063""
""focus"",""29"",""591326""
","""event"",""trial"",""time""
""fullscreenenter"",""1"",""3664""
","""event"",""trial"",""time""
""fullscreenexit"",""2"",""5502""
",,null,run_exp/static/images/task_images/aliens/practice_aliens/planet/alien_planet-4.jpg,null,,,,,,,,,,,,,,,,,,,,,,,,
land_prac,37,617134,0.0-13.0-2.0,"""event"",""trial"",""time""
""blur"",""0"",""0""
""focus"",""0"",""0""
""blur"",""1"",""207""
""focus"",""1"",""1601""
""fullscreenenter"",""1"",""3664""
""fullscreenexit"",""2"",""5502""
""blur"",""2"",""10021""
""focus"",""2"",""11530""
""blur"",""3"",""20157""
""focus"",""3"",""20329""
""blur"",""3"",""21215""
""focus"",""3"",""21257""
""blur"",""6"",""45468""
""focus"",""6"",""49675""
""blur"",""23"",""214392""
""focus"",""23"",""218558""
""blur"",""23"",""225552""
""focus"",""23"",""284953""
""blur"",""23"",""298114""
""focus"",""23"",""298143""
""blur"",""23"",""299475""
""focus"",""23"",""301063""
""blur"",""29"",""586595""
""focus"",""29"",""591326""
","""event"",""trial"",""time""
""blur"",""0"",""0""
""blur"",""1"",""207""
""blur"",""2"",""10021""
""blur"",""3"",""20157""
""blur"",""3"",""21215""
""blur"",""6"",""45468""
""blur"",""23"",""214392""
""blur"",""23"",""225552""
""blur"",""23"",""298114""
""blur"",""23"",""299475""
""blur"",""29"",""586595""
","""event"",""trial"",""time""
""focus"",""0"",""0""
""focus"",""1"",""1601""
""focus"",""2"",""11530""
""focus"",""3"",""20329""
""focus"",""3"",""21257""
""focus"",""6"",""49675""
""focus"",""23"",""218558""
""focus"",""23"",""284953""
""focus"",""23"",""298143""
""focus"",""23"",""301063""
""focus"",""29"",""591326""
","""event"",""trial"",""time""
""fullscreenenter"",""1"",""3664""
","""event"",""trial"",""time""
""fullscreenexit"",""2"",""5502""
",,null,run_exp/static/images/task_images/land.jpg,null,,,,,,,105,,,0,,,,,,,,,,,,,,
dig_prac,38,619143,0.0-13.0-3.0,"""event"",""trial"",""time""
""blur"",""0"",""0""
""focus"",""0"",""0""
""blur"",""1"",""207""
""focus"",""1"",""1601""
""fullscreenenter"",""1"",""3664""
""fullscreenexit"",""2"",""5502""
""blur"",""2"",""10021""
""focus"",""2"",""11530""
""blur"",""3"",""20157""
""focus"",""3"",""20329""
""blur"",""3"",""21215""
""focus"",""3"",""21257""
""blur"",""6"",""45468""
""focus"",""6"",""49675""
""blur"",""23"",""214392""
""focus"",""23"",""218558""
""blur"",""23"",""225552""
""focus"",""23"",""284953""
""blur"",""23"",""298114""
""focus"",""23"",""298143""
""blur"",""23"",""299475""
""focus"",""23"",""301063""
""blur"",""29"",""586595""
""focus"",""29"",""591326""
","""event"",""trial"",""time""
""blur"",""0"",""0""
""blur"",""1"",""207""
""blur"",""2"",""10021""
""blur"",""3"",""20157""
""blur"",""3"",""21215""
""blur"",""6"",""45468""
""blur"",""23"",""214392""
""blur"",""23"",""225552""
""blur"",""23"",""298114""
""blur"",""23"",""299475""
""blur"",""29"",""586595""
","""event"",""trial"",""time""
""focus"",""0"",""0""
""focus"",""1"",""1601""
""focus"",""2"",""11530""
""focus"",""3"",""20329""
""focus"",""3"",""21257""
""focus"",""6"",""49675""
""focus"",""23"",""218558""
""focus"",""23"",""284953""
""focus"",""23"",""298143""
""focus"",""23"",""301063""
""focus"",""29"",""591326""
","""event"",""trial"",""time""
""fullscreenenter"",""1"",""3664""
","""event"",""trial"",""time""
""fullscreenexit"",""2"",""5502""
",,,,,,,,,,,,"[{""stimulus"":""run_exp/static/images/task_images/dig.jpg"",""time"":0.6999999955296516},{""stimulus"":""run_exp/static/images/task_images/land.jpg"",""time"":679.5999999940395},{""stimulus"":""run_exp/static/images/task_images/dig.jpg"",""time"":1344.0999999940395}]",[],,,,,,,,,,,,,,,
harvest_prac,39,620158,0.0-13.0-4.0,"""event"",""trial"",""time""
""blur"",""0"",""0""
""focus"",""0"",""0""
""blur"",""1"",""207""
""focus"",""1"",""1601""
""fullscreenenter"",""1"",""3664""
""fullscreenexit"",""2"",""5502""
""blur"",""2"",""10021""
""focus"",""2"",""11530""
""blur"",""3"",""20157""
""focus"",""3"",""20329""
""blur"",""3"",""21215""
""focus"",""3"",""21257""
""blur"",""6"",""45468""
""focus"",""6"",""49675""
""blur"",""23"",""214392""
""focus"",""23"",""218558""
""blur"",""23"",""225552""
""focus"",""23"",""284953""
""blur"",""23"",""298114""
""focus"",""23"",""298143""
""blur"",""23"",""299475""
""focus"",""23"",""301063""
""blur"",""29"",""586595""
""focus"",""29"",""591326""
","""event"",""trial"",""time""
""blur"",""0"",""0""
""blur"",""1"",""207""
""blur"",""2"",""10021""
""blur"",""3"",""20157""
""blur"",""3"",""21215""
""blur"",""6"",""45468""
""blur"",""23"",""214392""
""blur"",""23"",""225552""
""blur"",""23"",""298114""
""blur"",""23"",""299475""
""blur"",""29"",""586595""
","""event"",""trial"",""time""
""focus"",""0"",""0""
""focus"",""1"",""1601""
""focus"",""2"",""11530""
""focus"",""3"",""20329""
""focus"",""3"",""21257""
""focus"",""6"",""49675""
""focus"",""23"",""218558""
""focus"",""23"",""284953""
""focus"",""23"",""298143""
""focus"",""23"",""301063""
""focus"",""29"",""591326""
","""event"",""trial"",""time""
""fullscreenenter"",""1"",""3664""
","""event"",""trial"",""time""
""fullscreenexit"",""2"",""5502""
",,null,run_exp/static/images/task_images/barrel_text.jpg,null,,,,,,,,,,,,,,,,,,,,,,,,
decision_prac,40,620243,0.0-13.0-5.0,"""event"",""trial"",""time""
""blur"",""0"",""0""
""focus"",""0"",""0""
""blur"",""1"",""207""
""focus"",""1"",""1601""
""fullscreenenter"",""1"",""3664""
""fullscreenexit"",""2"",""5502""
""blur"",""2"",""10021""
""focus"",""2"",""11530""
""blur"",""3"",""20157""
""focus"",""3"",""20329""
""blur"",""3"",""21215""
""focus"",""3"",""21257""
""blur"",""6"",""45468""
""focus"",""6"",""49675""
""blur"",""23"",""214392""
""focus"",""23"",""218558""
""blur"",""23"",""225552""
""focus"",""23"",""284953""
""blur"",""23"",""298114""
""focus"",""23"",""298143""
""blur"",""23"",""299475""
""focus"",""23"",""301063""
""blur"",""29"",""586595""
""focus"",""29"",""591326""
","""event"",""trial"",""time""
""blur"",""0"",""0""
""blur"",""1"",""207""
""blur"",""2"",""10021""
""blur"",""3"",""20157""
""blur"",""3"",""21215""
""blur"",""6"",""45468""
""blur"",""23"",""214392""
""blur"",""23"",""225552""
""blur"",""23"",""298114""
""blur"",""23"",""299475""
""blur"",""29"",""586595""
","""event"",""trial"",""time""
""focus"",""0"",""0""
""focus"",""1"",""1601""
""focus"",""2"",""11530""
""focus"",""3"",""20329""
""focus"",""3"",""21257""
""focus"",""6"",""49675""
""focus"",""23"",""218558""
""focus"",""23"",""284953""
""focus"",""23"",""298143""
""focus"",""23"",""301063""
""focus"",""29"",""591326""
","""event"",""trial"",""time""
""fullscreenenter"",""1"",""3664""
","""event"",""trial"",""time""
""fullscreenexit"",""2"",""5502""
",,82.40000001,run_exp/static/images/task_images/land.jpg,65,,,,,,,,,,,2,,,,,,,,,,,,,
dig_prac,41,622265,0.0-14.0-0.0,"""event"",""trial"",""time""
""blur"",""0"",""0""
""focus"",""0"",""0""
""blur"",""1"",""207""
""focus"",""1"",""1601""
""fullscreenenter"",""1"",""3664""
""fullscreenexit"",""2"",""5502""
""blur"",""2"",""10021""
""focus"",""2"",""11530""
""blur"",""3"",""20157""
""focus"",""3"",""20329""
""blur"",""3"",""21215""
""focus"",""3"",""21257""
""blur"",""6"",""45468""
""focus"",""6"",""49675""
""blur"",""23"",""214392""
""focus"",""23"",""218558""
""blur"",""23"",""225552""
""focus"",""23"",""284953""
""blur"",""23"",""298114""
""focus"",""23"",""298143""
""blur"",""23"",""299475""
""focus"",""23"",""301063""
""blur"",""29"",""586595""
""focus"",""29"",""591326""
","""event"",""trial"",""time""
""blur"",""0"",""0""
""blur"",""1"",""207""
""blur"",""2"",""10021""
""blur"",""3"",""20157""
""blur"",""3"",""21215""
""blur"",""6"",""45468""
""blur"",""23"",""214392""
""blur"",""23"",""225552""
""blur"",""23"",""298114""
""blur"",""23"",""299475""
""blur"",""29"",""586595""
","""event"",""trial"",""time""
""focus"",""0"",""0""
""focus"",""1"",""1601""
""focus"",""2"",""11530""
""focus"",""3"",""20329""
""focus"",""3"",""21257""
""focus"",""6"",""49675""
""focus"",""23"",""218558""
""focus"",""23"",""284953""
""focus"",""23"",""298143""
""focus"",""23"",""301063""
""focus"",""29"",""591326""
","""event"",""trial"",""time""
""fullscreenenter"",""1"",""3664""
","""event"",""trial"",""time""
""fullscreenexit"",""2"",""5502""
",,,,,,,,,,,,"[{""stimulus"":""run_exp/static/images/task_images/dig.jpg"",""time"":0.6000000014901161},{""stimulus"":""run_exp/static/images/task_images/land.jpg"",""time"":673.6000000014901},{""stimulus"":""run_exp/static/images/task_images/dig.jpg"",""time"":1342}]",[],,,,,,,,,,,,,,,
harvest_prac,42,623270,0.0-14.0-1.0,"""event"",""trial"",""time""
""blur"",""0"",""0""
""focus"",""0"",""0""
""blur"",""1"",""207""
""focus"",""1"",""1601""
""fullscreenenter"",""1"",""3664""
""fullscreenexit"",""2"",""5502""
""blur"",""2"",""10021""
""focus"",""2"",""11530""
""blur"",""3"",""20157""
""focus"",""3"",""20329""
""blur"",""3"",""21215""
""focus"",""3"",""21257""
""blur"",""6"",""45468""
""focus"",""6"",""49675""
""blur"",""23"",""214392""
""focus"",""23"",""218558""
""blur"",""23"",""225552""
""focus"",""23"",""284953""
""blur"",""23"",""298114""
""focus"",""23"",""298143""
""blur"",""23"",""299475""
""focus"",""23"",""301063""
""blur"",""29"",""586595""
""focus"",""29"",""591326""
","""event"",""trial"",""time""
""blur"",""0"",""0""
""blur"",""1"",""207""
""blur"",""2"",""10021""
""blur"",""3"",""20157""
""blur"",""3"",""21215""
""blur"",""6"",""45468""
""blur"",""23"",""214392""
""blur"",""23"",""225552""
""blur"",""23"",""298114""
""blur"",""23"",""299475""
""blur"",""29"",""586595""
","""event"",""trial"",""time""
""focus"",""0"",""0""
""focus"",""1"",""1601""
""focus"",""2"",""11530""
""focus"",""3"",""20329""
""focus"",""3"",""21257""
""focus"",""6"",""49675""
""focus"",""23"",""218558""
""focus"",""23"",""284953""
""focus"",""23"",""298143""
""focus"",""23"",""301063""
""focus"",""29"",""591326""
","""event"",""trial"",""time""
""fullscreenenter"",""1"",""3664""
","""event"",""trial"",""time""
""fullscreenexit"",""2"",""5502""
",,null,run_exp/static/images/task_images/barrel_text.jpg,null,,,,,,,,,,,,,,,,,,,,,,,,
decision_prac,43,624071,0.0-14.0-2.0,"""event"",""trial"",""time""
""blur"",""0"",""0""
""focus"",""0"",""0""
""blur"",""1"",""207""
""focus"",""1"",""1601""
""fullscreenenter"",""1"",""3664""
""fullscreenexit"",""2"",""5502""
""blur"",""2"",""10021""
""focus"",""2"",""11530""
""blur"",""3"",""20157""
""focus"",""3"",""20329""
""blur"",""3"",""21215""
""focus"",""3"",""21257""
""blur"",""6"",""45468""
""focus"",""6"",""49675""
""blur"",""23"",""214392""
""focus"",""23"",""218558""
""blur"",""23"",""225552""
""focus"",""23"",""284953""
""blur"",""23"",""298114""
""focus"",""23"",""298143""
""blur"",""23"",""299475""
""focus"",""23"",""301063""
""blur"",""29"",""586595""
""focus"",""29"",""591326""
","""event"",""trial"",""time""
""blur"",""0"",""0""
""blur"",""1"",""207""
""blur"",""2"",""10021""
""blur"",""3"",""20157""
""blur"",""3"",""21215""
""blur"",""6"",""45468""
""blur"",""23"",""214392""
""blur"",""23"",""225552""
""blur"",""23"",""298114""
""blur"",""23"",""299475""
""blur"",""29"",""586595""
","""event"",""trial"",""time""
""focus"",""0"",""0""
""focus"",""1"",""1601""
""focus"",""2"",""11530""
""focus"",""3"",""20329""
""focus"",""3"",""21257""
""focus"",""6"",""49675""
""focus"",""23"",""218558""
""focus"",""23"",""284953""
""focus"",""23"",""298143""
""focus"",""23"",""301063""
""focus"",""29"",""591326""
","""event"",""trial"",""time""
""fullscreenenter"",""1"",""3664""
","""event"",""trial"",""time""
""fullscreenexit"",""2"",""5502""
",,798.2,run_exp/static/images/task_images/land.jpg,65,,,,,,,,,,,3,,,,,,,,,,,,,
dig_prac,44,626093,0.0-15.0-0.0,"""event"",""trial"",""time""
""blur"",""0"",""0""
""focus"",""0"",""0""
""blur"",""1"",""207""
""focus"",""1"",""1601""
""fullscreenenter"",""1"",""3664""
""fullscreenexit"",""2"",""5502""
""blur"",""2"",""10021""
""focus"",""2"",""11530""
""blur"",""3"",""20157""
""focus"",""3"",""20329""
""blur"",""3"",""21215""
""focus"",""3"",""21257""
""blur"",""6"",""45468""
""focus"",""6"",""49675""
""blur"",""23"",""214392""
""focus"",""23"",""218558""
""blur"",""23"",""225552""
""focus"",""23"",""284953""
""blur"",""23"",""298114""
""focus"",""23"",""298143""
""blur"",""23"",""299475""
""focus"",""23"",""301063""
""blur"",""29"",""586595""
""focus"",""29"",""591326""
","""event"",""trial"",""time""
""blur"",""0"",""0""
""blur"",""1"",""207""
""blur"",""2"",""10021""
""blur"",""3"",""20157""
""blur"",""3"",""21215""
""blur"",""6"",""45468""
""blur"",""23"",""214392""
""blur"",""23"",""225552""
""blur"",""23"",""298114""
""blur"",""23"",""299475""
""blur"",""29"",""586595""
","""event"",""trial"",""time""
""focus"",""0"",""0""
""focus"",""1"",""1601""
""focus"",""2"",""11530""
""focus"",""3"",""20329""
""focus"",""3"",""21257""
""focus"",""6"",""49675""
""focus"",""23"",""218558""
""focus"",""23"",""284953""
""focus"",""23"",""298143""
""focus"",""23"",""301063""
""focus"",""29"",""591326""
","""event"",""trial"",""time""
""fullscreenenter"",""1"",""3664""
","""event"",""trial"",""time""
""fullscreenexit"",""2"",""5502""
",,,,,,,,,,,,"[{""stimulus"":""run_exp/static/images/task_images/dig.jpg"",""time"":0.5},{""stimulus"":""run_exp/static/images/task_images/land.jpg"",""time"":677.3999999985099},{""stimulus"":""run_exp/static/images/task_images/dig.jpg"",""time"":1338.3999999985099}]",[],,,,,,,,,,,,,,,
harvest_prac,45,627102,0.0-15.0-1.0,"""event"",""trial"",""time""
""blur"",""0"",""0""
""focus"",""0"",""0""
""blur"",""1"",""207""
""focus"",""1"",""1601""
""fullscreenenter"",""1"",""3664""
""fullscreenexit"",""2"",""5502""
""blur"",""2"",""10021""
""focus"",""2"",""11530""
""blur"",""3"",""20157""
""focus"",""3"",""20329""
""blur"",""3"",""21215""
""focus"",""3"",""21257""
""blur"",""6"",""45468""
""focus"",""6"",""49675""
""blur"",""23"",""214392""
""focus"",""23"",""218558""
""blur"",""23"",""225552""
""focus"",""23"",""284953""
""blur"",""23"",""298114""
""focus"",""23"",""298143""
""blur"",""23"",""299475""
""focus"",""23"",""301063""
""blur"",""29"",""586595""
""focus"",""29"",""591326""
","""event"",""trial"",""time""
""blur"",""0"",""0""
""blur"",""1"",""207""
""blur"",""2"",""10021""
""blur"",""3"",""20157""
""blur"",""3"",""21215""
""blur"",""6"",""45468""
""blur"",""23"",""214392""
""blur"",""23"",""225552""
""blur"",""23"",""298114""
""blur"",""23"",""299475""
""blur"",""29"",""586595""
","""event"",""trial"",""time""
""focus"",""0"",""0""
""focus"",""1"",""1601""
""focus"",""2"",""11530""
""focus"",""3"",""20329""
""focus"",""3"",""21257""
""focus"",""6"",""49675""
""focus"",""23"",""218558""
""focus"",""23"",""284953""
""focus"",""23"",""298143""
""focus"",""23"",""301063""
""focus"",""29"",""591326""
","""event"",""trial"",""time""
""fullscreenenter"",""1"",""3664""
","""event"",""trial"",""time""
""fullscreenexit"",""2"",""5502""
",,null,run_exp/static/images/task_images/barrel_text.jpg,null,,,,,,,,,,,,,,,,,,,,,,,,
decision_prac,46,627797,0.0-15.0-2.0,"""event"",""trial"",""time""
""blur"",""0"",""0""
""focus"",""0"",""0""
""blur"",""1"",""207""
""focus"",""1"",""1601""
""fullscreenenter"",""1"",""3664""
""fullscreenexit"",""2"",""5502""
""blur"",""2"",""10021""
""focus"",""2"",""11530""
""blur"",""3"",""20157""
""focus"",""3"",""20329""
""blur"",""3"",""21215""
""focus"",""3"",""21257""
""blur"",""6"",""45468""
""focus"",""6"",""49675""
""blur"",""23"",""214392""
""focus"",""23"",""218558""
""blur"",""23"",""225552""
""focus"",""23"",""284953""
""blur"",""23"",""298114""
""focus"",""23"",""298143""
""blur"",""23"",""299475""
""focus"",""23"",""301063""
""blur"",""29"",""586595""
""focus"",""29"",""591326""
","""event"",""trial"",""time""
""blur"",""0"",""0""
""blur"",""1"",""207""
""blur"",""2"",""10021""
""blur"",""3"",""20157""
""blur"",""3"",""21215""
""blur"",""6"",""45468""
""blur"",""23"",""214392""
""blur"",""23"",""225552""
""blur"",""23"",""298114""
""blur"",""23"",""299475""
""blur"",""29"",""586595""
","""event"",""trial"",""time""
""focus"",""0"",""0""
""focus"",""1"",""1601""
""focus"",""2"",""11530""
""focus"",""3"",""20329""
""focus"",""3"",""21257""
""focus"",""6"",""49675""
""focus"",""23"",""218558""
""focus"",""23"",""284953""
""focus"",""23"",""298143""
""focus"",""23"",""301063""
""focus"",""29"",""591326""
","""event"",""trial"",""time""
""fullscreenenter"",""1"",""3664""
","""event"",""trial"",""time""
""fullscreenexit"",""2"",""5502""
",,689,run_exp/static/images/task_images/land.jpg,65,,,,,,,,,,,4,,,,,,,,,,,,,
dig_prac,47,629816,0.0-16.0-0.0,"""event"",""trial"",""time""
""blur"",""0"",""0""
""focus"",""0"",""0""
""blur"",""1"",""207""
""focus"",""1"",""1601""
""fullscreenenter"",""1"",""3664""
""fullscreenexit"",""2"",""5502""
""blur"",""2"",""10021""
""focus"",""2"",""11530""
""blur"",""3"",""20157""
""focus"",""3"",""20329""
""blur"",""3"",""21215""
""focus"",""3"",""21257""
""blur"",""6"",""45468""
""focus"",""6"",""49675""
""blur"",""23"",""214392""
""focus"",""23"",""218558""
""blur"",""23"",""225552""
""focus"",""23"",""284953""
""blur"",""23"",""298114""
""focus"",""23"",""298143""
""blur"",""23"",""299475""
""focus"",""23"",""301063""
""blur"",""29"",""586595""
""focus"",""29"",""591326""
","""event"",""trial"",""time""
""blur"",""0"",""0""
""blur"",""1"",""207""
""blur"",""2"",""10021""
""blur"",""3"",""20157""
""blur"",""3"",""21215""
""blur"",""6"",""45468""
""blur"",""23"",""214392""
""blur"",""23"",""225552""
""blur"",""23"",""298114""
""blur"",""23"",""299475""
""blur"",""29"",""586595""
","""event"",""trial"",""time""
""focus"",""0"",""0""
""focus"",""1"",""1601""
""focus"",""2"",""11530""
""focus"",""3"",""20329""
""focus"",""3"",""21257""
""focus"",""6"",""49675""
""focus"",""23"",""218558""
""focus"",""23"",""284953""
""focus"",""23"",""298143""
""focus"",""23"",""301063""
""focus"",""29"",""591326""
","""event"",""trial"",""time""
""fullscreenenter"",""1"",""3664""
","""event"",""trial"",""time""
""fullscreenexit"",""2"",""5502""
",,,,,,,,,,,,"[{""stimulus"":""run_exp/static/images/task_images/dig.jpg"",""time"":0.5},{""stimulus"":""run_exp/static/images/task_images/land.jpg"",""time"":684.3000000044703},{""stimulus"":""run_exp/static/images/task_images/dig.jpg"",""time"":1342.5}]",[],,,,,,,,,,,,,,,
harvest_prac,48,630831,0.0-16.0-1.0,"""event"",""trial"",""time""
""blur"",""0"",""0""
""focus"",""0"",""0""
""blur"",""1"",""207""
""focus"",""1"",""1601""
""fullscreenenter"",""1"",""3664""
""fullscreenexit"",""2"",""5502""
""blur"",""2"",""10021""
""focus"",""2"",""11530""
""blur"",""3"",""20157""
""focus"",""3"",""20329""
""blur"",""3"",""21215""
""focus"",""3"",""21257""
""blur"",""6"",""45468""
""focus"",""6"",""49675""
""blur"",""23"",""214392""
""focus"",""23"",""218558""
""blur"",""23"",""225552""
""focus"",""23"",""284953""
""blur"",""23"",""298114""
""focus"",""23"",""298143""
""blur"",""23"",""299475""
""focus"",""23"",""301063""
""blur"",""29"",""586595""
""focus"",""29"",""591326""
","""event"",""trial"",""time""
""blur"",""0"",""0""
""blur"",""1"",""207""
""blur"",""2"",""10021""
""blur"",""3"",""20157""
""blur"",""3"",""21215""
""blur"",""6"",""45468""
""blur"",""23"",""214392""
""blur"",""23"",""225552""
""blur"",""23"",""298114""
""blur"",""23"",""299475""
""blur"",""29"",""586595""
","""event"",""trial"",""time""
""focus"",""0"",""0""
""focus"",""1"",""1601""
""focus"",""2"",""11530""
""focus"",""3"",""20329""
""focus"",""3"",""21257""
""focus"",""6"",""49675""
""focus"",""23"",""218558""
""focus"",""23"",""284953""
""focus"",""23"",""298143""
""focus"",""23"",""301063""
""focus"",""29"",""591326""
","""event"",""trial"",""time""
""fullscreenenter"",""1"",""3664""
","""event"",""trial"",""time""
""fullscreenexit"",""2"",""5502""
",,null,run_exp/static/images/task_images/barrel_text.jpg,null,,,,,,,,,,,,,,,,,,,,,,,,
decision_prac,49,631888,0.0-16.0-2.0,"""event"",""trial"",""time""
""blur"",""0"",""0""
""focus"",""0"",""0""
""blur"",""1"",""207""
""focus"",""1"",""1601""
""fullscreenenter"",""1"",""3664""
""fullscreenexit"",""2"",""5502""
""blur"",""2"",""10021""
""focus"",""2"",""11530""
""blur"",""3"",""20157""
""focus"",""3"",""20329""
""blur"",""3"",""21215""
""focus"",""3"",""21257""
""blur"",""6"",""45468""
""focus"",""6"",""49675""
""blur"",""23"",""214392""
""focus"",""23"",""218558""
""blur"",""23"",""225552""
""focus"",""23"",""284953""
""blur"",""23"",""298114""
""focus"",""23"",""298143""
""blur"",""23"",""299475""
""focus"",""23"",""301063""
""blur"",""29"",""586595""
""focus"",""29"",""591326""
","""event"",""trial"",""time""
""blur"",""0"",""0""
""blur"",""1"",""207""
""blur"",""2"",""10021""
""blur"",""3"",""20157""
""blur"",""3"",""21215""
""blur"",""6"",""45468""
""blur"",""23"",""214392""
""blur"",""23"",""225552""
""blur"",""23"",""298114""
""blur"",""23"",""299475""
""blur"",""29"",""586595""
","""event"",""trial"",""time""
""focus"",""0"",""0""
""focus"",""1"",""1601""
""focus"",""2"",""11530""
""focus"",""3"",""20329""
""focus"",""3"",""21257""
""focus"",""6"",""49675""
""focus"",""23"",""218558""
""focus"",""23"",""284953""
""focus"",""23"",""298143""
""focus"",""23"",""301063""
""focus"",""29"",""591326""
","""event"",""trial"",""time""
""fullscreenenter"",""1"",""3664""
","""event"",""trial"",""time""
""fullscreenexit"",""2"",""5502""
",,1052.5,run_exp/static/images/task_images/land.jpg,65,,,,,,,,,,,,1,,,,,,,,,,,,
quiz_instruc,50,635819,0.0-17.0-0.0,"""event"",""trial"",""time""
""blur"",""0"",""0""
""focus"",""0"",""0""
""blur"",""1"",""207""
""focus"",""1"",""1601""
""fullscreenenter"",""1"",""3664""
""fullscreenexit"",""2"",""5502""
""blur"",""2"",""10021""
""focus"",""2"",""11530""
""blur"",""3"",""20157""
""focus"",""3"",""20329""
""blur"",""3"",""21215""
""focus"",""3"",""21257""
""blur"",""6"",""45468""
""focus"",""6"",""49675""
""blur"",""23"",""214392""
""focus"",""23"",""218558""
""blur"",""23"",""225552""
""focus"",""23"",""284953""
""blur"",""23"",""298114""
""focus"",""23"",""298143""
""blur"",""23"",""299475""
""focus"",""23"",""301063""
""blur"",""29"",""586595""
""focus"",""29"",""591326""
","""event"",""trial"",""time""
""blur"",""0"",""0""
""blur"",""1"",""207""
""blur"",""2"",""10021""
""blur"",""3"",""20157""
""blur"",""3"",""21215""
""blur"",""6"",""45468""
""blur"",""23"",""214392""
""blur"",""23"",""225552""
""blur"",""23"",""298114""
""blur"",""23"",""299475""
""blur"",""29"",""586595""
","""event"",""trial"",""time""
""focus"",""0"",""0""
""focus"",""1"",""1601""
""focus"",""2"",""11530""
""focus"",""3"",""20329""
""focus"",""3"",""21257""
""focus"",""6"",""49675""
""focus"",""23"",""218558""
""focus"",""23"",""284953""
""focus"",""23"",""298143""
""focus"",""23"",""301063""
""focus"",""29"",""591326""
","""event"",""trial"",""time""
""fullscreenenter"",""1"",""3664""
","""event"",""trial"",""time""
""fullscreenexit"",""2"",""5502""
",,3922.5,run_exp/static/audio/clip_10_quiz.m4a,,,,,,,0,,,,,,,,,,,,,,,,,,
instruc_repeat,51,678604,0.0-17.0-1.0,"""event"",""trial"",""time""
""blur"",""0"",""0""
""focus"",""0"",""0""
""blur"",""1"",""207""
""focus"",""1"",""1601""
""fullscreenenter"",""1"",""3664""
""fullscreenexit"",""2"",""5502""
""blur"",""2"",""10021""
""focus"",""2"",""11530""
""blur"",""3"",""20157""
""focus"",""3"",""20329""
""blur"",""3"",""21215""
""focus"",""3"",""21257""
""blur"",""6"",""45468""
""focus"",""6"",""49675""
""blur"",""23"",""214392""
""focus"",""23"",""218558""
""blur"",""23"",""225552""
""focus"",""23"",""284953""
""blur"",""23"",""298114""
""focus"",""23"",""298143""
""blur"",""23"",""299475""
""focus"",""23"",""301063""
""blur"",""29"",""586595""
""focus"",""29"",""591326""
","""event"",""trial"",""time""
""blur"",""0"",""0""
""blur"",""1"",""207""
""blur"",""2"",""10021""
""blur"",""3"",""20157""
""blur"",""3"",""21215""
""blur"",""6"",""45468""
""blur"",""23"",""214392""
""blur"",""23"",""225552""
""blur"",""23"",""298114""
""blur"",""23"",""299475""
""blur"",""29"",""586595""
","""event"",""trial"",""time""
""focus"",""0"",""0""
""focus"",""1"",""1601""
""focus"",""2"",""11530""
""focus"",""3"",""20329""
""focus"",""3"",""21257""
""focus"",""6"",""49675""
""focus"",""23"",""218558""
""focus"",""23"",""284953""
""focus"",""23"",""298143""
""focus"",""23"",""301063""
""focus"",""29"",""591326""
","""event"",""trial"",""time""
""fullscreenenter"",""1"",""3664""
","""event"",""trial"",""time""
""fullscreenexit"",""2"",""5502""
",,null,"<p> Are you ready to play a practice game? </p> <p>In this practice game, you'll be digging up barrels of gems. But, in the real game, you'll be digging up the gems themselves. </p>",null,"<p>In this game, your goal is to collect as many gems as you can. That’s how you will win bonus money. </p> <p>The entire game will last 20 minutes no matter how many gems you collect or how many planets you visit. </p><p>To stay on a planet and dig again, press the letter A on your keyboard. To leave for a new planet, press the letter L.</p><p>The more you dig on a planet, the fewer gems you’ll get with each dig which is why you might consider leaving for a new planet. </p><p>When you arrive at a new planet, you’ll be greeted by an alien. What the alien looks like does not tell you anything about how much treasure is on the planet. </p>",,,,,,,,,,,,,,,,,,,,,,,
instruc_repeat_continue,52,681438,0.0-17.0-2.0,"""event"",""trial"",""time""
""blur"",""0"",""0""
""focus"",""0"",""0""
""blur"",""1"",""207""
""focus"",""1"",""1601""
""fullscreenenter"",""1"",""3664""
""fullscreenexit"",""2"",""5502""
""blur"",""2"",""10021""
""focus"",""2"",""11530""
""blur"",""3"",""20157""
""focus"",""3"",""20329""
""blur"",""3"",""21215""
""focus"",""3"",""21257""
""blur"",""6"",""45468""
""focus"",""6"",""49675""
""blur"",""23"",""214392""
""focus"",""23"",""218558""
""blur"",""23"",""225552""
""focus"",""23"",""284953""
""blur"",""23"",""298114""
""focus"",""23"",""298143""
""blur"",""23"",""299475""
""focus"",""23"",""301063""
""blur"",""29"",""586595""
""focus"",""29"",""591326""
","""event"",""trial"",""time""
""blur"",""0"",""0""
""blur"",""1"",""207""
""blur"",""2"",""10021""
""blur"",""3"",""20157""
""blur"",""3"",""21215""
""blur"",""6"",""45468""
""blur"",""23"",""214392""
""blur"",""23"",""225552""
""blur"",""23"",""298114""
""blur"",""23"",""299475""
""blur"",""29"",""586595""
","""event"",""trial"",""time""
""focus"",""0"",""0""
""focus"",""1"",""1601""
""focus"",""2"",""11530""
""focus"",""3"",""20329""
""focus"",""3"",""21257""
""focus"",""6"",""49675""
""focus"",""23"",""218558""
""focus"",""23"",""284953""
""focus"",""23"",""298143""
""focus"",""23"",""301063""
""focus"",""29"",""591326""
","""event"",""trial"",""time""
""fullscreenenter"",""1"",""3664""
","""event"",""trial"",""time""
""fullscreenexit"",""2"",""5502""
",,2828.6,"<p> Are you ready to play a practice game? </p> <p>In this practice game, you'll be digging up barrels of gems. But, in the real game, you'll be digging up the gems themselves. </p>",,,,,,,0,,,,,,,,,,,,,,,,,,
quiz_q_1_ask,53,686072,0.0-17.0-3.0,"""event"",""trial"",""time""
""blur"",""0"",""0""
""focus"",""0"",""0""
""blur"",""1"",""207""
""focus"",""1"",""1601""
""fullscreenenter"",""1"",""3664""
""fullscreenexit"",""2"",""5502""
""blur"",""2"",""10021""
""focus"",""2"",""11530""
""blur"",""3"",""20157""
""focus"",""3"",""20329""
""blur"",""3"",""21215""
""focus"",""3"",""21257""
""blur"",""6"",""45468""
""focus"",""6"",""49675""
""blur"",""23"",""214392""
""focus"",""23"",""218558""
""blur"",""23"",""225552""
""focus"",""23"",""284953""
""blur"",""23"",""298114""
""focus"",""23"",""298143""
""blur"",""23"",""299475""
""focus"",""23"",""301063""
""blur"",""29"",""586595""
""focus"",""29"",""591326""
","""event"",""trial"",""time""
""blur"",""0"",""0""
""blur"",""1"",""207""
""blur"",""2"",""10021""
""blur"",""3"",""20157""
""blur"",""3"",""21215""
""blur"",""6"",""45468""
""blur"",""23"",""214392""
""blur"",""23"",""225552""
""blur"",""23"",""298114""
""blur"",""23"",""299475""
""blur"",""29"",""586595""
","""event"",""trial"",""time""
""focus"",""0"",""0""
""focus"",""1"",""1601""
""focus"",""2"",""11530""
""focus"",""3"",""20329""
""focus"",""3"",""21257""
""focus"",""6"",""49675""
""focus"",""23"",""218558""
""focus"",""23"",""284953""
""focus"",""23"",""298143""
""focus"",""23"",""301063""
""focus"",""29"",""591326""
","""event"",""trial"",""time""
""fullscreenenter"",""1"",""3664""
","""event"",""trial"",""time""
""fullscreenexit"",""2"",""5502""
",,4627.9,run_exp/static/audio/clip_11_q1_ask.m4a,,,,,,,2,,,,,,,,,,,,,,,,,,
quiz_q_1_fb_correct,54,689965,0.0-18.0-0.0,"""event"",""trial"",""time""
""blur"",""0"",""0""
""focus"",""0"",""0""
""blur"",""1"",""207""
""focus"",""1"",""1601""
""fullscreenenter"",""1"",""3664""
""fullscreenexit"",""2"",""5502""
""blur"",""2"",""10021""
""focus"",""2"",""11530""
""blur"",""3"",""20157""
""focus"",""3"",""20329""
""blur"",""3"",""21215""
""focus"",""3"",""21257""
""blur"",""6"",""45468""
""focus"",""6"",""49675""
""blur"",""23"",""214392""
""focus"",""23"",""218558""
""blur"",""23"",""225552""
""focus"",""23"",""284953""
""blur"",""23"",""298114""
""focus"",""23"",""298143""
""blur"",""23"",""299475""
""focus"",""23"",""301063""
""blur"",""29"",""586595""
""focus"",""29"",""591326""
","""event"",""trial"",""time""
""blur"",""0"",""0""
""blur"",""1"",""207""
""blur"",""2"",""10021""
""blur"",""3"",""20157""
""blur"",""3"",""21215""
""blur"",""6"",""45468""
""blur"",""23"",""214392""
""blur"",""23"",""225552""
""blur"",""23"",""298114""
""blur"",""23"",""299475""
""blur"",""29"",""586595""
","""event"",""trial"",""time""
""focus"",""0"",""0""
""focus"",""1"",""1601""
""focus"",""2"",""11530""
""focus"",""3"",""20329""
""focus"",""3"",""21257""
""focus"",""6"",""49675""
""focus"",""23"",""218558""
""focus"",""23"",""284953""
""focus"",""23"",""298143""
""focus"",""23"",""301063""
""focus"",""29"",""591326""
","""event"",""trial"",""time""
""fullscreenenter"",""1"",""3664""
","""event"",""trial"",""time""
""fullscreenexit"",""2"",""5502""
",,null,run_exp/static/audio/clip_12_q1_correct.m4a,null,<p>That’s correct. You win extra money by collecting more gems.</p>,,,,,,,,,,,,,,,,,,,,,,,
quiz_q_2_ask,55,692479,0.0-18.0-1.0,"""event"",""trial"",""time""
""blur"",""0"",""0""
""focus"",""0"",""0""
""blur"",""1"",""207""
""focus"",""1"",""1601""
""fullscreenenter"",""1"",""3664""
""fullscreenexit"",""2"",""5502""
""blur"",""2"",""10021""
""focus"",""2"",""11530""
""blur"",""3"",""20157""
""focus"",""3"",""20329""
""blur"",""3"",""21215""
""focus"",""3"",""21257""
""blur"",""6"",""45468""
""focus"",""6"",""49675""
""blur"",""23"",""214392""
""focus"",""23"",""218558""
""blur"",""23"",""225552""
""focus"",""23"",""284953""
""blur"",""23"",""298114""
""focus"",""23"",""298143""
""blur"",""23"",""299475""
""focus"",""23"",""301063""
""blur"",""29"",""586595""
""focus"",""29"",""591326""
","""event"",""trial"",""time""
""blur"",""0"",""0""
""blur"",""1"",""207""
""blur"",""2"",""10021""
""blur"",""3"",""20157""
""blur"",""3"",""21215""
""blur"",""6"",""45468""
""blur"",""23"",""214392""
""blur"",""23"",""225552""
""blur"",""23"",""298114""
""blur"",""23"",""299475""
""blur"",""29"",""586595""
","""event"",""trial"",""time""
""focus"",""0"",""0""
""focus"",""1"",""1601""
""focus"",""2"",""11530""
""focus"",""3"",""20329""
""focus"",""3"",""21257""
""focus"",""6"",""49675""
""focus"",""23"",""218558""
""focus"",""23"",""284953""
""focus"",""23"",""298143""
""focus"",""23"",""301063""
""focus"",""29"",""591326""
","""event"",""trial"",""time""
""fullscreenenter"",""1"",""3664""
","""event"",""trial"",""time""
""fullscreenexit"",""2"",""5502""
",,2506.2,run_exp/static/audio/clip_14_q2_ask.m4a,,,,,,,1,,,,,,,,,,,,,,,,,,
quiz_q_2_fb_correct,56,696525,0.0-19.0-0.0,"""event"",""trial"",""time""
""blur"",""0"",""0""
""focus"",""0"",""0""
""blur"",""1"",""207""
""focus"",""1"",""1601""
""fullscreenenter"",""1"",""3664""
""fullscreenexit"",""2"",""5502""
""blur"",""2"",""10021""
""focus"",""2"",""11530""
""blur"",""3"",""20157""
""focus"",""3"",""20329""
""blur"",""3"",""21215""
""focus"",""3"",""21257""
""blur"",""6"",""45468""
""focus"",""6"",""49675""
""blur"",""23"",""214392""
""focus"",""23"",""218558""
""blur"",""23"",""225552""
""focus"",""23"",""284953""
""blur"",""23"",""298114""
""focus"",""23"",""298143""
""blur"",""23"",""299475""
""focus"",""23"",""301063""
""blur"",""29"",""586595""
""focus"",""29"",""591326""
","""event"",""trial"",""time""
""blur"",""0"",""0""
""blur"",""1"",""207""
""blur"",""2"",""10021""
""blur"",""3"",""20157""
""blur"",""3"",""21215""
""blur"",""6"",""45468""
""blur"",""23"",""214392""
""blur"",""23"",""225552""
""blur"",""23"",""298114""
""blur"",""23"",""299475""
""blur"",""29"",""586595""
","""event"",""trial"",""time""
""focus"",""0"",""0""
""focus"",""1"",""1601""
""focus"",""2"",""11530""
""focus"",""3"",""20329""
""focus"",""3"",""21257""
""focus"",""6"",""49675""
""focus"",""23"",""218558""
""focus"",""23"",""284953""
""focus"",""23"",""298143""
""focus"",""23"",""301063""
""focus"",""29"",""591326""
","""event"",""trial"",""time""
""fullscreenenter"",""1"",""3664""
","""event"",""trial"",""time""
""fullscreenexit"",""2"",""5502""
",,null,run_exp/static/audio/clip_15_q2_correct.m4a,null,<p>That’s correct. The experiment is 20 minutes no matter what.</p>,,,,,,,,,,,,,,,,,,,,,,,
quiz_q_3_ask,57,702249,0.0-19.0-1.0,"""event"",""trial"",""time""
""blur"",""0"",""0""
""focus"",""0"",""0""
""blur"",""1"",""207""
""focus"",""1"",""1601""
""fullscreenenter"",""1"",""3664""
""fullscreenexit"",""2"",""5502""
""blur"",""2"",""10021""
""focus"",""2"",""11530""
""blur"",""3"",""20157""
""focus"",""3"",""20329""
""blur"",""3"",""21215""
""focus"",""3"",""21257""
""blur"",""6"",""45468""
""focus"",""6"",""49675""
""blur"",""23"",""214392""
""focus"",""23"",""218558""
""blur"",""23"",""225552""
""focus"",""23"",""284953""
""blur"",""23"",""298114""
""focus"",""23"",""298143""
""blur"",""23"",""299475""
""focus"",""23"",""301063""
""blur"",""29"",""586595""
""focus"",""29"",""591326""
","""event"",""trial"",""time""
""blur"",""0"",""0""
""blur"",""1"",""207""
""blur"",""2"",""10021""
""blur"",""3"",""20157""
""blur"",""3"",""21215""
""blur"",""6"",""45468""
""blur"",""23"",""214392""
""blur"",""23"",""225552""
""blur"",""23"",""298114""
""blur"",""23"",""299475""
""blur"",""29"",""586595""
","""event"",""trial"",""time""
""focus"",""0"",""0""
""focus"",""1"",""1601""
""focus"",""2"",""11530""
""focus"",""3"",""20329""
""focus"",""3"",""21257""
""focus"",""6"",""49675""
""focus"",""23"",""218558""
""focus"",""23"",""284953""
""focus"",""23"",""298143""
""focus"",""23"",""301063""
""focus"",""29"",""591326""
","""event"",""trial"",""time""
""fullscreenenter"",""1"",""3664""
","""event"",""trial"",""time""
""fullscreenexit"",""2"",""5502""
",,5718.3,run_exp/static/audio/clip_17_q3_ask.m4a,,,,,,,1,,,,,,,,,,,,,,,,,,
quiz_q_3_fb_correct,58,706285,0.0-20.0-0.0,"""event"",""trial"",""time""
""blur"",""0"",""0""
""focus"",""0"",""0""
""blur"",""1"",""207""
""focus"",""1"",""1601""
""fullscreenenter"",""1"",""3664""
""fullscreenexit"",""2"",""5502""
""blur"",""2"",""10021""
""focus"",""2"",""11530""
""blur"",""3"",""20157""
""focus"",""3"",""20329""
""blur"",""3"",""21215""
""focus"",""3"",""21257""
""blur"",""6"",""45468""
""focus"",""6"",""49675""
""blur"",""23"",""214392""
""focus"",""23"",""218558""
""blur"",""23"",""225552""
""focus"",""23"",""284953""
""blur"",""23"",""298114""
""focus"",""23"",""298143""
""blur"",""23"",""299475""
""focus"",""23"",""301063""
""blur"",""29"",""586595""
""focus"",""29"",""591326""
","""event"",""trial"",""time""
""blur"",""0"",""0""
""blur"",""1"",""207""
""blur"",""2"",""10021""
""blur"",""3"",""20157""
""blur"",""3"",""21215""
""blur"",""6"",""45468""
""blur"",""23"",""214392""
""blur"",""23"",""225552""
""blur"",""23"",""298114""
""blur"",""23"",""299475""
""blur"",""29"",""586595""
","""event"",""trial"",""time""
""focus"",""0"",""0""
""focus"",""1"",""1601""
""focus"",""2"",""11530""
""focus"",""3"",""20329""
""focus"",""3"",""21257""
""focus"",""6"",""49675""
""focus"",""23"",""218558""
""focus"",""23"",""284953""
""focus"",""23"",""298143""
""focus"",""23"",""301063""
""focus"",""29"",""591326""
","""event"",""trial"",""time""
""fullscreenenter"",""1"",""3664""
","""event"",""trial"",""time""
""fullscreenexit"",""2"",""5502""
",,null,run_exp/static/audio/clip_18_q3_correct.m4a,null,<p> That’s correct. You press the letter L to travel to a new planet.</p>,,,,,,,,,,,,,,,,,,,,,,,
quiz_q_4_ask,59,710746,0.0-20.0-1.0,"""event"",""trial"",""time""
""blur"",""0"",""0""
""focus"",""0"",""0""
""blur"",""1"",""207""
""focus"",""1"",""1601""
""fullscreenenter"",""1"",""3664""
""fullscreenexit"",""2"",""5502""
""blur"",""2"",""10021""
""focus"",""2"",""11530""
""blur"",""3"",""20157""
""focus"",""3"",""20329""
""blur"",""3"",""21215""
""focus"",""3"",""21257""
""blur"",""6"",""45468""
""focus"",""6"",""49675""
""blur"",""23"",""214392""
""focus"",""23"",""218558""
""blur"",""23"",""225552""
""focus"",""23"",""284953""
""blur"",""23"",""298114""
""focus"",""23"",""298143""
""blur"",""23"",""299475""
""focus"",""23"",""301063""
""blur"",""29"",""586595""
""focus"",""29"",""591326""
","""event"",""trial"",""time""
""blur"",""0"",""0""
""blur"",""1"",""207""
""blur"",""2"",""10021""
""blur"",""3"",""20157""
""blur"",""3"",""21215""
""blur"",""6"",""45468""
""blur"",""23"",""214392""
""blur"",""23"",""225552""
""blur"",""23"",""298114""
""blur"",""23"",""299475""
""blur"",""29"",""586595""
","""event"",""trial"",""time""
""focus"",""0"",""0""
""focus"",""1"",""1601""
""focus"",""2"",""11530""
""focus"",""3"",""20329""
""focus"",""3"",""21257""
""focus"",""6"",""49675""
""focus"",""23"",""218558""
""focus"",""23"",""284953""
""focus"",""23"",""298143""
""focus"",""23"",""301063""
""focus"",""29"",""591326""
","""event"",""trial"",""time""
""fullscreenenter"",""1"",""3664""
","""event"",""trial"",""time""
""fullscreenexit"",""2"",""5502""
",,4454.3,run_exp/static/audio/clip_20_q4_ask.m4a,,,,,,,0,,,,,,,,,,,,,,,,,,
quiz_q_4_fb_correct,60,716105,0.0-21.0-0.0,"""event"",""trial"",""time""
""blur"",""0"",""0""
""focus"",""0"",""0""
""blur"",""1"",""207""
""focus"",""1"",""1601""
""fullscreenenter"",""1"",""3664""
""fullscreenexit"",""2"",""5502""
""blur"",""2"",""10021""
""focus"",""2"",""11530""
""blur"",""3"",""20157""
""focus"",""3"",""20329""
""blur"",""3"",""21215""
""focus"",""3"",""21257""
""blur"",""6"",""45468""
""focus"",""6"",""49675""
""blur"",""23"",""214392""
""focus"",""23"",""218558""
""blur"",""23"",""225552""
""focus"",""23"",""284953""
""blur"",""23"",""298114""
""focus"",""23"",""298143""
""blur"",""23"",""299475""
""focus"",""23"",""301063""
""blur"",""29"",""586595""
""focus"",""29"",""591326""
","""event"",""trial"",""time""
""blur"",""0"",""0""
""blur"",""1"",""207""
""blur"",""2"",""10021""
""blur"",""3"",""20157""
""blur"",""3"",""21215""
""blur"",""6"",""45468""
""blur"",""23"",""214392""
""blur"",""23"",""225552""
""blur"",""23"",""298114""
""blur"",""23"",""299475""
""blur"",""29"",""586595""
","""event"",""trial"",""time""
""focus"",""0"",""0""
""focus"",""1"",""1601""
""focus"",""2"",""11530""
""focus"",""3"",""20329""
""focus"",""3"",""21257""
""focus"",""6"",""49675""
""focus"",""23"",""218558""
""focus"",""23"",""284953""
""focus"",""23"",""298143""
""focus"",""23"",""301063""
""focus"",""29"",""591326""
","""event"",""trial"",""time""
""fullscreenenter"",""1"",""3664""
","""event"",""trial"",""time""
""fullscreenexit"",""2"",""5502""
",,null,run_exp/static/audio/clip_21_q4_correct.m4a,null,<p> That’s correct. The more you dig on a planet the fewer gems you’ll get with each dig. </p>,,,,,,,,,,,,,,,,,,,,,,,
quiz_q_5_ask,61,722270,0.0-21.0-1.0,"""event"",""trial"",""time""
""blur"",""0"",""0""
""focus"",""0"",""0""
""blur"",""1"",""207""
""focus"",""1"",""1601""
""fullscreenenter"",""1"",""3664""
""fullscreenexit"",""2"",""5502""
""blur"",""2"",""10021""
""focus"",""2"",""11530""
""blur"",""3"",""20157""
""focus"",""3"",""20329""
""blur"",""3"",""21215""
""focus"",""3"",""21257""
""blur"",""6"",""45468""
""focus"",""6"",""49675""
""blur"",""23"",""214392""
""focus"",""23"",""218558""
""blur"",""23"",""225552""
""focus"",""23"",""284953""
""blur"",""23"",""298114""
""focus"",""23"",""298143""
""blur"",""23"",""299475""
""focus"",""23"",""301063""
""blur"",""29"",""586595""
""focus"",""29"",""591326""
","""event"",""trial"",""time""
""blur"",""0"",""0""
""blur"",""1"",""207""
""blur"",""2"",""10021""
""blur"",""3"",""20157""
""blur"",""3"",""21215""
""blur"",""6"",""45468""
""blur"",""23"",""214392""
""blur"",""23"",""225552""
""blur"",""23"",""298114""
""blur"",""23"",""299475""
""blur"",""29"",""586595""
","""event"",""trial"",""time""
""focus"",""0"",""0""
""focus"",""1"",""1601""
""focus"",""2"",""11530""
""focus"",""3"",""20329""
""focus"",""3"",""21257""
""focus"",""6"",""49675""
""focus"",""23"",""218558""
""focus"",""23"",""284953""
""focus"",""23"",""298143""
""focus"",""23"",""301063""
""focus"",""29"",""591326""
","""event"",""trial"",""time""
""fullscreenenter"",""1"",""3664""
","""event"",""trial"",""time""
""fullscreenexit"",""2"",""5502""
",,6157.7,run_exp/static/audio/clip_23_q5_ask.m4a,,,,,,,1,,,,,,,,,,,,,,,,,,
quiz_q_5_fb_correct,62,727325,0.0-22.0-0.0,"""event"",""trial"",""time""
""blur"",""0"",""0""
""focus"",""0"",""0""
""blur"",""1"",""207""
""focus"",""1"",""1601""
""fullscreenenter"",""1"",""3664""
""fullscreenexit"",""2"",""5502""
""blur"",""2"",""10021""
""focus"",""2"",""11530""
""blur"",""3"",""20157""
""focus"",""3"",""20329""
""blur"",""3"",""21215""
""focus"",""3"",""21257""
""blur"",""6"",""45468""
""focus"",""6"",""49675""
""blur"",""23"",""214392""
""focus"",""23"",""218558""
""blur"",""23"",""225552""
""focus"",""23"",""284953""
""blur"",""23"",""298114""
""focus"",""23"",""298143""
""blur"",""23"",""299475""
""focus"",""23"",""301063""
""blur"",""29"",""586595""
""focus"",""29"",""591326""
","""event"",""trial"",""time""
""blur"",""0"",""0""
""blur"",""1"",""207""
""blur"",""2"",""10021""
""blur"",""3"",""20157""
""blur"",""3"",""21215""
""blur"",""6"",""45468""
""blur"",""23"",""214392""
""blur"",""23"",""225552""
""blur"",""23"",""298114""
""blur"",""23"",""299475""
""blur"",""29"",""586595""
","""event"",""trial"",""time""
""focus"",""0"",""0""
""focus"",""1"",""1601""
""focus"",""2"",""11530""
""focus"",""3"",""20329""
""focus"",""3"",""21257""
""focus"",""6"",""49675""
""focus"",""23"",""218558""
""focus"",""23"",""284953""
""focus"",""23"",""298143""
""focus"",""23"",""301063""
""focus"",""29"",""591326""
","""event"",""trial"",""time""
""fullscreenenter"",""1"",""3664""
","""event"",""trial"",""time""
""fullscreenexit"",""2"",""5502""
",,null,run_exp/static/audio/clip_24_q5_correct.m4a,null,<p> That’s correct. The alien tells you nothing about how much treasure is on the planet.</p>,,,,,,,,,,,,,,,,,,,,,,,
quiz_correct,63,730825,0.0-23.0-0.0,"""event"",""trial"",""time""
""blur"",""0"",""0""
""focus"",""0"",""0""
""blur"",""1"",""207""
""focus"",""1"",""1601""
""fullscreenenter"",""1"",""3664""
""fullscreenexit"",""2"",""5502""
""blur"",""2"",""10021""
""focus"",""2"",""11530""
""blur"",""3"",""20157""
""focus"",""3"",""20329""
""blur"",""3"",""21215""
""focus"",""3"",""21257""
""blur"",""6"",""45468""
""focus"",""6"",""49675""
""blur"",""23"",""214392""
""focus"",""23"",""218558""
""blur"",""23"",""225552""
""focus"",""23"",""284953""
""blur"",""23"",""298114""
""focus"",""23"",""298143""
""blur"",""23"",""299475""
""focus"",""23"",""301063""
""blur"",""29"",""586595""
""focus"",""29"",""591326""
","""event"",""trial"",""time""
""blur"",""0"",""0""
""blur"",""1"",""207""
""blur"",""2"",""10021""
""blur"",""3"",""20157""
""blur"",""3"",""21215""
""blur"",""6"",""45468""
""blur"",""23"",""214392""
