trial_type,trial_index,time_elapsed,internal_node_id,interactions,blur_events,focus_events,fullscreenenter_events,fullscreenexit_events,success,rt,stimulus,key_press,prompt,subject_id,participant_id,age,gender,button_pressed,next_reward,animation_sequence,responses,planet,curr_prac_trial,n_prac_rounds,alien,aliens,reward_received,decay_rate_actual,decay_rate_exp,time_in_block,block_num,prt,last_trial_on_planet,button_html,bonus,num_failures
pavlovia,0,2,0.0-0.0,"""event"",""trial"",""time""
""fullscreenenter"",""1"",""5492""
","
","
","""event"",""trial"",""time""
""fullscreenenter"",""1"",""5492""
","
",,,,,,,,,,,,,,,,,,,,,,,,,,,,
fullscreen,1,6475,0.0-1.0,"""event"",""trial"",""time""
""fullscreenenter"",""1"",""5492""
","
","
","""event"",""trial"",""time""
""fullscreenenter"",""1"",""5492""
","
",TRUE,,,,,,,,,,,,,,,,,,,,,,,,,,,
instruc_welcome,2,16288,0.0-2.0,"""event"",""trial"",""time""
""fullscreenenter"",""1"",""5492""
","
","
","""event"",""trial"",""time""
""fullscreenenter"",""1"",""5492""
","
",,null,run_exp/static/audio/clip_1_welcome.m4a,null,"<p>Howdy! In this experiment, you’ll be an explorer traveling through space to collect space treasure.</p><p>Your mission is to collect as much treasure as possible.</p><br><br><p><img src='run_exp/static/images/task_images/opening_img-01.jpg' height='300' width='auto'></p>",10238,3980,25,Male,,,,,,,,,,,,,,,,,,,
audio-keyboard-response,3,32919,0.0-3.0,"""event"",""trial"",""time""
""fullscreenenter"",""1"",""5492""
","
","
","""event"",""trial"",""time""
""fullscreenenter"",""1"",""5492""
","
",,null,run_exp/static/audio/clip_2_move.m4a,null,,,,,,,,,,,,,,,,,,,,,,,,
welcome_dec,4,36476,0.0-4.0,"""event"",""trial"",""time""
""fullscreenenter"",""1"",""5492""
","
","
","""event"",""trial"",""time""
""fullscreenenter"",""1"",""5492""
","
",,3548.4,"<p>Howdy! In this experiment, you’ll be an explorer traveling through space to collect space treasure.</p><p>Your mission is to collect as much treasure as possible.</p><br><br><p><img src='run_exp/static/images/task_images/opening_img-01.jpg' height='300' width='auto'></p>",,,,,,,1,,,,,,,,,,,,,,,,,,
html-keyboard-response,5,37853,0.0-5.0,"""event"",""trial"",""time""
""fullscreenenter"",""1"",""5492""
","
","
","""event"",""trial"",""time""
""fullscreenenter"",""1"",""5492""
","
",,1375.9,"<p>Howdy! In this experiment, you’ll be an explorer traveling through space to collect space treasure.</p><p>Your mission is to collect as much treasure as possible.</p><br><br><p><img src='run_exp/static/images/task_images/opening_img-01.jpg' height='300' width='auto'></p><button class=""jspsych-html-btn-unchosen""><img src=""run_exp/static/images/task_images/planet-01.jpg"" height=""50""></button><button class=""jspsych-html-btn-chosen""><img src=""run_exp/static/images/task_images/planet-02.jpg"" height=""50""></button><p><b>[press the space bar to lock in your answer]<b><br></p>",32,,,,,,,,,,,,,,,,,,,,,,,,
instruc_goal,6,47956,0.0-6.0-0.0,"""event"",""trial"",""time""
""fullscreenenter"",""1"",""5492""
","
","
","""event"",""trial"",""time""
""fullscreenenter"",""1"",""5492""
","
",,null,run_exp/static/audio/clip_3_goal.m4a,null,"<p> As a space explorer, you’ll visit different planets to dig for space treasure, these pink gems.</p> <p> The more treasure you dig up, the more bonus money you’ll win! </p><br><br><p><img src='run_exp/static/images/task_images/pink_gem.jpg' height='300' width='auto'></p>",,,,,,,,,,,,,,,,,,,,,,,
instruc_goal,7,62816,0.0-6.0-1.0,"""event"",""trial"",""time""
""fullscreenenter"",""1"",""5492""
","
","
","""event"",""trial"",""time""
""fullscreenenter"",""1"",""5492""
","
",,14856.9,"<p> As a space explorer, you’ll visit different planets to dig for space treasure, these pink gems.</p> <p> The more treasure you dig up, the more bonus money you’ll win! </p><br><br><p><img src='run_exp/static/images/task_images/pink_gem.jpg' height='300' width='auto'></p>",,,,,,,1,,,,,,,,,,,,,,,,,,
html-keyboard-response,8,64285,0.0-6.0-2.0,"""event"",""trial"",""time""
""fullscreenenter"",""1"",""5492""
","
","
","""event"",""trial"",""time""
""fullscreenenter"",""1"",""5492""
","
",,1467.5,"<p> As a space explorer, you’ll visit different planets to dig for space treasure, these pink gems.</p> <p> The more treasure you dig up, the more bonus money you’ll win! </p><br><br><p><img src='run_exp/static/images/task_images/pink_gem.jpg' height='300' width='auto'></p><button class=""jspsych-html-btn-unchosen""><img src=""run_exp/static/images/task_images/planet-01.jpg"" height=""50""></button><button class=""jspsych-html-btn-chosen""><img src=""run_exp/static/images/task_images/planet-02.jpg"" height=""50""></button><p><b>[press the space bar to lock in your answer]<b><br></p>",32,,,,,,,,,,,,,,,,,,,,,,,,
instruc_dig,9,80359,0.0-7.0-0.0,"""event"",""trial"",""time""
""fullscreenenter"",""1"",""5492""
","
","
","""event"",""trial"",""time""
""fullscreenenter"",""1"",""5492""
","
",,null,run_exp/static/audio/clip_4_dig.m4a,null,,,,,,,100,,,,,,,,,,,,,,,,,
instruc_dig_try,10,81919,0.0-7.0-1.0,"""event"",""trial"",""time""
""fullscreenenter"",""1"",""5492""
","
","
","""event"",""trial"",""time""
""fullscreenenter"",""1"",""5492""
","
",,1558.4,"<p> When you’ve arrived at a new planet, you will dig once. </p> <p>Then, you get to decide if you want to stay on the planet and dig again or travel to a new planet and dig there.</p> <p> To stay and dig, press the letter <strong>‘A’</strong> on your keyboard. Try pressing it now! </p><p><img src='run_exp/static/images/task_images/land.jpg'  height='700' width='auto'></p>",65,"<p> When you’ve arrived at a new planet, you will dig once. </p> <p>Then, you get to decide if you want to stay on the planet and dig again or travel to a new planet and dig there.</p> <p> To stay and dig, press the letter <strong>‘A’</strong> on your keyboard. Try pressing it now! </p><p><img src='run_exp/static/images/task_images/land.jpg'  height='700' width='auto'></p>",,,,,,100,,,,,,,,,,,,,,,,,
dig_prac,11,83939,0.0-7.0-2.0,"""event"",""trial"",""time""
""fullscreenenter"",""1"",""5492""
","
","
","""event"",""trial"",""time""
""fullscreenenter"",""1"",""5492""
","
",,,,,,,,,,,,"[{""stimulus"":""run_exp/static/images/task_images/dig.jpg"",""time"":0.5},{""stimulus"":""run_exp/static/images/task_images/land.jpg"",""time"":675.2999999523163},{""stimulus"":""run_exp/static/images/task_images/dig.jpg"",""time"":1337.7999999523163}]",[],,,,,,,,,,,,,,,
instruc_travel,12,120211,0.0-7.0-3.0,"""event"",""trial"",""time""
""fullscreenenter"",""1"",""5492""
","
","
","""event"",""trial"",""time""
""fullscreenenter"",""1"",""5492""
","
",,null,run_exp/static/audio/clip_5_travel.m4a,null,"<p>Every time you dig up gems, there are less gems on the planet, so the more you dig on a planet the fewer gems you’ll get with each dig.</p><p>When gems are running low, you may want to travel to a new planet. </p> <p>  Planets are very far apart in this galaxy, so it will take some time to travel between them. </p> <br><p>There are lots and lots of planets for you to visit, so you won’t be able to return to any planets you’ve seen before. </p><br><p>To leave this planet and travel to a new one, press the letter <strong>‘L’</strong> on your keyboard. Try pressing it now! </p><p><img src='run_exp/static/images/task_images/rocket-01.jpg'  height='600' width='auto'></p>",,,,,,,,,,,,,,,,,,,,,,,
instruc_travel_try,13,124706,0.0-7.0-4.0,"""event"",""trial"",""time""
""fullscreenenter"",""1"",""5492""
","
","
","""event"",""trial"",""time""
""fullscreenenter"",""1"",""5492""
","
",,4493.3,"<p>Every time you dig up gems, there are less gems on the planet, so the more you dig on a planet the fewer gems you’ll get with each dig.</p><p>When gems are running low, you may want to travel to a new planet. </p> <p>  Planets are very far apart in this galaxy, so it will take some time to travel between them. </p> <br><p>There are lots and lots of planets for you to visit, so you won’t be able to return to any planets you’ve seen before. </p><br><p>To leave this planet and travel to a new one, press the letter <strong>‘L’</strong> on your keyboard. Try pressing it now! </p><p><img src='run_exp/static/images/task_images/rocket-01.jpg'  height='600' width='auto'></p>",76,"<p>Every time you dig up gems, there are less gems on the planet, so the more you dig on a planet the fewer gems you’ll get with each dig.</p><p>When gems are running low, you may want to travel to a new planet. </p> <p>  Planets are very far apart in this galaxy, so it will take some time to travel between them. </p> <br><p>There are lots and lots of planets for you to visit, so you won’t be able to return to any planets you’ve seen before. </p><br><p>To leave this planet and travel to a new one, press the letter <strong>‘L’</strong> on your keyboard. Try pressing it now! </p><p><img src='run_exp/static/images/task_images/rocket-01.jpg'  height='600' width='auto'></p>",,,,,,,,,,,,,,,,,,,,,,,
travel_prac,14,134716,0.0-7.0-5.0,"""event"",""trial"",""time""
""fullscreenenter"",""1"",""5492""
","
","
","""event"",""trial"",""time""
""fullscreenenter"",""1"",""5492""
","
",,,,,,,,,,,,"[{""stimulus"":""run_exp/static/images/task_images/rocket-01.jpg"",""time"":0.5},{""stimulus"":""run_exp/static/images/task_images/rocket-02.jpg"",""time"":1119.1000000238419},{""stimulus"":""run_exp/static/images/task_images/rocket-03.jpg"",""time"":2230.100000023842},{""stimulus"":""run_exp/static/images/task_images/rocket-04.jpg"",""time"":3342.4000000953674},{""stimulus"":""run_exp/static/images/task_images/rocket-05.jpg"",""time"":4454.700000047684},{""stimulus"":""run_exp/static/images/task_images/rocket-06.jpg"",""time"":5558.600000023842},{""stimulus"":""run_exp/static/images/task_images/rocket-07.jpg"",""time"":6671},{""stimulus"":""run_exp/static/images/task_images/rocket-08.jpg"",""time"":7782.400000095367},{""stimulus"":""run_exp/static/images/task_images/rocket-09.jpg"",""time"":8894.600000023842}]",[],0,,,,,,,,,,,,,,
instruc_alien_greet,15,161946,0.0-7.0-6.0,"""event"",""trial"",""time""
""fullscreenenter"",""1"",""5492""
","
","
","""event"",""trial"",""time""
""fullscreenenter"",""1"",""5492""
","
",,null,run_exp/static/audio/clip_6_alien.m4a,null,"<p>When you arrive at a new planet, the alien who owns the treasure mine on that planet will greet you!</p><p>The better an alien takes care of their mine the easier it is to dig for gems. Some aliens take better care of their mine than others. So, you won’t get exactly the same amount of gems on each planet.</p><p>What the alien looks like does not tell you anything about how many gems there are on the planet.</p><br><p><img src=""run_exp/static/images/task_images/aliens/instructions_aliens/planet/alien_planet-1.jpg""  height=""600"" width=""auto""></p>",,,,,,,,,,,,,,,,,,,,,,,
instruc_alien_greet,16,167264,0.0-7.0-7.0,"""event"",""trial"",""time""
""fullscreenenter"",""1"",""5492""
","
","
","""event"",""trial"",""time""
""fullscreenenter"",""1"",""5492""
","
",,5313.2,"<p>When you arrive at a new planet, the alien who owns the treasure mine on that planet will greet you!</p><p>The better an alien takes care of their mine the easier it is to dig for gems. Some aliens take better care of their mine than others. So, you won’t get exactly the same amount of gems on each planet.</p><p>What the alien looks like does not tell you anything about how many gems there are on the planet.</p><br><p><img src=""run_exp/static/images/task_images/aliens/instructions_aliens/planet/alien_planet-1.jpg""  height=""600"" width=""auto""></p>",,,,,,,1,,,,,,,,,,,,,,,,,,
html-keyboard-response,17,168898,0.0-7.0-8.0,"""event"",""trial"",""time""
""fullscreenenter"",""1"",""5492""
","
","
","""event"",""trial"",""time""
""fullscreenenter"",""1"",""5492""
","
",,1632.4,"<p>When you arrive at a new planet, the alien who owns the treasure mine on that planet will greet you!</p><p>The better an alien takes care of their mine the easier it is to dig for gems. Some aliens take better care of their mine than others. So, you won’t get exactly the same amount of gems on each planet.</p><p>What the alien looks like does not tell you anything about how many gems there are on the planet.</p><br><p><img src=""run_exp/static/images/task_images/aliens/instructions_aliens/planet/alien_planet-1.jpg""  height=""600"" width=""auto""></p><button class=""jspsych-html-btn-unchosen""><img src=""run_exp/static/images/task_images/planet-01.jpg"" height=""50""></button><button class=""jspsych-html-btn-chosen""><img src=""run_exp/static/images/task_images/planet-02.jpg"" height=""50""></button><p><b>[press the space bar to lock in your answer]<b><br></p>",32,,,,,,,,,,,,,,,,,,,,,,,,
time_out,18,180007,0.0-8.0-0.0,"""event"",""trial"",""time""
""fullscreenenter"",""1"",""5492""
","
","
","""event"",""trial"",""time""
""fullscreenenter"",""1"",""5492""
","
",,null,run_exp/static/audio/clip_7_timeout.m4a,null,"<p>If you don't make your choice fast enough, you’ll have to wait a few seconds before you can make another one.</p><p>You can’t dig for more gems or travel to new planets. You just have to sit and wait.</p><br><p><img src='run_exp/static/images/task_images/time_out.jpg'  height='600' width='auto'></p>",,,,,,,,,,,,,,,,,,,,,,,
time_out,19,200457,0.0-8.0-1.0,"""event"",""trial"",""time""
""fullscreenenter"",""1"",""5492""
","
","
","""event"",""trial"",""time""
""fullscreenenter"",""1"",""5492""
","
",,20446.7,"<p>If you don't make your choice fast enough, you’ll have to wait a few seconds before you can make another one.</p><p>You can’t dig for more gems or travel to new planets. You just have to sit and wait.</p><br><p><img src='run_exp/static/images/task_images/time_out.jpg'  height='600' width='auto'></p>",,,,,,,1,,,,,,,,,,,,,,,,,,
html-keyboard-response,20,210397,0.0-8.0-2.0,"""event"",""trial"",""time""
""fullscreenenter"",""1"",""5492""
","
","
","""event"",""trial"",""time""
""fullscreenenter"",""1"",""5492""
","
",,9936.8,"<p>If you don't make your choice fast enough, you’ll have to wait a few seconds before you can make another one.</p><p>You can’t dig for more gems or travel to new planets. You just have to sit and wait.</p><br><p><img src='run_exp/static/images/task_images/time_out.jpg'  height='600' width='auto'></p><button class=""jspsych-html-btn-unchosen""><img src=""run_exp/static/images/task_images/planet-01.jpg"" height=""50""></button><button class=""jspsych-html-btn-chosen""><img src=""run_exp/static/images/task_images/planet-02.jpg"" height=""50""></button><p><b>[press the space bar to lock in your answer]<b><br></p>",32,,,,,,,,,,,,,,,,,,,,,,,,
instruc_break,21,226114,0.0-9.0-0.0,"""event"",""trial"",""time""
""fullscreenenter"",""1"",""5492""
","
","
","""event"",""trial"",""time""
""fullscreenenter"",""1"",""5492""
","
",,null,run_exp/static/audio/clip_8_break.m4a,null,"<p> After digging and traveling for a while, you’ll be able to take a break at home base. </p><p>The game will last 20 minutes no matter what.</p><p>You will visit home base every 5 minutes, so, you will visit home base three times during the game.</p><br><p><img src='run_exp/static/images/task_images/home_base.jpg' height='600' width='auto'></p>",,,,,,,,,,,,,,,,,,,,,,,
instruc_break,22,249045,0.0-9.0-1.0,"""event"",""trial"",""time""
""fullscreenenter"",""1"",""5492""
","
","
","""event"",""trial"",""time""
""fullscreenenter"",""1"",""5492""
","
",,22926.9,"<p> After digging and traveling for a while, you’ll be able to take a break at home base. </p><p>The game will last 20 minutes no matter what.</p><p>You will visit home base every 5 minutes, so, you will visit home base three times during the game.</p><br><p><img src='run_exp/static/images/task_images/home_base.jpg' height='600' width='auto'></p>",,,,,,,1,,,,,,,,,,,,,,,,,,
html-keyboard-response,23,251383,0.0-9.0-2.0,"""event"",""trial"",""time""
""fullscreenenter"",""1"",""5492""
","
","
","""event"",""trial"",""time""
""fullscreenenter"",""1"",""5492""
","
",,2335.2,"<p> After digging and traveling for a while, you’ll be able to take a break at home base. </p><p>The game will last 20 minutes no matter what.</p><p>You will visit home base every 5 minutes, so, you will visit home base three times during the game.</p><br><p><img src='run_exp/static/images/task_images/home_base.jpg' height='600' width='auto'></p><button class=""jspsych-html-btn-unchosen""><img src=""run_exp/static/images/task_images/planet-01.jpg"" height=""50""></button><button class=""jspsych-html-btn-chosen""><img src=""run_exp/static/images/task_images/planet-02.jpg"" height=""50""></button><p><b>[press the space bar to lock in your answer]<b><br></p>",32,,,,,,,,,,,,,,,,,,,,,,,,
instruc_prac_game,24,261568,0.0-10.0-0.0,"""event"",""trial"",""time""
""fullscreenenter"",""1"",""5492""
","
","
","""event"",""trial"",""time""
""fullscreenenter"",""1"",""5492""
","
",,null,run_exp/static/audio/clip_9_practice.m4a,null,"<p> Are you ready to play a practice game? </p> <p>In this practice game, you'll be digging up barrels of gems. But, in the real game, you'll be digging up the gems themselves. </p>",,,,,,,,,,,,,,,,,,,,,,,
html-button-response,25,266041,0.0-10.0-1.0,"""event"",""trial"",""time""
""fullscreenenter"",""1"",""5492""
","
","
","""event"",""trial"",""time""
""fullscreenenter"",""1"",""5492""
","
",,4470.3,"<p> Are you ready to play a practice game? </p> <p>In this practice game, you'll be digging up barrels of gems. But, in the real game, you'll be digging up the gems themselves. </p>",,,,,,,0,,,,,,,,,,,,,,,,,,
alien_welcome_prac,26,271053,0.0-11.0-0.0,"""event"",""trial"",""time""
""fullscreenenter"",""1"",""5492""
","
","
","""event"",""trial"",""time""
""fullscreenenter"",""1"",""5492""
","
",,null,run_exp/static/images/task_images/aliens/practice_aliens/planet/alien_planet-5.jpg,null,,,,,,,,,,,,,,,,,,,,,,,,
land_prac,27,271564,0.0-11.0-1.0,"""event"",""trial"",""time""
""fullscreenenter"",""1"",""5492""
","
","
","""event"",""trial"",""time""
""fullscreenenter"",""1"",""5492""
","
",,null,run_exp/static/images/task_images/land.jpg,null,,,,,,,97,,,0,,,,,,,,,,,,,,
dig_prac,28,273573,0.0-11.0-2.0,"""event"",""trial"",""time""
""fullscreenenter"",""1"",""5492""
","
","
","""event"",""trial"",""time""
""fullscreenenter"",""1"",""5492""
","
",,,,,,,,,,,,"[{""stimulus"":""run_exp/static/images/task_images/dig.jpg"",""time"":0.6999999284744263},{""stimulus"":""run_exp/static/images/task_images/land.jpg"",""time"":678},{""stimulus"":""run_exp/static/images/task_images/dig.jpg"",""time"":1342.1000000238419}]",[],,,,,,,,,,,,,,,
harvest_prac,29,274580,0.0-11.0-3.0,"""event"",""trial"",""time""
""fullscreenenter"",""1"",""5492""
","
","
","""event"",""trial"",""time""
""fullscreenenter"",""1"",""5492""
","
",,null,run_exp/static/images/task_images/barrel_text.jpg,null,,,,,,,,,,,,,,,,,,,,,,,,
decision_prac,30,277193,0.0-11.0-4.0,"""event"",""trial"",""time""
""fullscreenenter"",""1"",""5492""
","
","
","""event"",""trial"",""time""
""fullscreenenter"",""1"",""5492""
","
",,2610,run_exp/static/images/task_images/land.jpg,65,,,,,,,,,,,1,,,,,,,,,,,,,
dig_prac,31,279206,0.0-12.0-0.0,"""event"",""trial"",""time""
""fullscreenenter"",""1"",""5492""
","
","
","""event"",""trial"",""time""
""fullscreenenter"",""1"",""5492""
","
",,,,,,,,,,,,"[{""stimulus"":""run_exp/static/images/task_images/dig.jpg"",""time"":0.09999990463256836},{""stimulus"":""run_exp/static/images/task_images/land.jpg"",""time"":671.3999999761581},{""stimulus"":""run_exp/static/images/task_images/dig.jpg"",""time"":1336.6999999284744}]",[],,,,,,,,,,,,,,,
harvest_prac,32,280212,0.0-12.0-1.0,"""event"",""trial"",""time""
""fullscreenenter"",""1"",""5492""
","
","
","""event"",""trial"",""time""
""fullscreenenter"",""1"",""5492""
","
",,null,run_exp/static/images/task_images/barrel_text.jpg,null,,,,,,,,,,,,,,,,,,,,,,,,
decision_prac,33,280513,0.0-12.0-2.0,"""event"",""trial"",""time""
""fullscreenenter"",""1"",""5492""
","
","
","""event"",""trial"",""time""
""fullscreenenter"",""1"",""5492""
","
",,298.1,run_exp/static/images/task_images/land.jpg,65,,,,,,,,,,,2,,,,,,,,,,,,,
dig_prac,34,282525,0.0-13.0-0.0,"""event"",""trial"",""time""
""fullscreenenter"",""1"",""5492""
","
","
","""event"",""trial"",""time""
""fullscreenenter"",""1"",""5492""
","
",,,,,,,,,,,,"[{""stimulus"":""run_exp/static/images/task_images/dig.jpg"",""time"":0.20000004768371582},{""stimulus"":""run_exp/static/images/task_images/land.jpg"",""time"":672.1000000238419},{""stimulus"":""run_exp/static/images/task_images/dig.jpg"",""time"":1336.1000000238419}]",[],,,,,,,,,,,,,,,
harvest_prac,35,283532,0.0-13.0-1.0,"""event"",""trial"",""time""
""fullscreenenter"",""1"",""5492""
","
","
","""event"",""trial"",""time""
""fullscreenenter"",""1"",""5492""
","
",,null,run_exp/static/images/task_images/barrel_text.jpg,null,,,,,,,,,,,,,,,,,,,,,,,,
decision_prac,36,286279,0.0-13.0-2.0,"""event"",""trial"",""time""
""fullscreenenter"",""1"",""5492""
","
","
","""event"",""trial"",""time""
""fullscreenenter"",""1"",""5492""
","
",,2745.4,run_exp/static/images/task_images/land.jpg,76,,,,,,,,,,,3,,,,,,,,,,,,,
travel,37,293540,0.0-14.0-0.0,"""event"",""trial"",""time""
""fullscreenenter"",""1"",""5492""
","
","
","""event"",""trial"",""time""
""fullscreenenter"",""1"",""5492""
","
",,,,,,,,,,,,"[{""stimulus"":""run_exp/static/images/task_images/rocket-01.jpg"",""time"":0.2999999523162842},{""stimulus"":""run_exp/static/images/task_images/rocket-02.jpg"",""time"":809.5},{""stimulus"":""run_exp/static/images/task_images/rocket-03.jpg"",""time"":1618.1999999284744},{""stimulus"":""run_exp/static/images/task_images/rocket-04.jpg"",""time"":2426.1999999284744},{""stimulus"":""run_exp/static/images/task_images/rocket-05.jpg"",""time"":3234.6999999284744},{""stimulus"":""run_exp/static/images/task_images/rocket-06.jpg"",""time"":4033.899999976158},{""stimulus"":""run_exp/static/images/task_images/rocket-07.jpg"",""time"":4841.899999976158},{""stimulus"":""run_exp/static/images/task_images/rocket-08.jpg"",""time"":5649.5},{""stimulus"":""run_exp/static/images/task_images/rocket-09.jpg"",""time"":6458}]",[],0,,,,,,,,,,,,,,
alien_welcome_prac,38,298552,0.0-14.0-1.0,"""event"",""trial"",""time""
""fullscreenenter"",""1"",""5492""
","
","
","""event"",""trial"",""time""
""fullscreenenter"",""1"",""5492""
","
",,null,run_exp/static/images/task_images/aliens/practice_aliens/planet/alien_planet-4.jpg,null,,,,,,,,,,,,,,,,,,,,,,,,
land_prac,39,299061,0.0-14.0-2.0,"""event"",""trial"",""time""
""fullscreenenter"",""1"",""5492""
","
","
","""event"",""trial"",""time""
""fullscreenenter"",""1"",""5492""
","
",,null,run_exp/static/images/task_images/land.jpg,null,,,,,,,104,,,0,,,,,,,,,,,,,,
dig_prac,40,301068,0.0-14.0-3.0,"""event"",""trial"",""time""
""fullscreenenter"",""1"",""5492""
","
","
","""event"",""trial"",""time""
""fullscreenenter"",""1"",""5492""
","
",,,,,,,,,,,,"[{""stimulus"":""run_exp/static/images/task_images/dig.jpg"",""time"":0.5},{""stimulus"":""run_exp/static/images/task_images/land.jpg"",""time"":676.2999999523163},{""stimulus"":""run_exp/static/images/task_images/dig.jpg"",""time"":1341.3999999761581}]",[],,,,,,,,,,,,,,,
harvest_prac,41,302077,0.0-14.0-4.0,"""event"",""trial"",""time""
""fullscreenenter"",""1"",""5492""
","
","
","""event"",""trial"",""time""
""fullscreenenter"",""1"",""5492""
","
",,null,run_exp/static/images/task_images/barrel_text.jpg,null,,,,,,,,,,,,,,,,,,,,,,,,
decision_prac,42,302674,0.0-14.0-5.0,"""event"",""trial"",""time""
""fullscreenenter"",""1"",""5492""
","
","
","""event"",""trial"",""time""
""fullscreenenter"",""1"",""5492""
","
",,595.2,run_exp/static/images/task_images/land.jpg,65,,,,,,,,,,,4,,,,,,,,,,,,,
dig_prac,43,304684,0.0-15.0-0.0,"""event"",""trial"",""time""
""fullscreenenter"",""1"",""5492""
","
","
","""event"",""trial"",""time""
""fullscreenenter"",""1"",""5492""
","
",,,,,,,,,,,,"[{""stimulus"":""run_exp/static/images/task_images/dig.jpg"",""time"":0.19999992847442627},{""stimulus"":""run_exp/static/images/task_images/land.jpg"",""time"":671.5},{""stimulus"":""run_exp/static/images/task_images/dig.jpg"",""time"":1343.7999999523163}]",[],,,,,,,,,,,,,,,
harvest_prac,44,305692,0.0-15.0-1.0,"""event"",""trial"",""time""
""fullscreenenter"",""1"",""5492""
","
","
","""event"",""trial"",""time""
""fullscreenenter"",""1"",""5492""
","
",,null,run_exp/static/images/task_images/barrel_text.jpg,null,,,,,,,,,,,,,,,,,,,,,,,,
decision_prac,45,306650,0.0-15.0-2.0,"""event"",""trial"",""time""
""fullscreenenter"",""1"",""5492""
","
","
","""event"",""trial"",""time""
""fullscreenenter"",""1"",""5492""
","
",,956.0999999,run_exp/static/images/task_images/land.jpg,65,,,,,,,,,,,,1,,,,,,,,,,,,
quiz_instruc,46,320740,0.0-16.0-0.0,"""event"",""trial"",""time""
""fullscreenenter"",""1"",""5492""
","
","
","""event"",""trial"",""time""
""fullscreenenter"",""1"",""5492""
","
",,14085.6,run_exp/static/audio/clip_10_quiz.m4a,,,,,,,0,,,,,,,,,,,,,,,,,,
instruc_repeat,47,363546,0.0-16.0-1.0,"""event"",""trial"",""time""
""fullscreenenter"",""1"",""5492""
","
","
","""event"",""trial"",""time""
""fullscreenenter"",""1"",""5492""
","
",,null,"<p> Are you ready to play a practice game? </p> <p>In this practice game, you'll be digging up barrels of gems. But, in the real game, you'll be digging up the gems themselves. </p>",null,"<p>In this game, your goal is to collect as many gems as you can. That’s how you will win bonus money. </p> <p>The entire game will last 20 minutes no matter how many gems you collect or how many planets you visit. </p><p>To stay on a planet and dig again, press the letter A on your keyboard. To leave for a new planet, press the letter L.</p><p>The more you dig on a planet, the fewer gems you’ll get with each dig which is why you might consider leaving for a new planet. </p><p>When you arrive at a new planet, you’ll be greeted by an alien. What the alien looks like does not tell you anything about how much treasure is on the planet. </p>",,,,,,,,,,,,,,,,,,,,,,,
instruc_repeat_continue,48,365943,0.0-16.0-2.0,"""event"",""trial"",""time""
""fullscreenenter"",""1"",""5492""
","
","
","""event"",""trial"",""time""
""fullscreenenter"",""1"",""5492""
","
",,2392.1,"<p> Are you ready to play a practice game? </p> <p>In this practice game, you'll be digging up barrels of gems. But, in the real game, you'll be digging up the gems themselves. </p>",,,,,,,0,,,,,,,,,,,,,,,,,,
quiz_q_1_ask,49,377066,0.0-16.0-3.0,"""event"",""trial"",""time""
""fullscreenenter"",""1"",""5492""
","
","
","""event"",""trial"",""time""
""fullscreenenter"",""1"",""5492""
","
",,11119.9,run_exp/static/audio/clip_11_q1_ask.m4a,,,,,,,2,,,,,,,,,,,,,,,,,,
quiz_q_1_fb_correct,50,380896,0.0-17.0-0.0,"""event"",""trial"",""time""
""fullscreenenter"",""1"",""5492""
","
","
","""event"",""trial"",""time""
""fullscreenenter"",""1"",""5492""
","
",,null,run_exp/static/audio/clip_12_q1_correct.m4a,null,<p>That’s correct. You win extra money by collecting more gems.</p>,,,,,,,,,,,,,,,,,,,,,,,
quiz_q_2_ask,51,386549,0.0-17.0-1.0,"""event"",""trial"",""time""
""fullscreenenter"",""1"",""5492""
","
","
","""event"",""trial"",""time""
""fullscreenenter"",""1"",""5492""
","
",,5649.3,run_exp/static/audio/clip_14_q2_ask.m4a,,,,,,,1,,,,,,,,,,,,,,,,,,
quiz_q_2_fb_correct,52,390581,0.0-18.0-0.0,"""event"",""trial"",""time""
""fullscreenenter"",""1"",""5492""
","
","
","""event"",""trial"",""time""
""fullscreenenter"",""1"",""5492""
","
",,null,run_exp/static/audio/clip_15_q2_correct.m4a,null,<p>That’s correct. The experiment is 20 minutes no matter what.</p>,,,,,,,,,,,,,,,,,,,,,,,
quiz_q_3_ask,53,393519,0.0-18.0-1.0,"""event"",""trial"",""time""
""fullscreenenter"",""1"",""5492""
","
","
","""event"",""trial"",""time""
""fullscreenenter"",""1"",""5492""
","
",,2934.6,run_exp/static/audio/clip_17_q3_ask.m4a,,,,,,,1,,,,,,,,,,,,,,,,,,
quiz_q_3_fb_correct,54,397493,0.0-19.0-0.0,"""event"",""trial"",""time""
""fullscreenenter"",""1"",""5492""
","
","
","""event"",""trial"",""time""
""fullscreenenter"",""1"",""5492""
","
",,null,run_exp/static/audio/clip_18_q3_correct.m4a,null,<p> That’s correct. You press the letter L to travel to a new planet.</p>,,,,,,,,,,,,,,,,,,,,,,,
quiz_q_4_ask,55,426044,0.0-19.0-1.0,"""event"",""trial"",""time""
""fullscreenenter"",""1"",""5492""
","
","
","""event"",""trial"",""time""
""fullscreenenter"",""1"",""5492""
","
",,28546.8,run_exp/static/audio/clip_20_q4_ask.m4a,,,,,,,0,,,,,,,,,,,,,,,,,,
quiz_q_4_fb_correct,56,431377,0.0-20.0-0.0,"""event"",""trial"",""time""
""fullscreenenter"",""1"",""5492""
","
","
","""event"",""trial"",""time""
""fullscreenenter"",""1"",""5492""
","
",,null,run_exp/static/audio/clip_21_q4_correct.m4a,null,<p> That’s correct. The more you dig on a planet the fewer gems you’ll get with each dig. </p>,,,,,,,,,,,,,,,,,,,,,,,
quiz_q_5_ask,57,443664,0.0-20.0-1.0,"""event"",""trial"",""time""
""fullscreenenter"",""1"",""5492""
","
","
","""event"",""trial"",""time""
""fullscreenenter"",""1"",""5492""
","
",,12283.6,run_exp/static/audio/clip_23_q5_ask.m4a,,,,,,,1,,,,,,,,,,,,,,,,,,
quiz_q_5_fb_correct,58,448657,0.0-21.0-0.0,"""event"",""trial"",""time""
""fullscreenenter"",""1"",""5492""
","
","
","""event"",""trial"",""time""
""fullscreenenter"",""1"",""5492""
","
",,null,run_exp/static/audio/clip_24_q5_correct.m4a,null,<p> That’s correct. The alien tells you nothing about how much treasure is on the planet.</p>,,,,,,,,,,,,,,,,,,,,,,,
quiz_correct,59,452113,0.0-22.0-0.0,"""event"",""trial"",""time""
""fullscreenenter"",""1"",""5492""
","
","
","""event"",""trial"",""time""
""fullscreenenter"",""1"",""5492""
","
",,null,run_exp/static/audio/clip_26_correct_quiz.m4a,null,,,,,,,,,,,,,,,,,,,,,,,,
quiz_correct_continue,60,457038,0.0-22.0-1.0,"""event"",""trial"",""time""
""fullscreenenter"",""1"",""5492""
","
","
","""event"",""trial"",""time""
""fullscreenenter"",""1"",""5492""
","
",,4922.4,<p>Good job! You're now ready to move on to the real game!</p>,,,,,,,0,,,,,,,,,,,,,,,,,,
audio-keyboard-response,61,467153,0.0-22.0-2.0,"""event"",""trial"",""time""
""fullscreenenter"",""1"",""5492""
","
","
","""event"",""trial"",""time""
""fullscreenenter"",""1"",""5492""
","
",,null,run_exp/static/audio/clip_28_real_game.m4a,null,,,,,,,,,,,,,,,,,,,,,,,,
instruc_begin_exp_contine,62,551095,0.0-22.0-3.0,"""event"",""trial"",""time""
""fullscreenenter"",""1"",""5492""
","
","
","""event"",""trial"",""time""
""fullscreenenter"",""1"",""5492""
","
",,83939.3,"<p>Now that you know how  to dig for space treasure and travel to new planets,you can start exploring! </p><p>Do you want to go over the instructions again or get started with the real game?</p>",,,,,,,1,,,,,,1,,,,,,,,,,,,
alien_welcome,63,556102,0.0-23.0-0.0,"""event"",""trial"",""time""
""fullscreenenter"",""1"",""5492""
","
","
","""event"",""trial"",""time""
""fullscreenenter"",""1"",""5492""
","
",,null,run_exp/static/images/task_images/aliens/old_aliens/planet/alien_planet-70.jpg,null,,,,,,,,,,,,,70,"70,56,35,40,39,64,78,52,9,34,67,42,7,44,30,45,22,8,54,12,6,11,10,25,69,26,65,68,4,14,17,16,59,24,80,31,77,76,48,28,47,75,50,5,63",,,,,,,,,,
land,64,556615,0.0-23.0-1.0,"""event"",""trial"",""time""
""fullscreenenter"",""1"",""5492""
","
","
","""event"",""trial"",""time""
""fullscreenenter"",""1"",""5492""
","
",,null,run_exp/static/images/task_images/land.jpg,null,,,,,,,99,,,1,,,,,,,,,,,,,,
dig,65,558622,0.0-23.0-2.0,"""event"",""trial"",""time""
""fullscreenenter"",""1"",""5492""
","
","
","""event"",""trial"",""time""
""fullscreenenter"",""1"",""5492""
","
",,,,,,,,,,,,"[{""stimulus"":""run_exp/static/images/task_images/dig.jpg"",""time"":0.6000000238418579},{""stimulus"":""run_exp/static/images/task_images/land.jpg"",""time"":675.8000000715256},{""stimulus"":""run_exp/static/images/task_images/dig.jpg"",""time"":1340.8000000715256}]",[],1,,,,,,,,,,,,,,
harvest,66,559631,0.0-23.0-3.0,"""event"",""trial"",""time""
""fullscreenenter"",""1"",""5492""
","
","
","""event"",""trial"",""time""
""fullscreenenter"",""1"",""5492""
","
",,null,run_exp/static/images/task_images/gems/99.jpg,null,,,,,,,24,,,1,,,,,99,0.243016341,0.242424242,,,,,,,
decision,67,560181,0.0-23.0-4.0,"""event"",""trial"",""time""
""fullscreenenter"",""1"",""5492""
","
","
","""event"",""trial"",""time""
""fullscreenenter"",""1"",""5492""
","
",,547.1,run_exp/static/images/task_images/land.jpg,65,,,,,,,24,,,1,,,,,,,,9083,1,0,FALSE,,,
dig,68,562646,0.0-24.0-0.0,"""event"",""trial"",""time""
""fullscreenenter"",""1"",""5492""
","
","
","""event"",""trial"",""time""
""fullscreenenter"",""1"",""5492""
","
",,,,,,,,,,,,"[{""stimulus"":""run_exp/static/images/task_images/dig.jpg"",""time"":0.09999990463256836},{""stimulus"":""run_exp/static/images/task_images/land.jpg"",""time"":821.6999999284744},{""stimulus"":""run_exp/static/images/task_images/dig.jpg"",""time"":1637.6999999284744}]",[],1,,,,,,,,,,,,,,
harvest,69,563656,0.0-24.0-1.0,"""event"",""trial"",""time""
""fullscreenenter"",""1"",""5492""
","
","
","""event"",""trial"",""time""
""fullscreenenter"",""1"",""5492""
","
",,null,run_exp/static/images/task_images/gems/24.jpg,null,,,,,,,5,,,1,,,,,24,0.212343077,0.208333333,,,,,,,
decision,70,564159,0.0-24.0-2.0,"""event"",""trial"",""time""
""fullscreenenter"",""1"",""5492""
","
","
","""event"",""trial"",""time""
""fullscreenenter"",""1"",""5492""
","
",,499.1,run_exp/static/images/task_images/land.jpg,76,,,,,,,5,,,1,,,,,,,,13062,1,1,TRUE,,,
travel,71,573662,0.0-25.0-0.0,"""event"",""trial"",""time""
""fullscreenenter"",""1"",""5492""
","
","
","""event"",""trial"",""time""
""fullscreenenter"",""1"",""5492""
","
",,,,,,,,,,,,"[{""stimulus"":""run_exp/static/images/task_images/rocket-01.jpg"",""time"":0},{""stimulus"":""run_exp/static/images/task_images/rocket-02.jpg"",""time"":1060.5},{""stimulus"":""run_exp/static/images/task_images/rocket-03.jpg"",""time"":2116.8000000715256},{""stimulus"":""run_exp/static/images/task_images/rocket-04.jpg"",""time"":3172.9000000953674},{""stimulus"":""run_exp/static/images/task_images/rocket-05.jpg"",""time"":4228.300000071526},{""stimulus"":""run_exp/static/images/task_images/rocket-06.jpg"",""time"":5284.600000023842},{""stimulus"":""run_exp/static/images/task_images/rocket-07.jpg"",""time"":6332.300000071526},{""stimulus"":""run_exp/static/images/task_images/rocket-08.jpg"",""time"":7389.200000047684},{""stimulus"":""run_exp/static/images/task_images/rocket-09.jpg"",""time"":8444.100000023842}]",[],1,,,,,,,,,,,,,,
alien_welcome,72,578670,0.0-25.0-1.0,"""event"",""trial"",""time""
""fullscreenenter"",""1"",""5492""
","
","
","""event"",""trial"",""time""
""fullscreenenter"",""1"",""5492""
","
",,null,run_exp/static/images/task_images/aliens/old_aliens/planet/alien_planet-56.jpg,null,,,,,,,,,,,,,56,"70,56,35,40,39,64,78,52,9,34,67,42,7,44,30,45,22,8,54,12,6,11,10,25,69,26,65,68,4,14,17,16,59,24,80,31,77,76,48,28,47,75,50,5,63",,,,,,,,,,
land,73,579182,0.0-25.0-2.0,"""event"",""trial"",""time""
""fullscreenenter"",""1"",""5492""
","
","
","""event"",""trial"",""time""
""fullscreenenter"",""1"",""5492""
","
",,null,run_exp/static/images/task_images/land.jpg,null,,,,,,,98,,,2,,,,,,,,,,,,,,
dig,74,581190,0.0-25.0-3.0,"""event"",""trial"",""time""
""fullscreenenter"",""1"",""5492""
","
","
","""event"",""trial"",""time""
""fullscreenenter"",""1"",""5492""
","
",,,,,,,,,,,,"[{""stimulus"":""run_exp/static/images/task_images/dig.jpg"",""time"":0.5},{""stimulus"":""run_exp/static/images/task_images/land.jpg"",""time"":670.6999999284744},{""stimulus"":""run_exp/static/images/task_images/dig.jpg"",""time"":1342.8999999761581}]",[],2,,,,,,,,,,,,,,
harvest,75,582198,0.0-25.0-4.0,"""event"",""trial"",""time""
""fullscreenenter"",""1"",""5492""
","
","
","""event"",""trial"",""time""
""fullscreenenter"",""1"",""5492""
","
",,null,run_exp/static/images/task_images/gems/98.jpg,null,,,,,,,24,,,2,,,,,98,0.248533458,0.244897959,,,,,,,
decision,76,582750,0.0-25.0-5.0,"""event"",""trial"",""time""
""fullscreenenter"",""1"",""5492""
","
","
","""event"",""trial"",""time""
""fullscreenenter"",""1"",""5492""
","
",,549.5999999,run_exp/static/images/task_images/land.jpg,65,,,,,,,24,,,2,,,,,,,,31652,1,0,FALSE,,,
dig,77,585207,0.0-26.0-0.0,"""event"",""trial"",""time""
""fullscreenenter"",""1"",""5492""
","
","
","""event"",""trial"",""time""
""fullscreenenter"",""1"",""5492""
","
",,,,,,,,,,,,"[{""stimulus"":""run_exp/static/images/task_images/dig.jpg"",""time"":0.19999992847442627},{""stimulus"":""run_exp/static/images/task_images/land.jpg"",""time"":821.3999999761581},{""stimulus"":""run_exp/static/images/task_images/dig.jpg"",""time"":1636.6999999284744}]",[],2,,,,,,,,,,,,,,
harvest,78,586214,0.0-26.0-1.0,"""event"",""trial"",""time""
""fullscreenenter"",""1"",""5492""
","
","
","""event"",""trial"",""time""
""fullscreenenter"",""1"",""5492""
","
",,null,run_exp/static/images/task_images/gems/24.jpg,null,,,,,,,5,,,2,,,,,24,0.207179552,0.208333333,,,,,,,
decision,79,587317,0.0-26.0-2.0,"""event"",""trial"",""time""
""fullscreenenter"",""1"",""5492""
","
","
","""event"",""trial"",""time""
""fullscreenenter"",""1"",""5492""
","
",,1099.4,run_exp/static/images/task_images/land.jpg,65,,,,,,,5,,,2,,,,,,,,36219,1,1,FALSE,,,
dig,80,589223,0.0-27.0-0.0,"""event"",""trial"",""time""
""fullscreenenter"",""1"",""5492""
","
","
","""event"",""trial"",""time""
""fullscreenenter"",""1"",""5492""
","
",,,,,,,,,,,,"[{""stimulus"":""run_exp/static/images/task_images/dig.jpg"",""time"":0.10000002384185791},{""stimulus"":""run_exp/static/images/task_images/land.jpg"",""time"":637.7999999523163},{""stimulus"":""run_exp/static/images/task_images/dig.jpg"",""time"":1269.3999999761581}]",[],2,,,,,,,,,,,,,,
harvest,81,590230,0.0-27.0-1.0,"""event"",""trial"",""time""
""fullscreenenter"",""1"",""5492""
","
","
","""event"",""trial"",""time""
""fullscreenenter"",""1"",""5492""
","
",,null,run_exp/static/images/task_images/gems/5.jpg,null,,,,,,,1,,,2,,,,,5,0.212535781,0.2,,,,,,,
decision,82,590724,0.0-27.0-2.0,"""event"",""trial"",""time""
""fullscreenenter"",""1"",""5492""
","
","
","""event"",""trial"",""time""
""fullscreenenter"",""1"",""5492""
","
",,491.9,run_exp/static/images/task_images/land.jpg,76,,,,,,,1,,,2,,,,,,,,39626,1,2,TRUE,,,
travel,83,600238,0.0-28.0-0.0,"""event"",""trial"",""time""
""fullscreenenter"",""1"",""5492""
","
","
","""event"",""trial"",""time""
""fullscreenenter"",""1"",""5492""
","
",,,,,,,,,,,,"[{""stimulus"":""run_exp/static/images/task_images/rocket-01.jpg"",""time"":0.10000002384185791},{""stimulus"":""run_exp/static/images/task_images/rocket-02.jpg"",""time"":1063.2999999523163},{""stimulus"":""run_exp/static/images/task_images/rocket-03.jpg"",""time"":2119.5},{""stimulus"":""run_exp/static/images/task_images/rocket-04.jpg"",""time"":3175},{""stimulus"":""run_exp/static/images/task_images/rocket-05.jpg"",""time"":4231.399999976158},{""stimulus"":""run_exp/static/images/task_images/rocket-06.jpg"",""time"":5287.200000047684},{""stimulus"":""run_exp/static/images/task_images/rocket-07.jpg"",""time"":6343.399999976158},{""stimulus"":""run_exp/static/images/task_images/rocket-08.jpg"",""time"":7399.600000023842},{""stimulus"":""run_exp/static/images/task_images/rocket-09.jpg"",""time"":8455.299999952316}]",[],2,,,,,,,,,,,,,,
alien_welcome,84,605246,0.0-28.0-1.0,"""event"",""trial"",""time""
""fullscreenenter"",""1"",""5492""
","
","
","""event"",""trial"",""time""
""fullscreenenter"",""1"",""5492""
","
",,null,run_exp/static/images/task_images/aliens/old_aliens/planet/alien_planet-35.jpg,null,,,,,,,,,,,,,35,"70,56,35,40,39,64,78,52,9,34,67,42,7,44,30,45,22,8,54,12,6,11,10,25,69,26,65,68,4,14,17,16,59,24,80,31,77,76,48,28,47,75,50,5,63",,,,,,,,,,
land,85,605750,0.0-28.0-2.0,"""event"",""trial"",""time""
""fullscreenenter"",""1"",""5492""
","
","
","""event"",""trial"",""time""
""fullscreenenter"",""1"",""5492""
","
",,null,run_exp/static/images/task_images/land.jpg,null,,,,,,,106,,,3,,,,,,,,,,,,,,
dig,86,607756,0.0-28.0-3.0,"""event"",""trial"",""time""
""fullscreenenter"",""1"",""5492""
","
","
","""event"",""trial"",""time""
""fullscreenenter"",""1"",""5492""
","
",,,,,,,,,,,,"[{""stimulus"":""run_exp/static/images/task_images/dig.jpg"",""time"":0.5999999046325684},{""stimulus"":""run_exp/static/images/task_images/land.jpg"",""time"":678.0999999046326},{""stimulus"":""run_exp/static/images/task_images/dig.jpg"",""time"":1341.0999999046326}]",[],3,,,,,,,,,,,,,,
harvest,87,608763,0.0-28.0-4.0,"""event"",""trial"",""time""
""fullscreenenter"",""1"",""5492""
","
","
","""event"",""trial"",""time""
""fullscreenenter"",""1"",""5492""
","
",,null,run_exp/static/images/task_images/gems/106.jpg,null,,,,,,,52,,,3,,,,,106,0.494476924,0.490566038,,,,,,,
decision,88,609020,0.0-28.0-5.0,"""event"",""trial"",""time""
""fullscreenenter"",""1"",""5492""
","
","
","""event"",""trial"",""time""
""fullscreenenter"",""1"",""5492""
","
",,255.9,run_exp/static/images/task_images/land.jpg,65,,,,,,,52,,,3,,,,,,,,57923,1,0,FALSE,,,
dig,89,611769,0.0-29.0-0.0,"""event"",""trial"",""time""
""fullscreenenter"",""1"",""5492""
","
","
","""event"",""trial"",""time""
""fullscreenenter"",""1"",""5492""
","
",,,,,,,,,,,,"[{""stimulus"":""run_exp/static/images/task_images/dig.jpg"",""time"":0.20000004768371582},{""stimulus"":""run_exp/static/images/task_images/land.jpg"",""time"":922.7999999523163},{""stimulus"":""run_exp/static/images/task_images/dig.jpg"",""time"":1835}]",[],3,,,,,,,,,,,,,,
harvest,90,612776,0.0-29.0-1.0,"""event"",""trial"",""time""
""fullscreenenter"",""1"",""5492""
","
","
","""event"",""trial"",""time""
""fullscreenenter"",""1"",""5492""
","
",,null,run_exp/static/images/task_images/gems/52.jpg,null,,,,,,,29,,,3,,,,,52,0.552574046,0.557692308,,,,,,,
decision,91,612880,0.0-29.0-2.0,"""event"",""trial"",""time""
""fullscreenenter"",""1"",""5492""
","
","
","""event"",""trial"",""time""
""fullscreenenter"",""1"",""5492""
","
",,101.1,run_exp/static/images/task_images/land.jpg,65,,,,,,,29,,,3,,,,,,,,61782,1,1,FALSE,,,
dig,92,615783,0.0-30.0-0.0,"""event"",""trial"",""time""
""fullscreenenter"",""1"",""5492""
","
","
","""event"",""trial"",""time""
""fullscreenenter"",""1"",""5492""
","
",,,,,,,,,,,,"[{""stimulus"":""run_exp/static/images/task_images/dig.jpg"",""time"":0.2999999523162842},{""stimulus"":""run_exp/static/images/task_images/land.jpg"",""time"":972.8999999761581},{""stimulus"":""run_exp/static/images/task_images/dig.jpg"",""time"":1941.1000000238419}]",[],3,,,,,,,,,,,,,,
harvest,93,616790,0.0-30.0-1.0,"""event"",""trial"",""time""
""fullscreenenter"",""1"",""5492""
","
","
","""event"",""trial"",""time""
""fullscreenenter"",""1"",""5492""
","
",,null,run_exp/static/images/task_images/gems/29.jpg,null,,,,,,,15,,,3,,,,,29,0.516932392,0.517241379,,,,,,,
decision,94,617559,0.0-30.0-2.0,"""event"",""trial"",""time""
""fullscreenenter"",""1"",""5492""
","
","
","""event"",""trial"",""time""
""fullscreenenter"",""1"",""5492""
","
",,767.3000001,run_exp/static/images/task_images/land.jpg,76,,,,,,,15,,,3,,,,,,,,66461,1,2,TRUE,,,
travel,95,626794,0.0-31.0-0.0,"""event"",""trial"",""time""
""fullscreenenter"",""1"",""5492""
","
","
","""event"",""trial"",""time""
""fullscreenenter"",""1"",""5492""
","
",,,,,,,,,,,,"[{""stimulus"":""run_exp/static/images/task_images/rocket-01.jpg"",""time"":0.30000007152557373},{""stimulus"":""run_exp/static/images/task_images/rocket-02.jpg"",""time"":1033.8000000715256},{""stimulus"":""run_exp/static/images/task_images/rocket-03.jpg"",""time"":2058.100000023842},{""stimulus"":""run_exp/static/images/task_images/rocket-04.jpg"",""time"":3081.899999976158},{""stimulus"":""run_exp/static/images/task_images/rocket-05.jpg"",""time"":4106.899999976158},{""stimulus"":""run_exp/static/images/task_images/rocket-06.jpg"",""time"":5130.800000071526},{""stimulus"":""run_exp/static/images/task_images/rocket-07.jpg"",""time"":6155},{""stimulus"":""run_exp/static/images/task_images/rocket-08.jpg"",""time"":7179.700000047684},{""stimulus"":""run_exp/static/images/task_images/rocket-09.jpg"",""time"":8210.200000047684}]",[],3,,,,,,,,,,,,,,
alien_welcome,96,631801,0.0-31.0-1.0,"""event"",""trial"",""time""
""fullscreenenter"",""1"",""5492""
","
","
","""event"",""trial"",""time""
""fullscreenenter"",""1"",""5492""
","
",,null,run_exp/static/images/task_images/aliens/old_aliens/planet/alien_planet-40.jpg,null,,,,,,,,,,,,,40,"70,56,35,40,39,64,78,52,9,34,67,42,7,44,30,45,22,8,54,12,6,11,10,25,69,26,65,68,4,14,17,16,59,24,80,31,77,76,48,28,47,75,50,5,63",,,,,,,,,,
land,97,632305,0.0-31.0-2.0,"""event"",""trial"",""time""
""fullscreenenter"",""1"",""5492""
","
","
","""event"",""trial"",""time""
""fullscreenenter"",""1"",""5492""
","
",,null,run_exp/static/images/task_images/land.jpg,null,,,,,,,101,,,4,,,,,,,,,,,,,,
dig,98,634312,0.0-31.0-3.0,"""event"",""trial"",""time""
""fullscreenenter"",""1"",""5492""
","
","
","""event"",""trial"",""time""
""fullscreenenter"",""1"",""5492""
","
",,,,,,,,,,,,"[{""stimulus"":""run_exp/static/images/task_images/dig.jpg"",""time"":0.3999999761581421},{""stimulus"":""run_exp/static/images/task_images/land.jpg"",""time"":676.5},{""stimulus"":""run_exp/static/images/task_images/dig.jpg"",""time"":1340.5}]",[],4,,,,,,,,,,,,,,
harvest,99,635321,0.0-31.0-4.0,"""event"",""trial"",""time""
""fullscreenenter"",""1"",""5492""
","
","
","""event"",""trial"",""time""
""fullscreenenter"",""1"",""5492""
","
",,null,run_exp/static/images/task_images/gems/101.jpg,null,,,,,,,47,,,4,,,,,101,0.464453509,0.465346535,,,,,,,
decision,100,635705,0.0-31.0-5.0,"""event"",""trial"",""time""
""fullscreenenter"",""1"",""5492""
","
","
","""event"",""trial"",""time""
""fullscreenenter"",""1"",""5492""
","
",,382.3000001,run_exp/static/images/task_images/land.jpg,65,,,,,,,47,,,4,,,,,,,,84607,1,0,FALSE,,,
dig,101,638328,0.0-32.0-0.0,"""event"",""trial"",""time""
""fullscreenenter"",""1"",""5492""
","
","
","""event"",""trial"",""time""
""fullscreenenter"",""1"",""5492""
","
",,,,,,,,,,,,"[{""stimulus"":""run_exp/static/images/task_images/dig.jpg"",""time"":0.20000004768371582},{""stimulus"":""run_exp/static/images/task_images/land.jpg"",""time"":876},{""stimulus"":""run_exp/static/images/task_images/dig.jpg"",""time"":1748.3000000715256}]",[],4,,,,,,,,,,,,,,
harvest,102,639336,0.0-32.0-1.0,"""event"",""trial"",""time""
""fullscreenenter"",""1"",""5492""
","
","
","""event"",""trial"",""time""
""fullscreenenter"",""1"",""5492""
","
",,null,run_exp/static/images/task_images/gems/47.jpg,null,,,,,,,23,,,4,,,,,47,0.488697833,0.489361702,,,,,,,
decision,103,640625,0.0-32.0-2.0,"""event"",""trial"",""time""
""fullscreenenter"",""1"",""5492""
","
","
","""event"",""trial"",""time""
""fullscreenenter"",""1"",""5492""
","
",,1287.1,run_exp/static/images/task_images/land.jpg,65,,,,,,,23,,,4,,,,,,,,89528,1,1,FALSE,,,
dig,104,642344,0.0-33.0-0.0,"""event"",""trial"",""time""
""fullscreenenter"",""1"",""5492""
","
","
","""event"",""trial"",""time""
""fullscreenenter"",""1"",""5492""
","
",,,,,,,,,,,,"[{""stimulus"":""run_exp/static/images/task_images/dig.jpg"",""time"":0.20000004768371582},{""stimulus"":""run_exp/static/images/task_images/land.jpg"",""time"":578.7999999523163},{""stimulus"":""run_exp/static/images/task_images/dig.jpg"",""time"":1146.5}]",[],4,,,,,,,,,,,,,,
harvest,105,643351,0.0-33.0-1.0,"""event"",""trial"",""time""
""fullscreenenter"",""1"",""5492""
","
","
","""event"",""trial"",""time""
""fullscreenenter"",""1"",""5492""
","
",,null,run_exp/static/images/task_images/gems/23.jpg,null,,,,,,,11,,,4,,,,,23,0.470292381,0.47826087,,,,,,,
decision,106,643571,0.0-33.0-2.0,"""event"",""trial"",""time""
""fullscreenenter"",""1"",""5492""
","
","
","""event"",""trial"",""time""
""fullscreenenter"",""1"",""5492""
","
",,216.9,run_exp/static/images/task_images/land.jpg,76,,,,,,,11,,,4,,,,,,,,92473,1,2,TRUE,,,
travel,107,653366,0.0-34.0-0.0,"""event"",""trial"",""time""
""fullscreenenter"",""1"",""5492""
","
","
","""event"",""trial"",""time""
""fullscreenenter"",""1"",""5492""
","
",,,,,,,,,,,,"[{""stimulus"":""run_exp/static/images/task_images/rocket-01.jpg"",""time"":0.20000004768371582},{""stimulus"":""run_exp/static/images/task_images/rocket-02.jpg"",""time"":1097.2000000476837},{""stimulus"":""run_exp/static/images/task_images/rocket-03.jpg"",""time"":2177.2000000476837},{""stimulus"":""run_exp/static/images/task_images/rocket-04.jpg"",""time"":3265},{""stimulus"":""run_exp/static/images/task_images/rocket-05.jpg"",""time"":4353.200000047684},{""stimulus"":""run_exp/static/images/task_images/rocket-06.jpg"",""time"":5441},{""stimulus"":""run_exp/static/images/task_images/rocket-07.jpg"",""time"":6529.700000047684},{""stimulus"":""run_exp/static/images/task_images/rocket-08.jpg"",""time"":7617.100000023842},{""stimulus"":""run_exp/static/images/task_images/rocket-09.jpg"",""time"":8705.399999976158}]",[],4,,,,,,,,,,,,,,
alien_welcome,108,658375,0.0-34.0-1.0,"""event"",""trial"",""time""
""fullscreenenter"",""1"",""5492""
","
","
","""event"",""trial"",""time""
""fullscreenenter"",""1"",""5492""
","
",,null,run_exp/static/images/task_images/aliens/old_aliens/planet/alien_planet-39.jpg,null,,,,,,,,,,,,,39,"70,56,35,40,39,64,78,52,9,34,67,42,7,44,30,45,22,8,54,12,6,11,10,25,69,26,65,68,4,14,17,16,59,24,80,31,77,76,48,28,47,75,50,5,63",,,,,,,,,,
land,109,658887,0.0-34.0-2.0,"""event"",""trial"",""time""
""fullscreenenter"",""1"",""5492""
","
","
","""event"",""trial"",""time""
""fullscreenenter"",""1"",""5492""
","
",,null,run_exp/static/images/task_images/land.jpg,null,,,,,,,97,,,5,,,,,,,,,,,,,,
dig,110,660894,0.0-34.0-3.0,"""event"",""trial"",""time""
""fullscreenenter"",""1"",""5492""
","
","
","""event"",""trial"",""time""
""fullscreenenter"",""1"",""5492""
","
",,,,,,,,,,,,"[{""stimulus"":""run_exp/static/images/task_images/dig.jpg"",""time"":0.5},{""stimulus"":""run_exp/static/images/task_images/land.jpg"",""time"":678.2000000476837},{""stimulus"":""run_exp/static/images/task_images/dig.jpg"",""time"":1341}]",[],5,,,,,,,,,,,,,,
harvest,111,661903,0.0-34.0-4.0,"""event"",""trial"",""time""
""fullscreenenter"",""1"",""5492""
","
","
","""event"",""trial"",""time""
""fullscreenenter"",""1"",""5492""
","
",,null,run_exp/static/images/task_images/gems/97.jpg,null,,,,,,,54,,,5,,,,,97,0.555591935,0.556701031,,,,,,,
decision,112,662291,0.0-34.0-5.0,"""event"",""trial"",""time""
""fullscreenenter"",""1"",""5492""
","
","
","""event"",""trial"",""time""
""fullscreenenter"",""1"",""5492""
","
",,385.5,run_exp/static/images/task_images/land.jpg,65,,,,,,,54,,,5,,,,,,,,111193,1,0,FALSE,,,
dig,113,664910,0.0-35.0-0.0,"""event"",""trial"",""time""
""fullscreenenter"",""1"",""5492""
","
","
","""event"",""trial"",""time""
""fullscreenenter"",""1"",""5492""
","
",,,,,,,,,,,,"[{""stimulus"":""run_exp/static/images/task_images/dig.jpg"",""time"":0.19999992847442627},{""stimulus"":""run_exp/static/images/task_images/land.jpg"",""time"":873},{""stimulus"":""run_exp/static/images/task_images/dig.jpg"",""time"":1745}]",[],5,,,,,,,,,,,,,,
harvest,114,665918,0.0-35.0-1.0,"""event"",""trial"",""time""
""fullscreenenter"",""1"",""5492""
","
","
","""event"",""trial"",""time""
""fullscreenenter"",""1"",""5492""
","
",,null,run_exp/static/images/task_images/gems/54.jpg,null,,,,,,,31,,,5,,,,,54,0.569096507,0.574074074,,,,,,,
decision,115,666211,0.0-35.0-2.0,"""event"",""trial"",""time""
""fullscreenenter"",""1"",""5492""
","
","
","""event"",""trial"",""time""
""fullscreenenter"",""1"",""5492""
","
",,291.8000001,run_exp/static/images/task_images/land.jpg,65,,,,,,,31,,,5,,,,,,,,115114,1,1,FALSE,,,
dig,116,668926,0.0-36.0-0.0,"""event"",""trial"",""time""
""fullscreenenter"",""1"",""5492""
","
","
","""event"",""trial"",""time""
""fullscreenenter"",""1"",""5492""
","
",,,,,,,,,,,,"[{""stimulus"":""run_exp/static/images/task_images/dig.jpg"",""time"":0.20000004768371582},{""stimulus"":""run_exp/static/images/task_images/land.jpg"",""time"":911.4000000953674},{""stimulus"":""run_exp/static/images/task_images/dig.jpg"",""time"":1807.7000000476837}]",[],5,,,,,,,,,,,,,,
harvest,117,669934,0.0-36.0-1.0,"""event"",""trial"",""time""
""fullscreenenter"",""1"",""5492""
","
","
","""event"",""trial"",""time""
""fullscreenenter"",""1"",""5492""
","
",,null,run_exp/static/images/task_images/gems/31.jpg,null,,,,,,,15,,,5,,,,,31,0.485676,0.483870968,,,,,,,
decision,118,670725,0.0-36.0-2.0,"""event"",""trial"",""time""
""fullscreenenter"",""1"",""5492""
","
","
","""event"",""trial"",""time""
""fullscreenenter"",""1"",""5492""
","
",,788.3,run_exp/static/images/task_images/land.jpg,76,,,,,,,15,,,5,,,,,,,,119627,1,2,TRUE,,,
travel,119,679941,0.0-37.0-0.0,"""event"",""trial"",""time""
""fullscreenenter"",""1"",""5492""
","
","
","""event"",""trial"",""time""
""fullscreenenter"",""1"",""5492""
","
",,,,,,,,,,,,"[{""stimulus"":""run_exp/static/images/task_images/rocket-01.jpg"",""time"":0.10000002384185791},{""stimulus"":""run_exp/static/images/task_images/rocket-02.jpg"",""time"":1030.6999999284744},{""stimulus"":""run_exp/static/images/task_images/rocket-03.jpg"",""time"":2054.2999999523163},{""stimulus"":""run_exp/static/images/task_images/rocket-04.jpg"",""time"":3078.2999999523163},{""stimulus"":""run_exp/static/images/task_images/rocket-05.jpg"",""time"":4094.399999976158},{""stimulus"":""run_exp/static/images/task_images/rocket-06.jpg"",""time"":5118.600000023842},{""stimulus"":""run_exp/static/images/task_images/rocket-07.jpg"",""time"":6142.899999976158},{""stimulus"":""run_exp/static/images/task_images/rocket-08.jpg"",""time"":7166},{""stimulus"":""run_exp/static/images/task_images/rocket-09.jpg"",""time"":8189.299999952316}]",[],5,,,,,,,,,,,,,,
alien_welcome,120,684959,0.0-37.0-1.0,"""event"",""trial"",""time""
""fullscreenenter"",""1"",""5492""
","
","
","""event"",""trial"",""time""
""fullscreenenter"",""1"",""5492""
","
",,null,run_exp/static/images/task_images/aliens/old_aliens/planet/alien_planet-64.jpg,null,,,,,,,,,,,,,64,"70,56,35,40,39,64,78,52,9,34,67,42,7,44,30,45,22,8,54,12,6,11,10,25,69,26,65,68,4,14,17,16,59,24,80,31,77,76,48,28,47,75,50,5,63",,,,,,,,,,
land,121,685478,0.0-37.0-2.0,"""event"",""trial"",""time""
""fullscreenenter"",""1"",""5492""
","
","
","""event"",""trial"",""time""
""fullscreenenter"",""1"",""5492""
","
",,null,run_exp/static/images/task_images/land.jpg,null,,,,,,,104,,,6,,,,,,,,,,,,,,
dig,122,687486,0.0-37.0-3.0,"""event"",""trial"",""time""
""fullscreenenter"",""1"",""5492""
","
","
","""event"",""trial"",""time""
""fullscreenenter"",""1"",""5492""
","
",,,,,,,,,,,,"[{""stimulus"":""run_exp/static/images/task_images/dig.jpg"",""time"":0.7000000476837158},{""stimulus"":""run_exp/static/images/task_images/land.jpg"",""time"":677.3000000715256},{""stimulus"":""run_exp/static/images/task_images/dig.jpg"",""time"":1342.3000000715256}]",[],6,,,,,,,,,,,,,,
harvest,123,688494,0.0-37.0-4.0,"""event"",""trial"",""time""
""fullscreenenter"",""1"",""5492""
","
","
","""event"",""trial"",""time""
""fullscreenenter"",""1"",""5492""
","
",,null,run_exp/static/images/task_images/gems/104.jpg,null,,,,,,,74,,,6,,,,,104,0.708024117,0.711538462,,,,,,,
decision,124,689494,0.0-37.0-5.0,"""event"",""trial"",""time""
""fullscreenenter"",""1"",""5492""
","
","
","""event"",""trial"",""time""
""fullscreenenter"",""1"",""5492""
","
",,997.3,run_exp/static/images/task_images/land.jpg,65,,,,,,,74,,,6,,,,,,,,138396,1,0,FALSE,,,
dig,125,691502,0.0-38.0-0.0,"""event"",""trial"",""time""
""fullscreenenter"",""1"",""5492""
","
","
","""event"",""trial"",""time""
""fullscreenenter"",""1"",""5492""
","
",,,,,,,,,,,,"[{""stimulus"":""run_exp/static/images/task_images/dig.jpg"",""time"":0.2999999523162842},{""stimulus"":""run_exp/static/images/task_images/land.jpg"",""time"":677},{""stimulus"":""run_exp/static/images/task_images/dig.jpg"",""time"":1340.7999999523163}]",[],6,,,,,,,,,,,,,,
harvest,126,692510,0.0-38.0-1.0,"""event"",""trial"",""time""
""fullscreenenter"",""1"",""5492""
","
","
","""event"",""trial"",""time""
""fullscreenenter"",""1"",""5492""
","
",,null,run_exp/static/images/task_images/gems/74.jpg,null,,,,,,,58,,,6,,,,,74,0.779500748,0.783783784,,,,,,,
decision,127,692571,0.0-38.0-2.0,"""event"",""trial"",""time""
""fullscreenenter"",""1"",""5492""
","
","
","""event"",""trial"",""time""
""fullscreenenter"",""1"",""5492""
","
",,58.60000002,run_exp/static/images/task_images/land.jpg,65,,,,,,,58,,,6,,,,,,,,141473,1,1,FALSE,,,
dig,128,695517,0.0-39.0-0.0,"""event"",""trial"",""time""
""fullscreenenter"",""1"",""5492""
","
","
","""event"",""trial"",""time""
""fullscreenenter"",""1"",""5492""
","
",,,,,,,,,,,,"[{""stimulus"":""run_exp/static/images/task_images/dig.jpg"",""time"":0},{""stimulus"":""run_exp/static/images/task_images/land.jpg"",""time"":986},{""stimulus"":""run_exp/static/images/task_images/dig.jpg"",""time"":1970}]",[],6,,,,,,,,,,,,,,
harvest,129,696526,0.0-39.0-1.0,"""event"",""trial"",""time""
""fullscreenenter"",""1"",""5492""
","
","
","""event"",""trial"",""time""
""fullscreenenter"",""1"",""5492""
","
",,null,run_exp/static/images/task_images/gems/58.jpg,null,,,,,,,49,,,6,,,,,58,0.852361281,0.844827586,,,,,,,
decision,130,697236,0.0-39.0-2.0,"""event"",""trial"",""time""
""fullscreenenter"",""1"",""5492""
","
","
","""event"",""trial"",""time""
""fullscreenenter"",""1"",""5492""
","
",,707.6999999,run_exp/static/images/task_images/land.jpg,76,,,,,,,49,,,6,,,,,,,,146139,1,2,TRUE,,,
travel,131,706534,0.0-40.0-0.0,"""event"",""trial"",""time""
""fullscreenenter"",""1"",""5492""
","
","
","""event"",""trial"",""time""
""fullscreenenter"",""1"",""5492""
","
",,,,,,,,,,,,"[{""stimulus"":""run_exp/static/images/task_images/rocket-01.jpg"",""time"":0.19999992847442627},{""stimulus"":""run_exp/static/images/task_images/rocket-02.jpg"",""time"":1037.0999999046326},{""stimulus"":""run_exp/static/images/task_images/rocket-03.jpg"",""time"":2069.399999976158},{""stimulus"":""run_exp/static/images/task_images/rocket-04.jpg"",""time"":3101.0999999046326},{""stimulus"":""run_exp/static/images/task_images/rocket-05.jpg"",""time"":4133.199999928474},{""stimulus"":""run_exp/static/images/task_images/rocket-06.jpg"",""time"":5165.099999904633},{""stimulus"":""run_exp/static/images/task_images/rocket-07.jpg"",""time"":6197.199999928474},{""stimulus"":""run_exp/static/images/task_images/rocket-08.jpg"",""time"":7229.5},{""stimulus"":""run_exp/static/images/task_images/rocket-09.jpg"",""time"":8260.799999952316}]",[],6,,,,,,,,,,,,,,
alien_welcome,132,711542,0.0-40.0-1.0,"""event"",""trial"",""time""
""fullscreenenter"",""1"",""5492""
","
","
","""event"",""trial"",""time""
""fullscreenenter"",""1"",""5492""
","
",,null,run_exp/static/images/task_images/aliens/old_aliens/planet/alien_planet-78.jpg,null,,,,,,,,,,,,,78,"70,56,35,40,39,64,78,52,9,34,67,42,7,44,30,45,22,8,54,12,6,11,10,25,69,26,65,68,4,14,17,16,59,24,80,31,77,76,48,28,47,75,50,5,63",,,,,,,,,,
land,133,712054,0.0-40.0-2.0,"""event"",""trial"",""time""
""fullscreenenter"",""1"",""5492""
","
","
","""event"",""trial"",""time""
""fullscreenenter"",""1"",""5492""
","
",,null,run_exp/static/images/task_images/land.jpg,null,,,,,,,100,,,7,,,,,,,,,,,,,,
dig,134,714062,0.0-40.0-3.0,"""event"",""trial"",""time""
""fullscreenenter"",""1"",""5492""
","
","
","""event"",""trial"",""time""
""fullscreenenter"",""1"",""5492""
","
",,,,,,,,,,,,"[{""stimulus"":""run_exp/static/images/task_images/dig.jpg"",""time"":0.5999999046325684},{""stimulus"":""run_exp/static/images/task_images/land.jpg"",""time"":677.5},{""stimulus"":""run_exp/static/images/task_images/dig.jpg"",""time"":1341.0999999046326}]",[],7,,,,,,,,,,,,,,
harvest,135,715070,0.0-40.0-4.0,"""event"",""trial"",""time""
""fullscreenenter"",""1"",""5492""
","
","
","""event"",""trial"",""time""
""fullscreenenter"",""1"",""5492""
","
",,null,run_exp/static/images/task_images/gems/100.jpg,null,,,,,,,79,,,7,,,,,100,0.794645849,0.79,,,,,,,
decision,136,715830,0.0-40.0-5.0,"""event"",""trial"",""time""
""fullscreenenter"",""1"",""5492""
","
","
","""event"",""trial"",""time""
""fullscreenenter"",""1"",""5492""
","
",,758.1,run_exp/static/images/task_images/land.jpg,65,,,,,,,79,,,7,,,,,,,,164732,1,0,FALSE,,,
dig,137,718086,0.0-41.0-0.0,"""event"",""trial"",""time""
""fullscreenenter"",""1"",""5492""
","
","
","""event"",""trial"",""time""
""fullscreenenter"",""1"",""5492""
","
",,,,,,,,,,,,"[{""stimulus"":""run_exp/static/images/task_images/dig.jpg"",""time"":0.09999990463256836},{""stimulus"":""run_exp/static/images/task_images/land.jpg"",""time"":755.3999999761581},{""stimulus"":""run_exp/static/images/task_images/dig.jpg"",""time"":1499.7999999523163}]",[],7,,,,,,,,,,,,,,
harvest,138,719095,0.0-41.0-1.0,"""event"",""trial"",""time""
""fullscreenenter"",""1"",""5492""
","
","
","""event"",""trial"",""time""
""fullscreenenter"",""1"",""5492""
","
",,null,run_exp/static/images/task_images/gems/79.jpg,null,,,,,,,67,,,7,,,,,79,0.852136748,0.848101266,,,,,,,
decision,139,719466,0.0-41.0-2.0,"""event"",""trial"",""time""
""fullscreenenter"",""1"",""5492""
","
","
","""event"",""trial"",""time""
""fullscreenenter"",""1"",""5492""
","
",,369.1,run_exp/static/images/task_images/land.jpg,65,,,,,,,67,,,7,,,,,,,,168368,1,1,FALSE,,,
dig,140,722102,0.0-42.0-0.0,"""event"",""trial"",""time""
""fullscreenenter"",""1"",""5492""
","
","
","""event"",""trial"",""time""
""fullscreenenter"",""1"",""5492""
","
",,,,,,,,,,,,"[{""stimulus"":""run_exp/static/images/task_images/dig.jpg"",""time"":0.20000004768371582},{""stimulus"":""run_exp/static/images/task_images/land.jpg"",""time"":880.1000000238419},{""stimulus"":""run_exp/static/images/task_images/dig.jpg"",""time"":1760.1000000238419}]",[],7,,,,,,,,,,,,,,
harvest,141,723110,0.0-42.0-1.0,"""event"",""trial"",""time""
""fullscreenenter"",""1"",""5492""
","
","
","""event"",""trial"",""time""
""fullscreenenter"",""1"",""5492""
","
",,null,run_exp/static/images/task_images/gems/67.jpg,null,,,,,,,58,,,7,,,,,67,0.860649322,0.865671642,,,,,,,
decision,142,723736,0.0-42.0-2.0,"""event"",""trial"",""time""
""fullscreenenter"",""1"",""5492""
","
","
","""event"",""trial"",""time""
""fullscreenenter"",""1"",""5492""
","
",,623.5999999,run_exp/static/images/task_images/land.jpg,76,,,,,,,58,,,7,,,,,,,,172638,1,2,TRUE,,,
travel,143,733118,0.0-43.0-0.0,"""event"",""trial"",""time""
""fullscreenenter"",""1"",""5492""
","
","
","""event"",""trial"",""time""
""fullscreenenter"",""1"",""5492""
","
",,,,,,,,,,,,"[{""stimulus"":""run_exp/static/images/task_images/rocket-01.jpg"",""time"":0.20000004768371582},{""stimulus"":""run_exp/static/images/task_images/rocket-02.jpg"",""time"":1051},{""stimulus"":""run_exp/static/images/task_images/rocket-03.jpg"",""time"":2090.2000000476837},{""stimulus"":""run_exp/static/images/task_images/rocket-04.jpg"",""time"":3130.9000000953674},{""stimulus"":""run_exp/static/images/task_images/rocket-05.jpg"",""time"":4171.400000095367},{""stimulus"":""run_exp/static/images/task_images/rocket-06.jpg"",""time"":5210.800000071526},{""stimulus"":""run_exp/static/images/task_images/rocket-07.jpg"",""time"":6250.800000071526},{""stimulus"":""run_exp/static/images/task_images/rocket-08.jpg"",""time"":7290.800000071526},{""stimulus"":""run_exp/static/images/task_images/rocket-09.jpg"",""time"":8338.300000071526}]",[],7,,,,,,,,,,,,,,
alien_welcome,144,738127,0.0-43.0-1.0,"""event"",""trial"",""time""
""fullscreenenter"",""1"",""5492""
","
","
","""event"",""trial"",""time""
""fullscreenenter"",""1"",""5492""
","
",,null,run_exp/static/images/task_images/aliens/old_aliens/planet/alien_planet-52.jpg,null,,,,,,,,,,,,,52,"70,56,35,40,39,64,78,52,9,34,67,42,7,44,30,45,22,8,54,12,6,11,10,25,69,26,65,68,4,14,17,16,59,24,80,31,77,76,48,28,47,75,50,5,63",,,,,,,,,,
land,145,738630,0.0-43.0-2.0,"""event"",""trial"",""time""
""fullscreenenter"",""1"",""5492""
","
","
","""event"",""trial"",""time""
""fullscreenenter"",""1"",""5492""
","
",,null,run_exp/static/images/task_images/land.jpg,null,,,,,,,100,,,8,,,,,,,,,,,,,,
dig,146,740637,0.0-43.0-3.0,"""event"",""trial"",""time""
""fullscreenenter"",""1"",""5492""
","
","
","""event"",""trial"",""time""
""fullscreenenter"",""1"",""5492""
","
",,,,,,,,,,,,"[{""stimulus"":""run_exp/static/images/task_images/dig.jpg"",""time"":0.3999999761581421},{""stimulus"":""run_exp/static/images/task_images/land.jpg"",""time"":670.6000000238419},{""stimulus"":""run_exp/static/images/task_images/dig.jpg"",""time"":1342.1000000238419}]",[],8,,,,,,,,,,,,,,
harvest,147,741646,0.0-43.0-4.0,"""event"",""trial"",""time""
""fullscreenenter"",""1"",""5492""
","
","
","""event"",""trial"",""time""
""fullscreenenter"",""1"",""5492""
","
",,null,run_exp/static/images/task_images/gems/100.jpg,null,,,,,,,86,,,8,,,,,100,0.863569521,0.86,,,,,,,
decision,148,741718,0.0-43.0-5.0,"""event"",""trial"",""time""
""fullscreenenter"",""1"",""5492""
","
","
","""event"",""trial"",""time""
""fullscreenenter"",""1"",""5492""
","
",,69.79999995,run_exp/static/images/task_images/land.jpg,65,,,,,,,86,,,8,,,,,,,,190620,1,0,FALSE,,,
dig,149,744655,0.0-44.0-0.0,"""event"",""trial"",""time""
""fullscreenenter"",""1"",""5492""
","
","
","""event"",""trial"",""time""
""fullscreenenter"",""1"",""5492""
","
",,,,,,,,,,,,"[{""stimulus"":""run_exp/static/images/task_images/dig.jpg"",""time"":0.20000004768371582},{""stimulus"":""run_exp/static/images/task_images/land.jpg"",""time"":981.2000000476837},{""stimulus"":""run_exp/static/images/task_images/dig.jpg"",""time"":1959.7000000476837}]",[],8,,,,,,,,,,,,,,
harvest,150,745662,0.0-44.0-1.0,"""event"",""trial"",""time""
""fullscreenenter"",""1"",""5492""
","
","
","""event"",""trial"",""time""
""fullscreenenter"",""1"",""5492""
","
",,null,run_exp/static/images/task_images/gems/86.jpg,null,,,,,,,72,,,8,,,,,86,0.83269061,0.837209302,,,,,,,
decision,151,746759,0.0-44.0-2.0,"""event"",""trial"",""time""
""fullscreenenter"",""1"",""5492""
","
","
","""event"",""trial"",""time""
""fullscreenenter"",""1"",""5492""
","
",,1094.4,run_exp/static/images/task_images/land.jpg,65,,,,,,,72,,,8,,,,,,,,195661,1,1,FALSE,,,
dig,152,748678,0.0-45.0-0.0,"""event"",""trial"",""time""
""fullscreenenter"",""1"",""5492""
","
","
","""event"",""trial"",""time""
""fullscreenenter"",""1"",""5492""
","
",,,,,,,,,,,,"[{""stimulus"":""run_exp/static/images/task_images/dig.jpg"",""time"":0.09999990463256836},{""stimulus"":""run_exp/static/images/task_images/land.jpg"",""time"":642.1999999284744},{""stimulus"":""run_exp/static/images/task_images/dig.jpg"",""time"":1274.8999999761581}]",[],8,,,,,,,,,,,,,,
harvest,153,749686,0.0-45.0-1.0,"""event"",""trial"",""time""
""fullscreenenter"",""1"",""5492""
","
","
","""event"",""trial"",""time""
""fullscreenenter"",""1"",""5492""
","
",,null,run_exp/static/images/task_images/gems/72.jpg,null,,,,,,,61,,,8,,,,,72,0.848931491,0.847222222,,,,,,,
decision,154,750046,0.0-45.0-2.0,"""event"",""trial"",""time""
""fullscreenenter"",""1"",""5492""
","
","
","""event"",""trial"",""time""
""fullscreenenter"",""1"",""5492""
","
",,357.4,run_exp/static/images/task_images/land.jpg,65,,,,,,,61,,,8,,,,,,,,198948,1,2,FALSE,,,
dig,155,752694,0.0-46.0-0.0,"""event"",""trial"",""time""
""fullscreenenter"",""1"",""5492""
","
","
","""event"",""trial"",""time""
""fullscreenenter"",""1"",""5492""
","
",,,,,,,,,,,,"[{""stimulus"":""run_exp/static/images/task_images/dig.jpg"",""time"":0.2999999523162842},{""stimulus"":""run_exp/static/images/task_images/land.jpg"",""time"":884.5},{""stimulus"":""run_exp/static/images/task_images/dig.jpg"",""time"":1764.3999999761581}]",[],8,,,,,,,,,,,,,,
harvest,156,753702,0.0-46.0-1.0,"""event"",""trial"",""time""
""fullscreenenter"",""1"",""5492""
","
","
","""event"",""trial"",""time""
""fullscreenenter"",""1"",""5492""
","
",,null,run_exp/static/images/task_images/gems/61.jpg,null,,,,,,,48,,,8,,,,,61,0.794640434,0.786885246,,,,,,,
decision,157,754012,0.0-46.0-2.0,"""event"",""trial"",""time""
""fullscreenenter"",""1"",""5492""
","
","
","""event"",""trial"",""time""
""fullscreenenter"",""1"",""5492""
","
",,307.9000001,run_exp/static/images/task_images/land.jpg,65,,,,,,,48,,,8,,,,,,,,202914,1,3,FALSE,,,
dig,158,756710,0.0-47.0-0.0,"""event"",""trial"",""time""
""fullscreenenter"",""1"",""5492""
","
","
","""event"",""trial"",""time""
""fullscreenenter"",""1"",""5492""
","
",,,,,,,,,,,,"[{""stimulus"":""run_exp/static/images/task_images/dig.jpg"",""time"":0.10000002384185791},{""stimulus"":""run_exp/static/images/task_images/land.jpg"",""time"":901.2999999523163},{""stimulus"":""run_exp/static/images/task_images/dig.jpg"",""time"":1798.6999999284744}]",[],8,,,,,,,,,,,,,,
harvest,159,757718,0.0-47.0-1.0,"""event"",""trial"",""time""
""fullscreenenter"",""1"",""5492""
","
","
","""event"",""trial"",""time""
""fullscreenenter"",""1"",""5492""
","
",,null,run_exp/static/images/task_images/gems/48.jpg,null,,,,,,,39,,,8,,,,,48,0.803966916,0.8125,,,,,,,
decision,160,758122,0.0-47.0-2.0,"""event"",""trial"",""time""
""fullscreenenter"",""1"",""5492""
","
","
","""event"",""trial"",""time""
""fullscreenenter"",""1"",""5492""
","
",,402.1,run_exp/static/images/task_images/land.jpg,76,,,,,,,39,,,8,,,,,,,,207024,1,4,TRUE,,,
travel,161,767726,0.0-48.0-0.0,"""event"",""trial"",""time""
""fullscreenenter"",""1"",""5492""
","
","
","""event"",""trial"",""time""
""fullscreenenter"",""1"",""5492""
","
",,,,,,,,,,,,"[{""stimulus"":""run_exp/static/images/task_images/rocket-01.jpg"",""time"":0.19999992847442627},{""stimulus"":""run_exp/static/images/task_images/rocket-02.jpg"",""time"":1072.7999999523163},{""stimulus"":""run_exp/static/images/task_images/rocket-03.jpg"",""time"":2136.100000023842},{""stimulus"":""run_exp/static/images/task_images/rocket-04.jpg"",""time"":3208.5},{""stimulus"":""run_exp/static/images/task_images/rocket-05.jpg"",""time"":4272.199999928474},{""stimulus"":""run_exp/static/images/task_images/rocket-06.jpg"",""time"":5336.399999976158},{""stimulus"":""run_exp/static/images/task_images/rocket-07.jpg"",""time"":6400.399999976158},{""stimulus"":""run_exp/static/images/task_images/rocket-08.jpg"",""time"":7473},{""stimulus"":""run_exp/static/images/task_images/rocket-09.jpg"",""time"":8536.199999928474}]",[],8,,,,,,,,,,,,,,
alien_welcome,162,772735,0.0-48.0-1.0,"""event"",""trial"",""time""
""fullscreenenter"",""1"",""5492""
","
","
","""event"",""trial"",""time""
""fullscreenenter"",""1"",""5492""
","
",,null,run_exp/static/images/task_images/aliens/old_aliens/planet/alien_planet-9.jpg,null,,,,,,,,,,,,,9,"70,56,35,40,39,64,78,52,9,34,67,42,7,44,30,45,22,8,54,12,6,11,10,25,69,26,65,68,4,14,17,16,59,24,80,31,77,76,48,28,47,75,50,5,63",,,,,,,,,,
land,163,773246,0.0-48.0-2.0,"""event"",""trial"",""time""
""fullscreenenter"",""1"",""5492""
","
","
","""event"",""trial"",""time""
""fullscreenenter"",""1"",""5492""
","
",,null,run_exp/static/images/task_images/land.jpg,null,,,,,,,95,,,9,,,,,,,,,,,,,,
dig,164,775254,0.0-48.0-3.0,"""event"",""trial"",""time""
""fullscreenenter"",""1"",""5492""
","
","
","""event"",""trial"",""time""
""fullscreenenter"",""1"",""5492""
","
",,,,,,,,,,,,"[{""stimulus"":""run_exp/static/images/task_images/dig.jpg"",""time"":0.5},{""stimulus"":""run_exp/static/images/task_images/land.jpg"",""time"":677},{""stimulus"":""run_exp/static/images/task_images/dig.jpg"",""time"":1341.7999999523163}]",[],9,,,,,,,,,,,,,,
harvest,165,776263,0.0-48.0-4.0,"""event"",""trial"",""time""
""fullscreenenter"",""1"",""5492""
","
","
","""event"",""trial"",""time""
""fullscreenenter"",""1"",""5492""
","
",,null,run_exp/static/images/task_images/gems/95.jpg,null,,,,,,,22,,,9,,,,,95,0.233515806,0.231578947,,,,,,,
decision,166,776726,0.0-48.0-5.0,"""event"",""trial"",""time""
""fullscreenenter"",""1"",""5492""
","
","
","""event"",""trial"",""time""
""fullscreenenter"",""1"",""5492""
","
",,460.5,run_exp/static/images/task_images/land.jpg,65,,,,,,,22,,,9,,,,,,,,225628,1,0,FALSE,,,
dig,167,779277,0.0-49.0-0.0,"""event"",""trial"",""time""
""fullscreenenter"",""1"",""5492""
","
","
","""event"",""trial"",""time""
""fullscreenenter"",""1"",""5492""
","
",,,,,,,,,,,,"[{""stimulus"":""run_exp/static/images/task_images/dig.jpg"",""time"":0.20000004768371582},{""stimulus"":""run_exp/static/images/task_images/land.jpg"",""time"":851.4000000953674},{""stimulus"":""run_exp/static/images/task_images/dig.jpg"",""time"":1699.7000000476837}]",[],9,,,,,,,,,,,,,,
harvest,168,780286,0.0-49.0-1.0,"""event"",""trial"",""time""
""fullscreenenter"",""1"",""5492""
","
","
","""event"",""trial"",""time""
""fullscreenenter"",""1"",""5492""
","
",,null,run_exp/static/images/task_images/gems/22.jpg,null,,,,,,,3,,,9,,,,,22,0.126444783,0.136363636,,,,,,,
decision,169,781447,0.0-49.0-2.0,"""event"",""trial"",""time""
""fullscreenenter"",""1"",""5492""
","
","
","""event"",""trial"",""time""
""fullscreenenter"",""1"",""5492""
","
",,1158.6,run_exp/static/images/task_images/land.jpg,76,,,,,,,3,,,9,,,,,,,,230349,1,1,TRUE,,,
travel,170,790294,0.0-50.0-0.0,"""event"",""trial"",""time""
""fullscreenenter"",""1"",""5492""
","
","
","""event"",""trial"",""time""
""fullscreenenter"",""1"",""5492""
","
",,,,,,,,,,,,"[{""stimulus"":""run_exp/static/images/task_images/rocket-01.jpg"",""time"":0.19999992847442627},{""stimulus"":""run_exp/static/images/task_images/rocket-02.jpg"",""time"":988.5999999046326},{""stimulus"":""run_exp/static/images/task_images/rocket-03.jpg"",""time"":1972.0999999046326},{""stimulus"":""run_exp/static/images/task_images/rocket-04.jpg"",""time"":2956.0999999046326},{""stimulus"":""run_exp/static/images/task_images/rocket-05.jpg"",""time"":3932.1999999284744},{""stimulus"":""run_exp/static/images/task_images/rocket-06.jpg"",""time"":4916},{""stimulus"":""run_exp/static/images/task_images/rocket-07.jpg"",""time"":5899.599999904633},{""stimulus"":""run_exp/static/images/task_images/rocket-08.jpg"",""time"":6884.099999904633},{""stimulus"":""run_exp/static/images/task_images/rocket-09.jpg"",""time"":7860.399999976158}]",[],9,,,,,,,,,,,,,,
alien_welcome,171,795302,0.0-50.0-1.0,"""event"",""trial"",""time""
""fullscreenenter"",""1"",""5492""
","
","
","""event"",""trial"",""time""
""fullscreenenter"",""1"",""5492""
","
",,null,run_exp/static/images/task_images/aliens/old_aliens/planet/alien_planet-34.jpg,null,,,,,,,,,,,,,34,"70,56,35,40,39,64,78,52,9,34,67,42,7,44,30,45,22,8,54,12,6,11,10,25,69,26,65,68,4,14,17,16,59,24,80,31,77,76,48,28,47,75,50,5,63",,,,,,,,,,
land,172,795806,0.0-50.0-2.0,"""event"",""trial"",""time""
""fullscreenenter"",""1"",""5492""
","
","
","""event"",""trial"",""time""
""fullscreenenter"",""1"",""5492""
","
",,null,run_exp/static/images/task_images/land.jpg,null,,,,,,,96,,,10,,,,,,,,,,,,,,
dig,173,797814,0.0-50.0-3.0,"""event"",""trial"",""time""
""fullscreenenter"",""1"",""5492""
","
","
","""event"",""trial"",""time""
""fullscreenenter"",""1"",""5492""
","
",,,,,,,,,,,,"[{""stimulus"":""run_exp/static/images/task_images/dig.jpg"",""time"":0.3999999761581421},{""stimulus"":""run_exp/static/images/task_images/land.jpg"",""time"":669.2999999523163},{""stimulus"":""run_exp/static/images/task_images/dig.jpg"",""time"":1342.5}]",[],10,,,,,,,,,,,,,,
harvest,174,798822,0.0-50.0-4.0,"""event"",""trial"",""time""
""fullscreenenter"",""1"",""5492""
","
","
","""event"",""trial"",""time""
""fullscreenenter"",""1"",""5492""
","
",,null,run_exp/static/images/task_images/gems/96.jpg,null,,,,,,,20,,,10,,,,,96,0.209214141,0.208333333,,,,,,,
decision,175,798828,0.0-50.0-5.0,"""event"",""trial"",""time""
""fullscreenenter"",""1"",""5492""
","
","
","""event"",""trial"",""time""
""fullscreenenter"",""1"",""5492""
","
",,4,run_exp/static/images/task_images/land.jpg,65,,,,,,,20,,,10,,,,,,,,247730,1,0,FALSE,,,
dig,176,801830,0.0-51.0-0.0,"""event"",""trial"",""time""
""fullscreenenter"",""1"",""5492""
","
","
","""event"",""trial"",""time""
""fullscreenenter"",""1"",""5492""
","
",,,,,,,,,,,,"[{""stimulus"":""run_exp/static/images/task_images/dig.jpg"",""time"":0.20000004768371582},{""stimulus"":""run_exp/static/images/task_images/land.jpg"",""time"":1007},{""stimulus"":""run_exp/static/images/task_images/dig.jpg"",""time"":1998.8999999761581}]",[],10,,,,,,,,,,,,,,
harvest,177,802838,0.0-51.0-1.0,"""event"",""trial"",""time""
""fullscreenenter"",""1"",""5492""
","
","
","""event"",""trial"",""time""
""fullscreenenter"",""1"",""5492""
","
",,null,run_exp/static/images/task_images/gems/20.jpg,null,,,,,,,3,,,10,,,,,20,0.147277327,0.15,,,,,,,
decision,178,802928,0.0-51.0-2.0,"""event"",""trial"",""time""
""fullscreenenter"",""1"",""5492""
","
","
","""event"",""trial"",""time""
""fullscreenenter"",""1"",""5492""
","
",,85.10000002,run_exp/static/images/task_images/land.jpg,76,,,,,,,3,,,10,,,,,,,,251830,1,1,TRUE,,,
travel,179,812862,0.0-52.0-0.0,"""event"",""trial"",""time""
""fullscreenenter"",""1"",""5492""
","
","
","""event"",""trial"",""time""
""fullscreenenter"",""1"",""5492""
","
",,,,,,,,,,,,"[{""stimulus"":""run_exp/static/images/task_images/rocket-01.jpg"",""time"":0.09999990463256836},{""stimulus"":""run_exp/static/images/task_images/rocket-02.jpg"",""time"":1109.8999999761581},{""stimulus"":""run_exp/static/images/task_images/rocket-03.jpg"",""time"":2205.399999976158},{""stimulus"":""run_exp/static/images/task_images/rocket-04.jpg"",""time"":3309.2999999523163},{""stimulus"":""run_exp/static/images/task_images/rocket-05.jpg"",""time"":4413},{""stimulus"":""run_exp/static/images/task_images/rocket-06.jpg"",""time"":5509.799999952316},{""stimulus"":""run_exp/static/images/task_images/rocket-07.jpg"",""time"":6613.299999952316},{""stimulus"":""run_exp/static/images/task_images/rocket-08.jpg"",""time"":7710},{""stimulus"":""run_exp/static/images/task_images/rocket-09.jpg"",""time"":8813.199999928474}]",[],10,,,,,,,,,,,,,,
alien_welcome,180,817871,0.0-52.0-1.0,"""event"",""trial"",""time""
""fullscreenenter"",""1"",""5492""
","
","
","""event"",""trial"",""time""
""fullscreenenter"",""1"",""5492""
","
",,null,run_exp/static/images/task_images/aliens/old_aliens/planet/alien_planet-67.jpg,null,,,,,,,,,,,,,67,"70,56,35,40,39,64,78,52,9,34,67,42,7,44,30,45,22,8,54,12,6,11,10,25,69,26,65,68,4,14,17,16,59,24,80,31,77,76,48,28,47,75,50,5,63",,,,,,,,,,
land,181,818382,0.0-52.0-2.0,"""event"",""trial"",""time""
""fullscreenenter"",""1"",""5492""
","
","
","""event"",""trial"",""time""
""fullscreenenter"",""1"",""5492""
","
",,null,run_exp/static/images/task_images/land.jpg,null,,,,,,,92,,,11,,,,,,,,,,,,,,
dig,182,820390,0.0-52.0-3.0,"""event"",""trial"",""time""
""fullscreenenter"",""1"",""5492""
","
","
","""event"",""trial"",""time""
""fullscreenenter"",""1"",""5492""
","
",,,,,,,,,,,,"[{""stimulus"":""run_exp/static/images/task_images/dig.jpg"",""time"":0.5},{""stimulus"":""run_exp/static/images/task_images/land.jpg"",""time"":670.2000000476837},{""stimulus"":""run_exp/static/images/task_images/dig.jpg"",""time"":1342.7000000476837}]",[],11,,,,,,,,,,,,,,
harvest,183,821398,0.0-52.0-4.0,"""event"",""trial"",""time""
""fullscreenenter"",""1"",""5492""
","
","
","""event"",""trial"",""time""
""fullscreenenter"",""1"",""5492""
","
",,null,run_exp/static/images/task_images/gems/92.jpg,null,,,,,,,34,,,11,,,,,92,0.366882789,0.369565217,,,,,,,
decision,184,821447,0.0-52.0-5.0,"""event"",""trial"",""time""
""fullscreenenter"",""1"",""5492""
","
","
","""event"",""trial"",""time""
""fullscreenenter"",""1"",""5492""
","
",,46.30000007,run_exp/static/images/task_images/land.jpg,65,,,,,,,34,,,11,,,,,,,,270349,1,0,FALSE,,,
dig,185,824414,0.0-53.0-0.0,"""event"",""trial"",""time""
""fullscreenenter"",""1"",""5492""
","
","
","""event"",""trial"",""time""
""fullscreenenter"",""1"",""5492""
","
",,,,,,,,,,,,"[{""stimulus"":""run_exp/static/images/task_images/dig.jpg"",""time"":0.20000004768371582},{""stimulus"":""run_exp/static/images/task_images/land.jpg"",""time"":993.2000000476837},{""stimulus"":""run_exp/static/images/task_images/dig.jpg"",""time"":1977.3000000715256}]",[],11,,,,,,,,,,,,,,
harvest,186,825422,0.0-53.0-1.0,"""event"",""trial"",""time""
""fullscreenenter"",""1"",""5492""
","
","
","""event"",""trial"",""time""
""fullscreenenter"",""1"",""5492""
","
",,null,run_exp/static/images/task_images/gems/34.jpg,null,,,,,,,8,,,11,,,,,34,0.243669127,0.235294118,,,,,,,
decision,187,825580,0.0-53.0-2.0,"""event"",""trial"",""time""
""fullscreenenter"",""1"",""5492""
","
","
","""event"",""trial"",""time""
""fullscreenenter"",""1"",""5492""
","
",,155.5,run_exp/static/images/task_images/land.jpg,76,,,,,,,8,,,11,,,,,,,,274482,1,1,TRUE,,,
travel,188,835430,0.0-54.0-0.0,"""event"",""trial"",""time""
""fullscreenenter"",""1"",""5492""
","
","
","""event"",""trial"",""time""
""fullscreenenter"",""1"",""5492""
","
",,,,,,,,,,,,"[{""stimulus"":""run_exp/static/images/task_images/rocket-01.jpg"",""time"":0.20000004768371582},{""stimulus"":""run_exp/static/images/task_images/rocket-02.jpg"",""time"":1102.3999999761581},{""stimulus"":""run_exp/static/images/task_images/rocket-03.jpg"",""time"":2190.2000000476837},{""stimulus"":""run_exp/static/images/task_images/rocket-04.jpg"",""time"":3286.399999976158},{""stimulus"":""run_exp/static/images/task_images/rocket-05.jpg"",""time"":4383},{""stimulus"":""run_exp/static/images/task_images/rocket-06.jpg"",""time"":5470},{""stimulus"":""run_exp/static/images/task_images/rocket-07.jpg"",""time"":6566},{""stimulus"":""run_exp/static/images/task_images/rocket-08.jpg"",""time"":7654.399999976158},{""stimulus"":""run_exp/static/images/task_images/rocket-09.jpg"",""time"":8750.800000071526}]",[],11,,,,,,,,,,,,,,
alien_welcome,189,840439,0.0-54.0-1.0,"""event"",""trial"",""time""
""fullscreenenter"",""1"",""5492""
","
","
","""event"",""trial"",""time""
""fullscreenenter"",""1"",""5492""
","
",,null,run_exp/static/images/task_images/aliens/old_aliens/planet/alien_planet-42.jpg,null,,,,,,,,,,,,,42,"70,56,35,40,39,64,78,52,9,34,67,42,7,44,30,45,22,8,54,12,6,11,10,25,69,26,65,68,4,14,17,16,59,24,80,31,77,76,48,28,47,75,50,5,63",,,,,,,,,,
land,190,840950,0.0-54.0-2.0,"""event"",""trial"",""time""
""fullscreenenter"",""1"",""5492""
","
","
","""event"",""trial"",""time""
""fullscreenenter"",""1"",""5492""
","
",,null,run_exp/static/images/task_images/land.jpg,null,,,,,,,105,,,12,,,,,,,,,,,,,,
dig,191,842958,0.0-54.0-3.0,"""event"",""trial"",""time""
""fullscreenenter"",""1"",""5492""
","
","
","""event"",""trial"",""time""
""fullscreenenter"",""1"",""5492""
","
",,,,,,,,,,,,"[{""stimulus"":""run_exp/static/images/task_images/dig.jpg"",""time"":0.5},{""stimulus"":""run_exp/static/images/task_images/land.jpg"",""time"":670.8999999761581},{""stimulus"":""run_exp/static/images/task_images/dig.jpg"",""time"":1343.1999999284744}]",[],12,,,,,,,,,,,,,,
harvest,192,843966,0.0-54.0-4.0,"""event"",""trial"",""time""
""fullscreenenter"",""1"",""5492""
","
","
","""event"",""trial"",""time""
""fullscreenenter"",""1"",""5492""
","
",,null,run_exp/static/images/task_images/gems/105.jpg,null,,,,,,,23,,,12,,,,,105,0.223368234,0.219047619,,,,,,,
decision,193,844392,0.0-54.0-5.0,"""event"",""trial"",""time""
""fullscreenenter"",""1"",""5492""
","
","
","""event"",""trial"",""time""
""fullscreenenter"",""1"",""5492""
","
",,424,run_exp/static/images/task_images/land.jpg,65,,,,,,,23,,,12,,,,,,,,293294,1,0,FALSE,,,
dig,194,846974,0.0-55.0-0.0,"""event"",""trial"",""time""
""fullscreenenter"",""1"",""5492""
","
","
","""event"",""trial"",""time""
""fullscreenenter"",""1"",""5492""
","
",,,,,,,,,,,,"[{""stimulus"":""run_exp/static/images/task_images/dig.jpg"",""time"":0.20000004768371582},{""stimulus"":""run_exp/static/images/task_images/land.jpg"",""time"":865.8000000715256},{""stimulus"":""run_exp/static/images/task_images/dig.jpg"",""time"":1721.8999999761581}]",[],12,,,,,,,,,,,,,,
harvest,195,847982,0.0-55.0-1.0,"""event"",""trial"",""time""
""fullscreenenter"",""1"",""5492""
","
","
","""event"",""trial"",""time""
""fullscreenenter"",""1"",""5492""
","
",,null,run_exp/static/images/task_images/gems/23.jpg,null,,,,,,,5,,,12,,,,,23,0.211996239,0.217391304,,,,,,,
decision,196,848343,0.0-55.0-2.0,"""event"",""trial"",""time""
""fullscreenenter"",""1"",""5492""
","
","
","""event"",""trial"",""time""
""fullscreenenter"",""1"",""5492""
","
",,358.9,run_exp/static/images/task_images/land.jpg,76,,,,,,,5,,,12,,,,,,,,297245,1,1,TRUE,,,
travel,197,857990,0.0-56.0-0.0,"""event"",""trial"",""time""
""fullscreenenter"",""1"",""5492""
","
","
","""event"",""trial"",""time""
""fullscreenenter"",""1"",""5492""
","
",,,,,,,,,,,,"[{""stimulus"":""run_exp/static/images/task_images/rocket-01.jpg"",""time"":0.10000002384185791},{""stimulus"":""run_exp/static/images/task_images/rocket-02.jpg"",""time"":1075.3999999761581},{""stimulus"":""run_exp/static/images/task_images/rocket-03.jpg"",""time"":2147},{""stimulus"":""run_exp/static/images/task_images/rocket-04.jpg"",""time"":3219},{""stimulus"":""run_exp/static/images/task_images/rocket-05.jpg"",""time"":4291.299999952316},{""stimulus"":""run_exp/static/images/task_images/rocket-06.jpg"",""time"":5362.899999976158},{""stimulus"":""run_exp/static/images/task_images/rocket-07.jpg"",""time"":6435.199999928474},{""stimulus"":""run_exp/static/images/task_images/rocket-08.jpg"",""time"":7507.699999928474},{""stimulus"":""run_exp/static/images/task_images/rocket-09.jpg"",""time"":8570.899999976158}]",[],12,,,,,,,,,,,,,,
alien_welcome,198,862998,0.0-56.0-1.0,"""event"",""trial"",""time""
""fullscreenenter"",""1"",""5492""
","
","
","""event"",""trial"",""time""
""fullscreenenter"",""1"",""5492""
","
",,null,run_exp/static/images/task_images/aliens/old_aliens/planet/alien_planet-7.jpg,null,,,,,,,,,,,,,7,"70,56,35,40,39,64,78,52,9,34,67,42,7,44,30,45,22,8,54,12,6,11,10,25,69,26,65,68,4,14,17,16,59,24,80,31,77,76,48,28,47,75,50,5,63",,,,,,,,,,
land,199,863501,0.0-56.0-2.0,"""event"",""trial"",""time""
""fullscreenenter"",""1"",""5492""
","
","
","""event"",""trial"",""time""
""fullscreenenter"",""1"",""5492""
","
",,null,run_exp/static/images/task_images/land.jpg,null,,,,,,,102,,,13,,,,,,,,,,,,,,
dig,200,865510,0.0-56.0-3.0,"""event"",""trial"",""time""
""fullscreenenter"",""1"",""5492""
","
","
","""event"",""trial"",""time""
""fullscreenenter"",""1"",""5492""
","
",,,,,,,,,,,,"[{""stimulus"":""run_exp/static/images/task_images/dig.jpg"",""time"":0.30000007152557373},{""stimulus"":""run_exp/static/images/task_images/land.jpg"",""time"":671.1000000238419},{""stimulus"":""run_exp/static/images/task_images/dig.jpg"",""time"":1343.2000000476837}]",[],13,,,,,,,,,,,,,,
harvest,201,866518,0.0-56.0-4.0,"""event"",""trial"",""time""
""fullscreenenter"",""1"",""5492""
","
","
","""event"",""trial"",""time""
""fullscreenenter"",""1"",""5492""
","
",,null,run_exp/static/images/task_images/gems/102.jpg,null,,,,,,,21,,,13,,,,,102,0.205243548,0.205882353,,,,,,,
decision,202,866605,0.0-56.0-5.0,"""event"",""trial"",""time""
""fullscreenenter"",""1"",""5492""
","
","
","""event"",""trial"",""time""
""fullscreenenter"",""1"",""5492""
","
",,83.80000007,run_exp/static/images/task_images/land.jpg,65,,,,,,,21,,,13,,,,,,,,315507,1,0,TRUE,,,
end_of_block_continue,203,875461,0.0-57.0-0.0,"""event"",""trial"",""time""
""fullscreenenter"",""1"",""5492""
","
","
","""event"",""trial"",""time""
""fullscreenenter"",""1"",""5492""
","
",,null,run_exp/static/audio/clip_32_block_end.m4a,,,,,,,null,,,,,,,,,,,,,,,,,,
alien_welcome,204,880470,0.0-58.0-0.0,"""event"",""trial"",""time""
""fullscreenenter"",""1"",""5492""
","
","
","""event"",""trial"",""time""
""fullscreenenter"",""1"",""5492""
","
",,null,run_exp/static/images/task_images/aliens/old_aliens/planet/alien_planet-44.jpg,null,,,,,,,,,,,,,44,"70,56,35,40,39,64,78,52,9,34,67,42,7,44,30,45,22,8,54,12,6,11,10,25,69,26,65,68,4,14,17,16,59,24,80,31,77,76,48,28,47,75,50,5,63",,,,,,,,,,
land,205,880974,0.0-58.0-1.0,"""event"",""trial"",""time""
""fullscreenenter"",""1"",""5492""
","
","
","""event"",""trial"",""time""
""fullscreenenter"",""1"",""5492""
","
",,null,run_exp/static/images/task_images/land.jpg,null,,,,,,,101,,,14,,,,,,,,,,,,,,
dig,206,882982,0.0-58.0-2.0,"""event"",""trial"",""time""
""fullscreenenter"",""1"",""5492""
","
","
","""event"",""trial"",""time""
""fullscreenenter"",""1"",""5492""
","
",,,,,,,,,,,,"[{""stimulus"":""run_exp/static/images/task_images/dig.jpg"",""time"":0.3999999761581421},{""stimulus"":""run_exp/static/images/task_images/land.jpg"",""time"":677.5},{""stimulus"":""run_exp/static/images/task_images/dig.jpg"",""time"":1341.1999999284744}]",[],14,,,,,,,,,,,,,,
harvest,207,883990,0.0-58.0-3.0,"""event"",""trial"",""time""
""fullscreenenter"",""1"",""5492""
","
","
","""event"",""trial"",""time""
""fullscreenenter"",""1"",""5492""
","
",,null,run_exp/static/images/task_images/gems/101.jpg,null,,,,,,,15,,,14,,,,,101,0.145254208,0.148514851,,,,,,,
decision,208,884507,0.0-58.0-4.0,"""event"",""trial"",""time""
""fullscreenenter"",""1"",""5492""
","
","
","""event"",""trial"",""time""
""fullscreenenter"",""1"",""5492""
","
",,514.9,run_exp/static/images/task_images/land.jpg,65,,,,,,,15,,,14,,,,,,,,9043,2,0,FALSE,,,
dig,209,886998,0.0-59.0-0.0,"""event"",""trial"",""time""
""fullscreenenter"",""1"",""5492""
","
","
","""event"",""trial"",""time""
""fullscreenenter"",""1"",""5492""
","
",,,,,,,,,,,,"[{""stimulus"":""run_exp/static/images/task_images/dig.jpg"",""time"":0.20000004768371582},{""stimulus"":""run_exp/static/images/task_images/land.jpg"",""time"":831.7999999523163},{""stimulus"":""run_exp/static/images/task_images/dig.jpg"",""time"":1664}]",[],14,,,,,,,,,,,,,,
harvest,210,888006,0.0-59.0-1.0,"""event"",""trial"",""time""
""fullscreenenter"",""1"",""5492""
","
","
","""event"",""trial"",""time""
""fullscreenenter"",""1"",""5492""
","
",,null,run_exp/static/images/task_images/gems/15.jpg,null,,,,,,,2,,,14,,,,,15,0.126292349,0.133333333,,,,,,,
decision,211,888173,0.0-59.0-2.0,"""event"",""trial"",""time""
""fullscreenenter"",""1"",""5492""
","
","
","""event"",""trial"",""time""
""fullscreenenter"",""1"",""5492""
","
",,164.6,run_exp/static/images/task_images/land.jpg,76,,,,,,,2,,,14,,,,,,,,12709,2,1,TRUE,,,
travel,212,898014,0.0-60.0-0.0,"""event"",""trial"",""time""
""fullscreenenter"",""1"",""5492""
","
","
","""event"",""trial"",""time""
""fullscreenenter"",""1"",""5492""
","
",,,,,,,,,,,,"[{""stimulus"":""run_exp/static/images/task_images/rocket-01.jpg"",""time"":0.10000002384185791},{""stimulus"":""run_exp/static/images/task_images/rocket-02.jpg"",""time"":1100.8000000715256},{""stimulus"":""run_exp/static/images/task_images/rocket-03.jpg"",""time"":2189.100000023842},{""stimulus"":""run_exp/static/images/task_images/rocket-04.jpg"",""time"":3284.600000023842},{""stimulus"":""run_exp/static/images/task_images/rocket-05.jpg"",""time"":4372.700000047684},{""stimulus"":""run_exp/static/images/task_images/rocket-06.jpg"",""time"":5469.100000023842},{""stimulus"":""run_exp/static/images/task_images/rocket-07.jpg"",""time"":6557},{""stimulus"":""run_exp/static/images/task_images/rocket-08.jpg"",""time"":7652.399999976158},{""stimulus"":""run_exp/static/images/task_images/rocket-09.jpg"",""time"":8740.800000071526}]",[],14,,,,,,,,,,,,,,
alien_welcome,213,903023,0.0-60.0-1.0,"""event"",""trial"",""time""
""fullscreenenter"",""1"",""5492""
","
","
","""event"",""trial"",""time""
""fullscreenenter"",""1"",""5492""
","
",,null,run_exp/static/images/task_images/aliens/old_aliens/planet/alien_planet-30.jpg,null,,,,,,,,,,,,,30,"70,56,35,40,39,64,78,52,9,34,67,42,7,44,30,45,22,8,54,12,6,11,10,25,69,26,65,68,4,14,17,16,59,24,80,31,77,76,48,28,47,75,50,5,63",,,,,,,,,,
land,214,903533,0.0-60.0-2.0,"""event"",""trial"",""time""
""fullscreenenter"",""1"",""5492""
","
","
","""event"",""trial"",""time""
""fullscreenenter"",""1"",""5492""
","
",,null,run_exp/static/images/task_images/land.jpg,null,,,,,,,97,,,15,,,,,,,,,,,,,,
dig,215,905543,0.0-60.0-3.0,"""event"",""trial"",""time""
""fullscreenenter"",""1"",""5492""
","
","
","""event"",""trial"",""time""
""fullscreenenter"",""1"",""5492""
","
",,,,,,,,,,,,"[{""stimulus"":""run_exp/static/images/task_images/dig.jpg"",""time"":0.7000000476837158},{""stimulus"":""run_exp/static/images/task_images/land.jpg"",""time"":671.1000000238419},{""stimulus"":""run_exp/static/images/task_images/dig.jpg"",""time"":1342.7000000476837}]",[],15,,,,,,,,,,,,,,
harvest,216,906550,0.0-60.0-4.0,"""event"",""trial"",""time""
""fullscreenenter"",""1"",""5492""
","
","
","""event"",""trial"",""time""
""fullscreenenter"",""1"",""5492""
","
",,null,run_exp/static/images/task_images/gems/97.jpg,null,,,,,,,17,,,15,,,,,97,0.177495545,0.175257732,,,,,,,
decision,217,907000,0.0-60.0-5.0,"""event"",""trial"",""time""
""fullscreenenter"",""1"",""5492""
","
","
","""event"",""trial"",""time""
""fullscreenenter"",""1"",""5492""
","
",,447.8,run_exp/static/images/task_images/land.jpg,65,,,,,,,17,,,15,,,,,,,,31536,2,0,FALSE,,,
dig,218,909558,0.0-61.0-0.0,"""event"",""trial"",""time""
""fullscreenenter"",""1"",""5492""
","
","
","""event"",""trial"",""time""
""fullscreenenter"",""1"",""5492""
","
",,,,,,,,,,,,"[{""stimulus"":""run_exp/static/images/task_images/dig.jpg"",""time"":0.10000002384185791},{""stimulus"":""run_exp/static/images/task_images/land.jpg"",""time"":856.6000000238419},{""stimulus"":""run_exp/static/images/task_images/dig.jpg"",""time"":1705.2000000476837}]",[],15,,,,,,,,,,,,,,
harvest,219,910566,0.0-61.0-1.0,"""event"",""trial"",""time""
""fullscreenenter"",""1"",""5492""
","
","
","""event"",""trial"",""time""
""fullscreenenter"",""1"",""5492""
","
",,null,run_exp/static/images/task_images/gems/17.jpg,null,,,,,,,3,,,15,,,,,17,0.191838425,0.176470588,,,,,,,
decision,220,911148,0.0-61.0-2.0,"""event"",""trial"",""time""
""fullscreenenter"",""1"",""5492""
","
","
","""event"",""trial"",""time""
""fullscreenenter"",""1"",""5492""
","
",,580,run_exp/static/images/task_images/land.jpg,76,,,,,,,3,,,15,,,,,,,,35684,2,1,TRUE,,,
travel,221,920574,0.0-62.0-0.0,"""event"",""trial"",""time""
""fullscreenenter"",""1"",""5492""
","
","
","""event"",""trial"",""time""
""fullscreenenter"",""1"",""5492""
","
",,,,,,,,,,,,"[{""stimulus"":""run_exp/static/images/task_images/rocket-01.jpg"",""time"":0.10000002384185791},{""stimulus"":""run_exp/static/images/task_images/rocket-02.jpg"",""time"":1054.5},{""stimulus"":""run_exp/static/images/task_images/rocket-03.jpg"",""time"":2102.5},{""stimulus"":""run_exp/static/images/task_images/rocket-04.jpg"",""time"":3142.7000000476837},{""stimulus"":""run_exp/static/images/task_images/rocket-05.jpg"",""time"":4190.600000023842},{""stimulus"":""run_exp/static/images/task_images/rocket-06.jpg"",""time"":5238.5},{""stimulus"":""run_exp/static/images/task_images/rocket-07.jpg"",""time"":6286.299999952316},{""stimulus"":""run_exp/static/images/task_images/rocket-08.jpg"",""time"":7326.200000047684},{""stimulus"":""run_exp/static/images/task_images/rocket-09.jpg"",""time"":8374}]",[],15,,,,,,,,,,,,,,
alien_welcome,222,925598,0.0-62.0-1.0,"""event"",""trial"",""time""
""fullscreenenter"",""1"",""5492""
","
","
","""event"",""trial"",""time""
""fullscreenenter"",""1"",""5492""
","
",,null,run_exp/static/images/task_images/aliens/old_aliens/planet/alien_planet-45.jpg,null,,,,,,,,,,,,,45,"70,56,35,40,39,64,78,52,9,34,67,42,7,44,30,45,22,8,54,12,6,11,10,25,69,26,65,68,4,14,17,16,59,24,80,31,77,76,48,28,47,75,50,5,63",,,,,,,,,,
land,223,926103,0.0-62.0-2.0,"""event"",""trial"",""time""
""fullscreenenter"",""1"",""5492""
","
","
","""event"",""trial"",""time""
""fullscreenenter"",""1"",""5492""
","
",,null,run_exp/static/images/task_images/land.jpg,null,,,,,,,97,,,16,,,,,,,,,,,,,,
dig,224,928110,0.0-62.0-3.0,"""event"",""trial"",""time""
""fullscreenenter"",""1"",""5492""
","
","
","""event"",""trial"",""time""
""fullscreenenter"",""1"",""5492""
","
",,,,,,,,,,,,"[{""stimulus"":""run_exp/static/images/task_images/dig.jpg"",""time"":0.7999999523162842},{""stimulus"":""run_exp/static/images/task_images/land.jpg"",""time"":676.2000000476837},{""stimulus"":""run_exp/static/images/task_images/dig.jpg"",""time"":1340.3999999761581}]",[],16,,,,,,,,,,,,,,
harvest,225,929118,0.0-62.0-4.0,"""event"",""trial"",""time""
""fullscreenenter"",""1"",""5492""
","
","
","""event"",""trial"",""time""
""fullscreenenter"",""1"",""5492""
","
",,null,run_exp/static/images/task_images/gems/97.jpg,null,,,,,,,17,,,16,,,,,97,0.176605463,0.175257732,,,,,,,
decision,226,929305,0.0-62.0-5.0,"""event"",""trial"",""time""
""fullscreenenter"",""1"",""5492""
","
","
","""event"",""trial"",""time""
""fullscreenenter"",""1"",""5492""
","
",,183.9,run_exp/static/images/task_images/land.jpg,65,,,,,,,17,,,16,,,,,,,,53841,2,0,FALSE,,,
dig,227,932127,0.0-63.0-0.0,"""event"",""trial"",""time""
""fullscreenenter"",""1"",""5492""
","
","
","""event"",""trial"",""time""
""fullscreenenter"",""1"",""5492""
","
",,,,,,,,,,,,"[{""stimulus"":""run_exp/static/images/task_images/dig.jpg"",""time"":0.10000002384185791},{""stimulus"":""run_exp/static/images/task_images/land.jpg"",""time"":945},{""stimulus"":""run_exp/static/images/task_images/dig.jpg"",""time"":1881.3000000715256}]",[],16,,,,,,,,,,,,,,
harvest,228,933134,0.0-63.0-1.0,"""event"",""trial"",""time""
""fullscreenenter"",""1"",""5492""
","
","
","""event"",""trial"",""time""
""fullscreenenter"",""1"",""5492""
","
",,null,run_exp/static/images/task_images/gems/17.jpg,null,,,,,,,3,,,16,,,,,17,0.175670822,0.176470588,,,,,,,
decision,229,933329,0.0-63.0-2.0,"""event"",""trial"",""time""
""fullscreenenter"",""1"",""5492""
","
","
","""event"",""trial"",""time""
""fullscreenenter"",""1"",""5492""
","
",,192.4,run_exp/static/images/task_images/land.jpg,76,,,,,,,3,,,16,,,,,,,,57865,2,1,TRUE,,,
travel,230,943142,0.0-64.0-0.0,"""event"",""trial"",""time""
""fullscreenenter"",""1"",""5492""
","
","
","""event"",""trial"",""time""
""fullscreenenter"",""1"",""5492""
","
",,,,,,,,,,,,"[{""stimulus"":""run_exp/static/images/task_images/rocket-01.jpg"",""time"":0.19999992847442627},{""stimulus"":""run_exp/static/images/task_images/rocket-02.jpg"",""time"":1097.1000000238419},{""stimulus"":""run_exp/static/images/task_images/rocket-03.jpg"",""time"":2185},{""stimulus"":""run_exp/static/images/task_images/rocket-04.jpg"",""time"":3273.100000023842},{""stimulus"":""run_exp/static/images/task_images/rocket-05.jpg"",""time"":4360.100000023842},{""stimulus"":""run_exp/static/images/task_images/rocket-06.jpg"",""time"":5449.399999976158},{""stimulus"":""run_exp/static/images/task_images/rocket-07.jpg"",""time"":6536.899999976158},{""stimulus"":""run_exp/static/images/task_images/rocket-08.jpg"",""time"":7632.5},{""stimulus"":""run_exp/static/images/task_images/rocket-09.jpg"",""time"":8720.799999952316}]",[],16,,,,,,,,,,,,,,
alien_welcome,231,948150,0.0-64.0-1.0,"""event"",""trial"",""time""
""fullscreenenter"",""1"",""5492""
","
","
","""event"",""trial"",""time""
""fullscreenenter"",""1"",""5492""
","
",,null,run_exp/static/images/task_images/aliens/old_aliens/planet/alien_planet-22.jpg,null,,,,,,,,,,,,,22,"70,56,35,40,39,64,78,52,9,34,67,42,7,44,30,45,22,8,54,12,6,11,10,25,69,26,65,68,4,14,17,16,59,24,80,31,77,76,48,28,47,75,50,5,63",,,,,,,,,,
land,232,948654,0.0-64.0-2.0,"""event"",""trial"",""time""
""fullscreenenter"",""1"",""5492""
","
","
","""event"",""trial"",""time""
""fullscreenenter"",""1"",""5492""
","
",,null,run_exp/static/images/task_images/land.jpg,null,,,,,,,106,,,17,,,,,,,,,,,,,,
dig,233,950663,0.0-64.0-3.0,"""event"",""trial"",""time""
""fullscreenenter"",""1"",""5492""
","
","
","""event"",""trial"",""time""
""fullscreenenter"",""1"",""5492""
","
",,,,,,,,,,,,"[{""stimulus"":""run_exp/static/images/task_images/dig.jpg"",""time"":0.5},{""stimulus"":""run_exp/static/images/task_images/land.jpg"",""time"":678.2999999523163},{""stimulus"":""run_exp/static/images/task_images/dig.jpg"",""time"":1341.1999999284744}]",[],17,,,,,,,,,,,,,,
harvest,234,951670,0.0-64.0-4.0,"""event"",""trial"",""time""
""fullscreenenter"",""1"",""5492""
","
","
","""event"",""trial"",""time""
""fullscreenenter"",""1"",""5492""
","
",,null,run_exp/static/images/task_images/gems/106.jpg,null,,,,,,,88,,,17,,,,,106,0.830602352,0.830188679,,,,,,,
