trial_type,trial_index,time_elapsed,internal_node_id,interactions,blur_events,focus_events,fullscreenenter_events,fullscreenexit_events,success,rt,stimulus,key_press,prompt,subject_id,participant_id,age,gender,button_pressed,next_reward,animation_sequence,responses,planet,curr_prac_trial,n_prac_rounds,alien,aliens,reward_received,decay_rate_actual,decay_rate_exp,time_in_block,block_num,prt,last_trial_on_planet,button_html,bonus,num_failures
pavlovia,0,6,0.0-0.0,"""event"",""trial"",""time""
""blur"",""1"",""2937""
""focus"",""1"",""17909""
""fullscreenenter"",""1"",""22938""
","""event"",""trial"",""time""
""blur"",""1"",""2937""
","""event"",""trial"",""time""
""focus"",""1"",""17909""
","""event"",""trial"",""time""
""fullscreenenter"",""1"",""22938""
","
",,,,,,,,,,,,,,,,,,,,,,,,,,,,
fullscreen,1,23892,0.0-1.0,"""event"",""trial"",""time""
""blur"",""1"",""2937""
""focus"",""1"",""17909""
""fullscreenenter"",""1"",""22938""
","""event"",""trial"",""time""
""blur"",""1"",""2937""
","""event"",""trial"",""time""
""focus"",""1"",""17909""
","""event"",""trial"",""time""
""fullscreenenter"",""1"",""22938""
","
",TRUE,,,,,,,,,,,,,,,,,,,,,,,,,,,
instruc_welcome,2,33669,0.0-2.0,"""event"",""trial"",""time""
""blur"",""1"",""2937""
""focus"",""1"",""17909""
""fullscreenenter"",""1"",""22938""
","""event"",""trial"",""time""
""blur"",""1"",""2937""
","""event"",""trial"",""time""
""focus"",""1"",""17909""
","""event"",""trial"",""time""
""fullscreenenter"",""1"",""22938""
","
",,null,run_exp/static/audio/clip_1_welcome.m4a,null,"<p>Howdy! In this experiment, you’ll be an explorer traveling through space to collect space treasure.</p><p>Your mission is to collect as much treasure as possible.</p><br><br><p><img src='run_exp/static/images/task_images/opening_img-01.jpg' height='300' width='auto'></p>",9295,3529,12.58,Female,,,,,,,,,,,,,,,,,,,
audio-keyboard-response,3,50289,0.0-3.0,"""event"",""trial"",""time""
""blur"",""1"",""2937""
""focus"",""1"",""17909""
""fullscreenenter"",""1"",""22938""
","""event"",""trial"",""time""
""blur"",""1"",""2937""
","""event"",""trial"",""time""
""focus"",""1"",""17909""
","""event"",""trial"",""time""
""fullscreenenter"",""1"",""22938""
","
",,null,run_exp/static/audio/clip_2_move.m4a,null,,,,,,,,,,,,,,,,,,,,,,,,
welcome_dec,4,55482,0.0-4.0,"""event"",""trial"",""time""
""blur"",""1"",""2937""
""focus"",""1"",""17909""
""fullscreenenter"",""1"",""22938""
","""event"",""trial"",""time""
""blur"",""1"",""2937""
","""event"",""trial"",""time""
""focus"",""1"",""17909""
","""event"",""trial"",""time""
""fullscreenenter"",""1"",""22938""
","
",,5188.8,"<p>Howdy! In this experiment, you’ll be an explorer traveling through space to collect space treasure.</p><p>Your mission is to collect as much treasure as possible.</p><br><br><p><img src='run_exp/static/images/task_images/opening_img-01.jpg' height='300' width='auto'></p>",,,,,,,1,,,,,,,,,,,,,,,,,,
html-keyboard-response,5,57912,0.0-5.0,"""event"",""trial"",""time""
""blur"",""1"",""2937""
""focus"",""1"",""17909""
""fullscreenenter"",""1"",""22938""
","""event"",""trial"",""time""
""blur"",""1"",""2937""
","""event"",""trial"",""time""
""focus"",""1"",""17909""
","""event"",""trial"",""time""
""fullscreenenter"",""1"",""22938""
","
",,2427.6,"<p>Howdy! In this experiment, you’ll be an explorer traveling through space to collect space treasure.</p><p>Your mission is to collect as much treasure as possible.</p><br><br><p><img src='run_exp/static/images/task_images/opening_img-01.jpg' height='300' width='auto'></p><button class=""jspsych-html-btn-unchosen""><img src=""run_exp/static/images/task_images/planet-01.jpg"" height=""50""></button><button class=""jspsych-html-btn-chosen""><img src=""run_exp/static/images/task_images/planet-02.jpg"" height=""50""></button><p><b>[press the space bar to lock in your answer]<b><br></p>",32,,,,,,,,,,,,,,,,,,,,,,,,
instruc_goal,6,68007,0.0-6.0-0.0,"""event"",""trial"",""time""
""blur"",""1"",""2937""
""focus"",""1"",""17909""
""fullscreenenter"",""1"",""22938""
","""event"",""trial"",""time""
""blur"",""1"",""2937""
","""event"",""trial"",""time""
""focus"",""1"",""17909""
","""event"",""trial"",""time""
""fullscreenenter"",""1"",""22938""
","
",,null,run_exp/static/audio/clip_3_goal.m4a,null,"<p> As a space explorer, you’ll visit different planets to dig for space treasure, these pink gems.</p> <p> The more treasure you dig up, the more bonus money you’ll win! </p><br><br><p><img src='run_exp/static/images/task_images/pink_gem.jpg' height='300' width='auto'></p>",,,,,,,,,,,,,,,,,,,,,,,
instruc_goal,7,69722,0.0-6.0-1.0,"""event"",""trial"",""time""
""blur"",""1"",""2937""
""focus"",""1"",""17909""
""fullscreenenter"",""1"",""22938""
","""event"",""trial"",""time""
""blur"",""1"",""2937""
","""event"",""trial"",""time""
""focus"",""1"",""17909""
","""event"",""trial"",""time""
""fullscreenenter"",""1"",""22938""
","
",,1712.2,"<p> As a space explorer, you’ll visit different planets to dig for space treasure, these pink gems.</p> <p> The more treasure you dig up, the more bonus money you’ll win! </p><br><br><p><img src='run_exp/static/images/task_images/pink_gem.jpg' height='300' width='auto'></p>",,,,,,,1,,,,,,,,,,,,,,,,,,
html-keyboard-response,8,71728,0.0-6.0-2.0,"""event"",""trial"",""time""
""blur"",""1"",""2937""
""focus"",""1"",""17909""
""fullscreenenter"",""1"",""22938""
","""event"",""trial"",""time""
""blur"",""1"",""2937""
","""event"",""trial"",""time""
""focus"",""1"",""17909""
","""event"",""trial"",""time""
""fullscreenenter"",""1"",""22938""
","
",,2004.5,"<p> As a space explorer, you’ll visit different planets to dig for space treasure, these pink gems.</p> <p> The more treasure you dig up, the more bonus money you’ll win! </p><br><br><p><img src='run_exp/static/images/task_images/pink_gem.jpg' height='300' width='auto'></p><button class=""jspsych-html-btn-unchosen""><img src=""run_exp/static/images/task_images/planet-01.jpg"" height=""50""></button><button class=""jspsych-html-btn-chosen""><img src=""run_exp/static/images/task_images/planet-02.jpg"" height=""50""></button><p><b>[press the space bar to lock in your answer]<b><br></p>",32,,,,,,,,,,,,,,,,,,,,,,,,
instruc_dig,9,87748,0.0-7.0-0.0,"""event"",""trial"",""time""
""blur"",""1"",""2937""
""focus"",""1"",""17909""
""fullscreenenter"",""1"",""22938""
","""event"",""trial"",""time""
""blur"",""1"",""2937""
","""event"",""trial"",""time""
""focus"",""1"",""17909""
","""event"",""trial"",""time""
""fullscreenenter"",""1"",""22938""
","
",,null,run_exp/static/audio/clip_4_dig.m4a,null,,,,,,,100,,,,,,,,,,,,,,,,,
instruc_dig_try,10,89703,0.0-7.0-1.0,"""event"",""trial"",""time""
""blur"",""1"",""2937""
""focus"",""1"",""17909""
""fullscreenenter"",""1"",""22938""
","""event"",""trial"",""time""
""blur"",""1"",""2937""
","""event"",""trial"",""time""
""focus"",""1"",""17909""
","""event"",""trial"",""time""
""fullscreenenter"",""1"",""22938""
","
",,1951.8,"<p> When you’ve arrived at a new planet, you will dig once. </p> <p>Then, you get to decide if you want to stay on the planet and dig again or travel to a new planet and dig there.</p> <p> To stay and dig, press the letter <strong>‘A’</strong> on your keyboard. Try pressing it now! </p><p><img src='run_exp/static/images/task_images/land.jpg'  height='700' width='auto'></p>",65,"<p> When you’ve arrived at a new planet, you will dig once. </p> <p>Then, you get to decide if you want to stay on the planet and dig again or travel to a new planet and dig there.</p> <p> To stay and dig, press the letter <strong>‘A’</strong> on your keyboard. Try pressing it now! </p><p><img src='run_exp/static/images/task_images/land.jpg'  height='700' width='auto'></p>",,,,,,100,,,,,,,,,,,,,,,,,
dig_prac,11,91715,0.0-7.0-2.0,"""event"",""trial"",""time""
""blur"",""1"",""2937""
""focus"",""1"",""17909""
""fullscreenenter"",""1"",""22938""
","""event"",""trial"",""time""
""blur"",""1"",""2937""
","""event"",""trial"",""time""
""focus"",""1"",""17909""
","""event"",""trial"",""time""
""fullscreenenter"",""1"",""22938""
","
",,,,,,,,,,,,"[{""stimulus"":""run_exp/static/images/task_images/dig.jpg"",""time"":0.5},{""stimulus"":""run_exp/static/images/task_images/land.jpg"",""time"":668.6999999880791},{""stimulus"":""run_exp/static/images/task_images/dig.jpg"",""time"":1335.699999988079}]",[],,,,,,,,,,,,,,,
instruc_travel,12,127987,0.0-7.0-3.0,"""event"",""trial"",""time""
""blur"",""1"",""2937""
""focus"",""1"",""17909""
""fullscreenenter"",""1"",""22938""
","""event"",""trial"",""time""
""blur"",""1"",""2937""
","""event"",""trial"",""time""
""focus"",""1"",""17909""
","""event"",""trial"",""time""
""fullscreenenter"",""1"",""22938""
","
",,null,run_exp/static/audio/clip_5_travel.m4a,null,"<p>Every time you dig up gems, there are less gems on the planet, so the more you dig on a planet the fewer gems you’ll get with each dig.</p><p>When gems are running low, you may want to travel to a new planet. </p> <p>  Planets are very far apart in this galaxy, so it will take some time to travel between them. </p> <br><p>There are lots and lots of planets for you to visit, so you won’t be able to return to any planets you’ve seen before. </p><br><p>To leave this planet and travel to a new one, press the letter <strong>‘L’</strong> on your keyboard. Try pressing it now! </p><p><img src='run_exp/static/images/task_images/rocket-01.jpg'  height='600' width='auto'></p>",,,,,,,,,,,,,,,,,,,,,,,
instruc_travel_try,13,129175,0.0-7.0-4.0,"""event"",""trial"",""time""
""blur"",""1"",""2937""
""focus"",""1"",""17909""
""fullscreenenter"",""1"",""22938""
","""event"",""trial"",""time""
""blur"",""1"",""2937""
","""event"",""trial"",""time""
""focus"",""1"",""17909""
","""event"",""trial"",""time""
""fullscreenenter"",""1"",""22938""
","
",,1184.5,"<p>Every time you dig up gems, there are less gems on the planet, so the more you dig on a planet the fewer gems you’ll get with each dig.</p><p>When gems are running low, you may want to travel to a new planet. </p> <p>  Planets are very far apart in this galaxy, so it will take some time to travel between them. </p> <br><p>There are lots and lots of planets for you to visit, so you won’t be able to return to any planets you’ve seen before. </p><br><p>To leave this planet and travel to a new one, press the letter <strong>‘L’</strong> on your keyboard. Try pressing it now! </p><p><img src='run_exp/static/images/task_images/rocket-01.jpg'  height='600' width='auto'></p>",76,"<p>Every time you dig up gems, there are less gems on the planet, so the more you dig on a planet the fewer gems you’ll get with each dig.</p><p>When gems are running low, you may want to travel to a new planet. </p> <p>  Planets are very far apart in this galaxy, so it will take some time to travel between them. </p> <br><p>There are lots and lots of planets for you to visit, so you won’t be able to return to any planets you’ve seen before. </p><br><p>To leave this planet and travel to a new one, press the letter <strong>‘L’</strong> on your keyboard. Try pressing it now! </p><p><img src='run_exp/static/images/task_images/rocket-01.jpg'  height='600' width='auto'></p>",,,,,,,,,,,,,,,,,,,,,,,
travel_prac,14,139178,0.0-7.0-5.0,"""event"",""trial"",""time""
""blur"",""1"",""2937""
""focus"",""1"",""17909""
""fullscreenenter"",""1"",""22938""
","""event"",""trial"",""time""
""blur"",""1"",""2937""
","""event"",""trial"",""time""
""focus"",""1"",""17909""
","""event"",""trial"",""time""
""fullscreenenter"",""1"",""22938""
","
",,,,,,,,,,,,"[{""stimulus"":""run_exp/static/images/task_images/rocket-01.jpg"",""time"":0.3999999761581421},{""stimulus"":""run_exp/static/images/task_images/rocket-02.jpg"",""time"":1112.8999999761581},{""stimulus"":""run_exp/static/images/task_images/rocket-03.jpg"",""time"":2225},{""stimulus"":""run_exp/static/images/task_images/rocket-04.jpg"",""time"":3335.100000023842},{""stimulus"":""run_exp/static/images/task_images/rocket-05.jpg"",""time"":4445.800000011921},{""stimulus"":""run_exp/static/images/task_images/rocket-06.jpg"",""time"":5557.600000023842},{""stimulus"":""run_exp/static/images/task_images/rocket-07.jpg"",""time"":6667.399999976158},{""stimulus"":""run_exp/static/images/task_images/rocket-08.jpg"",""time"":7779.399999976158},{""stimulus"":""run_exp/static/images/task_images/rocket-09.jpg"",""time"":8889.399999976158}]",[],0,,,,,,,,,,,,,,
instruc_alien_greet,15,166387,0.0-7.0-6.0,"""event"",""trial"",""time""
""blur"",""1"",""2937""
""focus"",""1"",""17909""
""fullscreenenter"",""1"",""22938""
","""event"",""trial"",""time""
""blur"",""1"",""2937""
","""event"",""trial"",""time""
""focus"",""1"",""17909""
","""event"",""trial"",""time""
""fullscreenenter"",""1"",""22938""
","
",,null,run_exp/static/audio/clip_6_alien.m4a,null,"<p>When you arrive at a new planet, the alien who owns the treasure mine on that planet will greet you!</p><p>The better an alien takes care of their mine the easier it is to dig for gems. Some aliens take better care of their mine than others. So, you won’t get exactly the same amount of gems on each planet.</p><p>What the alien looks like does not tell you anything about how many gems there are on the planet.</p><br><p><img src=""run_exp/static/images/task_images/aliens/instructions_aliens/planet/alien_planet-1.jpg""  height=""600"" width=""auto""></p>",,,,,,,,,,,,,,,,,,,,,,,
instruc_alien_greet,16,169361,0.0-7.0-7.0,"""event"",""trial"",""time""
""blur"",""1"",""2937""
""focus"",""1"",""17909""
""fullscreenenter"",""1"",""22938""
","""event"",""trial"",""time""
""blur"",""1"",""2937""
","""event"",""trial"",""time""
""focus"",""1"",""17909""
","""event"",""trial"",""time""
""fullscreenenter"",""1"",""22938""
","
",,2970.4,"<p>When you arrive at a new planet, the alien who owns the treasure mine on that planet will greet you!</p><p>The better an alien takes care of their mine the easier it is to dig for gems. Some aliens take better care of their mine than others. So, you won’t get exactly the same amount of gems on each planet.</p><p>What the alien looks like does not tell you anything about how many gems there are on the planet.</p><br><p><img src=""run_exp/static/images/task_images/aliens/instructions_aliens/planet/alien_planet-1.jpg""  height=""600"" width=""auto""></p>",,,,,,,1,,,,,,,,,,,,,,,,,,
html-keyboard-response,17,169518,0.0-7.0-8.0,"""event"",""trial"",""time""
""blur"",""1"",""2937""
""focus"",""1"",""17909""
""fullscreenenter"",""1"",""22938""
","""event"",""trial"",""time""
""blur"",""1"",""2937""
","""event"",""trial"",""time""
""focus"",""1"",""17909""
","""event"",""trial"",""time""
""fullscreenenter"",""1"",""22938""
","
",,155.3,"<p>When you arrive at a new planet, the alien who owns the treasure mine on that planet will greet you!</p><p>The better an alien takes care of their mine the easier it is to dig for gems. Some aliens take better care of their mine than others. So, you won’t get exactly the same amount of gems on each planet.</p><p>What the alien looks like does not tell you anything about how many gems there are on the planet.</p><br><p><img src=""run_exp/static/images/task_images/aliens/instructions_aliens/planet/alien_planet-1.jpg""  height=""600"" width=""auto""></p><button class=""jspsych-html-btn-unchosen""><img src=""run_exp/static/images/task_images/planet-01.jpg"" height=""50""></button><button class=""jspsych-html-btn-chosen""><img src=""run_exp/static/images/task_images/planet-02.jpg"" height=""50""></button><p><b>[press the space bar to lock in your answer]<b><br></p>",32,,,,,,,,,,,,,,,,,,,,,,,,
time_out,18,180586,0.0-8.0-0.0,"""event"",""trial"",""time""
""blur"",""1"",""2937""
""focus"",""1"",""17909""
""fullscreenenter"",""1"",""22938""
","""event"",""trial"",""time""
""blur"",""1"",""2937""
","""event"",""trial"",""time""
""focus"",""1"",""17909""
","""event"",""trial"",""time""
""fullscreenenter"",""1"",""22938""
","
",,null,run_exp/static/audio/clip_7_timeout.m4a,null,"<p>If you don't make your choice fast enough, you’ll have to wait a few seconds before you can make another one.</p><p>You can’t dig for more gems or travel to new planets. You just have to sit and wait.</p><br><p><img src='run_exp/static/images/task_images/time_out.jpg'  height='600' width='auto'></p>",,,,,,,,,,,,,,,,,,,,,,,
time_out,19,181752,0.0-8.0-1.0,"""event"",""trial"",""time""
""blur"",""1"",""2937""
""focus"",""1"",""17909""
""fullscreenenter"",""1"",""22938""
","""event"",""trial"",""time""
""blur"",""1"",""2937""
","""event"",""trial"",""time""
""focus"",""1"",""17909""
","""event"",""trial"",""time""
""fullscreenenter"",""1"",""22938""
","
",,1162.2,"<p>If you don't make your choice fast enough, you’ll have to wait a few seconds before you can make another one.</p><p>You can’t dig for more gems or travel to new planets. You just have to sit and wait.</p><br><p><img src='run_exp/static/images/task_images/time_out.jpg'  height='600' width='auto'></p>",,,,,,,1,,,,,,,,,,,,,,,,,,
html-keyboard-response,20,181910,0.0-8.0-2.0,"""event"",""trial"",""time""
""blur"",""1"",""2937""
""focus"",""1"",""17909""
""fullscreenenter"",""1"",""22938""
","""event"",""trial"",""time""
""blur"",""1"",""2937""
","""event"",""trial"",""time""
""focus"",""1"",""17909""
","""event"",""trial"",""time""
""fullscreenenter"",""1"",""22938""
","
",,156.3,"<p>If you don't make your choice fast enough, you’ll have to wait a few seconds before you can make another one.</p><p>You can’t dig for more gems or travel to new planets. You just have to sit and wait.</p><br><p><img src='run_exp/static/images/task_images/time_out.jpg'  height='600' width='auto'></p><button class=""jspsych-html-btn-unchosen""><img src=""run_exp/static/images/task_images/planet-01.jpg"" height=""50""></button><button class=""jspsych-html-btn-chosen""><img src=""run_exp/static/images/task_images/planet-02.jpg"" height=""50""></button><p><b>[press the space bar to lock in your answer]<b><br></p>",32,,,,,,,,,,,,,,,,,,,,,,,,
instruc_break,21,197586,0.0-9.0-0.0,"""event"",""trial"",""time""
""blur"",""1"",""2937""
""focus"",""1"",""17909""
""fullscreenenter"",""1"",""22938""
","""event"",""trial"",""time""
""blur"",""1"",""2937""
","""event"",""trial"",""time""
""focus"",""1"",""17909""
","""event"",""trial"",""time""
""fullscreenenter"",""1"",""22938""
","
",,null,run_exp/static/audio/clip_8_break.m4a,null,"<p> After digging and traveling for a while, you’ll be able to take a break at home base. </p><p>The game will last 20 minutes no matter what.</p><p>You will visit home base every 5 minutes, so, you will visit home base three times during the game.</p><br><p><img src='run_exp/static/images/task_images/home_base.jpg' height='600' width='auto'></p>",,,,,,,,,,,,,,,,,,,,,,,
instruc_break,22,200464,0.0-9.0-1.0,"""event"",""trial"",""time""
""blur"",""1"",""2937""
""focus"",""1"",""17909""
""fullscreenenter"",""1"",""22938""
","""event"",""trial"",""time""
""blur"",""1"",""2937""
","""event"",""trial"",""time""
""focus"",""1"",""17909""
","""event"",""trial"",""time""
""fullscreenenter"",""1"",""22938""
","
",,2873.5,"<p> After digging and traveling for a while, you’ll be able to take a break at home base. </p><p>The game will last 20 minutes no matter what.</p><p>You will visit home base every 5 minutes, so, you will visit home base three times during the game.</p><br><p><img src='run_exp/static/images/task_images/home_base.jpg' height='600' width='auto'></p>",,,,,,,1,,,,,,,,,,,,,,,,,,
html-keyboard-response,23,200630,0.0-9.0-2.0,"""event"",""trial"",""time""
""blur"",""1"",""2937""
""focus"",""1"",""17909""
""fullscreenenter"",""1"",""22938""
","""event"",""trial"",""time""
""blur"",""1"",""2937""
","""event"",""trial"",""time""
""focus"",""1"",""17909""
","""event"",""trial"",""time""
""fullscreenenter"",""1"",""22938""
","
",,164.7,"<p> After digging and traveling for a while, you’ll be able to take a break at home base. </p><p>The game will last 20 minutes no matter what.</p><p>You will visit home base every 5 minutes, so, you will visit home base three times during the game.</p><br><p><img src='run_exp/static/images/task_images/home_base.jpg' height='600' width='auto'></p><button class=""jspsych-html-btn-unchosen""><img src=""run_exp/static/images/task_images/planet-01.jpg"" height=""50""></button><button class=""jspsych-html-btn-chosen""><img src=""run_exp/static/images/task_images/planet-02.jpg"" height=""50""></button><p><b>[press the space bar to lock in your answer]<b><br></p>",32,,,,,,,,,,,,,,,,,,,,,,,,
instruc_prac_game,24,210766,0.0-10.0-0.0,"""event"",""trial"",""time""
""blur"",""1"",""2937""
""focus"",""1"",""17909""
""fullscreenenter"",""1"",""22938""
","""event"",""trial"",""time""
""blur"",""1"",""2937""
","""event"",""trial"",""time""
""focus"",""1"",""17909""
","""event"",""trial"",""time""
""fullscreenenter"",""1"",""22938""
","
",,null,run_exp/static/audio/clip_9_practice.m4a,null,"<p> Are you ready to play a practice game? </p> <p>In this practice game, you'll be digging up barrels of gems. But, in the real game, you'll be digging up the gems themselves. </p>",,,,,,,,,,,,,,,,,,,,,,,
html-button-response,25,212664,0.0-10.0-1.0,"""event"",""trial"",""time""
""blur"",""1"",""2937""
""focus"",""1"",""17909""
""fullscreenenter"",""1"",""22938""
","""event"",""trial"",""time""
""blur"",""1"",""2937""
","""event"",""trial"",""time""
""focus"",""1"",""17909""
","""event"",""trial"",""time""
""fullscreenenter"",""1"",""22938""
","
",,1895,"<p> Are you ready to play a practice game? </p> <p>In this practice game, you'll be digging up barrels of gems. But, in the real game, you'll be digging up the gems themselves. </p>",,,,,,,0,,,,,,,,,,,,,,,,,,
alien_welcome_prac,26,217668,0.0-11.0-0.0,"""event"",""trial"",""time""
""blur"",""1"",""2937""
""focus"",""1"",""17909""
""fullscreenenter"",""1"",""22938""
","""event"",""trial"",""time""
""blur"",""1"",""2937""
","""event"",""trial"",""time""
""focus"",""1"",""17909""
","""event"",""trial"",""time""
""fullscreenenter"",""1"",""22938""
","
",,null,run_exp/static/images/task_images/aliens/practice_aliens/planet/alien_planet-5.jpg,null,,,,,,,,,,,,,,,,,,,,,,,,
land_prac,27,218170,0.0-11.0-1.0,"""event"",""trial"",""time""
""blur"",""1"",""2937""
""focus"",""1"",""17909""
""fullscreenenter"",""1"",""22938""
","""event"",""trial"",""time""
""blur"",""1"",""2937""
","""event"",""trial"",""time""
""focus"",""1"",""17909""
","""event"",""trial"",""time""
""fullscreenenter"",""1"",""22938""
","
",,null,run_exp/static/images/task_images/land.jpg,null,,,,,,,98,,,0,,,,,,,,,,,,,,
dig_prac,28,220175,0.0-11.0-2.0,"""event"",""trial"",""time""
""blur"",""1"",""2937""
""focus"",""1"",""17909""
""fullscreenenter"",""1"",""22938""
","""event"",""trial"",""time""
""blur"",""1"",""2937""
","""event"",""trial"",""time""
""focus"",""1"",""17909""
","""event"",""trial"",""time""
""fullscreenenter"",""1"",""22938""
","
",,,,,,,,,,,,"[{""stimulus"":""run_exp/static/images/task_images/dig.jpg"",""time"":0.30000001192092896},{""stimulus"":""run_exp/static/images/task_images/land.jpg"",""time"":668.6999999880791},{""stimulus"":""run_exp/static/images/task_images/dig.jpg"",""time"":1335.3999999761581}]",[],,,,,,,,,,,,,,,
harvest_prac,29,221178,0.0-11.0-3.0,"""event"",""trial"",""time""
""blur"",""1"",""2937""
""focus"",""1"",""17909""
""fullscreenenter"",""1"",""22938""
","""event"",""trial"",""time""
""blur"",""1"",""2937""
","""event"",""trial"",""time""
""focus"",""1"",""17909""
","""event"",""trial"",""time""
""fullscreenenter"",""1"",""22938""
","
",,null,run_exp/static/images/task_images/barrel_text.jpg,null,,,,,,,,,,,,,,,,,,,,,,,,
decision_prac,30,222070,0.0-11.0-4.0,"""event"",""trial"",""time""
""blur"",""1"",""2937""
""focus"",""1"",""17909""
""fullscreenenter"",""1"",""22938""
","""event"",""trial"",""time""
""blur"",""1"",""2937""
","""event"",""trial"",""time""
""focus"",""1"",""17909""
","""event"",""trial"",""time""
""fullscreenenter"",""1"",""22938""
","
",,889.2,run_exp/static/images/task_images/land.jpg,65,,,,,,,,,,,1,,,,,,,,,,,,,
dig_prac,31,224077,0.0-12.0-0.0,"""event"",""trial"",""time""
""blur"",""1"",""2937""
""focus"",""1"",""17909""
""fullscreenenter"",""1"",""22938""
","""event"",""trial"",""time""
""blur"",""1"",""2937""
","""event"",""trial"",""time""
""focus"",""1"",""17909""
","""event"",""trial"",""time""
""fullscreenenter"",""1"",""22938""
","
",,,,,,,,,,,,"[{""stimulus"":""run_exp/static/images/task_images/dig.jpg"",""time"":0.19999998807907104},{""stimulus"":""run_exp/static/images/task_images/land.jpg"",""time"":668.5},{""stimulus"":""run_exp/static/images/task_images/dig.jpg"",""time"":1335.6000000238419}]",[],,,,,,,,,,,,,,,
harvest_prac,32,225080,0.0-12.0-1.0,"""event"",""trial"",""time""
""blur"",""1"",""2937""
""focus"",""1"",""17909""
""fullscreenenter"",""1"",""22938""
","""event"",""trial"",""time""
""blur"",""1"",""2937""
","""event"",""trial"",""time""
""focus"",""1"",""17909""
","""event"",""trial"",""time""
""fullscreenenter"",""1"",""22938""
","
",,null,run_exp/static/images/task_images/barrel_text.jpg,null,,,,,,,,,,,,,,,,,,,,,,,,
decision_prac,33,226326,0.0-12.0-2.0,"""event"",""trial"",""time""
""blur"",""1"",""2937""
""focus"",""1"",""17909""
""fullscreenenter"",""1"",""22938""
","""event"",""trial"",""time""
""blur"",""1"",""2937""
","""event"",""trial"",""time""
""focus"",""1"",""17909""
","""event"",""trial"",""time""
""fullscreenenter"",""1"",""22938""
","
",,1245.5,run_exp/static/images/task_images/land.jpg,65,,,,,,,,,,,2,,,,,,,,,,,,,
dig_prac,34,228334,0.0-13.0-0.0,"""event"",""trial"",""time""
""blur"",""1"",""2937""
""focus"",""1"",""17909""
""fullscreenenter"",""1"",""22938""
","""event"",""trial"",""time""
""blur"",""1"",""2937""
","""event"",""trial"",""time""
""focus"",""1"",""17909""
","""event"",""trial"",""time""
""fullscreenenter"",""1"",""22938""
","
",,,,,,,,,,,,"[{""stimulus"":""run_exp/static/images/task_images/dig.jpg"",""time"":0.2999999523162842},{""stimulus"":""run_exp/static/images/task_images/land.jpg"",""time"":668.5999999642372},{""stimulus"":""run_exp/static/images/task_images/dig.jpg"",""time"":1335.8999999761581}]",[],,,,,,,,,,,,,,,
harvest_prac,35,229337,0.0-13.0-1.0,"""event"",""trial"",""time""
""blur"",""1"",""2937""
""focus"",""1"",""17909""
""fullscreenenter"",""1"",""22938""
","""event"",""trial"",""time""
""blur"",""1"",""2937""
","""event"",""trial"",""time""
""focus"",""1"",""17909""
","""event"",""trial"",""time""
""fullscreenenter"",""1"",""22938""
","
",,null,run_exp/static/images/task_images/barrel_text.jpg,null,,,,,,,,,,,,,,,,,,,,,,,,
decision_prac,36,230262,0.0-13.0-2.0,"""event"",""trial"",""time""
""blur"",""1"",""2937""
""focus"",""1"",""17909""
""fullscreenenter"",""1"",""22938""
","""event"",""trial"",""time""
""blur"",""1"",""2937""
","""event"",""trial"",""time""
""focus"",""1"",""17909""
","""event"",""trial"",""time""
""fullscreenenter"",""1"",""22938""
","
",,923.9,run_exp/static/images/task_images/land.jpg,65,,,,,,,,,,,3,,,,,,,,,,,,,
dig_prac,37,232269,0.0-14.0-0.0,"""event"",""trial"",""time""
""blur"",""1"",""2937""
""focus"",""1"",""17909""
""fullscreenenter"",""1"",""22938""
","""event"",""trial"",""time""
""blur"",""1"",""2937""
","""event"",""trial"",""time""
""focus"",""1"",""17909""
","""event"",""trial"",""time""
""fullscreenenter"",""1"",""22938""
","
",,,,,,,,,,,,"[{""stimulus"":""run_exp/static/images/task_images/dig.jpg"",""time"":0.40000003576278687},{""stimulus"":""run_exp/static/images/task_images/land.jpg"",""time"":668.8000000119209},{""stimulus"":""run_exp/static/images/task_images/dig.jpg"",""time"":1336.6000000238419}]",[],,,,,,,,,,,,,,,
harvest_prac,38,233272,0.0-14.0-1.0,"""event"",""trial"",""time""
""blur"",""1"",""2937""
""focus"",""1"",""17909""
""fullscreenenter"",""1"",""22938""
","""event"",""trial"",""time""
""blur"",""1"",""2937""
","""event"",""trial"",""time""
""focus"",""1"",""17909""
","""event"",""trial"",""time""
""fullscreenenter"",""1"",""22938""
","
",,null,run_exp/static/images/task_images/barrel_text.jpg,null,,,,,,,,,,,,,,,,,,,,,,,,
decision_prac,39,234478,0.0-14.0-2.0,"""event"",""trial"",""time""
""blur"",""1"",""2937""
""focus"",""1"",""17909""
""fullscreenenter"",""1"",""22938""
","""event"",""trial"",""time""
""blur"",""1"",""2937""
","""event"",""trial"",""time""
""focus"",""1"",""17909""
","""event"",""trial"",""time""
""fullscreenenter"",""1"",""22938""
","
",,1204.9,run_exp/static/images/task_images/land.jpg,76,,,,,,,,,,,4,,,,,,,,,,,,,
travel,40,243277,0.0-15.0-0.0,"""event"",""trial"",""time""
""blur"",""1"",""2937""
""focus"",""1"",""17909""
""fullscreenenter"",""1"",""22938""
","""event"",""trial"",""time""
""blur"",""1"",""2937""
","""event"",""trial"",""time""
""focus"",""1"",""17909""
","""event"",""trial"",""time""
""fullscreenenter"",""1"",""22938""
","
",,,,,,,,,,,,"[{""stimulus"":""run_exp/static/images/task_images/rocket-01.jpg"",""time"":0.30000001192092896},{""stimulus"":""run_exp/static/images/task_images/rocket-02.jpg"",""time"":979.8000000119209},{""stimulus"":""run_exp/static/images/task_images/rocket-03.jpg"",""time"":1955.300000011921},{""stimulus"":""run_exp/static/images/task_images/rocket-04.jpg"",""time"":2933},{""stimulus"":""run_exp/static/images/task_images/rocket-05.jpg"",""time"":3909.800000011921},{""stimulus"":""run_exp/static/images/task_images/rocket-06.jpg"",""time"":4887.699999988079},{""stimulus"":""run_exp/static/images/task_images/rocket-07.jpg"",""time"":5863.399999976158},{""stimulus"":""run_exp/static/images/task_images/rocket-08.jpg"",""time"":6842},{""stimulus"":""run_exp/static/images/task_images/rocket-09.jpg"",""time"":7818.600000023842}]",[],0,,,,,,,,,,,,,,
alien_welcome_prac,41,248279,0.0-15.0-1.0,"""event"",""trial"",""time""
""blur"",""1"",""2937""
""focus"",""1"",""17909""
""fullscreenenter"",""1"",""22938""
","""event"",""trial"",""time""
""blur"",""1"",""2937""
","""event"",""trial"",""time""
""focus"",""1"",""17909""
","""event"",""trial"",""time""
""fullscreenenter"",""1"",""22938""
","
",,null,run_exp/static/images/task_images/aliens/practice_aliens/planet/alien_planet-4.jpg,null,,,,,,,,,,,,,,,,,,,,,,,,
land_prac,42,248781,0.0-15.0-2.0,"""event"",""trial"",""time""
""blur"",""1"",""2937""
""focus"",""1"",""17909""
""fullscreenenter"",""1"",""22938""
","""event"",""trial"",""time""
""blur"",""1"",""2937""
","""event"",""trial"",""time""
""focus"",""1"",""17909""
","""event"",""trial"",""time""
""fullscreenenter"",""1"",""22938""
","
",,null,run_exp/static/images/task_images/land.jpg,null,,,,,,,102,,,0,,,,,,,,,,,,,,
dig_prac,43,250787,0.0-15.0-3.0,"""event"",""trial"",""time""
""blur"",""1"",""2937""
""focus"",""1"",""17909""
""fullscreenenter"",""1"",""22938""
","""event"",""trial"",""time""
""blur"",""1"",""2937""
","""event"",""trial"",""time""
""focus"",""1"",""17909""
","""event"",""trial"",""time""
""fullscreenenter"",""1"",""22938""
","
",,,,,,,,,,,,"[{""stimulus"":""run_exp/static/images/task_images/dig.jpg"",""time"":0.40000003576278687},{""stimulus"":""run_exp/static/images/task_images/land.jpg"",""time"":669.2000000476837},{""stimulus"":""run_exp/static/images/task_images/dig.jpg"",""time"":1336.300000011921}]",[],,,,,,,,,,,,,,,
harvest_prac,44,251789,0.0-15.0-4.0,"""event"",""trial"",""time""
""blur"",""1"",""2937""
""focus"",""1"",""17909""
""fullscreenenter"",""1"",""22938""
","""event"",""trial"",""time""
""blur"",""1"",""2937""
","""event"",""trial"",""time""
""focus"",""1"",""17909""
","""event"",""trial"",""time""
""fullscreenenter"",""1"",""22938""
","
",,null,run_exp/static/images/task_images/barrel_text.jpg,null,,,,,,,,,,,,,,,,,,,,,,,,
decision_prac,45,252926,0.0-15.0-5.0,"""event"",""trial"",""time""
""blur"",""1"",""2937""
""focus"",""1"",""17909""
""fullscreenenter"",""1"",""22938""
","""event"",""trial"",""time""
""blur"",""1"",""2937""
","""event"",""trial"",""time""
""focus"",""1"",""17909""
","""event"",""trial"",""time""
""fullscreenenter"",""1"",""22938""
","
",,1134.8,run_exp/static/images/task_images/land.jpg,65,,,,,,,,,,,,1,,,,,,,,,,,,
quiz_instruc,46,264256,0.0-16.0-0.0,"""event"",""trial"",""time""
""blur"",""1"",""2937""
""focus"",""1"",""17909""
""fullscreenenter"",""1"",""22938""
""fullscreenexit"",""47"",""285031""
","""event"",""trial"",""time""
""blur"",""1"",""2937""
","""event"",""trial"",""time""
""focus"",""1"",""17909""
","""event"",""trial"",""time""
""fullscreenenter"",""1"",""22938""
","""event"",""trial"",""time""
""fullscreenexit"",""47"",""285031""
",,11325.5,run_exp/static/audio/clip_10_quiz.m4a,,,,,,,0,,,,,,,,,,,,,,,,,,
instruc_repeat,47,307076,0.0-16.0-1.0,"""event"",""trial"",""time""
""blur"",""1"",""2937""
""focus"",""1"",""17909""
""fullscreenenter"",""1"",""22938""
""fullscreenexit"",""47"",""285031""
","""event"",""trial"",""time""
""blur"",""1"",""2937""
","""event"",""trial"",""time""
""focus"",""1"",""17909""
","""event"",""trial"",""time""
""fullscreenenter"",""1"",""22938""
","""event"",""trial"",""time""
""fullscreenexit"",""47"",""285031""
",,null,"<p> Are you ready to play a practice game? </p> <p>In this practice game, you'll be digging up barrels of gems. But, in the real game, you'll be digging up the gems themselves. </p>",null,"<p>In this game, your goal is to collect as many gems as you can. That’s how you will win bonus money. </p> <p>The entire game will last 20 minutes no matter how many gems you collect or how many planets you visit. </p><p>To stay on a planet and dig again, press the letter A on your keyboard. To leave for a new planet, press the letter L.</p><p>The more you dig on a planet, the fewer gems you’ll get with each dig which is why you might consider leaving for a new planet. </p><p>When you arrive at a new planet, you’ll be greeted by an alien. What the alien looks like does not tell you anything about how much treasure is on the planet. </p>",,,,,,,,,,,,,,,,,,,,,,,
instruc_repeat_continue,48,310543,0.0-16.0-2.0,"""event"",""trial"",""time""
""blur"",""1"",""2937""
""focus"",""1"",""17909""
""fullscreenenter"",""1"",""22938""
""fullscreenexit"",""47"",""285031""
","""event"",""trial"",""time""
""blur"",""1"",""2937""
","""event"",""trial"",""time""
""focus"",""1"",""17909""
","""event"",""trial"",""time""
""fullscreenenter"",""1"",""22938""
","""event"",""trial"",""time""
""fullscreenexit"",""47"",""285031""
",,3465.4,"<p> Are you ready to play a practice game? </p> <p>In this practice game, you'll be digging up barrels of gems. But, in the real game, you'll be digging up the gems themselves. </p>",,,,,,,0,,,,,,,,,,,,,,,,,,
quiz_q_1_ask,49,319687,0.0-16.0-3.0,"""event"",""trial"",""time""
""blur"",""1"",""2937""
""focus"",""1"",""17909""
""fullscreenenter"",""1"",""22938""
""fullscreenexit"",""47"",""285031""
","""event"",""trial"",""time""
""blur"",""1"",""2937""
","""event"",""trial"",""time""
""focus"",""1"",""17909""
","""event"",""trial"",""time""
""fullscreenenter"",""1"",""22938""
","""event"",""trial"",""time""
""fullscreenexit"",""47"",""285031""
",,9142,run_exp/static/audio/clip_11_q1_ask.m4a,,,,,,,0,,,,,,,,,,,,,,,,,,
quiz_q_1_fb_incorrect,50,323197,0.0-17.0-0.0,"""event"",""trial"",""time""
""blur"",""1"",""2937""
""focus"",""1"",""17909""
""fullscreenenter"",""1"",""22938""
""fullscreenexit"",""47"",""285031""
","""event"",""trial"",""time""
""blur"",""1"",""2937""
","""event"",""trial"",""time""
""focus"",""1"",""17909""
","""event"",""trial"",""time""
""fullscreenenter"",""1"",""22938""
","""event"",""trial"",""time""
""fullscreenexit"",""47"",""285031""
",,null,run_exp/static/audio/clip_13_q1_incorrect.m4a,null,<p>That’s incorrect. You win extra money by collecting more gems.</p>,,,,,,,,,,,,,,,,,,,,,,,
quiz_q_2_ask,51,328087,0.0-17.0-1.0,"""event"",""trial"",""time""
""blur"",""1"",""2937""
""focus"",""1"",""17909""
""fullscreenenter"",""1"",""22938""
""fullscreenexit"",""47"",""285031""
","""event"",""trial"",""time""
""blur"",""1"",""2937""
","""event"",""trial"",""time""
""focus"",""1"",""17909""
","""event"",""trial"",""time""
""fullscreenenter"",""1"",""22938""
","""event"",""trial"",""time""
""fullscreenexit"",""47"",""285031""
",,4888.7,run_exp/static/audio/clip_14_q2_ask.m4a,,,,,,,1,,,,,,,,,,,,,,,,,,
quiz_q_2_fb_correct,52,332095,0.0-18.0-0.0,"""event"",""trial"",""time""
""blur"",""1"",""2937""
""focus"",""1"",""17909""
""fullscreenenter"",""1"",""22938""
""fullscreenexit"",""47"",""285031""
","""event"",""trial"",""time""
""blur"",""1"",""2937""
","""event"",""trial"",""time""
""focus"",""1"",""17909""
","""event"",""trial"",""time""
""fullscreenenter"",""1"",""22938""
","""event"",""trial"",""time""
""fullscreenexit"",""47"",""285031""
",,null,run_exp/static/audio/clip_15_q2_correct.m4a,null,<p>That’s correct. The experiment is 20 minutes no matter what.</p>,,,,,,,,,,,,,,,,,,,,,,,
quiz_q_3_ask,53,335199,0.0-18.0-1.0,"""event"",""trial"",""time""
""blur"",""1"",""2937""
""focus"",""1"",""17909""
""fullscreenenter"",""1"",""22938""
""fullscreenexit"",""47"",""285031""
","""event"",""trial"",""time""
""blur"",""1"",""2937""
","""event"",""trial"",""time""
""focus"",""1"",""17909""
","""event"",""trial"",""time""
""fullscreenenter"",""1"",""22938""
","""event"",""trial"",""time""
""fullscreenexit"",""47"",""285031""
",,3101.3,run_exp/static/audio/clip_17_q3_ask.m4a,,,,,,,1,,,,,,,,,,,,,,,,,,
quiz_q_3_fb_correct,54,339196,0.0-19.0-0.0,"""event"",""trial"",""time""
""blur"",""1"",""2937""
""focus"",""1"",""17909""
""fullscreenenter"",""1"",""22938""
""fullscreenexit"",""47"",""285031""
","""event"",""trial"",""time""
""blur"",""1"",""2937""
","""event"",""trial"",""time""
""focus"",""1"",""17909""
","""event"",""trial"",""time""
""fullscreenenter"",""1"",""22938""
","""event"",""trial"",""time""
""fullscreenexit"",""47"",""285031""
",,null,run_exp/static/audio/clip_18_q3_correct.m4a,null,<p> That’s correct. You press the letter L to travel to a new planet.</p>,,,,,,,,,,,,,,,,,,,,,,,
quiz_q_4_ask,55,344542,0.0-19.0-1.0,"""event"",""trial"",""time""
""blur"",""1"",""2937""
""focus"",""1"",""17909""
""fullscreenenter"",""1"",""22938""
""fullscreenexit"",""47"",""285031""
","""event"",""trial"",""time""
""blur"",""1"",""2937""
","""event"",""trial"",""time""
""focus"",""1"",""17909""
","""event"",""trial"",""time""
""fullscreenenter"",""1"",""22938""
","""event"",""trial"",""time""
""fullscreenexit"",""47"",""285031""
",,5344.8,run_exp/static/audio/clip_20_q4_ask.m4a,,,,,,,0,,,,,,,,,,,,,,,,,,
quiz_q_4_fb_correct,56,349876,0.0-20.0-0.0,"""event"",""trial"",""time""
""blur"",""1"",""2937""
""focus"",""1"",""17909""
""fullscreenenter"",""1"",""22938""
""fullscreenexit"",""47"",""285031""
","""event"",""trial"",""time""
""blur"",""1"",""2937""
","""event"",""trial"",""time""
""focus"",""1"",""17909""
","""event"",""trial"",""time""
""fullscreenenter"",""1"",""22938""
","""event"",""trial"",""time""
""fullscreenexit"",""47"",""285031""
",,null,run_exp/static/audio/clip_21_q4_correct.m4a,null,<p> That’s correct. The more you dig on a planet the fewer gems you’ll get with each dig. </p>,,,,,,,,,,,,,,,,,,,,,,,
quiz_q_5_ask,57,360382,0.0-20.0-1.0,"""event"",""trial"",""time""
""blur"",""1"",""2937""
""focus"",""1"",""17909""
""fullscreenenter"",""1"",""22938""
""fullscreenexit"",""47"",""285031""
","""event"",""trial"",""time""
""blur"",""1"",""2937""
","""event"",""trial"",""time""
""focus"",""1"",""17909""
","""event"",""trial"",""time""
""fullscreenenter"",""1"",""22938""
","""event"",""trial"",""time""
""fullscreenexit"",""47"",""285031""
",,10504,run_exp/static/audio/clip_23_q5_ask.m4a,,,,,,,1,,,,,,,,,,,,,,,,,,
quiz_q_5_fb_correct,58,365396,0.0-21.0-0.0,"""event"",""trial"",""time""
""blur"",""1"",""2937""
""focus"",""1"",""17909""
""fullscreenenter"",""1"",""22938""
""fullscreenexit"",""47"",""285031""
","""event"",""trial"",""time""
""blur"",""1"",""2937""
","""event"",""trial"",""time""
""focus"",""1"",""17909""
","""event"",""trial"",""time""
""fullscreenenter"",""1"",""22938""
","""event"",""trial"",""time""
""fullscreenexit"",""47"",""285031""
",,null,run_exp/static/audio/clip_24_q5_correct.m4a,null,<p> That’s correct. The alien tells you nothing about how much treasure is on the planet.</p>,,,,,,,,,,,,,,,,,,,,,,,
quiz_incorrect,59,370954,0.0-22.0-0.0,"""event"",""trial"",""time""
""blur"",""1"",""2937""
""focus"",""1"",""17909""
""fullscreenenter"",""1"",""22938""
""fullscreenexit"",""47"",""285031""
","""event"",""trial"",""time""
""blur"",""1"",""2937""
","""event"",""trial"",""time""
""focus"",""1"",""17909""
","""event"",""trial"",""time""
""fullscreenenter"",""1"",""22938""
","""event"",""trial"",""time""
""fullscreenexit"",""47"",""285031""
",,null,run_exp/static/audio/clip_27_incorrect_quiz.m4a,null,,,,,,,,,,,,,,,,,,,,,,,,
quiz_incorrect_continue,60,372150,0.0-22.0-1.0,"""event"",""trial"",""time""
""blur"",""1"",""2937""
""focus"",""1"",""17909""
""fullscreenenter"",""1"",""22938""
""fullscreenexit"",""47"",""285031""
","""event"",""trial"",""time""
""blur"",""1"",""2937""
","""event"",""trial"",""time""
""focus"",""1"",""17909""
","""event"",""trial"",""time""
""fullscreenenter"",""1"",""22938""
","""event"",""trial"",""time""
""fullscreenexit"",""47"",""285031""
",,1193.6,"<p>Oops, you missed some questions.</p><p>Now that you’ve heard the correct answers. Try the quiz again!</p>",,,,,,,0,,,,,,,,,,,,,,,,,,
quiz_q_1_ask,61,374478,0.0-22.0-2.0,"""event"",""trial"",""time""
""blur"",""1"",""2937""
""focus"",""1"",""17909""
""fullscreenenter"",""1"",""22938""
""fullscreenexit"",""47"",""285031""
","""event"",""trial"",""time""
""blur"",""1"",""2937""
","""event"",""trial"",""time""
""focus"",""1"",""17909""
","""event"",""trial"",""time""
""fullscreenenter"",""1"",""22938""
","""event"",""trial"",""time""
""fullscreenexit"",""47"",""285031""
",,2326.7,run_exp/static/audio/clip_11_q1_ask.m4a,,,,,,,2,,,,,,,,,,,,,,,,,,
quiz_q_1_fb_correct,62,378335,0.0-23.0-0.0,"""event"",""trial"",""time""
""blur"",""1"",""2937""
""focus"",""1"",""17909""
""fullscreenenter"",""1"",""22938""
""fullscreenexit"",""47"",""285031""
","""event"",""trial"",""time""
""blur"",""1"",""2937""
","""event"",""trial"",""time""
""focus"",""1"",""17909""
","""event"",""trial"",""time""
""fullscreenenter"",""1"",""22938""
","""event"",""trial"",""time""
""fullscreenexit"",""47"",""285031""
",,null,run_exp/static/audio/clip_12_q1_correct.m4a,null,<p>That’s correct. You win extra money by collecting more gems.</p>,,,,,,,,,,,,,,,,,,,,,,,
quiz_q_2_ask,63,380182,0.0-23.0-1.0,"""event"",""trial"",""time""
""blur"",""1"",""2937""
""focus"",""1"",""17909""
""fullscreenenter"",""1"",""22938""
""fullscreenexit"",""47"",""285031""
","""event"",""trial"",""time""
""blur"",""1"",""2937""
","""event"",""trial"",""time""
""focus"",""1"",""17909""
","""event"",""trial"",""time""
""fullscreenenter"",""1"",""22938""
","""event"",""trial"",""time""
""fullscreenexit"",""47"",""285031""
",,1844.4,run_exp/static/audio/clip_14_q2_ask.m4a,,,,,,,1,,,,,,,,,,,,,,,,,,
quiz_q_2_fb_correct,64,384196,0.0-24.0-0.0,"""event"",""trial"",""time""
""blur"",""1"",""2937""
""focus"",""1"",""17909""
""fullscreenenter"",""1"",""22938""
""fullscreenexit"",""47"",""285031""
","""event"",""trial"",""time""
""blur"",""1"",""2937""
","""event"",""trial"",""time""
""focus"",""1"",""17909""
","""event"",""trial"",""time""
""fullscreenenter"",""1"",""22938""
","""event"",""trial"",""time""
""fullscreenexit"",""47"",""285031""
",,null,run_exp/static/audio/clip_15_q2_correct.m4a,null,<p>That’s correct. The experiment is 20 minutes no matter what.</p>,,,,,,,,,,,,,,,,,,,,,,,
quiz_q_3_ask,65,386086,0.0-24.0-1.0,"""event"",""trial"",""time""
""blur"",""1"",""2937""
""focus"",""1"",""17909""
""fullscreenenter"",""1"",""22938""
""fullscreenexit"",""47"",""285031""
","""event"",""trial"",""time""
""blur"",""1"",""2937""
","""event"",""trial"",""time""
""focus"",""1"",""17909""
","""event"",""trial"",""time""
""fullscreenenter"",""1"",""22938""
","""event"",""trial"",""time""
""fullscreenexit"",""47"",""285031""
",,1887.6,run_exp/static/audio/clip_17_q3_ask.m4a,,,,,,,1,,,,,,,,,,,,,,,,,,
quiz_q_3_fb_correct,66,390076,0.0-25.0-0.0,"""event"",""trial"",""time""
""blur"",""1"",""2937""
""focus"",""1"",""17909""
""fullscreenenter"",""1"",""22938""
""fullscreenexit"",""47"",""285031""
","""event"",""trial"",""time""
""blur"",""1"",""2937""
","""event"",""trial"",""time""
""focus"",""1"",""17909""
","""event"",""trial"",""time""
""fullscreenenter"",""1"",""22938""
","""event"",""trial"",""time""
""fullscreenexit"",""47"",""285031""
",,null,run_exp/static/audio/clip_18_q3_correct.m4a,null,<p> That’s correct. You press the letter L to travel to a new planet.</p>,,,,,,,,,,,,,,,,,,,,,,,
quiz_q_4_ask,67,392606,0.0-25.0-1.0,"""event"",""trial"",""time""
""blur"",""1"",""2937""
""focus"",""1"",""17909""
""fullscreenenter"",""1"",""22938""
""fullscreenexit"",""47"",""285031""
","""event"",""trial"",""time""
""blur"",""1"",""2937""
","""event"",""trial"",""time""
""focus"",""1"",""17909""
","""event"",""trial"",""time""
""fullscreenenter"",""1"",""22938""
","""event"",""trial"",""time""
""fullscreenexit"",""47"",""285031""
",,2528.1,run_exp/static/audio/clip_20_q4_ask.m4a,,,,,,,0,,,,,,,,,,,,,,,,,,
quiz_q_4_fb_correct,68,397935,0.0-26.0-0.0,"""event"",""trial"",""time""
""blur"",""1"",""2937""
""focus"",""1"",""17909""
""fullscreenenter"",""1"",""22938""
""fullscreenexit"",""47"",""285031""
","""event"",""trial"",""time""
""blur"",""1"",""2937""
","""event"",""trial"",""time""
""focus"",""1"",""17909""
","""event"",""trial"",""time""
""fullscreenenter"",""1"",""22938""
","""event"",""trial"",""time""
""fullscreenexit"",""47"",""285031""
",,null,run_exp/static/audio/clip_21_q4_correct.m4a,null,<p> That’s correct. The more you dig on a planet the fewer gems you’ll get with each dig. </p>,,,,,,,,,,,,,,,,,,,,,,,
quiz_q_5_ask,69,400717,0.0-26.0-1.0,"""event"",""trial"",""time""
""blur"",""1"",""2937""
""focus"",""1"",""17909""
""fullscreenenter"",""1"",""22938""
""fullscreenexit"",""47"",""285031""
","""event"",""trial"",""time""
""blur"",""1"",""2937""
","""event"",""trial"",""time""
""focus"",""1"",""17909""
","""event"",""trial"",""time""
""fullscreenenter"",""1"",""22938""
","""event"",""trial"",""time""
""fullscreenexit"",""47"",""285031""
",,2780.4,run_exp/static/audio/clip_23_q5_ask.m4a,,,,,,,1,,,,,,,,,,,,,,,,,,
quiz_q_5_fb_correct,70,405735,0.0-27.0-0.0,"""event"",""trial"",""time""
""blur"",""1"",""2937""
""focus"",""1"",""17909""
""fullscreenenter"",""1"",""22938""
""fullscreenexit"",""47"",""285031""
","""event"",""trial"",""time""
""blur"",""1"",""2937""
","""event"",""trial"",""time""
""focus"",""1"",""17909""
","""event"",""trial"",""time""
""fullscreenenter"",""1"",""22938""
","""event"",""trial"",""time""
""fullscreenexit"",""47"",""285031""
",,null,run_exp/static/audio/clip_24_q5_correct.m4a,null,<p> That’s correct. The alien tells you nothing about how much treasure is on the planet.</p>,,,,,,,,,,,,,,,,,,,,,,,
quiz_correct,71,409216,0.0-28.0-0.0,"""event"",""trial"",""time""
""blur"",""1"",""2937""
""focus"",""1"",""17909""
""fullscreenenter"",""1"",""22938""
""fullscreenexit"",""47"",""285031""
","""event"",""trial"",""time""
""blur"",""1"",""2937""
","""event"",""trial"",""time""
""focus"",""1"",""17909""
","""event"",""trial"",""time""
""fullscreenenter"",""1"",""22938""
","""event"",""trial"",""time""
""fullscreenexit"",""47"",""285031""
",,null,run_exp/static/audio/clip_26_correct_quiz.m4a,null,,,,,,,,,,,,,,,,,,,,,,,,
quiz_correct_continue,72,409893,0.0-28.0-1.0,"""event"",""trial"",""time""
""blur"",""1"",""2937""
""focus"",""1"",""17909""
""fullscreenenter"",""1"",""22938""
""fullscreenexit"",""47"",""285031""
","""event"",""trial"",""time""
""blur"",""1"",""2937""
","""event"",""trial"",""time""
""focus"",""1"",""17909""
","""event"",""trial"",""time""
""fullscreenenter"",""1"",""22938""
","""event"",""trial"",""time""
""fullscreenexit"",""47"",""285031""
",,676.1,<p>Good job! You're now ready to move on to the real game!</p>,,,,,,,0,,,,,,,,,,,,,,,,,,
audio-keyboard-response,73,420016,0.0-28.0-2.0,"""event"",""trial"",""time""
""blur"",""1"",""2937""
""focus"",""1"",""17909""
""fullscreenenter"",""1"",""22938""
""fullscreenexit"",""47"",""285031""
","""event"",""trial"",""time""
""blur"",""1"",""2937""
","""event"",""trial"",""time""
""focus"",""1"",""17909""
","""event"",""trial"",""time""
""fullscreenenter"",""1"",""22938""
","""event"",""trial"",""time""
""fullscreenexit"",""47"",""285031""
",,null,run_exp/static/audio/clip_28_real_game.m4a,null,,,,,,,,,,,,,,,,,,,,,,,,
instruc_begin_exp_contine,74,422174,0.0-28.0-3.0,"""event"",""trial"",""time""
""blur"",""1"",""2937""
""focus"",""1"",""17909""
""fullscreenenter"",""1"",""22938""
""fullscreenexit"",""47"",""285031""
","""event"",""trial"",""time""
""blur"",""1"",""2937""
","""event"",""trial"",""time""
""focus"",""1"",""17909""
","""event"",""trial"",""time""
""fullscreenenter"",""1"",""22938""
","""event"",""trial"",""time""
""fullscreenexit"",""47"",""285031""
",,2155.4,"<p>Now that you know how  to dig for space treasure and travel to new planets,you can start exploring! </p><p>Do you want to go over the instructions again or get started with the real game?</p>",,,,,,,1,,,,,,1,,,,,,,,,,,,
alien_welcome,75,427180,0.0-29.0-0.0,"""event"",""trial"",""time""
""blur"",""1"",""2937""
""focus"",""1"",""17909""
""fullscreenenter"",""1"",""22938""
""fullscreenexit"",""47"",""285031""
","""event"",""trial"",""time""
""blur"",""1"",""2937""
","""event"",""trial"",""time""
""focus"",""1"",""17909""
","""event"",""trial"",""time""
""fullscreenenter"",""1"",""22938""
","""event"",""trial"",""time""
""fullscreenexit"",""47"",""285031""
",,null,run_exp/static/images/task_images/aliens/old_aliens/planet/alien_planet-42.jpg,null,,,,,,,,,,,,,42,"42,69,45,24,56,64,65,70,5,4,7,35,37,40,62,60,53,72,22,30,14,43,26,19,31,78,55,66,15,77,39,61,80,8,25,67,17,3,10,28,63,49,57,71,20,34,73,2,16,54,76,46,27,23,47,52,18",,,,,,,,,,
land,76,427683,0.0-29.0-1.0,"""event"",""trial"",""time""
""blur"",""1"",""2937""
""focus"",""1"",""17909""
""fullscreenenter"",""1"",""22938""
""fullscreenexit"",""47"",""285031""
","""event"",""trial"",""time""
""blur"",""1"",""2937""
","""event"",""trial"",""time""
""focus"",""1"",""17909""
","""event"",""trial"",""time""
""fullscreenenter"",""1"",""22938""
","""event"",""trial"",""time""
""fullscreenexit"",""47"",""285031""
",,null,run_exp/static/images/task_images/land.jpg,null,,,,,,,106,,,1,,,,,,,,,,,,,,
dig,77,429687,0.0-29.0-2.0,"""event"",""trial"",""time""
""blur"",""1"",""2937""
""focus"",""1"",""17909""
""fullscreenenter"",""1"",""22938""
""fullscreenexit"",""47"",""285031""
","""event"",""trial"",""time""
""blur"",""1"",""2937""
","""event"",""trial"",""time""
""focus"",""1"",""17909""
","""event"",""trial"",""time""
""fullscreenenter"",""1"",""22938""
","""event"",""trial"",""time""
""fullscreenexit"",""47"",""285031""
",,,,,,,,,,,,"[{""stimulus"":""run_exp/static/images/task_images/dig.jpg"",""time"":0.2999999523162842},{""stimulus"":""run_exp/static/images/task_images/land.jpg"",""time"":669.5999999642372},{""stimulus"":""run_exp/static/images/task_images/dig.jpg"",""time"":1336.0999999642372}]",[],1,,,,,,,,,,,,,,
harvest,78,430689,0.0-29.0-3.0,"""event"",""trial"",""time""
""blur"",""1"",""2937""
""focus"",""1"",""17909""
""fullscreenenter"",""1"",""22938""
""fullscreenexit"",""47"",""285031""
","""event"",""trial"",""time""
""blur"",""1"",""2937""
","""event"",""trial"",""time""
""focus"",""1"",""17909""
","""event"",""trial"",""time""
""fullscreenenter"",""1"",""22938""
","""event"",""trial"",""time""
""fullscreenexit"",""47"",""285031""
",,null,run_exp/static/images/task_images/gems/106.jpg,null,,,,,,,18,,,1,,,,,106,0.165845102,0.169811321,,,,,,,
decision,79,432731,0.0-29.0-4.0,"""event"",""trial"",""time""
""blur"",""1"",""2937""
""focus"",""1"",""17909""
""fullscreenenter"",""1"",""22938""
""fullscreenexit"",""47"",""285031""
","""event"",""trial"",""time""
""blur"",""1"",""2937""
","""event"",""trial"",""time""
""focus"",""1"",""17909""
","""event"",""trial"",""time""
""fullscreenenter"",""1"",""22938""
","""event"",""trial"",""time""
""fullscreenexit"",""47"",""285031""
",,2040.6,run_exp/static/images/task_images/land.jpg,76,,,,,,,18,,,1,,,,,,,,10555,1,0,TRUE,,,
travel,80,440695,0.0-30.0-0.0,"""event"",""trial"",""time""
""blur"",""1"",""2937""
""focus"",""1"",""17909""
""fullscreenenter"",""1"",""22938""
""fullscreenexit"",""47"",""285031""
","""event"",""trial"",""time""
""blur"",""1"",""2937""
","""event"",""trial"",""time""
""focus"",""1"",""17909""
","""event"",""trial"",""time""
""fullscreenenter"",""1"",""22938""
","""event"",""trial"",""time""
""fullscreenexit"",""47"",""285031""
",,,,,,,,,,,,"[{""stimulus"":""run_exp/static/images/task_images/rocket-01.jpg"",""time"":0.30000001192092896},{""stimulus"":""run_exp/static/images/task_images/rocket-02.jpg"",""time"":885.8999999761581},{""stimulus"":""run_exp/static/images/task_images/rocket-03.jpg"",""time"":1770},{""stimulus"":""run_exp/static/images/task_images/rocket-04.jpg"",""time"":2653.399999976158},{""stimulus"":""run_exp/static/images/task_images/rocket-05.jpg"",""time"":3538.100000023842},{""stimulus"":""run_exp/static/images/task_images/rocket-06.jpg"",""time"":4422.399999976158},{""stimulus"":""run_exp/static/images/task_images/rocket-07.jpg"",""time"":5305.600000023842},{""stimulus"":""run_exp/static/images/task_images/rocket-08.jpg"",""time"":6189.300000011921},{""stimulus"":""run_exp/static/images/task_images/rocket-09.jpg"",""time"":7074}]",[],1,,,,,,,,,,,,,,
alien_welcome,81,445697,0.0-30.0-1.0,"""event"",""trial"",""time""
""blur"",""1"",""2937""
""focus"",""1"",""17909""
""fullscreenenter"",""1"",""22938""
""fullscreenexit"",""47"",""285031""
","""event"",""trial"",""time""
""blur"",""1"",""2937""
","""event"",""trial"",""time""
""focus"",""1"",""17909""
","""event"",""trial"",""time""
""fullscreenenter"",""1"",""22938""
","""event"",""trial"",""time""
""fullscreenexit"",""47"",""285031""
",,null,run_exp/static/images/task_images/aliens/old_aliens/planet/alien_planet-69.jpg,null,,,,,,,,,,,,,69,"42,69,45,24,56,64,65,70,5,4,7,35,37,40,62,60,53,72,22,30,14,43,26,19,31,78,55,66,15,77,39,61,80,8,25,67,17,3,10,28,63,49,57,71,20,34,73,2,16,54,76,46,27,23,47,52,18",,,,,,,,,,
land,82,446200,0.0-30.0-2.0,"""event"",""trial"",""time""
""blur"",""1"",""2937""
""focus"",""1"",""17909""
""fullscreenenter"",""1"",""22938""
""fullscreenexit"",""47"",""285031""
","""event"",""trial"",""time""
""blur"",""1"",""2937""
","""event"",""trial"",""time""
""focus"",""1"",""17909""
","""event"",""trial"",""time""
""fullscreenenter"",""1"",""22938""
","""event"",""trial"",""time""
""fullscreenexit"",""47"",""285031""
",,null,run_exp/static/images/task_images/land.jpg,null,,,,,,,106,,,2,,,,,,,,,,,,,,
dig,83,448204,0.0-30.0-3.0,"""event"",""trial"",""time""
""blur"",""1"",""2937""
""focus"",""1"",""17909""
""fullscreenenter"",""1"",""22938""
""fullscreenexit"",""47"",""285031""
","""event"",""trial"",""time""
""blur"",""1"",""2937""
","""event"",""trial"",""time""
""focus"",""1"",""17909""
","""event"",""trial"",""time""
""fullscreenenter"",""1"",""22938""
","""event"",""trial"",""time""
""fullscreenexit"",""47"",""285031""
",,,,,,,,,,,,"[{""stimulus"":""run_exp/static/images/task_images/dig.jpg"",""time"":0.30000001192092896},{""stimulus"":""run_exp/static/images/task_images/land.jpg"",""time"":668.1999999880791},{""stimulus"":""run_exp/static/images/task_images/dig.jpg"",""time"":1336.300000011921}]",[],2,,,,,,,,,,,,,,
harvest,84,449206,0.0-30.0-4.0,"""event"",""trial"",""time""
""blur"",""1"",""2937""
""focus"",""1"",""17909""
""fullscreenenter"",""1"",""22938""
""fullscreenexit"",""47"",""285031""
","""event"",""trial"",""time""
""blur"",""1"",""2937""
","""event"",""trial"",""time""
""focus"",""1"",""17909""
","""event"",""trial"",""time""
""fullscreenenter"",""1"",""22938""
","""event"",""trial"",""time""
""fullscreenexit"",""47"",""285031""
",,null,run_exp/static/images/task_images/gems/106.jpg,null,,,,,,,38,,,2,,,,,106,0.356501013,0.358490566,,,,,,,
decision,85,450460,0.0-30.0-5.0,"""event"",""trial"",""time""
""blur"",""1"",""2937""
""focus"",""1"",""17909""
""fullscreenenter"",""1"",""22938""
""fullscreenexit"",""47"",""285031""
","""event"",""trial"",""time""
""blur"",""1"",""2937""
","""event"",""trial"",""time""
""focus"",""1"",""17909""
","""event"",""trial"",""time""
""fullscreenenter"",""1"",""22938""
","""event"",""trial"",""time""
""fullscreenexit"",""47"",""285031""
",,1252.3,run_exp/static/images/task_images/land.jpg,65,,,,,,,38,,,2,,,,,,,,28283,1,0,FALSE,,,
dig,86,452212,0.0-31.0-0.0,"""event"",""trial"",""time""
""blur"",""1"",""2937""
""focus"",""1"",""17909""
""fullscreenenter"",""1"",""22938""
""fullscreenexit"",""47"",""285031""
","""event"",""trial"",""time""
""blur"",""1"",""2937""
","""event"",""trial"",""time""
""focus"",""1"",""17909""
","""event"",""trial"",""time""
""fullscreenenter"",""1"",""22938""
","""event"",""trial"",""time""
""fullscreenexit"",""47"",""285031""
",,,,,,,,,,,,"[{""stimulus"":""run_exp/static/images/task_images/dig.jpg"",""time"":0.30000001192092896},{""stimulus"":""run_exp/static/images/task_images/land.jpg"",""time"":584},{""stimulus"":""run_exp/static/images/task_images/dig.jpg"",""time"":1166}]",[],2,,,,,,,,,,,,,,
harvest,87,453215,0.0-31.0-1.0,"""event"",""trial"",""time""
""blur"",""1"",""2937""
""focus"",""1"",""17909""
""fullscreenenter"",""1"",""22938""
""fullscreenexit"",""47"",""285031""
","""event"",""trial"",""time""
""blur"",""1"",""2937""
","""event"",""trial"",""time""
""focus"",""1"",""17909""
","""event"",""trial"",""time""
""fullscreenenter"",""1"",""22938""
","""event"",""trial"",""time""
""fullscreenexit"",""47"",""285031""
",,null,run_exp/static/images/task_images/gems/38.jpg,null,,,,,,,8,,,2,,,,,38,0.203855592,0.210526316,,,,,,,
decision,88,454091,0.0-31.0-2.0,"""event"",""trial"",""time""
""blur"",""1"",""2937""
""focus"",""1"",""17909""
""fullscreenenter"",""1"",""22938""
""fullscreenexit"",""47"",""285031""
","""event"",""trial"",""time""
""blur"",""1"",""2937""
","""event"",""trial"",""time""
""focus"",""1"",""17909""
","""event"",""trial"",""time""
""fullscreenenter"",""1"",""22938""
","""event"",""trial"",""time""
""fullscreenexit"",""47"",""285031""
",,874.9,run_exp/static/images/task_images/land.jpg,76,,,,,,,8,,,2,,,,,,,,31914,1,1,TRUE,,,
travel,89,463214,0.0-32.0-0.0,"""event"",""trial"",""time""
""blur"",""1"",""2937""
""focus"",""1"",""17909""
""fullscreenenter"",""1"",""22938""
""fullscreenexit"",""47"",""285031""
","""event"",""trial"",""time""
""blur"",""1"",""2937""
","""event"",""trial"",""time""
""focus"",""1"",""17909""
","""event"",""trial"",""time""
""fullscreenenter"",""1"",""22938""
","""event"",""trial"",""time""
""fullscreenexit"",""47"",""285031""
",,,,,,,,,,,,"[{""stimulus"":""run_exp/static/images/task_images/rocket-01.jpg"",""time"":0.30000001192092896},{""stimulus"":""run_exp/static/images/task_images/rocket-02.jpg"",""time"":1014.3999999761581},{""stimulus"":""run_exp/static/images/task_images/rocket-03.jpg"",""time"":2027.3999999761581},{""stimulus"":""run_exp/static/images/task_images/rocket-04.jpg"",""time"":3040.300000011921},{""stimulus"":""run_exp/static/images/task_images/rocket-05.jpg"",""time"":4053.600000023842},{""stimulus"":""run_exp/static/images/task_images/rocket-06.jpg"",""time"":5067.300000011921},{""stimulus"":""run_exp/static/images/task_images/rocket-07.jpg"",""time"":6079.300000011921},{""stimulus"":""run_exp/static/images/task_images/rocket-08.jpg"",""time"":7093.199999988079},{""stimulus"":""run_exp/static/images/task_images/rocket-09.jpg"",""time"":8106.300000011921}]",[],2,,,,,,,,,,,,,,
alien_welcome,90,468216,0.0-32.0-1.0,"""event"",""trial"",""time""
""blur"",""1"",""2937""
""focus"",""1"",""17909""
""fullscreenenter"",""1"",""22938""
""fullscreenexit"",""47"",""285031""
","""event"",""trial"",""time""
""blur"",""1"",""2937""
","""event"",""trial"",""time""
""focus"",""1"",""17909""
","""event"",""trial"",""time""
""fullscreenenter"",""1"",""22938""
","""event"",""trial"",""time""
""fullscreenexit"",""47"",""285031""
",,null,run_exp/static/images/task_images/aliens/old_aliens/planet/alien_planet-45.jpg,null,,,,,,,,,,,,,45,"42,69,45,24,56,64,65,70,5,4,7,35,37,40,62,60,53,72,22,30,14,43,26,19,31,78,55,66,15,77,39,61,80,8,25,67,17,3,10,28,63,49,57,71,20,34,73,2,16,54,76,46,27,23,47,52,18",,,,,,,,,,
land,91,468718,0.0-32.0-2.0,"""event"",""trial"",""time""
""blur"",""1"",""2937""
""focus"",""1"",""17909""
""fullscreenenter"",""1"",""22938""
""fullscreenexit"",""47"",""285031""
","""event"",""trial"",""time""
""blur"",""1"",""2937""
","""event"",""trial"",""time""
""focus"",""1"",""17909""
","""event"",""trial"",""time""
""fullscreenenter"",""1"",""22938""
","""event"",""trial"",""time""
""fullscreenexit"",""47"",""285031""
",,null,run_exp/static/images/task_images/land.jpg,null,,,,,,,107,,,3,,,,,,,,,,,,,,
dig,92,470723,0.0-32.0-3.0,"""event"",""trial"",""time""
""blur"",""1"",""2937""
""focus"",""1"",""17909""
""fullscreenenter"",""1"",""22938""
""fullscreenexit"",""47"",""285031""
","""event"",""trial"",""time""
""blur"",""1"",""2937""
","""event"",""trial"",""time""
""focus"",""1"",""17909""
","""event"",""trial"",""time""
""fullscreenenter"",""1"",""22938""
","""event"",""trial"",""time""
""fullscreenexit"",""47"",""285031""
",,,,,,,,,,,,"[{""stimulus"":""run_exp/static/images/task_images/dig.jpg"",""time"":0.3999999761581421},{""stimulus"":""run_exp/static/images/task_images/land.jpg"",""time"":668.3999999761581},{""stimulus"":""run_exp/static/images/task_images/dig.jpg"",""time"":1335.3999999761581}]",[],3,,,,,,,,,,,,,,
harvest,93,471725,0.0-32.0-4.0,"""event"",""trial"",""time""
""blur"",""1"",""2937""
""focus"",""1"",""17909""
""fullscreenenter"",""1"",""22938""
""fullscreenexit"",""47"",""285031""
","""event"",""trial"",""time""
""blur"",""1"",""2937""
","""event"",""trial"",""time""
""focus"",""1"",""17909""
","""event"",""trial"",""time""
""fullscreenenter"",""1"",""22938""
","""event"",""trial"",""time""
""fullscreenexit"",""47"",""285031""
",,null,run_exp/static/images/task_images/gems/107.jpg,null,,,,,,,54,,,3,,,,,107,0.507111854,0.504672897,,,,,,,
decision,94,472690,0.0-32.0-5.0,"""event"",""trial"",""time""
""blur"",""1"",""2937""
""focus"",""1"",""17909""
""fullscreenenter"",""1"",""22938""
""fullscreenexit"",""47"",""285031""
","""event"",""trial"",""time""
""blur"",""1"",""2937""
","""event"",""trial"",""time""
""focus"",""1"",""17909""
","""event"",""trial"",""time""
""fullscreenenter"",""1"",""22938""
","""event"",""trial"",""time""
""fullscreenexit"",""47"",""285031""
",,964,run_exp/static/images/task_images/land.jpg,76,,,,,,,54,,,3,,,,,,,,50514,1,0,TRUE,,,
travel,95,481734,0.0-33.0-0.0,"""event"",""trial"",""time""
""blur"",""1"",""2937""
""focus"",""1"",""17909""
""fullscreenenter"",""1"",""22938""
""fullscreenexit"",""47"",""285031""
","""event"",""trial"",""time""
""blur"",""1"",""2937""
","""event"",""trial"",""time""
""focus"",""1"",""17909""
","""event"",""trial"",""time""
""fullscreenenter"",""1"",""22938""
","""event"",""trial"",""time""
""fullscreenexit"",""47"",""285031""
",,,,,,,,,,,,"[{""stimulus"":""run_exp/static/images/task_images/rocket-01.jpg"",""time"":0.3999999761581421},{""stimulus"":""run_exp/static/images/task_images/rocket-02.jpg"",""time"":1005.6999999880791},{""stimulus"":""run_exp/static/images/task_images/rocket-03.jpg"",""time"":2009.6000000238419},{""stimulus"":""run_exp/static/images/task_images/rocket-04.jpg"",""time"":3014.800000011921},{""stimulus"":""run_exp/static/images/task_images/rocket-05.jpg"",""time"":4017.300000011921},{""stimulus"":""run_exp/static/images/task_images/rocket-06.jpg"",""time"":5021.699999988079},{""stimulus"":""run_exp/static/images/task_images/rocket-07.jpg"",""time"":6025.600000023842},{""stimulus"":""run_exp/static/images/task_images/rocket-08.jpg"",""time"":7029.199999988079},{""stimulus"":""run_exp/static/images/task_images/rocket-09.jpg"",""time"":8033.899999976158}]",[],3,,,,,,,,,,,,,,
alien_welcome,96,486736,0.0-33.0-1.0,"""event"",""trial"",""time""
""blur"",""1"",""2937""
""focus"",""1"",""17909""
""fullscreenenter"",""1"",""22938""
""fullscreenexit"",""47"",""285031""
","""event"",""trial"",""time""
""blur"",""1"",""2937""
","""event"",""trial"",""time""
""focus"",""1"",""17909""
","""event"",""trial"",""time""
""fullscreenenter"",""1"",""22938""
","""event"",""trial"",""time""
""fullscreenexit"",""47"",""285031""
",,null,run_exp/static/images/task_images/aliens/old_aliens/planet/alien_planet-24.jpg,null,,,,,,,,,,,,,24,"42,69,45,24,56,64,65,70,5,4,7,35,37,40,62,60,53,72,22,30,14,43,26,19,31,78,55,66,15,77,39,61,80,8,25,67,17,3,10,28,63,49,57,71,20,34,73,2,16,54,76,46,27,23,47,52,18",,,,,,,,,,
land,97,487239,0.0-33.0-2.0,"""event"",""trial"",""time""
""blur"",""1"",""2937""
""focus"",""1"",""17909""
""fullscreenenter"",""1"",""22938""
""fullscreenexit"",""47"",""285031""
","""event"",""trial"",""time""
""blur"",""1"",""2937""
","""event"",""trial"",""time""
""focus"",""1"",""17909""
","""event"",""trial"",""time""
""fullscreenenter"",""1"",""22938""
","""event"",""trial"",""time""
""fullscreenexit"",""47"",""285031""
",,null,run_exp/static/images/task_images/land.jpg,null,,,,,,,107,,,4,,,,,,,,,,,,,,
dig,98,489244,0.0-33.0-3.0,"""event"",""trial"",""time""
""blur"",""1"",""2937""
""focus"",""1"",""17909""
""fullscreenenter"",""1"",""22938""
""fullscreenexit"",""47"",""285031""
","""event"",""trial"",""time""
""blur"",""1"",""2937""
","""event"",""trial"",""time""
""focus"",""1"",""17909""
","""event"",""trial"",""time""
""fullscreenenter"",""1"",""22938""
","""event"",""trial"",""time""
""fullscreenexit"",""47"",""285031""
",,,,,,,,,,,,"[{""stimulus"":""run_exp/static/images/task_images/dig.jpg"",""time"":0.3999999761581421},{""stimulus"":""run_exp/static/images/task_images/land.jpg"",""time"":669.1999999880791},{""stimulus"":""run_exp/static/images/task_images/dig.jpg"",""time"":1336}]",[],4,,,,,,,,,,,,,,
harvest,99,490246,0.0-33.0-4.0,"""event"",""trial"",""time""
""blur"",""1"",""2937""
""focus"",""1"",""17909""
""fullscreenenter"",""1"",""22938""
""fullscreenexit"",""47"",""285031""
","""event"",""trial"",""time""
""blur"",""1"",""2937""
","""event"",""trial"",""time""
""focus"",""1"",""17909""
","""event"",""trial"",""time""
""fullscreenenter"",""1"",""22938""
","""event"",""trial"",""time""
""fullscreenexit"",""47"",""285031""
",,null,run_exp/static/images/task_images/gems/107.jpg,null,,,,,,,53,,,4,,,,,107,0.497194136,0.495327103,,,,,,,
decision,100,491066,0.0-33.0-5.0,"""event"",""trial"",""time""
""blur"",""1"",""2937""
""focus"",""1"",""17909""
""fullscreenenter"",""1"",""22938""
""fullscreenexit"",""47"",""285031""
","""event"",""trial"",""time""
""blur"",""1"",""2937""
","""event"",""trial"",""time""
""focus"",""1"",""17909""
","""event"",""trial"",""time""
""fullscreenenter"",""1"",""22938""
","""event"",""trial"",""time""
""fullscreenexit"",""47"",""285031""
",,818.9,run_exp/static/images/task_images/land.jpg,65,,,,,,,53,,,4,,,,,,,,68889,1,0,FALSE,,,
dig,101,493254,0.0-34.0-0.0,"""event"",""trial"",""time""
""blur"",""1"",""2937""
""focus"",""1"",""17909""
""fullscreenenter"",""1"",""22938""
""fullscreenexit"",""47"",""285031""
","""event"",""trial"",""time""
""blur"",""1"",""2937""
","""event"",""trial"",""time""
""focus"",""1"",""17909""
","""event"",""trial"",""time""
""fullscreenenter"",""1"",""22938""
","""event"",""trial"",""time""
""fullscreenexit"",""47"",""285031""
",,,,,,,,,,,,"[{""stimulus"":""run_exp/static/images/task_images/dig.jpg"",""time"":0.3999999761581421},{""stimulus"":""run_exp/static/images/task_images/land.jpg"",""time"":728.5},{""stimulus"":""run_exp/static/images/task_images/dig.jpg"",""time"":1456.199999988079}]",[],4,,,,,,,,,,,,,,
harvest,102,494256,0.0-34.0-1.0,"""event"",""trial"",""time""
""blur"",""1"",""2937""
""focus"",""1"",""17909""
""fullscreenenter"",""1"",""22938""
""fullscreenexit"",""47"",""285031""
","""event"",""trial"",""time""
""blur"",""1"",""2937""
","""event"",""trial"",""time""
""focus"",""1"",""17909""
","""event"",""trial"",""time""
""fullscreenenter"",""1"",""22938""
","""event"",""trial"",""time""
""fullscreenexit"",""47"",""285031""
",,null,run_exp/static/images/task_images/gems/53.jpg,null,,,,,,,25,,,4,,,,,53,0.474984713,0.471698113,,,,,,,
decision,103,494666,0.0-34.0-2.0,"""event"",""trial"",""time""
""blur"",""1"",""2937""
""focus"",""1"",""17909""
""fullscreenenter"",""1"",""22938""
""fullscreenexit"",""47"",""285031""
","""event"",""trial"",""time""
""blur"",""1"",""2937""
","""event"",""trial"",""time""
""focus"",""1"",""17909""
","""event"",""trial"",""time""
""fullscreenenter"",""1"",""22938""
","""event"",""trial"",""time""
""fullscreenexit"",""47"",""285031""
",,408.3,run_exp/static/images/task_images/land.jpg,76,,,,,,,25,,,4,,,,,,,,72489,1,1,TRUE,,,
travel,104,504254,0.0-35.0-0.0,"""event"",""trial"",""time""
""blur"",""1"",""2937""
""focus"",""1"",""17909""
""fullscreenenter"",""1"",""22938""
""fullscreenexit"",""47"",""285031""
","""event"",""trial"",""time""
""blur"",""1"",""2937""
","""event"",""trial"",""time""
""focus"",""1"",""17909""
","""event"",""trial"",""time""
""fullscreenenter"",""1"",""22938""
","""event"",""trial"",""time""
""fullscreenexit"",""47"",""285031""
",,,,,,,,,,,,"[{""stimulus"":""run_exp/static/images/task_images/rocket-01.jpg"",""time"":0.19999998807907104},{""stimulus"":""run_exp/static/images/task_images/rocket-02.jpg"",""time"":1066.6000000238419},{""stimulus"":""run_exp/static/images/task_images/rocket-03.jpg"",""time"":2131.699999988079},{""stimulus"":""run_exp/static/images/task_images/rocket-04.jpg"",""time"":3196.600000023842},{""stimulus"":""run_exp/static/images/task_images/rocket-05.jpg"",""time"":4262.699999988079},{""stimulus"":""run_exp/static/images/task_images/rocket-06.jpg"",""time"":5326.600000023842},{""stimulus"":""run_exp/static/images/task_images/rocket-07.jpg"",""time"":6391.699999988079},{""stimulus"":""run_exp/static/images/task_images/rocket-08.jpg"",""time"":7456.100000023842},{""stimulus"":""run_exp/static/images/task_images/rocket-09.jpg"",""time"":8521.600000023842}]",[],4,,,,,,,,,,,,,,
alien_welcome,105,509257,0.0-35.0-1.0,"""event"",""trial"",""time""
""blur"",""1"",""2937""
""focus"",""1"",""17909""
""fullscreenenter"",""1"",""22938""
""fullscreenexit"",""47"",""285031""
","""event"",""trial"",""time""
""blur"",""1"",""2937""
","""event"",""trial"",""time""
""focus"",""1"",""17909""
","""event"",""trial"",""time""
""fullscreenenter"",""1"",""22938""
","""event"",""trial"",""time""
""fullscreenexit"",""47"",""285031""
",,null,run_exp/static/images/task_images/aliens/old_aliens/planet/alien_planet-56.jpg,null,,,,,,,,,,,,,56,"42,69,45,24,56,64,65,70,5,4,7,35,37,40,62,60,53,72,22,30,14,43,26,19,31,78,55,66,15,77,39,61,80,8,25,67,17,3,10,28,63,49,57,71,20,34,73,2,16,54,76,46,27,23,47,52,18",,,,,,,,,,
land,106,509761,0.0-35.0-2.0,"""event"",""trial"",""time""
""blur"",""1"",""2937""
""focus"",""1"",""17909""
""fullscreenenter"",""1"",""22938""
""fullscreenexit"",""47"",""285031""
","""event"",""trial"",""time""
""blur"",""1"",""2937""
","""event"",""trial"",""time""
""focus"",""1"",""17909""
","""event"",""trial"",""time""
""fullscreenenter"",""1"",""22938""
","""event"",""trial"",""time""
""fullscreenexit"",""47"",""285031""
",,null,run_exp/static/images/task_images/land.jpg,null,,,,,,,99,,,5,,,,,,,,,,,,,,
dig,107,511766,0.0-35.0-3.0,"""event"",""trial"",""time""
""blur"",""1"",""2937""
""focus"",""1"",""17909""
""fullscreenenter"",""1"",""22938""
""fullscreenexit"",""47"",""285031""
","""event"",""trial"",""time""
""blur"",""1"",""2937""
","""event"",""trial"",""time""
""focus"",""1"",""17909""
","""event"",""trial"",""time""
""fullscreenenter"",""1"",""22938""
","""event"",""trial"",""time""
""fullscreenexit"",""47"",""285031""
",,,,,,,,,,,,"[{""stimulus"":""run_exp/static/images/task_images/dig.jpg"",""time"":0.3999999761581421},{""stimulus"":""run_exp/static/images/task_images/land.jpg"",""time"":669.1999999880791},{""stimulus"":""run_exp/static/images/task_images/dig.jpg"",""time"":1335.3999999761581}]",[],5,,,,,,,,,,,,,,
harvest,108,512768,0.0-35.0-4.0,"""event"",""trial"",""time""
""blur"",""1"",""2937""
""focus"",""1"",""17909""
""fullscreenenter"",""1"",""22938""
""fullscreenexit"",""47"",""285031""
","""event"",""trial"",""time""
""blur"",""1"",""2937""
","""event"",""trial"",""time""
""focus"",""1"",""17909""
","""event"",""trial"",""time""
""fullscreenenter"",""1"",""22938""
","""event"",""trial"",""time""
""fullscreenexit"",""47"",""285031""
",,null,run_exp/static/images/task_images/gems/99.jpg,null,,,,,,,46,,,5,,,,,99,0.465270297,0.464646465,,,,,,,
decision,109,513778,0.0-35.0-5.0,"""event"",""trial"",""time""
""blur"",""1"",""2937""
""focus"",""1"",""17909""
""fullscreenenter"",""1"",""22938""
""fullscreenexit"",""47"",""285031""
","""event"",""trial"",""time""
""blur"",""1"",""2937""
","""event"",""trial"",""time""
""focus"",""1"",""17909""
","""event"",""trial"",""time""
""fullscreenenter"",""1"",""22938""
","""event"",""trial"",""time""
""fullscreenexit"",""47"",""285031""
",,1009.2,run_exp/static/images/task_images/land.jpg,76,,,,,,,46,,,5,,,,,,,,91602,1,0,TRUE,,,
travel,110,522768,0.0-36.0-0.0,"""event"",""trial"",""time""
""blur"",""1"",""2937""
""focus"",""1"",""17909""
""fullscreenenter"",""1"",""22938""
""fullscreenexit"",""47"",""285031""
","""event"",""trial"",""time""
""blur"",""1"",""2937""
","""event"",""trial"",""time""
""focus"",""1"",""17909""
","""event"",""trial"",""time""
""fullscreenenter"",""1"",""22938""
","""event"",""trial"",""time""
""fullscreenexit"",""47"",""285031""
",,,,,,,,,,,,"[{""stimulus"":""run_exp/static/images/task_images/rocket-01.jpg"",""time"":0.30000001192092896},{""stimulus"":""run_exp/static/images/task_images/rocket-02.jpg"",""time"":1000.3999999761581},{""stimulus"":""run_exp/static/images/task_images/rocket-03.jpg"",""time"":1998.3999999761581},{""stimulus"":""run_exp/static/images/task_images/rocket-04.jpg"",""time"":2996.5},{""stimulus"":""run_exp/static/images/task_images/rocket-05.jpg"",""time"":3994.300000011921},{""stimulus"":""run_exp/static/images/task_images/rocket-06.jpg"",""time"":4991.399999976158},{""stimulus"":""run_exp/static/images/task_images/rocket-07.jpg"",""time"":5989.199999988079},{""stimulus"":""run_exp/static/images/task_images/rocket-08.jpg"",""time"":6988.300000011921},{""stimulus"":""run_exp/static/images/task_images/rocket-09.jpg"",""time"":7985.300000011921}]",[],5,,,,,,,,,,,,,,
alien_welcome,111,527770,0.0-36.0-1.0,"""event"",""trial"",""time""
""blur"",""1"",""2937""
""focus"",""1"",""17909""
""fullscreenenter"",""1"",""22938""
""fullscreenexit"",""47"",""285031""
","""event"",""trial"",""time""
""blur"",""1"",""2937""
","""event"",""trial"",""time""
""focus"",""1"",""17909""
","""event"",""trial"",""time""
""fullscreenenter"",""1"",""22938""
","""event"",""trial"",""time""
""fullscreenexit"",""47"",""285031""
",,null,run_exp/static/images/task_images/aliens/old_aliens/planet/alien_planet-64.jpg,null,,,,,,,,,,,,,64,"42,69,45,24,56,64,65,70,5,4,7,35,37,40,62,60,53,72,22,30,14,43,26,19,31,78,55,66,15,77,39,61,80,8,25,67,17,3,10,28,63,49,57,71,20,34,73,2,16,54,76,46,27,23,47,52,18",,,,,,,,,,
land,112,528272,0.0-36.0-2.0,"""event"",""trial"",""time""
""blur"",""1"",""2937""
""focus"",""1"",""17909""
""fullscreenenter"",""1"",""22938""
""fullscreenexit"",""47"",""285031""
","""event"",""trial"",""time""
""blur"",""1"",""2937""
","""event"",""trial"",""time""
""focus"",""1"",""17909""
","""event"",""trial"",""time""
""fullscreenenter"",""1"",""22938""
","""event"",""trial"",""time""
""fullscreenexit"",""47"",""285031""
",,null,run_exp/static/images/task_images/land.jpg,null,,,,,,,102,,,6,,,,,,,,,,,,,,
dig,113,530277,0.0-36.0-3.0,"""event"",""trial"",""time""
""blur"",""1"",""2937""
""focus"",""1"",""17909""
""fullscreenenter"",""1"",""22938""
""fullscreenexit"",""47"",""285031""
","""event"",""trial"",""time""
""blur"",""1"",""2937""
","""event"",""trial"",""time""
""focus"",""1"",""17909""
","""event"",""trial"",""time""
""fullscreenenter"",""1"",""22938""
","""event"",""trial"",""time""
""fullscreenexit"",""47"",""285031""
",,,,,,,,,,,,"[{""stimulus"":""run_exp/static/images/task_images/dig.jpg"",""time"":0.40000003576278687},{""stimulus"":""run_exp/static/images/task_images/land.jpg"",""time"":669.1000000238419},{""stimulus"":""run_exp/static/images/task_images/dig.jpg"",""time"":1336}]",[],6,,,,,,,,,,,,,,
harvest,114,531278,0.0-36.0-4.0,"""event"",""trial"",""time""
""blur"",""1"",""2937""
""focus"",""1"",""17909""
""fullscreenenter"",""1"",""22938""
""fullscreenexit"",""47"",""285031""
","""event"",""trial"",""time""
""blur"",""1"",""2937""
","""event"",""trial"",""time""
""focus"",""1"",""17909""
","""event"",""trial"",""time""
""fullscreenenter"",""1"",""22938""
","""event"",""trial"",""time""
""fullscreenexit"",""47"",""285031""
",,null,run_exp/static/images/task_images/gems/102.jpg,null,,,,,,,79,,,6,,,,,102,0.772880904,0.774509804,,,,,,,
decision,115,532194,0.0-36.0-5.0,"""event"",""trial"",""time""
""blur"",""1"",""2937""
""focus"",""1"",""17909""
""fullscreenenter"",""1"",""22938""
""fullscreenexit"",""47"",""285031""
","""event"",""trial"",""time""
""blur"",""1"",""2937""
","""event"",""trial"",""time""
""focus"",""1"",""17909""
","""event"",""trial"",""time""
""fullscreenenter"",""1"",""22938""
","""event"",""trial"",""time""
""fullscreenexit"",""47"",""285031""
",,913.6,run_exp/static/images/task_images/land.jpg,76,,,,,,,79,,,6,,,,,,,,110017,1,0,TRUE,,,
travel,116,541279,0.0-37.0-0.0,"""event"",""trial"",""time""
""blur"",""1"",""2937""
""focus"",""1"",""17909""
""fullscreenenter"",""1"",""22938""
""fullscreenexit"",""47"",""285031""
","""event"",""trial"",""time""
""blur"",""1"",""2937""
","""event"",""trial"",""time""
""focus"",""1"",""17909""
","""event"",""trial"",""time""
""fullscreenenter"",""1"",""22938""
","""event"",""trial"",""time""
""fullscreenexit"",""47"",""285031""
",,,,,,,,,,,,"[{""stimulus"":""run_exp/static/images/task_images/rocket-01.jpg"",""time"":0.19999998807907104},{""stimulus"":""run_exp/static/images/task_images/rocket-02.jpg"",""time"":1010.8000000119209},{""stimulus"":""run_exp/static/images/task_images/rocket-03.jpg"",""time"":2019.699999988079},{""stimulus"":""run_exp/static/images/task_images/rocket-04.jpg"",""time"":3028.199999988079},{""stimulus"":""run_exp/static/images/task_images/rocket-05.jpg"",""time"":4037.699999988079},{""stimulus"":""run_exp/static/images/task_images/rocket-06.jpg"",""time"":5046.699999988079},{""stimulus"":""run_exp/static/images/task_images/rocket-07.jpg"",""time"":6055.699999988079},{""stimulus"":""run_exp/static/images/task_images/rocket-08.jpg"",""time"":7064.699999988079},{""stimulus"":""run_exp/static/images/task_images/rocket-09.jpg"",""time"":8073.600000023842}]",[],6,,,,,,,,,,,,,,
alien_welcome,117,546281,0.0-37.0-1.0,"""event"",""trial"",""time""
""blur"",""1"",""2937""
""focus"",""1"",""17909""
""fullscreenenter"",""1"",""22938""
""fullscreenexit"",""47"",""285031""
","""event"",""trial"",""time""
""blur"",""1"",""2937""
","""event"",""trial"",""time""
""focus"",""1"",""17909""
","""event"",""trial"",""time""
""fullscreenenter"",""1"",""22938""
","""event"",""trial"",""time""
""fullscreenexit"",""47"",""285031""
",,null,run_exp/static/images/task_images/aliens/old_aliens/planet/alien_planet-65.jpg,null,,,,,,,,,,,,,65,"42,69,45,24,56,64,65,70,5,4,7,35,37,40,62,60,53,72,22,30,14,43,26,19,31,78,55,66,15,77,39,61,80,8,25,67,17,3,10,28,63,49,57,71,20,34,73,2,16,54,76,46,27,23,47,52,18",,,,,,,,,,
land,118,546784,0.0-37.0-2.0,"""event"",""trial"",""time""
""blur"",""1"",""2937""
""focus"",""1"",""17909""
""fullscreenenter"",""1"",""22938""
""fullscreenexit"",""47"",""285031""
","""event"",""trial"",""time""
""blur"",""1"",""2937""
","""event"",""trial"",""time""
""focus"",""1"",""17909""
","""event"",""trial"",""time""
""fullscreenenter"",""1"",""22938""
","""event"",""trial"",""time""
""fullscreenexit"",""47"",""285031""
",,null,run_exp/static/images/task_images/land.jpg,null,,,,,,,105,,,7,,,,,,,,,,,,,,
dig,119,548788,0.0-37.0-3.0,"""event"",""trial"",""time""
""blur"",""1"",""2937""
""focus"",""1"",""17909""
""fullscreenenter"",""1"",""22938""
""fullscreenexit"",""47"",""285031""
","""event"",""trial"",""time""
""blur"",""1"",""2937""
","""event"",""trial"",""time""
""focus"",""1"",""17909""
","""event"",""trial"",""time""
""fullscreenenter"",""1"",""22938""
","""event"",""trial"",""time""
""fullscreenexit"",""47"",""285031""
",,,,,,,,,,,,"[{""stimulus"":""run_exp/static/images/task_images/dig.jpg"",""time"":0.3999999761581421},{""stimulus"":""run_exp/static/images/task_images/land.jpg"",""time"":668.1999999880791},{""stimulus"":""run_exp/static/images/task_images/dig.jpg"",""time"":1336.2999999523163}]",[],7,,,,,,,,,,,,,,
harvest,120,549791,0.0-37.0-4.0,"""event"",""trial"",""time""
""blur"",""1"",""2937""
""focus"",""1"",""17909""
""fullscreenenter"",""1"",""22938""
""fullscreenexit"",""47"",""285031""
","""event"",""trial"",""time""
""blur"",""1"",""2937""
","""event"",""trial"",""time""
""focus"",""1"",""17909""
","""event"",""trial"",""time""
""fullscreenenter"",""1"",""22938""
","""event"",""trial"",""time""
""fullscreenexit"",""47"",""285031""
",,null,run_exp/static/images/task_images/gems/105.jpg,null,,,,,,,85,,,7,,,,,105,0.804929114,0.80952381,,,,,,,
decision,121,550457,0.0-37.0-5.0,"""event"",""trial"",""time""
""blur"",""1"",""2937""
""focus"",""1"",""17909""
""fullscreenenter"",""1"",""22938""
""fullscreenexit"",""47"",""285031""
","""event"",""trial"",""time""
""blur"",""1"",""2937""
","""event"",""trial"",""time""
""focus"",""1"",""17909""
","""event"",""trial"",""time""
""fullscreenenter"",""1"",""22938""
","""event"",""trial"",""time""
""fullscreenexit"",""47"",""285031""
",,665.3,run_exp/static/images/task_images/land.jpg,65,,,,,,,85,,,7,,,,,,,,128280,1,0,FALSE,,,
dig,122,552797,0.0-38.0-0.0,"""event"",""trial"",""time""
""blur"",""1"",""2937""
""focus"",""1"",""17909""
""fullscreenenter"",""1"",""22938""
""fullscreenexit"",""47"",""285031""
","""event"",""trial"",""time""
""blur"",""1"",""2937""
","""event"",""trial"",""time""
""focus"",""1"",""17909""
","""event"",""trial"",""time""
""fullscreenenter"",""1"",""22938""
","""event"",""trial"",""time""
""fullscreenexit"",""47"",""285031""
",,,,,,,,,,,,"[{""stimulus"":""run_exp/static/images/task_images/dig.jpg"",""time"":0.2999999523162842},{""stimulus"":""run_exp/static/images/task_images/land.jpg"",""time"":780.3999999761581},{""stimulus"":""run_exp/static/images/task_images/dig.jpg"",""time"":1558.199999988079}]",[],7,,,,,,,,,,,,,,
harvest,123,553799,0.0-38.0-1.0,"""event"",""trial"",""time""
""blur"",""1"",""2937""
""focus"",""1"",""17909""
""fullscreenenter"",""1"",""22938""
""fullscreenexit"",""47"",""285031""
","""event"",""trial"",""time""
""blur"",""1"",""2937""
","""event"",""trial"",""time""
""focus"",""1"",""17909""
","""event"",""trial"",""time""
""fullscreenenter"",""1"",""22938""
","""event"",""trial"",""time""
""fullscreenexit"",""47"",""285031""
",,null,run_exp/static/images/task_images/gems/85.jpg,null,,,,,,,66,,,7,,,,,85,0.772621616,0.776470588,,,,,,,
decision,124,554153,0.0-38.0-2.0,"""event"",""trial"",""time""
""blur"",""1"",""2937""
""focus"",""1"",""17909""
""fullscreenenter"",""1"",""22938""
""fullscreenexit"",""47"",""285031""
","""event"",""trial"",""time""
""blur"",""1"",""2937""
","""event"",""trial"",""time""
""focus"",""1"",""17909""
","""event"",""trial"",""time""
""fullscreenenter"",""1"",""22938""
","""event"",""trial"",""time""
""fullscreenexit"",""47"",""285031""
",,352.5,run_exp/static/images/task_images/land.jpg,76,,,,,,,66,,,7,,,,,,,,131977,1,1,TRUE,,,
travel,125,563797,0.0-39.0-0.0,"""event"",""trial"",""time""
""blur"",""1"",""2937""
""focus"",""1"",""17909""
""fullscreenenter"",""1"",""22938""
""fullscreenexit"",""47"",""285031""
","""event"",""trial"",""time""
""blur"",""1"",""2937""
","""event"",""trial"",""time""
""focus"",""1"",""17909""
","""event"",""trial"",""time""
""fullscreenenter"",""1"",""22938""
","""event"",""trial"",""time""
""fullscreenexit"",""47"",""285031""
",,,,,,,,,,,,"[{""stimulus"":""run_exp/static/images/task_images/rocket-01.jpg"",""time"":0.30000001192092896},{""stimulus"":""run_exp/static/images/task_images/rocket-02.jpg"",""time"":1074},{""stimulus"":""run_exp/static/images/task_images/rocket-03.jpg"",""time"":2143.199999988079},{""stimulus"":""run_exp/static/images/task_images/rocket-04.jpg"",""time"":3215},{""stimulus"":""run_exp/static/images/task_images/rocket-05.jpg"",""time"":4285.100000023842},{""stimulus"":""run_exp/static/images/task_images/rocket-06.jpg"",""time"":5357},{""stimulus"":""run_exp/static/images/task_images/rocket-07.jpg"",""time"":6427.900000035763},{""stimulus"":""run_exp/static/images/task_images/rocket-08.jpg"",""time"":7499.100000023842},{""stimulus"":""run_exp/static/images/task_images/rocket-09.jpg"",""time"":8570}]",[],7,,,,,,,,,,,,,,
alien_welcome,126,568800,0.0-39.0-1.0,"""event"",""trial"",""time""
""blur"",""1"",""2937""
""focus"",""1"",""17909""
""fullscreenenter"",""1"",""22938""
""fullscreenexit"",""47"",""285031""
","""event"",""trial"",""time""
""blur"",""1"",""2937""
","""event"",""trial"",""time""
""focus"",""1"",""17909""
","""event"",""trial"",""time""
""fullscreenenter"",""1"",""22938""
","""event"",""trial"",""time""
""fullscreenexit"",""47"",""285031""
",,null,run_exp/static/images/task_images/aliens/old_aliens/planet/alien_planet-70.jpg,null,,,,,,,,,,,,,70,"42,69,45,24,56,64,65,70,5,4,7,35,37,40,62,60,53,72,22,30,14,43,26,19,31,78,55,66,15,77,39,61,80,8,25,67,17,3,10,28,63,49,57,71,20,34,73,2,16,54,76,46,27,23,47,52,18",,,,,,,,,,
land,127,569302,0.0-39.0-2.0,"""event"",""trial"",""time""
""blur"",""1"",""2937""
""focus"",""1"",""17909""
""fullscreenenter"",""1"",""22938""
""fullscreenexit"",""47"",""285031""
","""event"",""trial"",""time""
""blur"",""1"",""2937""
","""event"",""trial"",""time""
""focus"",""1"",""17909""
","""event"",""trial"",""time""
""fullscreenenter"",""1"",""22938""
","""event"",""trial"",""time""
""fullscreenexit"",""47"",""285031""
",,null,run_exp/static/images/task_images/land.jpg,null,,,,,,,105,,,8,,,,,,,,,,,,,,
dig,128,571307,0.0-39.0-3.0,"""event"",""trial"",""time""
""blur"",""1"",""2937""
""focus"",""1"",""17909""
""fullscreenenter"",""1"",""22938""
""fullscreenexit"",""47"",""285031""
","""event"",""trial"",""time""
""blur"",""1"",""2937""
","""event"",""trial"",""time""
""focus"",""1"",""17909""
","""event"",""trial"",""time""
""fullscreenenter"",""1"",""22938""
","""event"",""trial"",""time""
""fullscreenexit"",""47"",""285031""
",,,,,,,,,,,,"[{""stimulus"":""run_exp/static/images/task_images/dig.jpg"",""time"":0.30000001192092896},{""stimulus"":""run_exp/static/images/task_images/land.jpg"",""time"":668.1000000238419},{""stimulus"":""run_exp/static/images/task_images/dig.jpg"",""time"":1335.9000000357628}]",[],8,,,,,,,,,,,,,,
harvest,129,572309,0.0-39.0-4.0,"""event"",""trial"",""time""
""blur"",""1"",""2937""
""focus"",""1"",""17909""
""fullscreenenter"",""1"",""22938""
""fullscreenexit"",""47"",""285031""
","""event"",""trial"",""time""
""blur"",""1"",""2937""
","""event"",""trial"",""time""
""focus"",""1"",""17909""
","""event"",""trial"",""time""
""fullscreenenter"",""1"",""22938""
","""event"",""trial"",""time""
""fullscreenexit"",""47"",""285031""
",,null,run_exp/static/images/task_images/gems/105.jpg,null,,,,,,,89,,,8,,,,,105,0.8458183,0.847619048,,,,,,,
decision,130,573642,0.0-39.0-5.0,"""event"",""trial"",""time""
""blur"",""1"",""2937""
""focus"",""1"",""17909""
""fullscreenenter"",""1"",""22938""
""fullscreenexit"",""47"",""285031""
","""event"",""trial"",""time""
""blur"",""1"",""2937""
","""event"",""trial"",""time""
""focus"",""1"",""17909""
","""event"",""trial"",""time""
""fullscreenenter"",""1"",""22938""
","""event"",""trial"",""time""
""fullscreenexit"",""47"",""285031""
",,1331.3,run_exp/static/images/task_images/land.jpg,65,,,,,,,89,,,8,,,,,,,,151465,1,0,FALSE,,,
dig,131,575315,0.0-40.0-0.0,"""event"",""trial"",""time""
""blur"",""1"",""2937""
""focus"",""1"",""17909""
""fullscreenenter"",""1"",""22938""
""fullscreenexit"",""47"",""285031""
","""event"",""trial"",""time""
""blur"",""1"",""2937""
","""event"",""trial"",""time""
""focus"",""1"",""17909""
","""event"",""trial"",""time""
""fullscreenenter"",""1"",""22938""
","""event"",""trial"",""time""
""fullscreenexit"",""47"",""285031""
",,,,,,,,,,,,"[{""stimulus"":""run_exp/static/images/task_images/dig.jpg"",""time"":0.19999998807907104},{""stimulus"":""run_exp/static/images/task_images/land.jpg"",""time"":558.1000000238419},{""stimulus"":""run_exp/static/images/task_images/dig.jpg"",""time"":1114.800000011921}]",[],8,,,,,,,,,,,,,,
harvest,132,576317,0.0-40.0-1.0,"""event"",""trial"",""time""
""blur"",""1"",""2937""
""focus"",""1"",""17909""
""fullscreenenter"",""1"",""22938""
""fullscreenexit"",""47"",""285031""
","""event"",""trial"",""time""
""blur"",""1"",""2937""
","""event"",""trial"",""time""
""focus"",""1"",""17909""
","""event"",""trial"",""time""
""fullscreenenter"",""1"",""22938""
","""event"",""trial"",""time""
""fullscreenexit"",""47"",""285031""
",,null,run_exp/static/images/task_images/gems/89.jpg,null,,,,,,,59,,,8,,,,,89,0.660536383,0.662921348,,,,,,,
decision,133,576586,0.0-40.0-2.0,"""event"",""trial"",""time""
""blur"",""1"",""2937""
""focus"",""1"",""17909""
""fullscreenenter"",""1"",""22938""
""fullscreenexit"",""47"",""285031""
","""event"",""trial"",""time""
""blur"",""1"",""2937""
","""event"",""trial"",""time""
""focus"",""1"",""17909""
","""event"",""trial"",""time""
""fullscreenenter"",""1"",""22938""
","""event"",""trial"",""time""
""fullscreenexit"",""47"",""285031""
",,266.8,run_exp/static/images/task_images/land.jpg,76,,,,,,,59,,,8,,,,,,,,154409,1,1,TRUE,,,
travel,134,586321,0.0-41.0-0.0,"""event"",""trial"",""time""
""blur"",""1"",""2937""
""focus"",""1"",""17909""
""fullscreenenter"",""1"",""22938""
""fullscreenexit"",""47"",""285031""
","""event"",""trial"",""time""
""blur"",""1"",""2937""
","""event"",""trial"",""time""
""focus"",""1"",""17909""
","""event"",""trial"",""time""
""fullscreenenter"",""1"",""22938""
","""event"",""trial"",""time""
""fullscreenexit"",""47"",""285031""
",,,,,,,,,,,,"[{""stimulus"":""run_exp/static/images/task_images/rocket-01.jpg"",""time"":0.30000001192092896},{""stimulus"":""run_exp/static/images/task_images/rocket-02.jpg"",""time"":1083.199999988079},{""stimulus"":""run_exp/static/images/task_images/rocket-03.jpg"",""time"":2164.100000023842},{""stimulus"":""run_exp/static/images/task_images/rocket-04.jpg"",""time"":3244.899999976158},{""stimulus"":""run_exp/static/images/task_images/rocket-05.jpg"",""time"":4326},{""stimulus"":""run_exp/static/images/task_images/rocket-06.jpg"",""time"":5406.899999976158},{""stimulus"":""run_exp/static/images/task_images/rocket-07.jpg"",""time"":6488.100000023842},{""stimulus"":""run_exp/static/images/task_images/rocket-08.jpg"",""time"":7569},{""stimulus"":""run_exp/static/images/task_images/rocket-09.jpg"",""time"":8649.600000023842}]",[],8,,,,,,,,,,,,,,
alien_welcome,135,591325,0.0-41.0-1.0,"""event"",""trial"",""time""
""blur"",""1"",""2937""
""focus"",""1"",""17909""
""fullscreenenter"",""1"",""22938""
""fullscreenexit"",""47"",""285031""
","""event"",""trial"",""time""
""blur"",""1"",""2937""
","""event"",""trial"",""time""
""focus"",""1"",""17909""
","""event"",""trial"",""time""
""fullscreenenter"",""1"",""22938""
","""event"",""trial"",""time""
""fullscreenexit"",""47"",""285031""
",,null,run_exp/static/images/task_images/aliens/old_aliens/planet/alien_planet-5.jpg,null,,,,,,,,,,,,,5,"42,69,45,24,56,64,65,70,5,4,7,35,37,40,62,60,53,72,22,30,14,43,26,19,31,78,55,66,15,77,39,61,80,8,25,67,17,3,10,28,63,49,57,71,20,34,73,2,16,54,76,46,27,23,47,52,18",,,,,,,,,,
land,136,591828,0.0-41.0-2.0,"""event"",""trial"",""time""
""blur"",""1"",""2937""
""focus"",""1"",""17909""
""fullscreenenter"",""1"",""22938""
""fullscreenexit"",""47"",""285031""
","""event"",""trial"",""time""
""blur"",""1"",""2937""
","""event"",""trial"",""time""
""focus"",""1"",""17909""
","""event"",""trial"",""time""
""fullscreenenter"",""1"",""22938""
","""event"",""trial"",""time""
""fullscreenexit"",""47"",""285031""
",,null,run_exp/static/images/task_images/land.jpg,null,,,,,,,93,,,9,,,,,,,,,,,,,,
dig,137,593833,0.0-41.0-3.0,"""event"",""trial"",""time""
""blur"",""1"",""2937""
""focus"",""1"",""17909""
""fullscreenenter"",""1"",""22938""
""fullscreenexit"",""47"",""285031""
","""event"",""trial"",""time""
""blur"",""1"",""2937""
","""event"",""trial"",""time""
""focus"",""1"",""17909""
","""event"",""trial"",""time""
""fullscreenenter"",""1"",""22938""
","""event"",""trial"",""time""
""fullscreenexit"",""47"",""285031""
",,,,,,,,,,,,"[{""stimulus"":""run_exp/static/images/task_images/dig.jpg"",""time"":0.30000001192092896},{""stimulus"":""run_exp/static/images/task_images/land.jpg"",""time"":669.3000000119209},{""stimulus"":""run_exp/static/images/task_images/dig.jpg"",""time"":1335.3999999761581}]",[],9,,,,,,,,,,,,,,
harvest,138,594836,0.0-41.0-4.0,"""event"",""trial"",""time""
""blur"",""1"",""2937""
""focus"",""1"",""17909""
""fullscreenenter"",""1"",""22938""
""fullscreenexit"",""47"",""285031""
","""event"",""trial"",""time""
""blur"",""1"",""2937""
","""event"",""trial"",""time""
""focus"",""1"",""17909""
","""event"",""trial"",""time""
""fullscreenenter"",""1"",""22938""
","""event"",""trial"",""time""
""fullscreenexit"",""47"",""285031""
",,null,run_exp/static/images/task_images/gems/93.jpg,null,,,,,,,23,,,9,,,,,93,0.249286041,0.247311828,,,,,,,
decision,139,595721,0.0-41.0-5.0,"""event"",""trial"",""time""
""blur"",""1"",""2937""
""focus"",""1"",""17909""
""fullscreenenter"",""1"",""22938""
""fullscreenexit"",""47"",""285031""
","""event"",""trial"",""time""
""blur"",""1"",""2937""
","""event"",""trial"",""time""
""focus"",""1"",""17909""
","""event"",""trial"",""time""
""fullscreenenter"",""1"",""22938""
","""event"",""trial"",""time""
""fullscreenexit"",""47"",""285031""
",,883.8,run_exp/static/images/task_images/land.jpg,76,,,,,,,23,,,9,,,,,,,,173544,1,0,TRUE,,,
travel,140,604836,0.0-42.0-0.0,"""event"",""trial"",""time""
""blur"",""1"",""2937""
""focus"",""1"",""17909""
""fullscreenenter"",""1"",""22938""
""fullscreenexit"",""47"",""285031""
","""event"",""trial"",""time""
""blur"",""1"",""2937""
","""event"",""trial"",""time""
""focus"",""1"",""17909""
","""event"",""trial"",""time""
""fullscreenenter"",""1"",""22938""
","""event"",""trial"",""time""
""fullscreenexit"",""47"",""285031""
",,,,,,,,,,,,"[{""stimulus"":""run_exp/static/images/task_images/rocket-01.jpg"",""time"":0.3999999761581421},{""stimulus"":""run_exp/static/images/task_images/rocket-02.jpg"",""time"":1014.3000000119209},{""stimulus"":""run_exp/static/images/task_images/rocket-03.jpg"",""time"":2026.199999988079},{""stimulus"":""run_exp/static/images/task_images/rocket-04.jpg"",""time"":3037.300000011921},{""stimulus"":""run_exp/static/images/task_images/rocket-05.jpg"",""time"":4050.300000011921},{""stimulus"":""run_exp/static/images/task_images/rocket-06.jpg"",""time"":5061.399999976158},{""stimulus"":""run_exp/static/images/task_images/rocket-07.jpg"",""time"":6074.300000011921},{""stimulus"":""run_exp/static/images/task_images/rocket-08.jpg"",""time"":7085.899999976158},{""stimulus"":""run_exp/static/images/task_images/rocket-09.jpg"",""time"":8098.199999988079}]",[],9,,,,,,,,,,,,,,
alien_welcome,141,609838,0.0-42.0-1.0,"""event"",""trial"",""time""
""blur"",""1"",""2937""
""focus"",""1"",""17909""
""fullscreenenter"",""1"",""22938""
""fullscreenexit"",""47"",""285031""
","""event"",""trial"",""time""
""blur"",""1"",""2937""
","""event"",""trial"",""time""
""focus"",""1"",""17909""
","""event"",""trial"",""time""
""fullscreenenter"",""1"",""22938""
","""event"",""trial"",""time""
""fullscreenexit"",""47"",""285031""
",,null,run_exp/static/images/task_images/aliens/old_aliens/planet/alien_planet-4.jpg,null,,,,,,,,,,,,,4,"42,69,45,24,56,64,65,70,5,4,7,35,37,40,62,60,53,72,22,30,14,43,26,19,31,78,55,66,15,77,39,61,80,8,25,67,17,3,10,28,63,49,57,71,20,34,73,2,16,54,76,46,27,23,47,52,18",,,,,,,,,,
land,142,610340,0.0-42.0-2.0,"""event"",""trial"",""time""
""blur"",""1"",""2937""
""focus"",""1"",""17909""
""fullscreenenter"",""1"",""22938""
""fullscreenexit"",""47"",""285031""
","""event"",""trial"",""time""
""blur"",""1"",""2937""
","""event"",""trial"",""time""
""focus"",""1"",""17909""
","""event"",""trial"",""time""
""fullscreenenter"",""1"",""22938""
","""event"",""trial"",""time""
""fullscreenexit"",""47"",""285031""
",,null,run_exp/static/images/task_images/land.jpg,null,,,,,,,93,,,10,,,,,,,,,,,,,,
dig,143,612344,0.0-42.0-3.0,"""event"",""trial"",""time""
""blur"",""1"",""2937""
""focus"",""1"",""17909""
""fullscreenenter"",""1"",""22938""
""fullscreenexit"",""47"",""285031""
","""event"",""trial"",""time""
""blur"",""1"",""2937""
","""event"",""trial"",""time""
""focus"",""1"",""17909""
","""event"",""trial"",""time""
""fullscreenenter"",""1"",""22938""
","""event"",""trial"",""time""
""fullscreenexit"",""47"",""285031""
",,,,,,,,,,,,"[{""stimulus"":""run_exp/static/images/task_images/dig.jpg"",""time"":0.30000001192092896},{""stimulus"":""run_exp/static/images/task_images/land.jpg"",""time"":669.2000000476837},{""stimulus"":""run_exp/static/images/task_images/dig.jpg"",""time"":1336.1000000238419}]",[],10,,,,,,,,,,,,,,
harvest,144,613346,0.0-42.0-4.0,"""event"",""trial"",""time""
""blur"",""1"",""2937""
""focus"",""1"",""17909""
""fullscreenenter"",""1"",""22938""
""fullscreenexit"",""47"",""285031""
","""event"",""trial"",""time""
""blur"",""1"",""2937""
","""event"",""trial"",""time""
""focus"",""1"",""17909""
","""event"",""trial"",""time""
""fullscreenenter"",""1"",""22938""
","""event"",""trial"",""time""
""fullscreenexit"",""47"",""285031""
",,null,run_exp/static/images/task_images/gems/93.jpg,null,,,,,,,18,,,10,,,,,93,0.197504292,0.193548387,,,,,,,
decision,145,613529,0.0-42.0-5.0,"""event"",""trial"",""time""
""blur"",""1"",""2937""
""focus"",""1"",""17909""
""fullscreenenter"",""1"",""22938""
""fullscreenexit"",""47"",""285031""
","""event"",""trial"",""time""
""blur"",""1"",""2937""
","""event"",""trial"",""time""
""focus"",""1"",""17909""
","""event"",""trial"",""time""
""fullscreenenter"",""1"",""22938""
","""event"",""trial"",""time""
""fullscreenexit"",""47"",""285031""
",,181.2,run_exp/static/images/task_images/land.jpg,76,,,,,,,18,,,10,,,,,,,,191352,1,0,TRUE,,,
travel,146,623346,0.0-43.0-0.0,"""event"",""trial"",""time""
""blur"",""1"",""2937""
""focus"",""1"",""17909""
""fullscreenenter"",""1"",""22938""
""fullscreenexit"",""47"",""285031""
","""event"",""trial"",""time""
""blur"",""1"",""2937""
","""event"",""trial"",""time""
""focus"",""1"",""17909""
","""event"",""trial"",""time""
""fullscreenenter"",""1"",""22938""
","""event"",""trial"",""time""
""fullscreenexit"",""47"",""285031""
",,,,,,,,,,,,"[{""stimulus"":""run_exp/static/images/task_images/rocket-01.jpg"",""time"":0.2999999523162842},{""stimulus"":""run_exp/static/images/task_images/rocket-02.jpg"",""time"":1091.5},{""stimulus"":""run_exp/static/images/task_images/rocket-03.jpg"",""time"":2182.5},{""stimulus"":""run_exp/static/images/task_images/rocket-04.jpg"",""time"":3271.599999964237},{""stimulus"":""run_exp/static/images/task_images/rocket-05.jpg"",""time"":4361.599999964237},{""stimulus"":""run_exp/static/images/task_images/rocket-06.jpg"",""time"":5453.299999952316},{""stimulus"":""run_exp/static/images/task_images/rocket-07.jpg"",""time"":6541.5},{""stimulus"":""run_exp/static/images/task_images/rocket-08.jpg"",""time"":7632.5},{""stimulus"":""run_exp/static/images/task_images/rocket-09.jpg"",""time"":8721.5}]",[],10,,,,,,,,,,,,,,
alien_welcome,147,628348,0.0-43.0-1.0,"""event"",""trial"",""time""
