trial_type,trial_index,time_elapsed,internal_node_id,success,rt,stimulus,key_press,prompt,subject_id,age,gender,button_pressed,next_reward,animation_sequence,responses,planet,curr_prac_trial,n_prac_rounds,alien,aliens,reward_received,decay_rate_actual,decay_rate_exp,time_in_block,block_num,prt,last_trial_on_planet,button_html,bonus,num_failures
pavlovia,0,8,0.0-0.0,,,,,,,,,,,,,,,,,,,,,,,,,,,
fullscreen,1,3326,0.0-1.0,TRUE,,,,,,,,,,,,,,,,,,,,,,,,,,
instruc_welcome,2,13258,0.0-2.0,,null,run_exp/static/audio/clip_1_welcome.m4a,null,"<p>Howdy! In this experiment, you’ll be an explorer traveling through space to collect space treasure.</p><p>Your mission is to collect as much treasure as possible.</p><br><br><p><img src='run_exp/static/images/task_images/opening_img-01.jpg' height='300' width='auto'></p>",QFth44Y2vlatbHS_1Y3uCvx5VSxv8Zo_MLRP_6r0ZxABMH8qhCUm,12.79,female,,,,,,,,,,,,,,,,,,,
audio-keyboard-response,3,29851,0.0-3.0,,null,run_exp/static/audio/clip_2_move.m4a,null,,,,,,,,,,,,,,,,,,,,,,,
welcome_dec,4,33789,0.0-4.0,,3934,"<p>Howdy! In this experiment, you’ll be an explorer traveling through space to collect space treasure.</p><p>Your mission is to collect as much treasure as possible.</p><br><br><p><img src='run_exp/static/images/task_images/opening_img-01.jpg' height='300' width='auto'></p>",,,,,,1,,,,,,,,,,,,,,,,,,
html-keyboard-response,5,35108,0.0-5.0,,1317,"<p>Howdy! In this experiment, you’ll be an explorer traveling through space to collect space treasure.</p><p>Your mission is to collect as much treasure as possible.</p><br><br><p><img src='run_exp/static/images/task_images/opening_img-01.jpg' height='300' width='auto'></p><button class=""jspsych-html-btn-unchosen""><img src=""run_exp/static/images/task_images/planet-01.jpg"" height=""50""></button><button class=""jspsych-html-btn-chosen""><img src=""run_exp/static/images/task_images/planet-02.jpg"" height=""50""></button><p><b>[press the space bar to lock in your answer]<b><br></p>",32,,,,,,,,,,,,,,,,,,,,,,,
instruc_goal,6,45187,0.0-6.0-0.0,,null,run_exp/static/audio/clip_3_goal.m4a,null,"<p> As a space explorer, you’ll visit different planets to dig for space treasure, these pink gems.</p> <p> The more treasure you dig up, the more bonus money you’ll win! </p><br><br><p><img src='run_exp/static/images/task_images/pink_gem.jpg' height='300' width='auto'></p>",,,,,,,,,,,,,,,,,,,,,,
instruc_goal,7,47908,0.0-6.0-1.0,,2720,"<p> As a space explorer, you’ll visit different planets to dig for space treasure, these pink gems.</p> <p> The more treasure you dig up, the more bonus money you’ll win! </p><br><br><p><img src='run_exp/static/images/task_images/pink_gem.jpg' height='300' width='auto'></p>",,,,,,1,,,,,,,,,,,,,,,,,,
html-keyboard-response,8,48261,0.0-6.0-2.0,,352,"<p> As a space explorer, you’ll visit different planets to dig for space treasure, these pink gems.</p> <p> The more treasure you dig up, the more bonus money you’ll win! </p><br><br><p><img src='run_exp/static/images/task_images/pink_gem.jpg' height='300' width='auto'></p><button class=""jspsych-html-btn-unchosen""><img src=""run_exp/static/images/task_images/planet-01.jpg"" height=""50""></button><button class=""jspsych-html-btn-chosen""><img src=""run_exp/static/images/task_images/planet-02.jpg"" height=""50""></button><p><b>[press the space bar to lock in your answer]<b><br></p>",32,,,,,,,,,,,,,,,,,,,,,,,
instruc_dig,9,64272,0.0-7.0-0.0,,null,run_exp/static/audio/clip_4_dig.m4a,null,,,,,,100,,,,,,,,,,,,,,,,,
instruc_dig_try,10,77009,0.0-7.0-1.0,,12735,"<p> When you’ve arrived at a new planet, you will dig once. </p> <p>Then, you get to decide if you want to stay on the planet and dig again or travel to a new planet and dig there.</p> <p> To stay and dig, press the letter <strong>‘A’</strong> on your keyboard. Try pressing it now! </p><p><img src='run_exp/static/images/task_images/land.jpg'  height='700' width='auto'></p>",65,"<p> When you’ve arrived at a new planet, you will dig once. </p> <p>Then, you get to decide if you want to stay on the planet and dig again or travel to a new planet and dig there.</p> <p> To stay and dig, press the letter <strong>‘A’</strong> on your keyboard. Try pressing it now! </p><p><img src='run_exp/static/images/task_images/land.jpg'  height='700' width='auto'></p>",,,,,100,,,,,,,,,,,,,,,,,
dig_prac,11,79074,0.0-7.0-2.0,,,,,,,,,,,"[{""stimulus"":""run_exp/static/images/task_images/dig.jpg"",""time"":0},{""stimulus"":""run_exp/static/images/task_images/land.jpg"",""time"":669},{""stimulus"":""run_exp/static/images/task_images/dig.jpg"",""time"":1350}]",[],,,,,,,,,,,,,,,
instruc_travel,12,115298,0.0-7.0-3.0,,null,run_exp/static/audio/clip_5_travel.m4a,null,"<p>Every time you dig up gems, there are less gems on the planet, so the more you dig on a planet the fewer gems you’ll get with each dig.</p><p>When gems are running low, you may want to travel to a new planet. </p> <p>  Planets are very far apart in this galaxy, so it will take some time to travel between them. </p> <br><p>There are lots and lots of planets for you to visit, so you won’t be able to return to any planets you’ve seen before. </p><br><p>To leave this planet and travel to a new one, press the letter <strong>‘L’</strong> on your keyboard. Try pressing it now! </p><p><img src='run_exp/static/images/task_images/rocket-01.jpg'  height='600' width='auto'></p>",,,,,,,,,,,,,,,,,,,,,,
instruc_travel_try,13,116231,0.0-7.0-4.0,,932,"<p>Every time you dig up gems, there are less gems on the planet, so the more you dig on a planet the fewer gems you’ll get with each dig.</p><p>When gems are running low, you may want to travel to a new planet. </p> <p>  Planets are very far apart in this galaxy, so it will take some time to travel between them. </p> <br><p>There are lots and lots of planets for you to visit, so you won’t be able to return to any planets you’ve seen before. </p><br><p>To leave this planet and travel to a new one, press the letter <strong>‘L’</strong> on your keyboard. Try pressing it now! </p><p><img src='run_exp/static/images/task_images/rocket-01.jpg'  height='600' width='auto'></p>",76,"<p>Every time you dig up gems, there are less gems on the planet, so the more you dig on a planet the fewer gems you’ll get with each dig.</p><p>When gems are running low, you may want to travel to a new planet. </p> <p>  Planets are very far apart in this galaxy, so it will take some time to travel between them. </p> <br><p>There are lots and lots of planets for you to visit, so you won’t be able to return to any planets you’ve seen before. </p><br><p>To leave this planet and travel to a new one, press the letter <strong>‘L’</strong> on your keyboard. Try pressing it now! </p><p><img src='run_exp/static/images/task_images/rocket-01.jpg'  height='600' width='auto'></p>",,,,,,,,,,,,,,,,,,,,,,
travel_prac,14,126323,0.0-7.0-5.0,,,,,,,,,,,"[{""stimulus"":""run_exp/static/images/task_images/rocket-01.jpg"",""time"":0},{""stimulus"":""run_exp/static/images/task_images/rocket-02.jpg"",""time"":1120},{""stimulus"":""run_exp/static/images/task_images/rocket-03.jpg"",""time"":2242},{""stimulus"":""run_exp/static/images/task_images/rocket-04.jpg"",""time"":3355},{""stimulus"":""run_exp/static/images/task_images/rocket-05.jpg"",""time"":4479},{""stimulus"":""run_exp/static/images/task_images/rocket-06.jpg"",""time"":5591},{""stimulus"":""run_exp/static/images/task_images/rocket-07.jpg"",""time"":6713},{""stimulus"":""run_exp/static/images/task_images/rocket-08.jpg"",""time"":7837},{""stimulus"":""run_exp/static/images/task_images/rocket-09.jpg"",""time"":8959}]",[],0,,,,,,,,,,,,,,
instruc_alien_greet,15,153538,0.0-7.0-6.0,,null,run_exp/static/audio/clip_6_alien.m4a,null,"<p>When you arrive at a new planet, the alien who owns the treasure mine on that planet will greet you!</p><p>The better an alien takes care of their mine the easier it is to dig for gems. Some aliens take better care of their mine than others. So, you won’t get exactly the same amount of gems on each planet.</p><p>What the alien looks like does not tell you anything about how many gems there are on the planet.</p><br><p><img src=""run_exp/static/images/task_images/aliens/instructions_aliens/planet/alien_planet-1.jpg""  height=""600"" width=""auto""></p>",,,,,,,,,,,,,,,,,,,,,,
instruc_alien_greet,16,156813,0.0-7.0-7.0,,3274,"<p>When you arrive at a new planet, the alien who owns the treasure mine on that planet will greet you!</p><p>The better an alien takes care of their mine the easier it is to dig for gems. Some aliens take better care of their mine than others. So, you won’t get exactly the same amount of gems on each planet.</p><p>What the alien looks like does not tell you anything about how many gems there are on the planet.</p><br><p><img src=""run_exp/static/images/task_images/aliens/instructions_aliens/planet/alien_planet-1.jpg""  height=""600"" width=""auto""></p>",,,,,,1,,,,,,,,,,,,,,,,,,
html-keyboard-response,17,157503,0.0-7.0-8.0,,689,"<p>When you arrive at a new planet, the alien who owns the treasure mine on that planet will greet you!</p><p>The better an alien takes care of their mine the easier it is to dig for gems. Some aliens take better care of their mine than others. So, you won’t get exactly the same amount of gems on each planet.</p><p>What the alien looks like does not tell you anything about how many gems there are on the planet.</p><br><p><img src=""run_exp/static/images/task_images/aliens/instructions_aliens/planet/alien_planet-1.jpg""  height=""600"" width=""auto""></p><button class=""jspsych-html-btn-unchosen""><img src=""run_exp/static/images/task_images/planet-01.jpg"" height=""50""></button><button class=""jspsych-html-btn-chosen""><img src=""run_exp/static/images/task_images/planet-02.jpg"" height=""50""></button><p><b>[press the space bar to lock in your answer]<b><br></p>",32,,,,,,,,,,,,,,,,,,,,,,,
time_out,18,168580,0.0-8.0-0.0,,null,run_exp/static/audio/clip_7_timeout.m4a,null,"<p>If you don't make your choice fast enough, you’ll have to wait a few seconds before you can make another one.</p><p>You can’t dig for more gems or travel to new planets. You just have to sit and wait.</p><br><p><img src='run_exp/static/images/task_images/time_out.jpg'  height='600' width='auto'></p>",,,,,,,,,,,,,,,,,,,,,,
time_out,19,169461,0.0-8.0-1.0,,878,"<p>If you don't make your choice fast enough, you’ll have to wait a few seconds before you can make another one.</p><p>You can’t dig for more gems or travel to new planets. You just have to sit and wait.</p><br><p><img src='run_exp/static/images/task_images/time_out.jpg'  height='600' width='auto'></p>",,,,,,1,,,,,,,,,,,,,,,,,,
html-keyboard-response,20,170022,0.0-8.0-2.0,,561,"<p>If you don't make your choice fast enough, you’ll have to wait a few seconds before you can make another one.</p><p>You can’t dig for more gems or travel to new planets. You just have to sit and wait.</p><br><p><img src='run_exp/static/images/task_images/time_out.jpg'  height='600' width='auto'></p><button class=""jspsych-html-btn-unchosen""><img src=""run_exp/static/images/task_images/planet-01.jpg"" height=""50""></button><button class=""jspsych-html-btn-chosen""><img src=""run_exp/static/images/task_images/planet-02.jpg"" height=""50""></button><p><b>[press the space bar to lock in your answer]<b><br></p>",32,,,,,,,,,,,,,,,,,,,,,,,
instruc_break,21,185719,0.0-9.0-0.0,,null,run_exp/static/audio/clip_8_break.m4a,null,"<p> After digging and traveling for a while, you’ll be able to take a break at home base. </p><p>The game will last 20 minutes no matter what.</p><p>You will visit home base every 5 minutes, so, you will visit home base three times during the game.</p><br><p><img src='run_exp/static/images/task_images/home_base.jpg' height='600' width='auto'></p>",,,,,,,,,,,,,,,,,,,,,,
instruc_break,22,186724,0.0-9.0-1.0,,1002,"<p> After digging and traveling for a while, you’ll be able to take a break at home base. </p><p>The game will last 20 minutes no matter what.</p><p>You will visit home base every 5 minutes, so, you will visit home base three times during the game.</p><br><p><img src='run_exp/static/images/task_images/home_base.jpg' height='600' width='auto'></p>",,,,,,1,,,,,,,,,,,,,,,,,,
html-keyboard-response,23,187302,0.0-9.0-2.0,,576,"<p> After digging and traveling for a while, you’ll be able to take a break at home base. </p><p>The game will last 20 minutes no matter what.</p><p>You will visit home base every 5 minutes, so, you will visit home base three times during the game.</p><br><p><img src='run_exp/static/images/task_images/home_base.jpg' height='600' width='auto'></p><button class=""jspsych-html-btn-unchosen""><img src=""run_exp/static/images/task_images/planet-01.jpg"" height=""50""></button><button class=""jspsych-html-btn-chosen""><img src=""run_exp/static/images/task_images/planet-02.jpg"" height=""50""></button><p><b>[press the space bar to lock in your answer]<b><br></p>",32,,,,,,,,,,,,,,,,,,,,,,,
instruc_prac_game,24,197437,0.0-10.0-0.0,,null,run_exp/static/audio/clip_9_practice.m4a,null,"<p> Are you ready to play a practice game? </p> <p>In this practice game, you'll be digging up barrels of gems. But, in the real game, you'll be digging up the gems themselves. </p>",,,,,,,,,,,,,,,,,,,,,,
html-button-response,25,199141,0.0-10.0-1.0,,1702,"<p> Are you ready to play a practice game? </p> <p>In this practice game, you'll be digging up barrels of gems. But, in the real game, you'll be digging up the gems themselves. </p>",,,,,,0,,,,,,,,,,,,,,,,,,
alien_welcome_prac,26,204152,0.0-11.0-0.0,,null,run_exp/static/images/task_images/aliens/practice_aliens/planet/alien_planet-5.jpg,null,,,,,,,,,,,,,,,,,,,,,,,
land_prac,27,204663,0.0-11.0-1.0,,null,run_exp/static/images/task_images/land.jpg,null,,,,,,110,,,0,,,,,,,,,,,,,,
dig_prac,28,206691,0.0-11.0-2.0,,,,,,,,,,,"[{""stimulus"":""run_exp/static/images/task_images/dig.jpg"",""time"":0},{""stimulus"":""run_exp/static/images/task_images/land.jpg"",""time"":674},{""stimulus"":""run_exp/static/images/task_images/dig.jpg"",""time"":1345}]",[],,,,,,,,,,,,,,,
harvest_prac,29,207701,0.0-11.0-3.0,,null,run_exp/static/images/task_images/barrel_text.jpg,null,,,,,,,,,,,,,,,,,,,,,,,
decision_prac,30,210717,0.0-11.0-4.0,,null,run_exp/static/images/task_images/land.jpg,null,,,,,,,,,,1,,,,,,,,,,,,,
time_out,31,212729,0.0-12.0-0.0,,null,run_exp/static/images/task_images/time_out.jpg,null,,,,,,,,,,,,,,,,,,,,,,,
decision_prac,32,213836,0.0-12.0-1.0,,1105,run_exp/static/images/task_images/land.jpg,65,,,,,,,,,,2,,,,,,,,,,,,,
dig_prac,33,215867,0.0-13.0-0.0,,,,,,,,,,,"[{""stimulus"":""run_exp/static/images/task_images/dig.jpg"",""time"":0},{""stimulus"":""run_exp/static/images/task_images/land.jpg"",""time"":681},{""stimulus"":""run_exp/static/images/task_images/dig.jpg"",""time"":1359}]",[],,,,,,,,,,,,,,,
harvest_prac,34,216878,0.0-13.0-1.0,,null,run_exp/static/images/task_images/barrel_text.jpg,null,,,,,,,,,,,,,,,,,,,,,,,
decision_prac,35,219119,0.0-13.0-2.0,,2241,run_exp/static/images/task_images/land.jpg,65,,,,,,,,,,3,,,,,,,,,,,,,
dig_prac,36,221167,0.0-14.0-0.0,,,,,,,,,,,"[{""stimulus"":""run_exp/static/images/task_images/dig.jpg"",""time"":0},{""stimulus"":""run_exp/static/images/task_images/land.jpg"",""time"":676},{""stimulus"":""run_exp/static/images/task_images/dig.jpg"",""time"":1359}]",[],,,,,,,,,,,,,,,
harvest_prac,37,222179,0.0-14.0-1.0,,null,run_exp/static/images/task_images/barrel_text.jpg,null,,,,,,,,,,,,,,,,,,,,,,,
decision_prac,38,224094,0.0-14.0-2.0,,1915,run_exp/static/images/task_images/land.jpg,65,,,,,,,,,,4,,,,,,,,,,,,,
dig_prac,39,226134,0.0-15.0-0.0,,,,,,,,,,,"[{""stimulus"":""run_exp/static/images/task_images/dig.jpg"",""time"":0},{""stimulus"":""run_exp/static/images/task_images/land.jpg"",""time"":682},{""stimulus"":""run_exp/static/images/task_images/dig.jpg"",""time"":1355}]",[],,,,,,,,,,,,,,,
harvest_prac,40,227148,0.0-15.0-1.0,,null,run_exp/static/images/task_images/barrel_text.jpg,null,,,,,,,,,,,,,,,,,,,,,,,
decision_prac,41,230161,0.0-15.0-2.0,,null,run_exp/static/images/task_images/land.jpg,null,,,,,,,,,,,1,,,,,,,,,,,,
quiz_instruc,42,234253,0.0-16.0-0.0,,4087,run_exp/static/audio/clip_10_quiz.m4a,,,,,,0,,,,,,,,,,,,,,,,,,
instruc_repeat,43,276979,0.0-16.0-1.0,,null,"<p> Are you ready to play a practice game? </p> <p>In this practice game, you'll be digging up barrels of gems. But, in the real game, you'll be digging up the gems themselves. </p>",null,"<p>In this game, your goal is to collect as many gems as you can. That’s how you will win bonus money. </p> <p>The entire game will last 20 minutes no matter how many gems you collect or how many planets you visit. </p><p>To stay on a planet and dig again, press the letter A on your keyboard. To leave for a new planet, press the letter L.</p><p>The more you dig on a planet, the fewer gems you’ll get with each dig which is why you might consider leaving for a new planet. </p><p>When you arrive at a new planet, you’ll be greeted by an alien. What the alien looks like does not tell you anything about how much treasure is on the planet. </p>",,,,,,,,,,,,,,,,,,,,,,
instruc_repeat_continue,44,278052,0.0-16.0-2.0,,1072,"<p> Are you ready to play a practice game? </p> <p>In this practice game, you'll be digging up barrels of gems. But, in the real game, you'll be digging up the gems themselves. </p>",,,,,,0,,,,,,,,,,,,,,,,,,
quiz_q_1_ask,45,283515,0.0-16.0-3.0,,5462,run_exp/static/audio/clip_11_q1_ask.m4a,,,,,,2,,,,,,,,,,,,,,,,,,
quiz_q_1_fb_correct,46,287337,0.0-17.0-0.0,,null,run_exp/static/audio/clip_12_q1_corrrect.m4a,null,<p>That’s correct. You win extra money by collecting more gems.</p>,,,,,,,,,,,,,,,,,,,,,,
quiz_q_2_ask,47,290484,0.0-17.0-1.0,,3146,run_exp/static/audio/clip_14_q2_ask.m4a,,,,,,1,,,,,,,,,,,,,,,,,,
quiz_q_2_fb_correct,48,294457,0.0-18.0-0.0,,null,run_exp/static/audio/clip_15_q2_correct.m4a,null,<p>That’s correct. The experiment is 20 minutes no matter what.</p>,,,,,,,,,,,,,,,,,,,,,,
quiz_q_3_ask,49,298788,0.0-18.0-1.0,,4330,run_exp/static/audio/clip_17_q3_ask.m4a,,,,,,1,,,,,,,,,,,,,,,,,,
quiz_q_3_fb_correct,50,302740,0.0-19.0-0.0,,null,run_exp/static/audio/clip_18_q3_correct.m4a,null,<p> That’s correct. You press the letter L to travel to a new planet.</p>,,,,,,,,,,,,,,,,,,,,,,
quiz_q_4_ask,51,306269,0.0-19.0-1.0,,3528,run_exp/static/audio/clip_20_q4_ask.m4a,,,,,,0,,,,,,,,,,,,,,,,,,
quiz_q_4_fb_correct,52,311559,0.0-20.0-0.0,,null,run_exp/static/audio/clip_21_q4_correct.m4a,null,<p> That’s correct. The more you dig on a planet the fewer gems you’ll get with each dig. </p>,,,,,,,,,,,,,,,,,,,,,,
quiz_q_5_ask,53,314836,0.0-20.0-1.0,,3276,run_exp/static/audio/clip_23_q5_ask.m4a,,,,,,1,,,,,,,,,,,,,,,,,,
quiz_q_5_fb_correct,54,319811,0.0-21.0-0.0,,null,run_exp/static/audio/clip_24_q5_correct.m4a,null,<p> That’s correct. The alien tells you nothing about how much treasure is on the planet.</p>,,,,,,,,,,,,,,,,,,,,,,
quiz_correct,55,323296,0.0-22.0-0.0,,null,run_exp/static/audio/clip_26_correct_quiz.m4a,null,,,,,,,,,,,,,,,,,,,,,,,
quiz_correct_continue,56,325044,0.0-22.0-1.0,,1747,<p>Good job! You're now ready to move on to the real game!</p>,,,,,,0,,,,,,,,,,,,,,,,,,
audio-keyboard-response,57,335150,0.0-22.0-2.0,,null,run_exp/static/audio/clip_28_real_game.m4a,null,,,,,,,,,,,,,,,,,,,,,,,
instruc_begin_exp_contine,58,336829,0.0-22.0-3.0,,1677,"<p>Now that you know how  to dig for space treasure and travel to new planets,you can start exploring! </p><p>Do you want to go over the instructions again or get started with the real game?</p>",,,,,,1,,,,,,1,,,,,,,,,,,,
alien_welcome,59,341844,0.0-23.0-0.0,,null,run_exp/static/images/task_images/aliens/old_aliens/planet/alien_planet-8.jpg,null,,,,,,,,,,,,8,"8,50,9,17,75,40,56,72,78,49,13,3,30,28,71,36,68,48,34,18,57,73,22,1,51,52,54,24,6,64,15,66,58,80,31,59,43,21,32,77,14,16,5,7,35,37,65,2,53,45,11,61,47,20,26,25,62",,,,,,,,,,
land,60,342357,0.0-23.0-1.0,,null,run_exp/static/images/task_images/land.jpg,null,,,,,,104,,,1,,,,,,,,,,,,,,
dig,61,344391,0.0-23.0-2.0,,,,,,,,,,,"[{""stimulus"":""run_exp/static/images/task_images/dig.jpg"",""time"":0},{""stimulus"":""run_exp/static/images/task_images/land.jpg"",""time"":674},{""stimulus"":""run_exp/static/images/task_images/dig.jpg"",""time"":1356}]",[],1,,,,,,,,,,,,,,
harvest,62,345403,0.0-23.0-3.0,,null,run_exp/static/images/task_images/gems/104.jpg,null,,,,,,20,,,1,,,,,104,0.190362446,0.192307692,,,,,,,
decision,63,346630,0.0-23.0-4.0,,1225,run_exp/static/images/task_images/land.jpg,65,,,,,,20,,,1,,,,,,,,9802,1,0,FALSE,,,
dig,64,348430,0.0-24.0-0.0,,,,,,,,,,,"[{""stimulus"":""run_exp/static/images/task_images/dig.jpg"",""time"":0},{""stimulus"":""run_exp/static/images/task_images/land.jpg"",""time"":599},{""stimulus"":""run_exp/static/images/task_images/dig.jpg"",""time"":1189}]",[],1,,,,,,,,,,,,,,
harvest,65,349441,0.0-24.0-1.0,,null,run_exp/static/images/task_images/gems/20.jpg,null,,,,,,5,,,1,,,,,20,0.23922715,0.25,,,,,,,
decision,66,351054,0.0-24.0-2.0,,1611,run_exp/static/images/task_images/land.jpg,76,,,,,,5,,,1,,,,,,,,14225,1,1,TRUE,,,
travel,67,359487,0.0-25.0-0.0,,,,,,,,,,,"[{""stimulus"":""run_exp/static/images/task_images/rocket-01.jpg"",""time"":0},{""stimulus"":""run_exp/static/images/task_images/rocket-02.jpg"",""time"":939},{""stimulus"":""run_exp/static/images/task_images/rocket-03.jpg"",""time"":1874},{""stimulus"":""run_exp/static/images/task_images/rocket-04.jpg"",""time"":2807},{""stimulus"":""run_exp/static/images/task_images/rocket-05.jpg"",""time"":3741},{""stimulus"":""run_exp/static/images/task_images/rocket-06.jpg"",""time"":4676},{""stimulus"":""run_exp/static/images/task_images/rocket-07.jpg"",""time"":5612},{""stimulus"":""run_exp/static/images/task_images/rocket-08.jpg"",""time"":6549},{""stimulus"":""run_exp/static/images/task_images/rocket-09.jpg"",""time"":7485}]",[],1,,,,,,,,,,,,,,
alien_welcome,68,364493,0.0-25.0-1.0,,null,run_exp/static/images/task_images/aliens/old_aliens/planet/alien_planet-50.jpg,null,,,,,,,,,,,,50,"8,50,9,17,75,40,56,72,78,49,13,3,30,28,71,36,68,48,34,18,57,73,22,1,51,52,54,24,6,64,15,66,58,80,31,59,43,21,32,77,14,16,5,7,35,37,65,2,53,45,11,61,47,20,26,25,62",,,,,,,,,,
land,69,365007,0.0-25.0-2.0,,null,run_exp/static/images/task_images/land.jpg,null,,,,,,106,,,2,,,,,,,,,,,,,,
dig,70,367036,0.0-25.0-3.0,,,,,,,,,,,"[{""stimulus"":""run_exp/static/images/task_images/dig.jpg"",""time"":1},{""stimulus"":""run_exp/static/images/task_images/land.jpg"",""time"":675},{""stimulus"":""run_exp/static/images/task_images/dig.jpg"",""time"":1345}]",[],2,,,,,,,,,,,,,,
harvest,71,368037,0.0-25.0-4.0,,null,run_exp/static/images/task_images/gems/106.jpg,null,,,,,,25,,,2,,,,,106,0.234129824,0.235849057,,,,,,,
decision,72,368510,0.0-25.0-5.0,,472,run_exp/static/images/task_images/land.jpg,65,,,,,,25,,,2,,,,,,,,31681,1,0,FALSE,,,
dig,73,371070,0.0-26.0-0.0,,,,,,,,,,,"[{""stimulus"":""run_exp/static/images/task_images/dig.jpg"",""time"":0},{""stimulus"":""run_exp/static/images/task_images/land.jpg"",""time"":856},{""stimulus"":""run_exp/static/images/task_images/dig.jpg"",""time"":1700}]",[],2,,,,,,,,,,,,,,
harvest,74,372082,0.0-26.0-1.0,,null,run_exp/static/images/task_images/gems/25.jpg,null,,,,,,3,,,2,,,,,25,0.136072679,0.12,,,,,,,
decision,75,373859,0.0-26.0-2.0,,1778,run_exp/static/images/task_images/land.jpg,76,,,,,,3,,,2,,,,,,,,37030,1,1,TRUE,,,
travel,76,382139,0.0-27.0-0.0,,,,,,,,,,,"[{""stimulus"":""run_exp/static/images/task_images/rocket-01.jpg"",""time"":0},{""stimulus"":""run_exp/static/images/task_images/rocket-02.jpg"",""time"":918},{""stimulus"":""run_exp/static/images/task_images/rocket-03.jpg"",""time"":1837},{""stimulus"":""run_exp/static/images/task_images/rocket-04.jpg"",""time"":2757},{""stimulus"":""run_exp/static/images/task_images/rocket-05.jpg"",""time"":3677},{""stimulus"":""run_exp/static/images/task_images/rocket-06.jpg"",""time"":4596},{""stimulus"":""run_exp/static/images/task_images/rocket-07.jpg"",""time"":5517},{""stimulus"":""run_exp/static/images/task_images/rocket-08.jpg"",""time"":6435},{""stimulus"":""run_exp/static/images/task_images/rocket-09.jpg"",""time"":7357}]",[],2,,,,,,,,,,,,,,
alien_welcome,77,387147,0.0-27.0-1.0,,null,run_exp/static/images/task_images/aliens/old_aliens/planet/alien_planet-9.jpg,null,,,,,,,,,,,,9,"8,50,9,17,75,40,56,72,78,49,13,3,30,28,71,36,68,48,34,18,57,73,22,1,51,52,54,24,6,64,15,66,58,80,31,59,43,21,32,77,14,16,5,7,35,37,65,2,53,45,11,61,47,20,26,25,62",,,,,,,,,,
land,78,387659,0.0-27.0-2.0,,null,run_exp/static/images/task_images/land.jpg,null,,,,,,97,,,3,,,,,,,,,,,,,,
dig,79,389689,0.0-27.0-3.0,,,,,,,,,,,"[{""stimulus"":""run_exp/static/images/task_images/dig.jpg"",""time"":0},{""stimulus"":""run_exp/static/images/task_images/land.jpg"",""time"":682},{""stimulus"":""run_exp/static/images/task_images/dig.jpg"",""time"":1353}]",[],3,,,,,,,,,,,,,,
harvest,80,390698,0.0-27.0-4.0,,null,run_exp/static/images/task_images/gems/97.jpg,null,,,,,,48,,,3,,,,,97,0.492710356,0.494845361,,,,,,,
decision,81,391366,0.0-27.0-5.0,,668,run_exp/static/images/task_images/land.jpg,65,,,,,,48,,,3,,,,,,,,54537,1,0,FALSE,,,
dig,82,393725,0.0-28.0-0.0,,,,,,,,,,,"[{""stimulus"":""run_exp/static/images/task_images/dig.jpg"",""time"":0},{""stimulus"":""run_exp/static/images/task_images/land.jpg"",""time"":781},{""stimulus"":""run_exp/static/images/task_images/dig.jpg"",""time"":1564}]",[],3,,,,,,,,,,,,,,
harvest,83,394735,0.0-28.0-1.0,,null,run_exp/static/images/task_images/gems/48.jpg,null,,,,,,23,,,3,,,,,48,0.469224341,0.479166667,,,,,,,
decision,84,396798,0.0-28.0-2.0,,2063,run_exp/static/images/task_images/land.jpg,76,,,,,,23,,,3,,,,,,,,59969,1,1,TRUE,,,
travel,85,404792,0.0-29.0-0.0,,,,,,,,,,,"[{""stimulus"":""run_exp/static/images/task_images/rocket-01.jpg"",""time"":0},{""stimulus"":""run_exp/static/images/task_images/rocket-02.jpg"",""time"":887},{""stimulus"":""run_exp/static/images/task_images/rocket-03.jpg"",""time"":1774},{""stimulus"":""run_exp/static/images/task_images/rocket-04.jpg"",""time"":2665},{""stimulus"":""run_exp/static/images/task_images/rocket-05.jpg"",""time"":3550},{""stimulus"":""run_exp/static/images/task_images/rocket-06.jpg"",""time"":4437},{""stimulus"":""run_exp/static/images/task_images/rocket-07.jpg"",""time"":5323},{""stimulus"":""run_exp/static/images/task_images/rocket-08.jpg"",""time"":6205},{""stimulus"":""run_exp/static/images/task_images/rocket-09.jpg"",""time"":7088}]",[],3,,,,,,,,,,,,,,
alien_welcome,86,409801,0.0-29.0-1.0,,null,run_exp/static/images/task_images/aliens/old_aliens/planet/alien_planet-17.jpg,null,,,,,,,,,,,,17,"8,50,9,17,75,40,56,72,78,49,13,3,30,28,71,36,68,48,34,18,57,73,22,1,51,52,54,24,6,64,15,66,58,80,31,59,43,21,32,77,14,16,5,7,35,37,65,2,53,45,11,61,47,20,26,25,62",,,,,,,,,,
land,87,410302,0.0-29.0-2.0,,null,run_exp/static/images/task_images/land.jpg,null,,,,,,105,,,4,,,,,,,,,,,,,,
dig,88,412328,0.0-29.0-3.0,,,,,,,,,,,"[{""stimulus"":""run_exp/static/images/task_images/dig.jpg"",""time"":0},{""stimulus"":""run_exp/static/images/task_images/land.jpg"",""time"":674},{""stimulus"":""run_exp/static/images/task_images/dig.jpg"",""time"":1343}]",[],4,,,,,,,,,,,,,,
harvest,89,413331,0.0-29.0-4.0,,null,run_exp/static/images/task_images/gems/105.jpg,null,,,,,,63,,,4,,,,,105,0.597092364,0.6,,,,,,,
decision,90,413731,0.0-29.0-5.0,,400,run_exp/static/images/task_images/land.jpg,65,,,,,,63,,,4,,,,,,,,76902,1,0,FALSE,,,
dig,91,416364,0.0-30.0-0.0,,,,,,,,,,,"[{""stimulus"":""run_exp/static/images/task_images/dig.jpg"",""time"":0},{""stimulus"":""run_exp/static/images/task_images/land.jpg"",""time"":880},{""stimulus"":""run_exp/static/images/task_images/dig.jpg"",""time"":1754}]",[],4,,,,,,,,,,,,,,
harvest,92,417366,0.0-30.0-1.0,,null,run_exp/static/images/task_images/gems/63.jpg,null,,,,,,36,,,4,,,,,63,0.568674202,0.571428571,,,,,,,
decision,93,418606,0.0-30.0-2.0,,1239,run_exp/static/images/task_images/land.jpg,76,,,,,,36,,,4,,,,,,,,81777,1,1,TRUE,,,
travel,94,427447,0.0-31.0-0.0,,,,,,,,,,,"[{""stimulus"":""run_exp/static/images/task_images/rocket-01.jpg"",""time"":0},{""stimulus"":""run_exp/static/images/task_images/rocket-02.jpg"",""time"":976},{""stimulus"":""run_exp/static/images/task_images/rocket-03.jpg"",""time"":1957},{""stimulus"":""run_exp/static/images/task_images/rocket-04.jpg"",""time"":2938},{""stimulus"":""run_exp/static/images/task_images/rocket-05.jpg"",""time"":3919},{""stimulus"":""run_exp/static/images/task_images/rocket-06.jpg"",""time"":4900},{""stimulus"":""run_exp/static/images/task_images/rocket-07.jpg"",""time"":5880},{""stimulus"":""run_exp/static/images/task_images/rocket-08.jpg"",""time"":6863},{""stimulus"":""run_exp/static/images/task_images/rocket-09.jpg"",""time"":7845}]",[],4,,,,,,,,,,,,,,
alien_welcome,95,432457,0.0-31.0-1.0,,null,run_exp/static/images/task_images/aliens/old_aliens/planet/alien_planet-75.jpg,null,,,,,,,,,,,,75,"8,50,9,17,75,40,56,72,78,49,13,3,30,28,71,36,68,48,34,18,57,73,22,1,51,52,54,24,6,64,15,66,58,80,31,59,43,21,32,77,14,16,5,7,35,37,65,2,53,45,11,61,47,20,26,25,62",,,,,,,,,,
land,96,432971,0.0-31.0-2.0,,null,run_exp/static/images/task_images/land.jpg,null,,,,,,102,,,5,,,,,,,,,,,,,,
dig,97,435000,0.0-31.0-3.0,,,,,,,,,,,"[{""stimulus"":""run_exp/static/images/task_images/dig.jpg"",""time"":0},{""stimulus"":""run_exp/static/images/task_images/land.jpg"",""time"":673},{""stimulus"":""run_exp/static/images/task_images/dig.jpg"",""time"":1347}]",[],5,,,,,,,,,,,,,,
harvest,98,436009,0.0-31.0-4.0,,null,run_exp/static/images/task_images/gems/102.jpg,null,,,,,,52,,,5,,,,,102,0.506115423,0.509803922,,,,,,,
decision,99,436574,0.0-31.0-5.0,,563,run_exp/static/images/task_images/land.jpg,65,,,,,,52,,,5,,,,,,,,99745,1,0,FALSE,,,
dig,100,439049,0.0-32.0-0.0,,,,,,,,,,,"[{""stimulus"":""run_exp/static/images/task_images/dig.jpg"",""time"":0},{""stimulus"":""run_exp/static/images/task_images/land.jpg"",""time"":815},{""stimulus"":""run_exp/static/images/task_images/dig.jpg"",""time"":1638}]",[],5,,,,,,,,,,,,,,
harvest,101,440062,0.0-32.0-1.0,,null,run_exp/static/images/task_images/gems/52.jpg,null,,,,,,28,,,5,,,,,52,0.543697591,0.538461538,,,,,,,
decision,102,440711,0.0-32.0-2.0,,648,run_exp/static/images/task_images/land.jpg,65,,,,,,28,,,5,,,,,,,,103882,1,1,FALSE,,,
dig,103,443115,0.0-33.0-0.0,,,,,,,,,,,"[{""stimulus"":""run_exp/static/images/task_images/dig.jpg"",""time"":1},{""stimulus"":""run_exp/static/images/task_images/land.jpg"",""time"":798},{""stimulus"":""run_exp/static/images/task_images/dig.jpg"",""time"":1591}]",[],5,,,,,,,,,,,,,,
harvest,104,444128,0.0-33.0-1.0,,null,run_exp/static/images/task_images/gems/28.jpg,null,,,,,,16,,,5,,,,,28,0.564014163,0.571428571,,,,,,,
decision,105,445142,0.0-33.0-2.0,,1013,run_exp/static/images/task_images/land.jpg,76,,,,,,16,,,5,,,,,,,,108313,1,2,TRUE,,,
travel,106,454208,0.0-34.0-0.0,,,,,,,,,,,"[{""stimulus"":""run_exp/static/images/task_images/rocket-01.jpg"",""time"":0},{""stimulus"":""run_exp/static/images/task_images/rocket-02.jpg"",""time"":1005},{""stimulus"":""run_exp/static/images/task_images/rocket-03.jpg"",""time"":2018},{""stimulus"":""run_exp/static/images/task_images/rocket-04.jpg"",""time"":3027},{""stimulus"":""run_exp/static/images/task_images/rocket-05.jpg"",""time"":4040},{""stimulus"":""run_exp/static/images/task_images/rocket-06.jpg"",""time"":5041},{""stimulus"":""run_exp/static/images/task_images/rocket-07.jpg"",""time"":6043},{""stimulus"":""run_exp/static/images/task_images/rocket-08.jpg"",""time"":7054},{""stimulus"":""run_exp/static/images/task_images/rocket-09.jpg"",""time"":8053}]",[],5,,,,,,,,,,,,,,
alien_welcome,107,459218,0.0-34.0-1.0,,null,run_exp/static/images/task_images/aliens/old_aliens/planet/alien_planet-40.jpg,null,,,,,,,,,,,,40,"8,50,9,17,75,40,56,72,78,49,13,3,30,28,71,36,68,48,34,18,57,73,22,1,51,52,54,24,6,64,15,66,58,80,31,59,43,21,32,77,14,16,5,7,35,37,65,2,53,45,11,61,47,20,26,25,62",,,,,,,,,,
land,108,459733,0.0-34.0-2.0,,null,run_exp/static/images/task_images/land.jpg,null,,,,,,98,,,6,,,,,,,,,,,,,,
dig,109,461766,0.0-34.0-3.0,,,,,,,,,,,"[{""stimulus"":""run_exp/static/images/task_images/dig.jpg"",""time"":0},{""stimulus"":""run_exp/static/images/task_images/land.jpg"",""time"":672},{""stimulus"":""run_exp/static/images/task_images/dig.jpg"",""time"":1345}]",[],6,,,,,,,,,,,,,,
harvest,110,462773,0.0-34.0-4.0,,null,run_exp/static/images/task_images/gems/98.jpg,null,,,,,,88,,,6,,,,,98,0.90212344,0.897959184,,,,,,,
decision,111,463765,0.0-34.0-5.0,,991,run_exp/static/images/task_images/land.jpg,65,,,,,,88,,,6,,,,,,,,126936,1,0,FALSE,,,
dig,112,465795,0.0-35.0-0.0,,,,,,,,,,,"[{""stimulus"":""run_exp/static/images/task_images/dig.jpg"",""time"":0},{""stimulus"":""run_exp/static/images/task_images/land.jpg"",""time"":676},{""stimulus"":""run_exp/static/images/task_images/dig.jpg"",""time"":1350}]",[],6,,,,,,,,,,,,,,
harvest,113,466796,0.0-35.0-1.0,,null,run_exp/static/images/task_images/gems/88.jpg,null,,,,,,64,,,6,,,,,88,0.728698547,0.727272727,,,,,,,
decision,114,467237,0.0-35.0-2.0,,442,run_exp/static/images/task_images/land.jpg,76,,,,,,64,,,6,,,,,,,,130408,1,1,TRUE,,,
travel,115,476873,0.0-36.0-0.0,,,,,,,,,,,"[{""stimulus"":""run_exp/static/images/task_images/rocket-01.jpg"",""time"":0},{""stimulus"":""run_exp/static/images/task_images/rocket-02.jpg"",""time"":1064},{""stimulus"":""run_exp/static/images/task_images/rocket-03.jpg"",""time"":2132},{""stimulus"":""run_exp/static/images/task_images/rocket-04.jpg"",""time"":3203},{""stimulus"":""run_exp/static/images/task_images/rocket-05.jpg"",""time"":4271},{""stimulus"":""run_exp/static/images/task_images/rocket-06.jpg"",""time"":5334},{""stimulus"":""run_exp/static/images/task_images/rocket-07.jpg"",""time"":6410},{""stimulus"":""run_exp/static/images/task_images/rocket-08.jpg"",""time"":7487},{""stimulus"":""run_exp/static/images/task_images/rocket-09.jpg"",""time"":8550}]",[],6,,,,,,,,,,,,,,
alien_welcome,116,481884,0.0-36.0-1.0,,null,run_exp/static/images/task_images/aliens/old_aliens/planet/alien_planet-56.jpg,null,,,,,,,,,,,,56,"8,50,9,17,75,40,56,72,78,49,13,3,30,28,71,36,68,48,34,18,57,73,22,1,51,52,54,24,6,64,15,66,58,80,31,59,43,21,32,77,14,16,5,7,35,37,65,2,53,45,11,61,47,20,26,25,62",,,,,,,,,,
land,117,482385,0.0-36.0-2.0,,null,run_exp/static/images/task_images/land.jpg,null,,,,,,104,,,7,,,,,,,,,,,,,,
dig,118,484414,0.0-36.0-3.0,,,,,,,,,,,"[{""stimulus"":""run_exp/static/images/task_images/dig.jpg"",""time"":0},{""stimulus"":""run_exp/static/images/task_images/land.jpg"",""time"":679},{""stimulus"":""run_exp/static/images/task_images/dig.jpg"",""time"":1348}]",[],7,,,,,,,,,,,,,,
harvest,119,485427,0.0-36.0-4.0,,null,run_exp/static/images/task_images/gems/104.jpg,null,,,,,,89,,,7,,,,,104,0.854091955,0.855769231,,,,,,,
decision,120,486213,0.0-36.0-5.0,,785,run_exp/static/images/task_images/land.jpg,76,,,,,,89,,,7,,,,,,,,149384,1,0,TRUE,,,
travel,121,495507,0.0-37.0-0.0,,,,,,,,,,,"[{""stimulus"":""run_exp/static/images/task_images/rocket-01.jpg"",""time"":0},{""stimulus"":""run_exp/static/images/task_images/rocket-02.jpg"",""time"":1034},{""stimulus"":""run_exp/static/images/task_images/rocket-03.jpg"",""time"":2066},{""stimulus"":""run_exp/static/images/task_images/rocket-04.jpg"",""time"":3094},{""stimulus"":""run_exp/static/images/task_images/rocket-05.jpg"",""time"":4125},{""stimulus"":""run_exp/static/images/task_images/rocket-06.jpg"",""time"":5155},{""stimulus"":""run_exp/static/images/task_images/rocket-07.jpg"",""time"":6186},{""stimulus"":""run_exp/static/images/task_images/rocket-08.jpg"",""time"":7220},{""stimulus"":""run_exp/static/images/task_images/rocket-09.jpg"",""time"":8251}]",[],7,,,,,,,,,,,,,,
alien_welcome,122,500518,0.0-37.0-1.0,,null,run_exp/static/images/task_images/aliens/old_aliens/planet/alien_planet-72.jpg,null,,,,,,,,,,,,72,"8,50,9,17,75,40,56,72,78,49,13,3,30,28,71,36,68,48,34,18,57,73,22,1,51,52,54,24,6,64,15,66,58,80,31,59,43,21,32,77,14,16,5,7,35,37,65,2,53,45,11,61,47,20,26,25,62",,,,,,,,,,
land,123,501020,0.0-37.0-2.0,,null,run_exp/static/images/task_images/land.jpg,null,,,,,,110,,,8,,,,,,,,,,,,,,
dig,124,503050,0.0-37.0-3.0,,,,,,,,,,,"[{""stimulus"":""run_exp/static/images/task_images/dig.jpg"",""time"":0},{""stimulus"":""run_exp/static/images/task_images/land.jpg"",""time"":677},{""stimulus"":""run_exp/static/images/task_images/dig.jpg"",""time"":1348}]",[],8,,,,,,,,,,,,,,
harvest,125,504066,0.0-37.0-4.0,,null,run_exp/static/images/task_images/gems/110.jpg,null,,,,,,95,,,8,,,,,110,0.8666425,0.863636364,,,,,,,
decision,126,504549,0.0-37.0-5.0,,482,run_exp/static/images/task_images/land.jpg,65,,,,,,95,,,8,,,,,,,,167720,1,0,FALSE,,,
dig,127,507107,0.0-38.0-0.0,,,,,,,,,,,"[{""stimulus"":""run_exp/static/images/task_images/dig.jpg"",""time"":0},{""stimulus"":""run_exp/static/images/task_images/land.jpg"",""time"":855},{""stimulus"":""run_exp/static/images/task_images/dig.jpg"",""time"":1696}]",[],8,,,,,,,,,,,,,,
harvest,128,508116,0.0-38.0-1.0,,null,run_exp/static/images/task_images/gems/95.jpg,null,,,,,,75,,,8,,,,,95,0.792803434,0.789473684,,,,,,,
decision,129,508499,0.0-38.0-2.0,,383,run_exp/static/images/task_images/land.jpg,65,,,,,,75,,,8,,,,,,,,171670,1,1,FALSE,,,
dig,130,511143,0.0-39.0-0.0,,,,,,,,,,,"[{""stimulus"":""run_exp/static/images/task_images/dig.jpg"",""time"":0},{""stimulus"":""run_exp/static/images/task_images/land.jpg"",""time"":878},{""stimulus"":""run_exp/static/images/task_images/dig.jpg"",""time"":1752}]",[],8,,,,,,,,,,,,,,
harvest,131,512157,0.0-39.0-1.0,,null,run_exp/static/images/task_images/gems/75.jpg,null,,,,,,61,,,8,,,,,75,0.817648491,0.813333333,,,,,,,
decision,132,512340,0.0-39.0-2.0,,182,run_exp/static/images/task_images/land.jpg,65,,,,,,61,,,8,,,,,,,,175511,1,2,FALSE,,,
dig,133,515185,0.0-40.0-0.0,,,,,,,,,,,"[{""stimulus"":""run_exp/static/images/task_images/dig.jpg"",""time"":0},{""stimulus"":""run_exp/static/images/task_images/land.jpg"",""time"":944},{""stimulus"":""run_exp/static/images/task_images/dig.jpg"",""time"":1884}]",[],8,,,,,,,,,,,,,,
harvest,134,516198,0.0-40.0-1.0,,null,run_exp/static/images/task_images/gems/61.jpg,null,,,,,,51,,,8,,,,,61,0.841676008,0.836065574,,,,,,,
decision,135,516438,0.0-40.0-2.0,,238,run_exp/static/images/task_images/land.jpg,65,,,,,,51,,,8,,,,,,,,179609,1,3,FALSE,,,
dig,136,519232,0.0-41.0-0.0,,,,,,,,,,,"[{""stimulus"":""run_exp/static/images/task_images/dig.jpg"",""time"":0},{""stimulus"":""run_exp/static/images/task_images/land.jpg"",""time"":932},{""stimulus"":""run_exp/static/images/task_images/dig.jpg"",""time"":1854}]",[],8,,,,,,,,,,,,,,
harvest,137,520247,0.0-41.0-1.0,,null,run_exp/static/images/task_images/gems/51.jpg,null,,,,,,41,,,8,,,,,51,0.797241295,0.803921569,,,,,,,
decision,138,520831,0.0-41.0-2.0,,582,run_exp/static/images/task_images/land.jpg,65,,,,,,41,,,8,,,,,,,,184002,1,4,FALSE,,,
dig,139,523280,0.0-42.0-0.0,,,,,,,,,,,"[{""stimulus"":""run_exp/static/images/task_images/dig.jpg"",""time"":0},{""stimulus"":""run_exp/static/images/task_images/land.jpg"",""time"":813},{""stimulus"":""run_exp/static/images/task_images/dig.jpg"",""time"":1620}]",[],8,,,,,,,,,,,,,,
harvest,140,524287,0.0-42.0-1.0,,null,run_exp/static/images/task_images/gems/41.jpg,null,,,,,,30,,,8,,,,,41,0.741080799,0.731707317,,,,,,,
decision,141,524733,0.0-42.0-2.0,,446,run_exp/static/images/task_images/land.jpg,76,,,,,,30,,,8,,,,,,,,187904,1,5,TRUE,,,
travel,142,534347,0.0-43.0-0.0,,,,,,,,,,,"[{""stimulus"":""run_exp/static/images/task_images/rocket-01.jpg"",""time"":0},{""stimulus"":""run_exp/static/images/task_images/rocket-02.jpg"",""time"":1071},{""stimulus"":""run_exp/static/images/task_images/rocket-03.jpg"",""time"":2134},{""stimulus"":""run_exp/static/images/task_images/rocket-04.jpg"",""time"":3202},{""stimulus"":""run_exp/static/images/task_images/rocket-05.jpg"",""time"":4264},{""stimulus"":""run_exp/static/images/task_images/rocket-06.jpg"",""time"":5325},{""stimulus"":""run_exp/static/images/task_images/rocket-07.jpg"",""time"":6389},{""stimulus"":""run_exp/static/images/task_images/rocket-08.jpg"",""time"":7454},{""stimulus"":""run_exp/static/images/task_images/rocket-09.jpg"",""time"":8528}]",[],8,,,,,,,,,,,,,,
alien_welcome,143,539357,0.0-43.0-1.0,,null,run_exp/static/images/task_images/aliens/old_aliens/planet/alien_planet-78.jpg,null,,,,,,,,,,,,78,"8,50,9,17,75,40,56,72,78,49,13,3,30,28,71,36,68,48,34,18,57,73,22,1,51,52,54,24,6,64,15,66,58,80,31,59,43,21,32,77,14,16,5,7,35,37,65,2,53,45,11,61,47,20,26,25,62",,,,,,,,,,
land,144,539871,0.0-43.0-2.0,,null,run_exp/static/images/task_images/land.jpg,null,,,,,,96,,,9,,,,,,,,,,,,,,
dig,145,541901,0.0-43.0-3.0,,,,,,,,,,,"[{""stimulus"":""run_exp/static/images/task_images/dig.jpg"",""time"":0},{""stimulus"":""run_exp/static/images/task_images/land.jpg"",""time"":675},{""stimulus"":""run_exp/static/images/task_images/dig.jpg"",""time"":1345}]",[],9,,,,,,,,,,,,,,
harvest,146,542912,0.0-43.0-4.0,,null,run_exp/static/images/task_images/gems/96.jpg,null,,,,,,20,,,9,,,,,96,0.206377834,0.208333333,,,,,,,
decision,147,543327,0.0-43.0-5.0,,414,run_exp/static/images/task_images/land.jpg,65,,,,,,20,,,9,,,,,,,,206498,1,0,FALSE,,,
dig,148,545959,0.0-44.0-0.0,,,,,,,,,,,"[{""stimulus"":""run_exp/static/images/task_images/dig.jpg"",""time"":0},{""stimulus"":""run_exp/static/images/task_images/land.jpg"",""time"":869},{""stimulus"":""run_exp/static/images/task_images/dig.jpg"",""time"":1744}]",[],9,,,,,,,,,,,,,,
harvest,149,546974,0.0-44.0-1.0,,null,run_exp/static/images/task_images/gems/20.jpg,null,,,,,,4,,,9,,,,,20,0.207843974,0.2,,,,,,,
decision,150,547589,0.0-44.0-2.0,,613,run_exp/static/images/task_images/land.jpg,76,,,,,,4,,,9,,,,,,,,210760,1,1,TRUE,,,
travel,151,557022,0.0-45.0-0.0,,,,,,,,,,,"[{""stimulus"":""run_exp/static/images/task_images/rocket-01.jpg"",""time"":0},{""stimulus"":""run_exp/static/images/task_images/rocket-02.jpg"",""time"":1056},{""stimulus"":""run_exp/static/images/task_images/rocket-03.jpg"",""time"":2102},{""stimulus"":""run_exp/static/images/task_images/rocket-04.jpg"",""time"":3146},{""stimulus"":""run_exp/static/images/task_images/rocket-05.jpg"",""time"":4189},{""stimulus"":""run_exp/static/images/task_images/rocket-06.jpg"",""time"":5246},{""stimulus"":""run_exp/static/images/task_images/rocket-07.jpg"",""time"":6292},{""stimulus"":""run_exp/static/images/task_images/rocket-08.jpg"",""time"":7337},{""stimulus"":""run_exp/static/images/task_images/rocket-09.jpg"",""time"":8383}]",[],9,,,,,,,,,,,,,,
alien_welcome,152,562035,0.0-45.0-1.0,,null,run_exp/static/images/task_images/aliens/old_aliens/planet/alien_planet-49.jpg,null,,,,,,,,,,,,49,"8,50,9,17,75,40,56,72,78,49,13,3,30,28,71,36,68,48,34,18,57,73,22,1,51,52,54,24,6,64,15,66,58,80,31,59,43,21,32,77,14,16,5,7,35,37,65,2,53,45,11,61,47,20,26,25,62",,,,,,,,,,
land,153,562550,0.0-45.0-2.0,,null,run_exp/static/images/task_images/land.jpg,null,,,,,,98,,,10,,,,,,,,,,,,,,
dig,154,564582,0.0-45.0-3.0,,,,,,,,,,,"[{""stimulus"":""run_exp/static/images/task_images/dig.jpg"",""time"":1},{""stimulus"":""run_exp/static/images/task_images/land.jpg"",""time"":676},{""stimulus"":""run_exp/static/images/task_images/dig.jpg"",""time"":1348}]",[],10,,,,,,,,,,,,,,
harvest,155,565584,0.0-45.0-4.0,,null,run_exp/static/images/task_images/gems/98.jpg,null,,,,,,23,,,10,,,,,98,0.233319125,0.234693878,,,,,,,
decision,156,566029,0.0-45.0-5.0,,445,run_exp/static/images/task_images/land.jpg,65,,,,,,23,,,10,,,,,,,,229201,1,0,FALSE,,,
dig,157,568623,0.0-46.0-0.0,,,,,,,,,,,"[{""stimulus"":""run_exp/static/images/task_images/dig.jpg"",""time"":0},{""stimulus"":""run_exp/static/images/task_images/land.jpg"",""time"":862},{""stimulus"":""run_exp/static/images/task_images/dig.jpg"",""time"":1721}]",[],10,,,,,,,,,,,,,,
harvest,158,569633,0.0-46.0-1.0,,null,run_exp/static/images/task_images/gems/23.jpg,null,,,,,,4,,,10,,,,,23,0.190171712,0.173913043,,,,,,,
decision,159,569933,0.0-46.0-2.0,,299,run_exp/static/images/task_images/land.jpg,76,,,,,,4,,,10,,,,,,,,233105,1,1,TRUE,,,
travel,160,579717,0.0-47.0-0.0,,,,,,,,,,,"[{""stimulus"":""run_exp/static/images/task_images/rocket-01.jpg"",""time"":0},{""stimulus"":""run_exp/static/images/task_images/rocket-02.jpg"",""time"":1087},{""stimulus"":""run_exp/static/images/task_images/rocket-03.jpg"",""time"":2174},{""stimulus"":""run_exp/static/images/task_images/rocket-04.jpg"",""time"":3253},{""stimulus"":""run_exp/static/images/task_images/rocket-05.jpg"",""time"":4344},{""stimulus"":""run_exp/static/images/task_images/rocket-06.jpg"",""time"":5429},{""stimulus"":""run_exp/static/images/task_images/rocket-07.jpg"",""time"":6509},{""stimulus"":""run_exp/static/images/task_images/rocket-08.jpg"",""time"":7588},{""stimulus"":""run_exp/static/images/task_images/rocket-09.jpg"",""time"":8680}]",[],10,,,,,,,,,,,,,,
alien_welcome,161,584722,0.0-47.0-1.0,,null,run_exp/static/images/task_images/aliens/old_aliens/planet/alien_planet-13.jpg,null,,,,,,,,,,,,13,"8,50,9,17,75,40,56,72,78,49,13,3,30,28,71,36,68,48,34,18,57,73,22,1,51,52,54,24,6,64,15,66,58,80,31,59,43,21,32,77,14,16,5,7,35,37,65,2,53,45,11,61,47,20,26,25,62",,,,,,,,,,
land,162,585239,0.0-47.0-2.0,,null,run_exp/static/images/task_images/land.jpg,null,,,,,,91,,,11,,,,,,,,,,,,,,
dig,163,587267,0.0-47.0-3.0,,,,,,,,,,,"[{""stimulus"":""run_exp/static/images/task_images/dig.jpg"",""time"":0},{""stimulus"":""run_exp/static/images/task_images/land.jpg"",""time"":682},{""stimulus"":""run_exp/static/images/task_images/dig.jpg"",""time"":1352}]",[],11,,,,,,,,,,,,,,
harvest,164,588273,0.0-47.0-4.0,,null,run_exp/static/images/task_images/gems/91.jpg,null,,,,,,22,,,11,,,,,91,0.240399204,0.241758242,,,,,,,
decision,165,589174,0.0-47.0-5.0,,900,run_exp/static/images/task_images/land.jpg,76,,,,,,22,,,11,,,,,,,,252345,1,0,TRUE,,,
travel,166,598336,0.0-48.0-0.0,,,,,,,,,,,"[{""stimulus"":""run_exp/static/images/task_images/rocket-01.jpg"",""time"":0},{""stimulus"":""run_exp/static/images/task_images/rocket-02.jpg"",""time"":1021},{""stimulus"":""run_exp/static/images/task_images/rocket-03.jpg"",""time"":2033},{""stimulus"":""run_exp/static/images/task_images/rocket-04.jpg"",""time"":3051},{""stimulus"":""run_exp/static/images/task_images/rocket-05.jpg"",""time"":4066},{""stimulus"":""run_exp/static/images/task_images/rocket-06.jpg"",""time"":5090},{""stimulus"":""run_exp/static/images/task_images/rocket-07.jpg"",""time"":6104},{""stimulus"":""run_exp/static/images/task_images/rocket-08.jpg"",""time"":7118},{""stimulus"":""run_exp/static/images/task_images/rocket-09.jpg"",""time"":8135}]",[],11,,,,,,,,,,,,,,
alien_welcome,167,603338,0.0-48.0-1.0,,null,run_exp/static/images/task_images/aliens/old_aliens/planet/alien_planet-3.jpg,null,,,,,,,,,,,,3,"8,50,9,17,75,40,56,72,78,49,13,3,30,28,71,36,68,48,34,18,57,73,22,1,51,52,54,24,6,64,15,66,58,80,31,59,43,21,32,77,14,16,5,7,35,37,65,2,53,45,11,61,47,20,26,25,62",,,,,,,,,,
land,168,603840,0.0-48.0-2.0,,null,run_exp/static/images/task_images/land.jpg,null,,,,,,96,,,12,,,,,,,,,,,,,,
dig,169,605868,0.0-48.0-3.0,,,,,,,,,,,"[{""stimulus"":""run_exp/static/images/task_images/dig.jpg"",""time"":0},{""stimulus"":""run_exp/static/images/task_images/land.jpg"",""time"":672},{""stimulus"":""run_exp/static/images/task_images/dig.jpg"",""time"":1342}]",[],12,,,,,,,,,,,,,,
harvest,170,606869,0.0-48.0-4.0,,null,run_exp/static/images/task_images/gems/96.jpg,null,,,,,,27,,,12,,,,,96,0.280813638,0.28125,,,,,,,
decision,171,607781,0.0-48.0-5.0,,912,run_exp/static/images/task_images/land.jpg,76,,,,,,27,,,12,,,,,,,,270952,1,0,TRUE,,,
travel,172,616942,0.0-49.0-0.0,,,,,,,,,,,"[{""stimulus"":""run_exp/static/images/task_images/rocket-01.jpg"",""time"":0},{""stimulus"":""run_exp/static/images/task_images/rocket-02.jpg"",""time"":1017},{""stimulus"":""run_exp/static/images/task_images/rocket-03.jpg"",""time"":2030},{""stimulus"":""run_exp/static/images/task_images/rocket-04.jpg"",""time"":3044},{""stimulus"":""run_exp/static/images/task_images/rocket-05.jpg"",""time"":4068},{""stimulus"":""run_exp/static/images/task_images/rocket-06.jpg"",""time"":5082},{""stimulus"":""run_exp/static/images/task_images/rocket-07.jpg"",""time"":6100},{""stimulus"":""run_exp/static/images/task_images/rocket-08.jpg"",""time"":7118},{""stimulus"":""run_exp/static/images/task_images/rocket-09.jpg"",""time"":8133}]",[],12,,,,,,,,,,,,,,
alien_welcome,173,621948,0.0-49.0-1.0,,null,run_exp/static/images/task_images/aliens/old_aliens/planet/alien_planet-30.jpg,null,,,,,,,,,,,,30,"8,50,9,17,75,40,56,72,78,49,13,3,30,28,71,36,68,48,34,18,57,73,22,1,51,52,54,24,6,64,15,66,58,80,31,59,43,21,32,77,14,16,5,7,35,37,65,2,53,45,11,61,47,20,26,25,62",,,,,,,,,,
land,174,622452,0.0-49.0-2.0,,null,run_exp/static/images/task_images/land.jpg,null,,,,,,108,,,13,,,,,,,,,,,,,,
dig,175,624474,0.0-49.0-3.0,,,,,,,,,,,"[{""stimulus"":""run_exp/static/images/task_images/dig.jpg"",""time"":0},{""stimulus"":""run_exp/static/images/task_images/land.jpg"",""time"":677},{""stimulus"":""run_exp/static/images/task_images/dig.jpg"",""time"":1349}]",[],13,,,,,,,,,,,,,,
harvest,176,625477,0.0-49.0-4.0,,null,run_exp/static/images/task_images/gems/108.jpg,null,,,,,,20,,,13,,,,,108,0.184373511,0.185185185,,,,,,,
decision,177,625493,0.0-49.0-5.0,,15,run_exp/static/images/task_images/land.jpg,65,,,,,,20,,,13,,,,,,,,288664,1,0,FALSE,,,
dig,178,628506,0.0-50.0-0.0,,,,,,,,,,,"[{""stimulus"":""run_exp/static/images/task_images/dig.jpg"",""time"":0},{""stimulus"":""run_exp/static/images/task_images/land.jpg"",""time"":1001},{""stimulus"":""run_exp/static/images/task_images/dig.jpg"",""time"":2002}]",[],13,,,,,,,,,,,,,,
harvest,179,629520,0.0-50.0-1.0,,null,run_exp/static/images/task_images/gems/20.jpg,null,,,,,,5,,,13,,,,,20,0.24879028,0.25,,,,,,,
decision,180,629590,0.0-50.0-2.0,,68,run_exp/static/images/task_images/land.jpg,76,,,,,,5,,,13,,,,,,,,292761,1,1,TRUE,,,
travel,181,639575,0.0-51.0-0.0,,,,,,,,,,,"[{""stimulus"":""run_exp/static/images/task_images/rocket-01.jpg"",""time"":0},{""stimulus"":""run_exp/static/images/task_images/rocket-02.jpg"",""time"":1118},{""stimulus"":""run_exp/static/images/task_images/rocket-03.jpg"",""time"":2224},{""stimulus"":""run_exp/static/images/task_images/rocket-04.jpg"",""time"":3329},{""stimulus"":""run_exp/static/images/task_images/rocket-05.jpg"",""time"":4433},{""stimulus"":""run_exp/static/images/task_images/rocket-06.jpg"",""time"":5541},{""stimulus"":""run_exp/static/images/task_images/rocket-07.jpg"",""time"":6651},{""stimulus"":""run_exp/static/images/task_images/rocket-08.jpg"",""time"":7761},{""stimulus"":""run_exp/static/images/task_images/rocket-09.jpg"",""time"":8867}]",[],13,,,,,,,,,,,,,,
alien_welcome,182,644578,0.0-51.0-1.0,,null,run_exp/static/images/task_images/aliens/old_aliens/planet/alien_planet-28.jpg,null,,,,,,,,,,,,28,"8,50,9,17,75,40,56,72,78,49,13,3,30,28,71,36,68,48,34,18,57,73,22,1,51,52,54,24,6,64,15,66,58,80,31,59,43,21,32,77,14,16,5,7,35,37,65,2,53,45,11,61,47,20,26,25,62",,,,,,,,,,
land,183,645093,0.0-51.0-2.0,,null,run_exp/static/images/task_images/land.jpg,null,,,,,,97,,,14,,,,,,,,,,,,,,
dig,184,647119,0.0-51.0-3.0,,,,,,,,,,,"[{""stimulus"":""run_exp/static/images/task_images/dig.jpg"",""time"":0},{""stimulus"":""run_exp/static/images/task_images/land.jpg"",""time"":682},{""stimulus"":""run_exp/static/images/task_images/dig.jpg"",""time"":1351}]",[],14,,,,,,,,,,,,,,
harvest,185,648135,0.0-51.0-4.0,,null,run_exp/static/images/task_images/gems/97.jpg,null,,,,,,78,,,14,,,,,97,0.806385062,0.804123711,,,,,,,
decision,186,648646,0.0-51.0-5.0,,511,run_exp/static/images/task_images/land.jpg,65,,,,,,78,,,14,,,,,,,,311817,1,0,TRUE,,,
end_of_block_continue,187,656851,0.0-52.0-0.0,,8198,run_exp/static/audio/clip_32_block_end.m4a,,,,,,0,,,,,,,,,,,,,,,,,,
alien_welcome,188,661864,0.0-53.0-0.0,,null,run_exp/static/images/task_images/aliens/old_aliens/planet/alien_planet-71.jpg,null,,,,,,,,,,,,71,"8,50,9,17,75,40,56,72,78,49,13,3,30,28,71,36,68,48,34,18,57,73,22,1,51,52,54,24,6,64,15,66,58,80,31,59,43,21,32,77,14,16,5,7,35,37,65,2,53,45,11,61,47,20,26,25,62",,,,,,,,,,
land,189,662365,0.0-53.0-1.0,,null,run_exp/static/images/task_images/land.jpg,null,,,,,,98,,,15,,,,,,,,,,,,,,
dig,190,664381,0.0-53.0-2.0,,,,,,,,,,,"[{""stimulus"":""run_exp/static/images/task_images/dig.jpg"",""time"":0},{""stimulus"":""run_exp/static/images/task_images/land.jpg"",""time"":667},{""stimulus"":""run_exp/static/images/task_images/dig.jpg"",""time"":1337}]",[],15,,,,,,,,,,,,,,
harvest,191,665395,0.0-53.0-3.0,,null,run_exp/static/images/task_images/gems/98.jpg,null,,,,,,18,,,15,,,,,98,0.185906441,0.183673469,,,,,,,
decision,192,666774,0.0-53.0-4.0,,1377,run_exp/static/images/task_images/land.jpg,65,,,,,,18,,,15,,,,,,,,9922,2,0,FALSE,,,
dig,193,668443,0.0-54.0-0.0,,,,,,,,,,,"[{""stimulus"":""run_exp/static/images/task_images/dig.jpg"",""time"":1},{""stimulus"":""run_exp/static/images/task_images/land.jpg"",""time"":554},{""stimulus"":""run_exp/static/images/task_images/dig.jpg"",""time"":1103}]",[],15,,,,,,,,,,,,,,
harvest,194,669459,0.0-54.0-1.0,,null,run_exp/static/images/task_images/gems/18.jpg,null,,,,,,4,,,15,,,,,18,0.201683528,0.222222222,,,,,,,
decision,195,669902,0.0-54.0-2.0,,442,run_exp/static/images/task_images/land.jpg,76,,,,,,4,,,15,,,,,,,,13050,2,1,TRUE,,,
travel,196,679519,0.0-55.0-0.0,,,,,,,,,,,"[{""stimulus"":""run_exp/static/images/task_images/rocket-01.jpg"",""time"":0},{""stimulus"":""run_exp/static/images/task_images/rocket-02.jpg"",""time"":1068},{""stimulus"":""run_exp/static/images/task_images/rocket-03.jpg"",""time"":2131},{""stimulus"":""run_exp/static/images/task_images/rocket-04.jpg"",""time"":3200},{""stimulus"":""run_exp/static/images/task_images/rocket-05.jpg"",""time"":4275},{""stimulus"":""run_exp/static/images/task_images/rocket-06.jpg"",""time"":5339},{""stimulus"":""run_exp/static/images/task_images/rocket-07.jpg"",""time"":6401},{""stimulus"":""run_exp/static/images/task_images/rocket-08.jpg"",""time"":7466},{""stimulus"":""run_exp/static/images/task_images/rocket-09.jpg"",""time"":8536}]",[],15,,,,,,,,,,,,,,
alien_welcome,197,684524,0.0-55.0-1.0,,null,run_exp/static/images/task_images/aliens/old_aliens/planet/alien_planet-36.jpg,null,,,,,,,,,,,,36,"8,50,9,17,75,40,56,72,78,49,13,3,30,28,71,36,68,48,34,18,57,73,22,1,51,52,54,24,6,64,15,66,58,80,31,59,43,21,32,77,14,16,5,7,35,37,65,2,53,45,11,61,47,20,26,25,62",,,,,,,,,,
land,198,685040,0.0-55.0-2.0,,null,run_exp/static/images/task_images/land.jpg,null,,,,,,104,,,16,,,,,,,,,,,,,,
dig,199,687071,0.0-55.0-3.0,,,,,,,,,,,"[{""stimulus"":""run_exp/static/images/task_images/dig.jpg"",""time"":1},{""stimulus"":""run_exp/static/images/task_images/land.jpg"",""time"":677},{""stimulus"":""run_exp/static/images/task_images/dig.jpg"",""time"":1351}]",[],16,,,,,,,,,,,,,,
harvest,200,688082,0.0-55.0-4.0,,null,run_exp/static/images/task_images/gems/104.jpg,null,,,,,,28,,,16,,,,,104,0.267701419,0.269230769,,,,,,,
decision,201,688838,0.0-55.0-5.0,,754,run_exp/static/images/task_images/land.jpg,65,,,,,,28,,,16,,,,,,,,31985,2,0,FALSE,,,
dig,202,691135,0.0-56.0-0.0,,,,,,,,,,,"[{""stimulus"":""run_exp/static/images/task_images/dig.jpg"",""time"":0},{""stimulus"":""run_exp/static/images/task_images/land.jpg"",""time"":757},{""stimulus"":""run_exp/static/images/task_images/dig.jpg"",""time"":1519}]",[],16,,,,,,,,,,,,,,
harvest,203,692137,0.0-56.0-1.0,,null,run_exp/static/images/task_images/gems/28.jpg,null,,,,,,5,,,16,,,,,28,0.184000833,0.178571429,,,,,,,
decision,204,692389,0.0-56.0-2.0,,250,run_exp/static/images/task_images/land.jpg,76,,,,,,5,,,16,,,,,,,,35536,2,1,TRUE,,,
travel,205,702225,0.0-57.0-0.0,,,,,,,,,,,"[{""stimulus"":""run_exp/static/images/task_images/rocket-01.jpg"",""time"":0},{""stimulus"":""run_exp/static/images/task_images/rocket-02.jpg"",""time"":1096},{""stimulus"":""run_exp/static/images/task_images/rocket-03.jpg"",""time"":2186},{""stimulus"":""run_exp/static/images/task_images/rocket-04.jpg"",""time"":3284},{""stimulus"":""run_exp/static/images/task_images/rocket-05.jpg"",""time"":4373},{""stimulus"":""run_exp/static/images/task_images/rocket-06.jpg"",""time"":5464},{""stimulus"":""run_exp/static/images/task_images/rocket-07.jpg"",""time"":6557},{""stimulus"":""run_exp/static/images/task_images/rocket-08.jpg"",""time"":7648},{""stimulus"":""run_exp/static/images/task_images/rocket-09.jpg"",""time"":8737}]",[],16,,,,,,,,,,,,,,
alien_welcome,206,707240,0.0-57.0-1.0,,null,run_exp/static/images/task_images/aliens/old_aliens/planet/alien_planet-68.jpg,null,,,,,,,,,,,,68,"8,50,9,17,75,40,56,72,78,49,13,3,30,28,71,36,68,48,34,18,57,73,22,1,51,52,54,24,6,64,15,66,58,80,31,59,43,21,32,77,14,16,5,7,35,37,65,2,53,45,11,61,47,20,26,25,62",,,,,,,,,,
land,207,707753,0.0-57.0-2.0,,null,run_exp/static/images/task_images/land.jpg,null,,,,,,102,,,17,,,,,,,,,,,,,,
dig,208,709783,0.0-57.0-3.0,,,,,,,,,,,"[{""stimulus"":""run_exp/static/images/task_images/dig.jpg"",""time"":0},{""stimulus"":""run_exp/static/images/task_images/land.jpg"",""time"":680},{""stimulus"":""run_exp/static/images/task_images/dig.jpg"",""time"":1349}]",[],17,,,,,,,,,,,,,,
harvest,209,710796,0.0-57.0-4.0,,null,run_exp/static/images/task_images/gems/102.jpg,null,,,,,,16,,,17,,,,,102,0.160082718,0.156862745,,,,,,,
decision,210,711645,0.0-57.0-5.0,,848,run_exp/static/images/task_images/land.jpg,65,,,,,,16,,,17,,,,,,,,54792,2,0,FALSE,,,
dig,211,713851,0.0-58.0-0.0,,,,,,,,,,,"[{""stimulus"":""run_exp/static/images/task_images/dig.jpg"",""time"":0},{""stimulus"":""run_exp/static/images/task_images/land.jpg"",""time"":729},{""stimulus"":""run_exp/static/images/task_images/dig.jpg"",""time"":1461}]",[],17,,,,,,,,,,,,,,
harvest,212,714859,0.0-58.0-1.0,,null,run_exp/static/images/task_images/gems/16.jpg,null,,,,,,3,,,17,,,,,16,0.174047472,0.1875,,,,,,,
decision,213,715238,0.0-58.0-2.0,,377,run_exp/static/images/task_images/land.jpg,76,,,,,,3,,,17,,,,,,,,58385,2,1,TRUE,,,
travel,214,724930,0.0-59.0-0.0,,,,,,,,,,,"[{""stimulus"":""run_exp/static/images/task_images/rocket-01.jpg"",""time"":0},{""stimulus"":""run_exp/static/images/task_images/rocket-02.jpg"",""time"":1075},{""stimulus"":""run_exp/static/images/task_images/rocket-03.jpg"",""time"":2152},{""stimulus"":""run_exp/static/images/task_images/rocket-04.jpg"",""time"":3227},{""stimulus"":""run_exp/static/images/task_images/rocket-05.jpg"",""time"":4301},{""stimulus"":""run_exp/static/images/task_images/rocket-06.jpg"",""time"":5374},{""stimulus"":""run_exp/static/images/task_images/rocket-07.jpg"",""time"":6450},{""stimulus"":""run_exp/static/images/task_images/rocket-08.jpg"",""time"":7522},{""stimulus"":""run_exp/static/images/task_images/rocket-09.jpg"",""time"":8603}]",[],17,,,,,,,,,,,,,,
alien_welcome,215,729947,0.0-59.0-1.0,,null,run_exp/static/images/task_images/aliens/old_aliens/planet/alien_planet-48.jpg,null,,,,,,,,,,,,48,"8,50,9,17,75,40,56,72,78,49,13,3,30,28,71,36,68,48,34,18,57,73,22,1,51,52,54,24,6,64,15,66,58,80,31,59,43,21,32,77,14,16,5,7,35,37,65,2,53,45,11,61,47,20,26,25,62",,,,,,,,,,
land,216,730461,0.0-59.0-2.0,,null,run_exp/static/images/task_images/land.jpg,null,,,,,,105,,,18,,,,,,,,,,,,,,
dig,217,732489,0.0-59.0-3.0,,,,,,,,,,,"[{""stimulus"":""run_exp/static/images/task_images/dig.jpg"",""time"":0},{""stimulus"":""run_exp/static/images/task_images/land.jpg"",""time"":677},{""stimulus"":""run_exp/static/images/task_images/dig.jpg"",""time"":1347}]",[],18,,,,,,,,,,,,,,
harvest,218,733498,0.0-59.0-4.0,,null,run_exp/static/images/task_images/gems/105.jpg,null,,,,,,85,,,18,,,,,105,0.813124919,0.80952381,,,,,,,
decision,219,734469,0.0-59.0-5.0,,970,run_exp/static/images/task_images/land.jpg,76,,,,,,85,,,18,,,,,,,,77616,2,0,TRUE,,,
travel,220,743599,0.0-60.0-0.0,,,,,,,,,,,"[{""stimulus"":""run_exp/static/images/task_images/rocket-01.jpg"",""time"":0},{""stimulus"":""run_exp/static/images/task_images/rocket-02.jpg"",""time"":1009},{""stimulus"":""run_exp/static/images/task_images/rocket-03.jpg"",""time"":2019},{""stimulus"":""run_exp/static/images/task_images/rocket-04.jpg"",""time"":3035},{""stimulus"":""run_exp/static/images/task_images/rocket-05.jpg"",""time"":4051},{""stimulus"":""run_exp/static/images/task_images/rocket-06.jpg"",""time"":5060},{""stimulus"":""run_exp/static/images/task_images/rocket-07.jpg"",""time"":6072},{""stimulus"":""run_exp/static/images/task_images/rocket-08.jpg"",""time"":7090},{""stimulus"":""run_exp/static/images/task_images/rocket-09.jpg"",""time"":8104}]",[],18,,,,,,,,,,,,,,
alien_welcome,221,748602,0.0-60.0-1.0,,null,run_exp/static/images/task_images/aliens/old_aliens/planet/alien_planet-34.jpg,null,,,,,,,,,,,,34,"8,50,9,17,75,40,56,72,78,49,13,3,30,28,71,36,68,48,34,18,57,73,22,1,51,52,54,24,6,64,15,66,58,80,31,59,43,21,32,77,14,16,5,7,35,37,65,2,53,45,11,61,47,20,26,25,62",,,,,,,,,,
land,222,749104,0.0-60.0-2.0,,null,run_exp/static/images/task_images/land.jpg,null,,,,,,105,,,19,,,,,,,,,,,,,,
dig,223,751126,0.0-60.0-3.0,,,,,,,,,,,"[{""stimulus"":""run_exp/static/images/task_images/dig.jpg"",""time"":0},{""stimulus"":""run_exp/static/images/task_images/land.jpg"",""time"":676},{""stimulus"":""run_exp/static/images/task_images/dig.jpg"",""time"":1344}]",[],19,,,,,,,,,,,,,,
harvest,224,752143,0.0-60.0-4.0,,null,run_exp/static/images/task_images/gems/105.jpg,null,,,,,,78,,,19,,,,,105,0.745727185,0.742857143,,,,,,,
decision,225,752734,0.0-60.0-5.0,,590,run_exp/static/images/task_images/land.jpg,65,,,,,,78,,,19,,,,,,,,95881,2,0,FALSE,,,
dig,226,755181,0.0-61.0-0.0,,,,,,,,,,,"[{""stimulus"":""run_exp/static/images/task_images/dig.jpg"",""time"":0},{""stimulus"":""run_exp/static/images/task_images/land.jpg"",""time"":806},{""stimulus"":""run_exp/static/images/task_images/dig.jpg"",""time"":1618}]",[],19,,,,,,,,,,,,,,
harvest,227,756195,0.0-61.0-1.0,,null,run_exp/static/images/task_images/gems/78.jpg,null,,,,,,68,,,19,,,,,78,0.865402878,0.871794872,,,,,,,
decision,228,756544,0.0-61.0-2.0,,346,run_exp/static/images/task_images/land.jpg,65,,,,,,68,,,19,,,,,,,,99691,2,1,FALSE,,,
dig,229,759239,0.0-62.0-0.0,,,,,,,,,,,"[{""stimulus"":""run_exp/static/images/task_images/dig.jpg"",""time"":0},{""stimulus"":""run_exp/static/images/task_images/land.jpg"",""time"":897},{""stimulus"":""run_exp/static/images/task_images/dig.jpg"",""time"":1788}]",[],19,,,,,,,,,,,,,,
harvest,230,760251,0.0-62.0-1.0,,null,run_exp/static/images/task_images/gems/68.jpg,null,,,,,,55,,,19,,,,,68,0.802007803,0.808823529,,,,,,,
decision,231,762094,0.0-62.0-2.0,,1842,run_exp/static/images/task_images/land.jpg,65,,,,,,55,,,19,,,,,,,,105242,2,2,FALSE,,,
dig,232,763304,0.0-63.0-0.0,,,,,,,,,,,"[{""stimulus"":""run_exp/static/images/task_images/dig.jpg"",""time"":1},{""stimulus"":""run_exp/static/images/task_images/land.jpg"",""time"":391},{""stimulus"":""run_exp/static/images/task_images/dig.jpg"",""time"":790}]",[],19,,,,,,,,,,,,,,
harvest,233,764318,0.0-63.0-1.0,,null,run_exp/static/images/task_images/gems/55.jpg,null,,,,,,47,,,19,,,,,55,0.853210328,0.854545455,,,,,,,
decision,234,764422,0.0-63.0-2.0,,101,run_exp/static/images/task_images/land.jpg,65,,,,,,47,,,19,,,,,,,,107569,2,3,FALSE,,,
dig,235,767347,0.0-64.0-0.0,,,,,,,,,,,"[{""stimulus"":""run_exp/static/images/task_images/dig.jpg"",""time"":0},{""stimulus"":""run_exp/static/images/task_images/land.jpg"",""time"":976},{""stimulus"":""run_exp/static/images/task_images/dig.jpg"",""time"":1944}]",[],19,,,,,,,,,,,,,,
harvest,236,768355,0.0-64.0-1.0,,null,run_exp/static/images/task_images/gems/47.jpg,null,,,,,,41,,,19,,,,,47,0.878466439,0.872340426,,,,,,,
decision,237,770199,0.0-64.0-2.0,,1843,run_exp/static/images/task_images/land.jpg,65,,,,,,41,,,19,,,,,,,,113347,2,4,FALSE,,,
dig,238,771387,0.0-65.0-0.0,,,,,,,,,,,"[{""stimulus"":""run_exp/static/images/task_images/dig.jpg"",""time"":0},{""stimulus"":""run_exp/static/images/task_images/land.jpg"",""time"":388},{""stimulus"":""run_exp/static/images/task_images/dig.jpg"",""time"":780}]",[],19,,,,,,,,,,,,,,
harvest,239,772403,0.0-65.0-1.0,,null,run_exp/static/images/task_images/gems/41.jpg,null,,,,,,36,,,19,,,,,41,0.880845487,0.87804878,,,,,,,
decision,240,774022,0.0-65.0-2.0,,1618,run_exp/static/images/task_images/land.jpg,65,,,,,,36,,,19,,,,,,,,117169,2,5,FALSE,,,
dig,241,775446,0.0-66.0-0.0,,,,,,,,,,,"[{""stimulus"":""run_exp/static/images/task_images/dig.jpg"",""time"":0},{""stimulus"":""run_exp/static/images/task_images/land.jpg"",""time"":469},{""stimulus"":""run_exp/static/images/task_images/dig.jpg"",""time"":937}]",[],19,,,,,,,,,,,,,,
harvest,242,776460,0.0-66.0-1.0,,null,run_exp/static/images/task_images/gems/36.jpg,null,,,,,,32,,,19,,,,,36,0.886484977,0.888888889,,,,,,,
decision,243,779473,0.0-66.0-2.0,,null,run_exp/static/images/task_images/land.jpg,null,,,,,,32,,,19,,,,,,,,122621,2,6,FALSE,,,
time_out,244,781485,0.0-67.0-0.0,,null,run_exp/static/images/task_images/time_out.jpg,null,,,,,,32,,,,,,,,,,,,,,,,,
decision,245,782614,0.0-67.0-1.0,,1129,run_exp/static/images/task_images/land.jpg,65,,,,,,32,,,19,,,,,,,,125762,2,6,FALSE,,,
dig,246,784507,0.0-68.0-0.0,,,,,,,,,,,"[{""stimulus"":""run_exp/static/images/task_images/dig.jpg"",""time"":0},{""stimulus"":""run_exp/static/images/task_images/land.jpg"",""time"":626},{""stimulus"":""run_exp/static/images/task_images/dig.jpg"",""time"":1250}]",[],19,,,,,,,,,,,,,,
harvest,247,785518,0.0-68.0-1.0,,null,run_exp/static/images/task_images/gems/32.jpg,null,,,,,,24,,,19,,,,,32,0.76459182,0.75,,,,,,,
decision,248,785910,0.0-68.0-2.0,,391,run_exp/static/images/task_images/land.jpg,76,,,,,,24,,,19,,,,,,,,129057,2,7,TRUE,,,
travel,249,795620,0.0-69.0-0.0,,,,,,,,,,,"[{""stimulus"":""run_exp/static/images/task_images/rocket-01.jpg"",""time"":0},{""stimulus"":""run_exp/static/images/task_images/rocket-02.jpg"",""time"":1079},{""stimulus"":""run_exp/static/images/task_images/rocket-03.jpg"",""time"":2155},{""stimulus"":""run_exp/static/images/task_images/rocket-04.jpg"",""time"":3229},{""stimulus"":""run_exp/static/images/task_images/rocket-05.jpg"",""time"":4305},{""stimulus"":""run_exp/static/images/task_images/rocket-06.jpg"",""time"":5378},{""stimulus"":""run_exp/static/images/task_images/rocket-07.jpg"",""time"":6454},{""stimulus"":""run_exp/static/images/task_images/rocket-08.jpg"",""time"":7534},{""stimulus"":""run_exp/static/images/task_images/rocket-09.jpg"",""time"":8610}]",[],19,,,,,,,,,,,,,,
alien_welcome,250,800629,0.0-69.0-1.0,,null,run_exp/static/images/task_images/aliens/old_aliens/planet/alien_planet-18.jpg,null,,,,,,,,,,,,18,"8,50,9,17,75,40,56,72,78,49,13,3,30,28,71,36,68,48,34,18,57,73,22,1,51,52,54,24,6,64,15,66,58,80,31,59,43,21,32,77,14,16,5,7,35,37,65,2,53,45,11,61,47,20,26,25,62",,,,,,,,,,
land,251,801130,0.0-69.0-2.0,,null,run_exp/static/images/task_images/land.jpg,null,,,,,,94,,,20,,,,,,,,,,,,,,
dig,252,803163,0.0-69.0-3.0,,,,,,,,,,,"[{""stimulus"":""run_exp/static/images/task_images/dig.jpg"",""time"":0},{""stimulus"":""run_exp/static/images/task_images/land.jpg"",""time"":677},{""stimulus"":""run_exp/static/images/task_images/dig.jpg"",""time"":1347}]",[],20,,,,,,,,,,,,,,
harvest,253,804178,0.0-69.0-4.0,,null,run_exp/static/images/task_images/gems/94.jpg,null,,,,,,77,,,20,,,,,94,0.820671564,0.819148936,,,,,,,
decision,254,804310,0.0-69.0-5.0,,131,run_exp/static/images/task_images/land.jpg,65,,,,,,77,,,20,,,,,,,,147457,2,0,FALSE,,,
dig,255,807228,0.0-70.0-0.0,,,,,,,,,,,"[{""stimulus"":""run_exp/static/images/task_images/dig.jpg"",""time"":0},{""stimulus"":""run_exp/static/images/task_images/land.jpg"",""time"":969},{""stimulus"":""run_exp/static/images/task_images/dig.jpg"",""time"":1937}]",[],20,,,,,,,,,,,,,,
harvest,256,808242,0.0-70.0-1.0,,null,run_exp/static/images/task_images/gems/77.jpg,null,,,,,,60,,,20,,,,,77,0.785223351,0.779220779,,,,,,,
decision,257,809503,0.0-70.0-2.0,,1259,run_exp/static/images/task_images/land.jpg,65,,,,,,60,,,20,,,,,,,,152650,2,1,FALSE,,,
dig,258,811294,0.0-71.0-0.0,,,,,,,,,,,"[{""stimulus"":""run_exp/static/images/task_images/dig.jpg"",""time"":0},{""stimulus"":""run_exp/static/images/task_images/land.jpg"",""time"":592},{""stimulus"":""run_exp/static/images/task_images/dig.jpg"",""time"":1182}]",[],20,,,,,,,,,,,,,,
harvest,259,812304,0.0-71.0-1.0,,null,run_exp/static/images/task_images/gems/60.jpg,null,,,,,,47,,,20,,,,,60,0.784093621,0.783333333,,,,,,,
decision,260,814165,0.0-71.0-2.0,,1860,run_exp/static/images/task_images/land.jpg,65,,,,,,47,,,20,,,,,,,,157312,2,2,FALSE,,,
dig,261,815341,0.0-72.0-0.0,,,,,,,,,,,"[{""stimulus"":""run_exp/static/images/task_images/dig.jpg"",""time"":0},{""stimulus"":""run_exp/static/images/task_images/land.jpg"",""time"":383},{""stimulus"":""run_exp/static/images/task_images/dig.jpg"",""time"":771}]",[],20,,,,,,,,,,,,,,
harvest,262,816351,0.0-72.0-1.0,,null,run_exp/static/images/task_images/gems/47.jpg,null,,,,,,33,,,20,,,,,47,0.708389732,0.70212766,,,,,,,
decision,263,816981,0.0-72.0-2.0,,629,run_exp/static/images/task_images/land.jpg,65,,,,,,33,,,20,,,,,,,,160128,2,3,FALSE,,,
dig,264,819373,0.0-73.0-0.0,,,,,,,,,,,"[{""stimulus"":""run_exp/static/images/task_images/dig.jpg"",""time"":0},{""stimulus"":""run_exp/static/images/task_images/land.jpg"",""time"":791},{""stimulus"":""run_exp/static/images/task_images/dig.jpg"",""time"":1585}]",[],20,,,,,,,,,,,,,,
harvest,265,820385,0.0-73.0-1.0,,null,run_exp/static/images/task_images/gems/33.jpg,null,,,,,,29,,,20,,,,,33,0.866811159,0.878787879,,,,,,,
decision,266,820701,0.0-73.0-2.0,,315,run_exp/static/images/task_images/land.jpg,76,,,,,,29,,,20,,,,,,,,163849,2,4,TRUE,,,
travel,267,830486,0.0-74.0-0.0,,,,,,,,,,,"[{""stimulus"":""run_exp/static/images/task_images/rocket-01.jpg"",""time"":0},{""stimulus"":""run_exp/static/images/task_images/rocket-02.jpg"",""time"":1085},{""stimulus"":""run_exp/static/images/task_images/rocket-03.jpg"",""time"":2170},{""stimulus"":""run_exp/static/images/task_images/rocket-04.jpg"",""time"":3253},{""stimulus"":""run_exp/static/images/task_images/rocket-05.jpg"",""time"":4329},{""stimulus"":""run_exp/static/images/task_images/rocket-06.jpg"",""time"":5419},{""stimulus"":""run_exp/static/images/task_images/rocket-07.jpg"",""time"":6509},{""stimulus"":""run_exp/static/images/task_images/rocket-08.jpg"",""time"":7599},{""stimulus"":""run_exp/static/images/task_images/rocket-09.jpg"",""time"":8686}]",[],20,,,,,,,,,,,,,,
alien_welcome,268,835495,0.0-74.0-1.0,,null,run_exp/static/images/task_images/aliens/old_aliens/planet/alien_planet-57.jpg,null,,,,,,,,,,,,57,"8,50,9,17,75,40,56,72,78,49,13,3,30,28,71,36,68,48,34,18,57,73,22,1,51,52,54,24,6,64,15,66,58,80,31,59,43,21,32,77,14,16,5,7,35,37,65,2,53,45,11,61,47,20,26,25,62",,,,,,,,,,
land,269,836007,0.0-74.0-2.0,,null,run_exp/static/images/task_images/land.jpg,null,,,,,,104,,,21,,,,,,,,,,,,,,
dig,270,838038,0.0-74.0-3.0,,,,,,,,,,,"[{""stimulus"":""run_exp/static/images/task_images/dig.jpg"",""time"":0},{""stimulus"":""run_exp/static/images/task_images/land.jpg"",""time"":680},{""stimulus"":""run_exp/static/images/task_images/dig.jpg"",""time"":1353}]",[],21,,,,,,,,,,,,,,
harvest,271,839046,0.0-74.0-4.0,,null,run_exp/static/images/task_images/gems/104.jpg,null,,,,,,78,,,21,,,,,104,0.745611936,0.75,,,,,,,
decision,272,839494,0.0-74.0-5.0,,445,run_exp/static/images/task_images/land.jpg,65,,,,,,78,,,21,,,,,,,,182641,2,0,FALSE,,,
dig,273,842089,0.0-75.0-0.0,,,,,,,,,,,"[{""stimulus"":""run_exp/static/images/task_images/dig.jpg"",""time"":0},{""stimulus"":""run_exp/static/images/task_images/land.jpg"",""time"":857},{""stimulus"":""run_exp/static/images/task_images/dig.jpg"",""time"":1716}]",[],21,,,,,,,,,,,,,,
harvest,274,843095,0.0-75.0-1.0,,null,run_exp/static/images/task_images/gems/78.jpg,null,,,,,,65,,,21,,,,,78,0.827305188,0.833333333,,,,,,,
decision,275,843102,0.0-75.0-2.0,,5,run_exp/static/images/task_images/land.jpg,65,,,,,,65,,,21,,,,,,,,186250,2,1,FALSE,,,
dig,276,846129,0.0-76.0-0.0,,,,,,,,,,,"[{""stimulus"":""run_exp/static/images/task_images/dig.jpg"",""time"":0},{""stimulus"":""run_exp/static/images/task_images/land.jpg"",""time"":1006},{""stimulus"":""run_exp/static/images/task_images/dig.jpg"",""time"":2006}]",[],21,,,,,,,,,,,,,,
harvest,277,847145,0.0-76.0-1.0,,null,run_exp/static/images/task_images/gems/65.jpg,null,,,,,,46,,,21,,,,,65,0.715094427,0.707692308,,,,,,,
decision,278,848414,0.0-76.0-2.0,,1268,run_exp/static/images/task_images/land.jpg,65,,,,,,46,,,21,,,,,,,,191561,2,2,FALSE,,,
dig,279,850182,0.0-77.0-0.0,,,,,,,,,,,"[{""stimulus"":""run_exp/static/images/task_images/dig.jpg"",""time"":0},{""stimulus"":""run_exp/static/images/task_images/land.jpg"",""time"":590},{""stimulus"":""run_exp/static/images/task_images/dig.jpg"",""time"":1169}]",[],21,,,,,,,,,,,,,,
harvest,280,851196,0.0-77.0-1.0,,null,run_exp/static/images/task_images/gems/46.jpg,null,,,,,,36,,,21,,,,,46,0.778942321,0.782608696,,,,,,,
decision,281,851749,0.0-77.0-2.0,,551,run_exp/static/images/task_images/land.jpg,76,,,,,,36,,,21,,,,,,,,194896,2,3,TRUE,,,
travel,282,861289,0.0-78.0-0.0,,,,,,,,,,,"[{""stimulus"":""run_exp/static/images/task_images/rocket-01.jpg"",""time"":0},{""stimulus"":""run_exp/static/images/task_images/rocket-02.jpg"",""time"":1050},{""stimulus"":""run_exp/static/images/task_images/rocket-03.jpg"",""time"":2109},{""stimulus"":""run_exp/static/images/task_images/rocket-04.jpg"",""time"":3170},{""stimulus"":""run_exp/static/images/task_images/rocket-05.jpg"",""time"":4224},{""stimulus"":""run_exp/static/images/task_images/rocket-06.jpg"",""time"":5285},{""stimulus"":""run_exp/static/images/task_images/rocket-07.jpg"",""time"":6349},{""stimulus"":""run_exp/static/images/task_images/rocket-08.jpg"",""time"":7411},{""stimulus"":""run_exp/static/images/task_images/rocket-09.jpg"",""time"":8473}]",[],21,,,,,,,,,,,,,,
alien_welcome,283,866292,0.0-78.0-1.0,,null,run_exp/static/images/task_images/aliens/old_aliens/planet/alien_planet-73.jpg,null,,,,,,,,,,,,73,"8,50,9,17,75,40,56,72,78,49,13,3,30,28,71,36,68,48,34,18,57,73,22,1,51,52,54,24,6,64,15,66,58,80,31,59,43,21,32,77,14,16,5,7,35,37,65,2,53,45,11,61,47,20,26,25,62",,,,,,,,,,
land,284,866807,0.0-78.0-2.0,,null,run_exp/static/images/task_images/land.jpg,null,,,,,,104,,,22,,,,,,,,,,,,,,
dig,285,868837,0.0-78.0-3.0,,,,,,,,,,,"[{""stimulus"":""run_exp/static/images/task_images/dig.jpg"",""time"":0},{""stimulus"":""run_exp/static/images/task_images/land.jpg"",""time"":682},{""stimulus"":""run_exp/static/images/task_images/dig.jpg"",""time"":1353}]",[],22,,,,,,,,,,,,,,
harvest,286,869850,0.0-78.0-4.0,,null,run_exp/static/images/task_images/gems/104.jpg,null,,,,,,84,,,22,,,,,104,0.806414871,0.807692308,,,,,,,
decision,287,870181,0.0-78.0-5.0,,327,run_exp/static/images/task_images/land.jpg,65,,,,,,84,,,22,,,,,,,,213328,2,0,FALSE,,,
dig,288,872892,0.0-79.0-0.0,,,,,,,,,,,"[{""stimulus"":""run_exp/static/images/task_images/dig.jpg"",""time"":0},{""stimulus"":""run_exp/static/images/task_images/land.jpg"",""time"":894},{""stimulus"":""run_exp/static/images/task_images/dig.jpg"",""time"":1798}]",[],22,,,,,,,,,,,,,,
harvest,289,873901,0.0-79.0-1.0,,null,run_exp/static/images/task_images/gems/84.jpg,null,,,,,,69,,,22,,,,,84,0.816230212,0.821428571,,,,,,,
decision,290,873989,0.0-79.0-2.0,,88,run_exp/static/images/task_images/land.jpg,65,,,,,,69,,,22,,,,,,,,217136,2,1,FALSE,,,
dig,291,876940,0.0-80.0-0.0,,,,,,,,,,,"[{""stimulus"":""run_exp/static/images/task_images/dig.jpg"",""time"":0},{""stimulus"":""run_exp/static/images/task_images/land.jpg"",""time"":971},{""stimulus"":""run_exp/static/images/task_images/dig.jpg"",""time"":1955}]",[],22,,,,,,,,,,,,,,
harvest,292,877942,0.0-80.0-1.0,,null,run_exp/static/images/task_images/gems/69.jpg,null,,,,,,54,,,22,,,,,69,0.788432297,0.782608696,,,,,,,
decision,293,879414,0.0-80.0-2.0,,1473,run_exp/static/images/task_images/land.jpg,65,,,,,,54,,,22,,,,,,,,222561,2,2,FALSE,,,
dig,294,880973,0.0-81.0-0.0,,,,,,,,,,,"[{""stimulus"":""run_exp/static/images/task_images/dig.jpg"",""time"":0},{""stimulus"":""run_exp/static/images/task_images/land.jpg"",""time"":516},{""stimulus"":""run_exp/static/images/task_images/dig.jpg"",""time"":1031}]",[],22,,,,,,,,,,,,,,
harvest,295,881974,0.0-81.0-1.0,,null,run_exp/static/images/task_images/gems/54.jpg,null,,,,,,46,,,22,,,,,54,0.855698761,0.851851852,,,,,,,
decision,296,882252,0.0-81.0-2.0,,277,run_exp/static/images/task_images/land.jpg,65,,,,,,46,,,22,,,,,,,,225400,2,3,FALSE,,,
dig,297,885003,0.0-82.0-0.0,,,,,,,,,,,"[{""stimulus"":""run_exp/static/images/task_images/dig.jpg"",""time"":1},{""stimulus"":""run_exp/static/images/task_images/land.jpg"",""time"":914},{""stimulus"":""run_exp/static/images/task_images/dig.jpg"",""time"":1831}]",[],22,,,,,,,,,,,,,,
harvest,298,886019,0.0-82.0-1.0,,null,run_exp/static/images/task_images/gems/46.jpg,null,,,,,,38,,,22,,,,,46,0.819884652,0.826086957,,,,,,,
decision,299,887526,0.0-82.0-2.0,,1505,run_exp/static/images/task_images/land.jpg,76,,,,,,38,,,22,,,,,,,,230673,2,4,TRUE,,,
travel,300,896113,0.0-83.0-0.0,,,,,,,,,,,"[{""stimulus"":""run_exp/static/images/task_images/rocket-01.jpg"",""time"":0},{""stimulus"":""run_exp/static/images/task_images/rocket-02.jpg"",""time"":955},{""stimulus"":""run_exp/static/images/task_images/rocket-03.jpg"",""time"":1907},{""stimulus"":""run_exp/static/images/task_images/rocket-04.jpg"",""time"":2860},{""stimulus"":""run_exp/static/images/task_images/rocket-05.jpg"",""time"":3812},{""stimulus"":""run_exp/static/images/task_images/rocket-06.jpg"",""time"":4761},{""stimulus"":""run_exp/static/images/task_images/rocket-07.jpg"",""time"":5713},{""stimulus"":""run_exp/static/images/task_images/rocket-08.jpg"",""time"":6663},{""stimulus"":""run_exp/static/images/task_images/rocket-09.jpg"",""time"":7616}]",[],22,,,,,,,,,,,,,,
alien_welcome,301,901123,0.0-83.0-1.0,,null,run_exp/static/images/task_images/aliens/old_aliens/planet/alien_planet-22.jpg,null,,,,,,,,,,,,22,"8,50,9,17,75,40,56,72,78,49,13,3,30,28,71,36,68,48,34,18,57,73,22,1,51,52,54,24,6,64,15,66,58,80,31,59,43,21,32,77,14,16,5,7,35,37,65,2,53,45,11,61,47,20,26,25,62",,,,,,,,,,
land,302,901634,0.0-83.0-2.0,,null,run_exp/static/images/task_images/land.jpg,null,,,,,,97,,,23,,,,,,,,,,,,,,
dig,303,903662,0.0-83.0-3.0,,,,,,,,,,,"[{""stimulus"":""run_exp/static/images/task_images/dig.jpg"",""time"":0},{""stimulus"":""run_exp/static/images/task_images/land.jpg"",""time"":675},{""stimulus"":""run_exp/static/images/task_images/dig.jpg"",""time"":1348}]",[],23,,,,,,,,,,,,,,
harvest,304,904676,0.0-83.0-4.0,,null,run_exp/static/images/task_images/gems/97.jpg,null,,,,,,43,,,23,,,,,97,0.444513866,0.443298969,,,,,,,
decision,305,905053,0.0-83.0-5.0,,376,run_exp/static/images/task_images/land.jpg,65,,,,,,43,,,23,,,,,,,,248200,2,0,FALSE,,,
dig,306,907692,0.0-84.0-0.0,,,,,,,,,,,"[{""stimulus"":""run_exp/static/images/task_images/dig.jpg"",""time"":0},{""stimulus"":""run_exp/static/images/task_images/land.jpg"",""time"":878},{""stimulus"":""run_exp/static/images/task_images/dig.jpg"",""time"":1752}]",[],23,,,,,,,,,,,,,,
harvest,307,908705,0.0-84.0-1.0,,null,run_exp/static/images/task_images/gems/43.jpg,null,,,,,,21,,,23,,,,,43,0.48952493,0.488372093,,,,,,,
decision,308,909158,0.0-84.0-2.0,,452,run_exp/static/images/task_images/land.jpg,76,,,,,,21,,,23,,,,,,,,252305,2,1,TRUE,,,
travel,309,918774,0.0-85.0-0.0,,,,,,,,,,,"[{""stimulus"":""run_exp/static/images/task_images/rocket-01.jpg"",""time"":0},{""stimulus"":""run_exp/static/images/task_images/rocket-02.jpg"",""time"":1072},{""stimulus"":""run_exp/static/images/task_images/rocket-03.jpg"",""time"":2146},{""stimulus"":""run_exp/static/images/task_images/rocket-04.jpg"",""time"":3207},{""stimulus"":""run_exp/static/images/task_images/rocket-05.jpg"",""time"":4269},{""stimulus"":""run_exp/static/images/task_images/rocket-06.jpg"",""time"":5345},{""stimulus"":""run_exp/static/images/task_images/rocket-07.jpg"",""time"":6408},{""stimulus"":""run_exp/static/images/task_images/rocket-08.jpg"",""time"":7471},{""stimulus"":""run_exp/static/images/task_images/rocket-09.jpg"",""time"":8537}]",[],23,,,,,,,,,,,,,,
alien_welcome,310,923783,0.0-85.0-1.0,,null,run_exp/static/images/task_images/aliens/old_aliens/planet/alien_planet-1.jpg,null,,,,,,,,,,,,1,"8,50,9,17,75,40,56,72,78,49,13,3,30,28,71,36,68,48,34,18,57,73,22,1,51,52,54,24,6,64,15,66,58,80,31,59,43,21,32,77,14,16,5,7,35,37,65,2,53,45,11,61,47,20,26,25,62",,,,,,,,,,
land,311,924298,0.0-85.0-2.0,,null,run_exp/static/images/task_images/land.jpg,null,,,,,,98,,,24,,,,,,,,,,,,,,
dig,312,926334,0.0-85.0-3.0,,,,,,,,,,,"[{""stimulus"":""run_exp/static/images/task_images/dig.jpg"",""time"":0},{""stimulus"":""run_exp/static/images/task_images/land.jpg"",""time"":680},{""stimulus"":""run_exp/static/images/task_images/dig.jpg"",""time"":1353}]",[],24,,,,,,,,,,,,,,
harvest,313,927347,0.0-85.0-4.0,,null,run_exp/static/images/task_images/gems/98.jpg,null,,,,,,86,,,24,,,,,98,0.882411742,0.87755102,,,,,,,
decision,314,927999,0.0-85.0-5.0,,650,run_exp/static/images/task_images/land.jpg,65,,,,,,86,,,24,,,,,,,,271147,2,0,FALSE,,,
dig,315,930399,0.0-86.0-0.0,,,,,,,,,,,"[{""stimulus"":""run_exp/static/images/task_images/dig.jpg"",""time"":1},{""stimulus"":""run_exp/static/images/task_images/land.jpg"",""time"":793},{""stimulus"":""run_exp/static/images/task_images/dig.jpg"",""time"":1585}]",[],24,,,,,,,,,,,,,,
harvest,316,931411,0.0-86.0-1.0,,null,run_exp/static/images/task_images/gems/86.jpg,null,,,,,,70,,,24,,,,,86,0.814709766,0.813953488,,,,,,,
decision,317,931637,0.0-86.0-2.0,,225,run_exp/static/images/task_images/land.jpg,65,,,,,,70,,,24,,,,,,,,274784,2,1,FALSE,,,
dig,318,934454,0.0-87.0-0.0,,,,,,,,,,,"[{""stimulus"":""run_exp/static/images/task_images/dig.jpg"",""time"":0},{""stimulus"":""run_exp/static/images/task_images/land.jpg"",""time"":932},{""stimulus"":""run_exp/static/images/task_images/dig.jpg"",""time"":1867}]",[],24,,,,,,,,,,,,,,
harvest,319,935468,0.0-87.0-1.0,,null,run_exp/static/images/task_images/gems/70.jpg,null,,,,,,53,,,24,,,,,70,0.760968976,0.757142857,,,,,,,
decision,320,937454,0.0-87.0-2.0,,1984,run_exp/static/images/task_images/land.jpg,65,,,,,,53,,,24,,,,,,,,280601,2,2,FALSE,,,
dig,321,938508,0.0-88.0-0.0,,,,,,,,,,,"[{""stimulus"":""run_exp/static/images/task_images/dig.jpg"",""time"":0},{""stimulus"":""run_exp/static/images/task_images/land.jpg"",""time"":347},{""stimulus"":""run_exp/static/images/task_images/dig.jpg"",""time"":690}]",[],24,,,,,,,,,,,,,,
harvest,322,939522,0.0-88.0-1.0,,null,run_exp/static/images/task_images/gems/53.jpg,null,,,,,,43,,,24,,,,,53,0.815207691,0.811320755,,,,,,,
decision,323,939886,0.0-88.0-2.0,,363,run_exp/static/images/task_images/land.jpg,65,,,,,,43,,,24,,,,,,,,283033,2,3,FALSE,,,
dig,324,942583,0.0-89.0-0.0,,,,,,,,,,,"[{""stimulus"":""run_exp/static/images/task_images/dig.jpg"",""time"":1},{""stimulus"":""run_exp/static/images/task_images/land.jpg"",""time"":894},{""stimulus"":""run_exp/static/images/task_images/dig.jpg"",""time"":1782}]",[],24,,,,,,,,,,,,,,
harvest,325,943589,0.0-89.0-1.0,,null,run_exp/static/images/task_images/gems/43.jpg,null,,,,,,38,,,24,,,,,43,0.879577948,0.88372093,,,,,,,
decision,326,944566,0.0-89.0-2.0,,975,run_exp/static/images/task_images/land.jpg,65,,,,,,38,,,24,,,,,,,,287713,2,4,FALSE,,,
dig,327,946651,0.0-90.0-0.0,,,,,,,,,,,"[{""stimulus"":""run_exp/static/images/task_images/dig.jpg"",""time"":0},{""stimulus"":""run_exp/static/images/task_images/land.jpg"",""time"":684},{""stimulus"":""run_exp/static/images/task_images/dig.jpg"",""time"":1374}]",[],24,,,,,,,,,,,,,,
harvest,328,947665,0.0-90.0-1.0,,null,run_exp/static/images/task_images/gems/38.jpg,null,,,,,,28,,,24,,,,,38,0.738708002,0.736842105,,,,,,,
decision,329,947965,0.0-90.0-2.0,,298,run_exp/static/images/task_images/land.jpg,65,,,,,,28,,,24,,,,,,,,291112,2,5,FALSE,,,
dig,330,950710,0.0-91.0-0.0,,,,,,,,,,,"[{""stimulus"":""run_exp/static/images/task_images/dig.jpg"",""time"":0},{""stimulus"":""run_exp/static/images/task_images/land.jpg"",""time"":915},{""stimulus"":""run_exp/static/images/task_images/dig.jpg"",""time"":1820}]",[],24,,,,,,,,,,,,,,
harvest,331,951723,0.0-91.0-1.0,,null,run_exp/static/images/task_images/gems/28.jpg,null,,,,,,21,,,24,,,,,28,0.758867719,0.75,,,,,,,
decision,332,951916,0.0-91.0-2.0,,192,run_exp/static/images/task_images/land.jpg,65,,,,,,21,,,24,,,,,,,,295063,2,6,FALSE,,,
dig,333,954757,0.0-92.0-0.0,,,,,,,,,,,"[{""stimulus"":""run_exp/static/images/task_images/dig.jpg"",""time"":1},{""stimulus"":""run_exp/static/images/task_images/land.jpg"",""time"":953},{""stimulus"":""run_exp/static/images/task_images/dig.jpg"",""time"":1893}]",[],24,,,,,,,,,,,,,,
harvest,334,955772,0.0-92.0-1.0,,null,run_exp/static/images/task_images/gems/21.jpg,null,,,,,,17,,,24,,,,,21,0.807094999,0.80952381,,,,,,,
decision,335,956045,0.0-92.0-2.0,,272,run_exp/static/images/task_images/land.jpg,76,,,,,,17,,,24,,,,,,,,299192,2,7,TRUE,,,
travel,336,965855,0.0-93.0-0.0,,,,,,,,,,,"[{""stimulus"":""run_exp/static/images/task_images/rocket-01.jpg"",""time"":0},{""stimulus"":""run_exp/static/images/task_images/rocket-02.jpg"",""time"":1086},{""stimulus"":""run_exp/static/images/task_images/rocket-03.jpg"",""time"":2167},{""stimulus"":""run_exp/static/images/task_images/rocket-04.jpg"",""time"":3252},{""stimulus"":""run_exp/static/images/task_images/rocket-05.jpg"",""time"":4342},{""stimulus"":""run_exp/static/images/task_images/rocket-06.jpg"",""time"":5431},{""stimulus"":""run_exp/static/images/task_images/rocket-07.jpg"",""time"":6523},{""stimulus"":""run_exp/static/images/task_images/rocket-08.jpg"",""time"":7611},{""stimulus"":""run_exp/static/images/task_images/rocket-09.jpg"",""time"":8702}]",[],24,,,,,,,,,,,,,,
alien_welcome,337,970859,0.0-93.0-1.0,,null,run_exp/static/images/task_images/aliens/old_aliens/planet/alien_planet-51.jpg,null,,,,,,,,,,,,51,"8,50,9,17,75,40,56,72,78,49,13,3,30,28,71,36,68,48,34,18,57,73,22,1,51,52,54,24,6,64,15,66,58,80,31,59,43,21,32,77,14,16,5,7,35,37,65,2,53,45,11,61,47,20,26,25,62",,,,,,,,,,
land,338,971367,0.0-93.0-2.0,,null,run_exp/static/images/task_images/land.jpg,null,,,,,,93,,,25,,,,,,,,,,,,,,
dig,339,973402,0.0-93.0-3.0,,,,,,,,,,,"[{""stimulus"":""run_exp/static/images/task_images/dig.jpg"",""time"":0},{""stimulus"":""run_exp/static/images/task_images/land.jpg"",""time"":678},{""stimulus"":""run_exp/static/images/task_images/dig.jpg"",""time"":1352}]",[],25,,,,,,,,,,,,,,
harvest,340,974413,0.0-93.0-4.0,,null,run_exp/static/images/task_images/gems/93.jpg,null,,,,,,76,,,25,,,,,93,0.821151742,0.817204301,,,,,,,
decision,341,974847,0.0-93.0-5.0,,432,run_exp/static/images/task_images/land.jpg,76,,,,,,76,,,25,,,,,,,,317994,2,0,TRUE,,,
end_of_block_continue,342,980883,0.0-94.0-0.0,,6023,run_exp/static/audio/clip_32_block_end.m4a,,,,,,0,,,,,,,,,,,,,,,,,,
alien_welcome,343,985889,0.0-95.0-0.0,,null,run_exp/static/images/task_images/aliens/old_aliens/planet/alien_planet-52.jpg,null,,,,,,,,,,,,52,"8,50,9,17,75,40,56,72,78,49,13,3,30,28,71,36,68,48,34,18,57,73,22,1,51,52,54,24,6,64,15,66,58,80,31,59,43,21,32,77,14,16,5,7,35,37,65,2,53,45,11,61,47,20,26,25,62",,,,,,,,,,
land,344,986391,0.0-95.0-1.0,,null,run_exp/static/images/task_images/land.jpg,null,,,,,,108,,,26,,,,,,,,,,,,,,
dig,345,988425,0.0-95.0-2.0,,,,,,,,,,,"[{""stimulus"":""run_exp/static/images/task_images/dig.jpg"",""time"":0},{""stimulus"":""run_exp/static/images/task_images/land.jpg"",""time"":680},{""stimulus"":""run_exp/static/images/task_images/dig.jpg"",""time"":1352}]",[],26,,,,,,,,,,,,,,
harvest,346,989433,0.0-95.0-3.0,,null,run_exp/static/images/task_images/gems/108.jpg,null,,,,,,61,,,26,,,,,108,0.56378675,0.564814815,,,,,,,
decision,347,990132,0.0-95.0-4.0,,698,run_exp/static/images/task_images/land.jpg,76,,,,,,61,,,26,,,,,,,,9244,3,0,TRUE,,,
travel,348,999529,0.0-96.0-0.0,,,,,,,,,,,"[{""stimulus"":""run_exp/static/images/task_images/rocket-01.jpg"",""time"":0},{""stimulus"":""run_exp/static/images/task_images/rocket-02.jpg"",""time"":1035},{""stimulus"":""run_exp/static/images/task_images/rocket-03.jpg"",""time"":2079},{""stimulus"":""run_exp/static/images/task_images/rocket-04.jpg"",""time"":3113},{""stimulus"":""run_exp/static/images/task_images/rocket-05.jpg"",""time"":4160},{""stimulus"":""run_exp/static/images/task_images/rocket-06.jpg"",""time"":5204},{""stimulus"":""run_exp/static/images/task_images/rocket-07.jpg"",""time"":6252},{""stimulus"":""run_exp/static/images/task_images/rocket-08.jpg"",""time"":7297},{""stimulus"":""run_exp/static/images/task_images/rocket-09.jpg"",""time"":8345}]",[],26,,,,,,,,,,,,,,
alien_welcome,349,1004541,0.0-96.0-1.0,,null,run_exp/static/images/task_images/aliens/old_aliens/planet/alien_planet-54.jpg,null,,,,,,,,,,,,54,"8,50,9,17,75,40,56,72,78,49,13,3,30,28,71,36,68,48,34,18,57,73,22,1,51,52,54,24,6,64,15,66,58,80,31,59,43,21,32,77,14,16,5,7,35,37,65,2,53,45,11,61,47,20,26,25,62",,,,,,,,,,
land,350,1005044,0.0-96.0-2.0,,null,run_exp/static/images/task_images/land.jpg,null,,,,,,109,,,27,,,,,,,,,,,,,,
dig,351,1007075,0.0-96.0-3.0,,,,,,,,,,,"[{""stimulus"":""run_exp/static/images/task_images/dig.jpg"",""time"":0},{""stimulus"":""run_exp/static/images/task_images/land.jpg"",""time"":675},{""stimulus"":""run_exp/static/images/task_images/dig.jpg"",""time"":1345}]",[],27,,,,,,,,,,,,,,
harvest,352,1008088,0.0-96.0-4.0,,null,run_exp/static/images/task_images/gems/109.jpg,null,,,,,,82,,,27,,,,,109,0.754656804,0.752293578,,,,,,,
decision,353,1008508,0.0-96.0-5.0,,419,run_exp/static/images/task_images/land.jpg,76,,,,,,82,,,27,,,,,,,,27620,3,0,TRUE,,,
travel,354,1018184,0.0-97.0-0.0,,,,,,,,,,,"[{""stimulus"":""run_exp/static/images/task_images/rocket-01.jpg"",""time"":0},{""stimulus"":""run_exp/static/images/task_images/rocket-02.jpg"",""time"":1068},{""stimulus"":""run_exp/static/images/task_images/rocket-03.jpg"",""time"":2139},{""stimulus"":""run_exp/static/images/task_images/rocket-04.jpg"",""time"":3214},{""stimulus"":""run_exp/static/images/task_images/rocket-05.jpg"",""time"":4290},{""stimulus"":""run_exp/static/images/task_images/rocket-06.jpg"",""time"":5366},{""stimulus"":""run_exp/static/images/task_images/rocket-07.jpg"",""time"":6441},{""stimulus"":""run_exp/static/images/task_images/rocket-08.jpg"",""time"":7519},{""stimulus"":""run_exp/static/images/task_images/rocket-09.jpg"",""time"":8595}]",[],27,,,,,,,,,,,,,,
alien_welcome,355,1023191,0.0-97.0-1.0,,null,run_exp/static/images/task_images/aliens/old_aliens/planet/alien_planet-24.jpg,null,,,,,,,,,,,,24,"8,50,9,17,75,40,56,72,78,49,13,3,30,28,71,36,68,48,34,18,57,73,22,1,51,52,54,24,6,64,15,66,58,80,31,59,43,21,32,77,14,16,5,7,35,37,65,2,53,45,11,61,47,20,26,25,62",,,,,,,,,,
land,356,1023706,0.0-97.0-2.0,,null,run_exp/static/images/task_images/land.jpg,null,,,,,,99,,,28,,,,,,,,,,,,,,
dig,357,1025745,0.0-97.0-3.0,,,,,,,,,,,"[{""stimulus"":""run_exp/static/images/task_images/dig.jpg"",""time"":0},{""stimulus"":""run_exp/static/images/task_images/land.jpg"",""time"":677},{""stimulus"":""run_exp/static/images/task_images/dig.jpg"",""time"":1359}]",[],28,,,,,,,,,,,,,,
harvest,358,1026756,0.0-97.0-4.0,,null,run_exp/static/images/task_images/gems/99.jpg,null,,,,,,53,,,28,,,,,99,0.538792604,0.535353535,,,,,,,
decision,359,1027820,0.0-97.0-5.0,,1063,run_exp/static/images/task_images/land.jpg,65,,,,,,53,,,28,,,,,,,,46932,3,0,FALSE,,,
dig,360,1029795,0.0-98.0-0.0,,,,,,,,,,,"[{""stimulus"":""run_exp/static/images/task_images/dig.jpg"",""time"":0},{""stimulus"":""run_exp/static/images/task_images/land.jpg"",""time"":660},{""stimulus"":""run_exp/static/images/task_images/dig.jpg"",""time"":1313}]",[],28,,,,,,,,,,,,,,
harvest,361,1030806,0.0-98.0-1.0,,null,run_exp/static/images/task_images/gems/53.jpg,null,,,,,,27,,,28,,,,,53,0.515225844,0.509433962,,,,,,,
decision,362,1031325,0.0-98.0-2.0,,518,run_exp/static/images/task_images/land.jpg,76,,,,,,27,,,28,,,,,,,,50437,3,1,TRUE,,,
travel,363,1040891,0.0-99.0-0.0,,,,,,,,,,,"[{""stimulus"":""run_exp/static/images/task_images/rocket-01.jpg"",""time"":0},{""stimulus"":""run_exp/static/images/task_images/rocket-02.jpg"",""time"":1054},{""stimulus"":""run_exp/static/images/task_images/rocket-03.jpg"",""time"":2115},{""stimulus"":""run_exp/static/images/task_images/rocket-04.jpg"",""time"":3178},{""stimulus"":""run_exp/static/images/task_images/rocket-05.jpg"",""time"":4237},{""stimulus"":""run_exp/static/images/task_images/rocket-06.jpg"",""time"":5298},{""stimulus"":""run_exp/static/images/task_images/rocket-07.jpg"",""time"":6367},{""stimulus"":""run_exp/static/images/task_images/rocket-08.jpg"",""time"":7423},{""stimulus"":""run_exp/static/images/task_images/rocket-09.jpg"",""time"":8482}]",[],28,,,,,,,,,,,,,,
alien_welcome,364,1045895,0.0-99.0-1.0,,null,run_exp/static/images/task_images/aliens/old_aliens/planet/alien_planet-6.jpg,null,,,,,,,,,,,,6,"8,50,9,17,75,40,56,72,78,49,13,3,30,28,71,36,68,48,34,18,57,73,22,1,51,52,54,24,6,64,15,66,58,80,31,59,43,21,32,77,14,16,5,7,35,37,65,2,53,45,11,61,47,20,26,25,62",,,,,,,,,,
land,365,1046397,0.0-99.0-2.0,,null,run_exp/static/images/task_images/land.jpg,null,,,,,,107,,,29,,,,,,,,,,,,,,
dig,366,1048428,0.0-99.0-3.0,,,,,,,,,,,"[{""stimulus"":""run_exp/static/images/task_images/dig.jpg"",""time"":1},{""stimulus"":""run_exp/static/images/task_images/land.jpg"",""time"":675},{""stimulus"":""run_exp/static/images/task_images/dig.jpg"",""time"":1347}]",[],29,,,,,,,,,,,,,,
harvest,367,1049441,0.0-99.0-4.0,,null,run_exp/static/images/task_images/gems/107.jpg,null,,,,,,52,,,29,,,,,107,0.489872293,0.485981308,,,,,,,
decision,368,1051190,0.0-99.0-5.0,,1747,run_exp/static/images/task_images/land.jpg,76,,,,,,52,,,29,,,,,,,,70302,3,0,TRUE,,,
travel,369,1059512,0.0-100.0-0.0,,,,,,,,,,,"[{""stimulus"":""run_exp/static/images/task_images/rocket-01.jpg"",""time"":0},{""stimulus"":""run_exp/static/images/task_images/rocket-02.jpg"",""time"":930},{""stimulus"":""run_exp/static/images/task_images/rocket-03.jpg"",""time"":1851},{""stimulus"":""run_exp/static/images/task_images/rocket-04.jpg"",""time"":2771},{""stimulus"":""run_exp/static/images/task_images/rocket-05.jpg"",""time"":3690},{""stimulus"":""run_exp/static/images/task_images/rocket-06.jpg"",""time"":4612},{""stimulus"":""run_exp/static/images/task_images/rocket-07.jpg"",""time"":5543},{""stimulus"":""run_exp/static/images/task_images/rocket-08.jpg"",""time"":6465},{""stimulus"":""run_exp/static/images/task_images/rocket-09.jpg"",""time"":7386}]",[],29,,,,,,,,,,,,,,
alien_welcome,370,1064519,0.0-100.0-1.0,,null,run_exp/static/images/task_images/aliens/old_aliens/planet/alien_planet-64.jpg,null,,,,,,,,,,,,64,"8,50,9,17,75,40,56,72,78,49,13,3,30,28,71,36,68,48,34,18,57,73,22,1,51,52,54,24,6,64,15,66,58,80,31,59,43,21,32,77,14,16,5,7,35,37,65,2,53,45,11,61,47,20,26,25,62",,,,,,,,,,
land,371,1065034,0.0-100.0-2.0,,null,run_exp/static/images/task_images/land.jpg,null,,,,,,98,,,30,,,,,,,,,,,,,,
dig,372,1067056,0.0-100.0-3.0,,,,,,,,,,,"[{""stimulus"":""run_exp/static/images/task_images/dig.jpg"",""time"":0},{""stimulus"":""run_exp/static/images/task_images/land.jpg"",""time"":673},{""stimulus"":""run_exp/static/images/task_images/dig.jpg"",""time"":1341}]",[],30,,,,,,,,,,,,,,
harvest,373,1068067,0.0-100.0-4.0,,null,run_exp/static/images/task_images/gems/98.jpg,null,,,,,,51,,,30,,,,,98,0.524089425,0.520408163,,,,,,,
decision,374,1071080,0.0-100.0-5.0,,null,run_exp/static/images/task_images/land.jpg,null,,,,,,51,,,30,,,,,,,,90193,3,0,FALSE,,,
time_out,375,1073108,0.0-101.0-0.0,,null,run_exp/static/images/task_images/time_out.jpg,null,,,,,,51,,,,,,,,,,,,,,,,,
decision,376,1073214,0.0-101.0-1.0,,104,run_exp/static/images/task_images/land.jpg,65,,,,,,51,,,30,,,,,,,,92326,3,0,FALSE,,,
dig,377,1076151,0.0-102.0-0.0,,,,,,,,,,,"[{""stimulus"":""run_exp/static/images/task_images/dig.jpg"",""time"":0},{""stimulus"":""run_exp/static/images/task_images/land.jpg"",""time"":965},{""stimulus"":""run_exp/static/images/task_images/dig.jpg"",""time"":1944}]",[],30,,,,,,,,,,,,,,
harvest,378,1077166,0.0-102.0-1.0,,null,run_exp/static/images/task_images/gems/51.jpg,null,,,,,,24,,,30,,,,,51,0.479966091,0.470588235,,,,,,,
decision,379,1078054,0.0-102.0-2.0,,886,run_exp/static/images/task_images/land.jpg,76,,,,,,24,,,30,,,,,,,,97166,3,1,TRUE,,,
travel,380,1087239,0.0-103.0-0.0,,,,,,,,,,,"[{""stimulus"":""run_exp/static/images/task_images/rocket-01.jpg"",""time"":1},{""stimulus"":""run_exp/static/images/task_images/rocket-02.jpg"",""time"":1025},{""stimulus"":""run_exp/static/images/task_images/rocket-03.jpg"",""time"":2038},{""stimulus"":""run_exp/static/images/task_images/rocket-04.jpg"",""time"":3052},{""stimulus"":""run_exp/static/images/task_images/rocket-05.jpg"",""time"":4068},{""stimulus"":""run_exp/static/images/task_images/rocket-06.jpg"",""time"":5095},{""stimulus"":""run_exp/static/images/task_images/rocket-07.jpg"",""time"":6109},{""stimulus"":""run_exp/static/images/task_images/rocket-08.jpg"",""time"":7134},{""stimulus"":""run_exp/static/images/task_images/rocket-09.jpg"",""time"":8152}]",[],30,,,,,,,,,,,,,,
alien_welcome,381,1092249,0.0-103.0-1.0,,null,run_exp/static/images/task_images/aliens/old_aliens/planet/alien_planet-15.jpg,null,,,,,,,,,,,,15,"8,50,9,17,75,40,56,72,78,49,13,3,30,28,71,36,68,48,34,18,57,73,22,1,51,52,54,24,6,64,15,66,58,80,31,59,43,21,32,77,14,16,5,7,35,37,65,2,53,45,11,61,47,20,26,25,62",,,,,,,,,,
land,382,1092760,0.0-103.0-2.0,,null,run_exp/static/images/task_images/land.jpg,null,,,,,,99,,,31,,,,,,,,,,,,,,
dig,383,1094790,0.0-103.0-3.0,,,,,,,,,,,"[{""stimulus"":""run_exp/static/images/task_images/dig.jpg"",""time"":0},{""stimulus"":""run_exp/static/images/task_images/land.jpg"",""time"":677},{""stimulus"":""run_exp/static/images/task_images/dig.jpg"",""time"":1349}]",[],31,,,,,,,,,,,,,,
harvest,384,1095801,0.0-103.0-4.0,,null,run_exp/static/images/task_images/gems/99.jpg,null,,,,,,38,,,31,,,,,99,0.383270177,0.383838384,,,,,,,
decision,385,1095812,0.0-103.0-5.0,,11,run_exp/static/images/task_images/land.jpg,65,,,,,,38,,,31,,,,,,,,114924,3,0,FALSE,,,
dig,386,1098817,0.0-104.0-0.0,,,,,,,,,,,"[{""stimulus"":""run_exp/static/images/task_images/dig.jpg"",""time"":0},{""stimulus"":""run_exp/static/images/task_images/land.jpg"",""time"":1000},{""stimulus"":""run_exp/static/images/task_images/dig.jpg"",""time"":1998}]",[],31,,,,,,,,,,,,,,
harvest,387,1099832,0.0-104.0-1.0,,null,run_exp/static/images/task_images/gems/38.jpg,null,,,,,,22,,,31,,,,,38,0.569559102,0.578947368,,,,,,,
decision,388,1101038,0.0-104.0-2.0,,1205,run_exp/static/images/task_images/land.jpg,76,,,,,,22,,,31,,,,,,,,120150,3,1,TRUE,,,
travel,389,1109902,0.0-105.0-0.0,,,,,,,,,,,"[{""stimulus"":""run_exp/static/images/task_images/rocket-01.jpg"",""time"":0},{""stimulus"":""run_exp/static/images/task_images/rocket-02.jpg"",""time"":992},{""stimulus"":""run_exp/static/images/task_images/rocket-03.jpg"",""time"":1971},{""stimulus"":""run_exp/static/images/task_images/rocket-04.jpg"",""time"":2952},{""stimulus"":""run_exp/static/images/task_images/rocket-05.jpg"",""time"":3933},{""stimulus"":""run_exp/static/images/task_images/rocket-06.jpg"",""time"":4915},{""stimulus"":""run_exp/static/images/task_images/rocket-07.jpg"",""time"":5897},{""stimulus"":""run_exp/static/images/task_images/rocket-08.jpg"",""time"":6879},{""stimulus"":""run_exp/static/images/task_images/rocket-09.jpg"",""time"":7862}]",[],31,,,,,,,,,,,,,,
alien_welcome,390,1114910,0.0-105.0-1.0,,null,run_exp/static/images/task_images/aliens/old_aliens/planet/alien_planet-66.jpg,null,,,,,,,,,,,,66,"8,50,9,17,75,40,56,72,78,49,13,3,30,28,71,36,68,48,34,18,57,73,22,1,51,52,54,24,6,64,15,66,58,80,31,59,43,21,32,77,14,16,5,7,35,37,65,2,53,45,11,61,47,20,26,25,62",,,,,,,,,,
land,391,1115423,0.0-105.0-2.0,,null,run_exp/static/images/task_images/land.jpg,null,,,,,,105,,,32,,,,,,,,,,,,,,
dig,392,1117451,0.0-105.0-3.0,,,,,,,,,,,"[{""stimulus"":""run_exp/static/images/task_images/dig.jpg"",""time"":0},{""stimulus"":""run_exp/static/images/task_images/land.jpg"",""time"":675},{""stimulus"":""run_exp/static/images/task_images/dig.jpg"",""time"":1348}]",[],32,,,,,,,,,,,,,,
harvest,393,1118464,0.0-105.0-4.0,,null,run_exp/static/images/task_images/gems/105.jpg,null,,,,,,94,,,32,,,,,105,0.891941706,0.895238095,,,,,,,
