trial_type,trial_index,time_elapsed,internal_node_id,interactions,blur_events,focus_events,fullscreenenter_events,fullscreenexit_events,success,rt,stimulus,key_press,prompt,subject_id,participant_id,age,gender,button_pressed,next_reward,animation_sequence,responses,planet,curr_prac_trial,n_prac_rounds,alien,aliens,reward_received,decay_rate_actual,decay_rate_exp,time_in_block,block_num,prt,last_trial_on_planet,button_html,bonus,num_failures
pavlovia,0,7,0.0-0.0,"""event"",""trial"",""time""
""fullscreenenter"",""1"",""1525""
","
","
","""event"",""trial"",""time""
""fullscreenenter"",""1"",""1525""
","
",,,,,,,,,,,,,,,,,,,,,,,,,,,,
fullscreen,1,2517,0.0-1.0,"""event"",""trial"",""time""
""fullscreenenter"",""1"",""1525""
","
","
","""event"",""trial"",""time""
""fullscreenenter"",""1"",""1525""
","
",TRUE,,,,,,,,,,,,,,,,,,,,,,,,,,,
instruc_welcome,2,12374,0.0-2.0,"""event"",""trial"",""time""
""fullscreenenter"",""1"",""1525""
","
","
","""event"",""trial"",""time""
""fullscreenenter"",""1"",""1525""
","
",,null,run_exp/static/audio/clip_1_welcome.m4a,null,"<p>Howdy! In this experiment, you’ll be an explorer traveling through space to collect space treasure.</p><p>Your mission is to collect as much treasure as possible.</p><br><br><p><img src='run_exp/static/images/task_images/opening_img-01.jpg' height='300' width='auto'></p>",9736,4294,21.83,Female,,,,,,,,,,,,,,,,,,,
audio-keyboard-response,3,29048,0.0-3.0,"""event"",""trial"",""time""
""fullscreenenter"",""1"",""1525""
","
","
","""event"",""trial"",""time""
""fullscreenenter"",""1"",""1525""
","
",,null,run_exp/static/audio/clip_2_move.m4a,null,,,,,,,,,,,,,,,,,,,,,,,,
welcome_dec,4,29861,0.0-4.0,"""event"",""trial"",""time""
""fullscreenenter"",""1"",""1525""
","
","
","""event"",""trial"",""time""
""fullscreenenter"",""1"",""1525""
","
",,806.2,"<p>Howdy! In this experiment, you’ll be an explorer traveling through space to collect space treasure.</p><p>Your mission is to collect as much treasure as possible.</p><br><br><p><img src='run_exp/static/images/task_images/opening_img-01.jpg' height='300' width='auto'></p>",,,,,,,0,,,,,,,,,,,,,,,,,,
html-keyboard-response,5,32590,0.0-5.0,"""event"",""trial"",""time""
""fullscreenenter"",""1"",""1525""
","
","
","""event"",""trial"",""time""
""fullscreenenter"",""1"",""1525""
","
",,2727.2,"<p>Howdy! In this experiment, you’ll be an explorer traveling through space to collect space treasure.</p><p>Your mission is to collect as much treasure as possible.</p><br><br><p><img src='run_exp/static/images/task_images/opening_img-01.jpg' height='300' width='auto'></p><button class=""jspsych-html-btn-chosen""><img src=""run_exp/static/images/task_images/planet-01.jpg"" height=""50""></button><button class=""jspsych-html-btn-unchosen""><img src=""run_exp/static/images/task_images/planet-02.jpg"" height=""50""></button><p><b>[press the space bar to lock in your answer]<b><br></p>",32,,,,,,,,,,,,,,,,,,,,,,,,
instruc_welcome,6,42397,0.0-6.0-0.0,"""event"",""trial"",""time""
""fullscreenenter"",""1"",""1525""
","
","
","""event"",""trial"",""time""
""fullscreenenter"",""1"",""1525""
","
",,null,run_exp/static/audio/clip_1_welcome.m4a,null,"<p>Howdy! In this experiment, you’ll be an explorer traveling through space to collect space treasure.</p><p>Your mission is to collect as much treasure as possible.</p><br><br><p><img src='run_exp/static/images/task_images/opening_img-01.jpg' height='300' width='auto'></p>",9736,4294,21,Female,,,,,,,,,,,,,,,,,,,
audio-keyboard-response,7,59046,0.0-6.0-1.0,"""event"",""trial"",""time""
""fullscreenenter"",""1"",""1525""
","
","
","""event"",""trial"",""time""
""fullscreenenter"",""1"",""1525""
","
",,null,run_exp/static/audio/clip_2_move.m4a,null,,,,,,,,,,,,,,,,,,,,,,,,
welcome_dec,8,59679,0.0-6.0-2.0,"""event"",""trial"",""time""
""fullscreenenter"",""1"",""1525""
","
","
","""event"",""trial"",""time""
""fullscreenenter"",""1"",""1525""
","
",,630.8,"<p>Howdy! In this experiment, you’ll be an explorer traveling through space to collect space treasure.</p><p>Your mission is to collect as much treasure as possible.</p><br><br><p><img src='run_exp/static/images/task_images/opening_img-01.jpg' height='300' width='auto'></p>",,,,,,,1,,,,,,,,,,,,,,,,,,
html-keyboard-response,9,60314,0.0-6.0-3.0,"""event"",""trial"",""time""
""fullscreenenter"",""1"",""1525""
","
","
","""event"",""trial"",""time""
""fullscreenenter"",""1"",""1525""
","
",,632.8,"<p>Howdy! In this experiment, you’ll be an explorer traveling through space to collect space treasure.</p><p>Your mission is to collect as much treasure as possible.</p><br><br><p><img src='run_exp/static/images/task_images/opening_img-01.jpg' height='300' width='auto'></p><button class=""jspsych-html-btn-unchosen""><img src=""run_exp/static/images/task_images/planet-01.jpg"" height=""50""></button><button class=""jspsych-html-btn-chosen""><img src=""run_exp/static/images/task_images/planet-02.jpg"" height=""50""></button><p><b>[press the space bar to lock in your answer]<b><br></p>",32,,,,,,,,,,,,,,,,,,,,,,,,
instruc_goal,10,70446,0.0-7.0-0.0,"""event"",""trial"",""time""
""fullscreenenter"",""1"",""1525""
","
","
","""event"",""trial"",""time""
""fullscreenenter"",""1"",""1525""
","
",,null,run_exp/static/audio/clip_3_goal.m4a,null,"<p> As a space explorer, you’ll visit different planets to dig for space treasure, these pink gems.</p> <p> The more treasure you dig up, the more bonus money you’ll win! </p><br><br><p><img src='run_exp/static/images/task_images/pink_gem.jpg' height='300' width='auto'></p>",,,,,,,,,,,,,,,,,,,,,,,
instruc_goal,11,73075,0.0-7.0-1.0,"""event"",""trial"",""time""
""fullscreenenter"",""1"",""1525""
","
","
","""event"",""trial"",""time""
""fullscreenenter"",""1"",""1525""
","
",,2627,"<p> As a space explorer, you’ll visit different planets to dig for space treasure, these pink gems.</p> <p> The more treasure you dig up, the more bonus money you’ll win! </p><br><br><p><img src='run_exp/static/images/task_images/pink_gem.jpg' height='300' width='auto'></p>",,,,,,,1,,,,,,,,,,,,,,,,,,
html-keyboard-response,12,73637,0.0-7.0-2.0,"""event"",""trial"",""time""
""fullscreenenter"",""1"",""1525""
","
","
","""event"",""trial"",""time""
""fullscreenenter"",""1"",""1525""
","
",,560.1,"<p> As a space explorer, you’ll visit different planets to dig for space treasure, these pink gems.</p> <p> The more treasure you dig up, the more bonus money you’ll win! </p><br><br><p><img src='run_exp/static/images/task_images/pink_gem.jpg' height='300' width='auto'></p><button class=""jspsych-html-btn-unchosen""><img src=""run_exp/static/images/task_images/planet-01.jpg"" height=""50""></button><button class=""jspsych-html-btn-chosen""><img src=""run_exp/static/images/task_images/planet-02.jpg"" height=""50""></button><p><b>[press the space bar to lock in your answer]<b><br></p>",32,,,,,,,,,,,,,,,,,,,,,,,,
instruc_dig,13,89720,0.0-8.0-0.0,"""event"",""trial"",""time""
""fullscreenenter"",""1"",""1525""
","
","
","""event"",""trial"",""time""
""fullscreenenter"",""1"",""1525""
","
",,null,run_exp/static/audio/clip_4_dig.m4a,null,,,,,,,100,,,,,,,,,,,,,,,,,
instruc_dig_try,14,90846,0.0-8.0-1.0,"""event"",""trial"",""time""
""fullscreenenter"",""1"",""1525""
","
","
","""event"",""trial"",""time""
""fullscreenenter"",""1"",""1525""
","
",,1125.2,"<p> When you’ve arrived at a new planet, you will dig once. </p> <p>Then, you get to decide if you want to stay on the planet and dig again or travel to a new planet and dig there.</p> <p> To stay and dig, press the letter <strong>‘A’</strong> on your keyboard. Try pressing it now! </p><p><img src='run_exp/static/images/task_images/land.jpg'  height='700' width='auto'></p>",65,"<p> When you’ve arrived at a new planet, you will dig once. </p> <p>Then, you get to decide if you want to stay on the planet and dig again or travel to a new planet and dig there.</p> <p> To stay and dig, press the letter <strong>‘A’</strong> on your keyboard. Try pressing it now! </p><p><img src='run_exp/static/images/task_images/land.jpg'  height='700' width='auto'></p>",,,,,,100,,,,,,,,,,,,,,,,,
dig_prac,15,92859,0.0-8.0-2.0,"""event"",""trial"",""time""
""fullscreenenter"",""1"",""1525""
","
","
","""event"",""trial"",""time""
""fullscreenenter"",""1"",""1525""
","
",,,,,,,,,,,,"[{""stimulus"":""run_exp/static/images/task_images/dig.jpg"",""time"":0.30000001192092896},{""stimulus"":""run_exp/static/images/task_images/land.jpg"",""time"":676.1000000238419},{""stimulus"":""run_exp/static/images/task_images/dig.jpg"",""time"":1344.199999988079}]",[],,,,,,,,,,,,,,,
instruc_travel,16,129148,0.0-8.0-3.0,"""event"",""trial"",""time""
""fullscreenenter"",""1"",""1525""
","
","
","""event"",""trial"",""time""
""fullscreenenter"",""1"",""1525""
","
",,null,run_exp/static/audio/clip_5_travel.m4a,null,"<p>Every time you dig up gems, there are less gems on the planet, so the more you dig on a planet the fewer gems you’ll get with each dig.</p><p>When gems are running low, you may want to travel to a new planet. </p> <p>  Planets are very far apart in this galaxy, so it will take some time to travel between them. </p> <br><p>There are lots and lots of planets for you to visit, so you won’t be able to return to any planets you’ve seen before. </p><br><p>To leave this planet and travel to a new one, press the letter <strong>‘L’</strong> on your keyboard. Try pressing it now! </p><p><img src='run_exp/static/images/task_images/rocket-01.jpg'  height='600' width='auto'></p>",,,,,,,,,,,,,,,,,,,,,,,
instruc_travel_try,17,129983,0.0-8.0-4.0,"""event"",""trial"",""time""
""fullscreenenter"",""1"",""1525""
","
","
","""event"",""trial"",""time""
""fullscreenenter"",""1"",""1525""
","
",,833.7,"<p>Every time you dig up gems, there are less gems on the planet, so the more you dig on a planet the fewer gems you’ll get with each dig.</p><p>When gems are running low, you may want to travel to a new planet. </p> <p>  Planets are very far apart in this galaxy, so it will take some time to travel between them. </p> <br><p>There are lots and lots of planets for you to visit, so you won’t be able to return to any planets you’ve seen before. </p><br><p>To leave this planet and travel to a new one, press the letter <strong>‘L’</strong> on your keyboard. Try pressing it now! </p><p><img src='run_exp/static/images/task_images/rocket-01.jpg'  height='600' width='auto'></p>",76,"<p>Every time you dig up gems, there are less gems on the planet, so the more you dig on a planet the fewer gems you’ll get with each dig.</p><p>When gems are running low, you may want to travel to a new planet. </p> <p>  Planets are very far apart in this galaxy, so it will take some time to travel between them. </p> <br><p>There are lots and lots of planets for you to visit, so you won’t be able to return to any planets you’ve seen before. </p><br><p>To leave this planet and travel to a new one, press the letter <strong>‘L’</strong> on your keyboard. Try pressing it now! </p><p><img src='run_exp/static/images/task_images/rocket-01.jpg'  height='600' width='auto'></p>",,,,,,,,,,,,,,,,,,,,,,,
travel_prac,18,139989,0.0-8.0-5.0,"""event"",""trial"",""time""
""fullscreenenter"",""1"",""1525""
","
","
","""event"",""trial"",""time""
""fullscreenenter"",""1"",""1525""
","
",,,,,,,,,,,,"[{""stimulus"":""run_exp/static/images/task_images/rocket-01.jpg"",""time"":0.30000001192092896},{""stimulus"":""run_exp/static/images/task_images/rocket-02.jpg"",""time"":1116.699999988079},{""stimulus"":""run_exp/static/images/task_images/rocket-03.jpg"",""time"":2225.800000011921},{""stimulus"":""run_exp/static/images/task_images/rocket-04.jpg"",""time"":3340.5},{""stimulus"":""run_exp/static/images/task_images/rocket-05.jpg"",""time"":4450.699999988079},{""stimulus"":""run_exp/static/images/task_images/rocket-06.jpg"",""time"":5561.399999976158},{""stimulus"":""run_exp/static/images/task_images/rocket-07.jpg"",""time"":6674.399999976158},{""stimulus"":""run_exp/static/images/task_images/rocket-08.jpg"",""time"":7790.399999976158},{""stimulus"":""run_exp/static/images/task_images/rocket-09.jpg"",""time"":8889.800000011921}]",[],0,,,,,,,,,,,,,,
instruc_alien_greet,19,167229,0.0-8.0-6.0,"""event"",""trial"",""time""
""fullscreenenter"",""1"",""1525""
","
","
","""event"",""trial"",""time""
""fullscreenenter"",""1"",""1525""
","
",,null,run_exp/static/audio/clip_6_alien.m4a,null,"<p>When you arrive at a new planet, the alien who owns the treasure mine on that planet will greet you!</p><p>The better an alien takes care of their mine the easier it is to dig for gems. Some aliens take better care of their mine than others. So, you won’t get exactly the same amount of gems on each planet.</p><p>What the alien looks like does not tell you anything about how many gems there are on the planet.</p><br><p><img src=""run_exp/static/images/task_images/aliens/instructions_aliens/planet/alien_planet-1.jpg""  height=""600"" width=""auto""></p>",,,,,,,,,,,,,,,,,,,,,,,
instruc_alien_greet,20,170067,0.0-8.0-7.0,"""event"",""trial"",""time""
""fullscreenenter"",""1"",""1525""
","
","
","""event"",""trial"",""time""
""fullscreenenter"",""1"",""1525""
","
",,2836,"<p>When you arrive at a new planet, the alien who owns the treasure mine on that planet will greet you!</p><p>The better an alien takes care of their mine the easier it is to dig for gems. Some aliens take better care of their mine than others. So, you won’t get exactly the same amount of gems on each planet.</p><p>What the alien looks like does not tell you anything about how many gems there are on the planet.</p><br><p><img src=""run_exp/static/images/task_images/aliens/instructions_aliens/planet/alien_planet-1.jpg""  height=""600"" width=""auto""></p>",,,,,,,1,,,,,,,,,,,,,,,,,,
html-keyboard-response,21,170611,0.0-8.0-8.0,"""event"",""trial"",""time""
""fullscreenenter"",""1"",""1525""
","
","
","""event"",""trial"",""time""
""fullscreenenter"",""1"",""1525""
","
",,541.3,"<p>When you arrive at a new planet, the alien who owns the treasure mine on that planet will greet you!</p><p>The better an alien takes care of their mine the easier it is to dig for gems. Some aliens take better care of their mine than others. So, you won’t get exactly the same amount of gems on each planet.</p><p>What the alien looks like does not tell you anything about how many gems there are on the planet.</p><br><p><img src=""run_exp/static/images/task_images/aliens/instructions_aliens/planet/alien_planet-1.jpg""  height=""600"" width=""auto""></p><button class=""jspsych-html-btn-unchosen""><img src=""run_exp/static/images/task_images/planet-01.jpg"" height=""50""></button><button class=""jspsych-html-btn-chosen""><img src=""run_exp/static/images/task_images/planet-02.jpg"" height=""50""></button><p><b>[press the space bar to lock in your answer]<b><br></p>",32,,,,,,,,,,,,,,,,,,,,,,,,
time_out,22,181765,0.0-9.0-0.0,"""event"",""trial"",""time""
""fullscreenenter"",""1"",""1525""
","
","
","""event"",""trial"",""time""
""fullscreenenter"",""1"",""1525""
","
",,null,run_exp/static/audio/clip_7_timeout.m4a,null,"<p>If you don't make your choice fast enough, you’ll have to wait a few seconds before you can make another one.</p><p>You can’t dig for more gems or travel to new planets. You just have to sit and wait.</p><br><p><img src='run_exp/static/images/task_images/time_out.jpg'  height='600' width='auto'></p>",,,,,,,,,,,,,,,,,,,,,,,
time_out,23,183303,0.0-9.0-1.0,"""event"",""trial"",""time""
""fullscreenenter"",""1"",""1525""
","
","
","""event"",""trial"",""time""
""fullscreenenter"",""1"",""1525""
","
",,1535,"<p>If you don't make your choice fast enough, you’ll have to wait a few seconds before you can make another one.</p><p>You can’t dig for more gems or travel to new planets. You just have to sit and wait.</p><br><p><img src='run_exp/static/images/task_images/time_out.jpg'  height='600' width='auto'></p>",,,,,,,1,,,,,,,,,,,,,,,,,,
html-keyboard-response,24,183653,0.0-9.0-2.0,"""event"",""trial"",""time""
""fullscreenenter"",""1"",""1525""
","
","
","""event"",""trial"",""time""
""fullscreenenter"",""1"",""1525""
","
",,349,"<p>If you don't make your choice fast enough, you’ll have to wait a few seconds before you can make another one.</p><p>You can’t dig for more gems or travel to new planets. You just have to sit and wait.</p><br><p><img src='run_exp/static/images/task_images/time_out.jpg'  height='600' width='auto'></p><button class=""jspsych-html-btn-unchosen""><img src=""run_exp/static/images/task_images/planet-01.jpg"" height=""50""></button><button class=""jspsych-html-btn-chosen""><img src=""run_exp/static/images/task_images/planet-02.jpg"" height=""50""></button><p><b>[press the space bar to lock in your answer]<b><br></p>",32,,,,,,,,,,,,,,,,,,,,,,,,
instruc_break,25,199366,0.0-10.0-0.0,"""event"",""trial"",""time""
""fullscreenenter"",""1"",""1525""
","
","
","""event"",""trial"",""time""
""fullscreenenter"",""1"",""1525""
","
",,null,run_exp/static/audio/clip_8_break.m4a,null,"<p> After digging and traveling for a while, you’ll be able to take a break at home base. </p><p>The game will last 20 minutes no matter what.</p><p>You will visit home base every 5 minutes, so, you will visit home base three times during the game.</p><br><p><img src='run_exp/static/images/task_images/home_base.jpg' height='600' width='auto'></p>",,,,,,,,,,,,,,,,,,,,,,,
instruc_break,26,200292,0.0-10.0-1.0,"""event"",""trial"",""time""
""fullscreenenter"",""1"",""1525""
","
","
","""event"",""trial"",""time""
""fullscreenenter"",""1"",""1525""
","
",,923.6,"<p> After digging and traveling for a while, you’ll be able to take a break at home base. </p><p>The game will last 20 minutes no matter what.</p><p>You will visit home base every 5 minutes, so, you will visit home base three times during the game.</p><br><p><img src='run_exp/static/images/task_images/home_base.jpg' height='600' width='auto'></p>",,,,,,,1,,,,,,,,,,,,,,,,,,
html-keyboard-response,27,200582,0.0-10.0-2.0,"""event"",""trial"",""time""
""fullscreenenter"",""1"",""1525""
","
","
","""event"",""trial"",""time""
""fullscreenenter"",""1"",""1525""
","
",,286.6,"<p> After digging and traveling for a while, you’ll be able to take a break at home base. </p><p>The game will last 20 minutes no matter what.</p><p>You will visit home base every 5 minutes, so, you will visit home base three times during the game.</p><br><p><img src='run_exp/static/images/task_images/home_base.jpg' height='600' width='auto'></p><button class=""jspsych-html-btn-unchosen""><img src=""run_exp/static/images/task_images/planet-01.jpg"" height=""50""></button><button class=""jspsych-html-btn-chosen""><img src=""run_exp/static/images/task_images/planet-02.jpg"" height=""50""></button><p><b>[press the space bar to lock in your answer]<b><br></p>",32,,,,,,,,,,,,,,,,,,,,,,,,
instruc_prac_game,28,210744,0.0-11.0-0.0,"""event"",""trial"",""time""
""fullscreenenter"",""1"",""1525""
","
","
","""event"",""trial"",""time""
""fullscreenenter"",""1"",""1525""
","
",,null,run_exp/static/audio/clip_9_practice.m4a,null,"<p> Are you ready to play a practice game? </p> <p>In this practice game, you'll be digging up barrels of gems. But, in the real game, you'll be digging up the gems themselves. </p>",,,,,,,,,,,,,,,,,,,,,,,
html-button-response,29,212001,0.0-11.0-1.0,"""event"",""trial"",""time""
""fullscreenenter"",""1"",""1525""
","
","
","""event"",""trial"",""time""
""fullscreenenter"",""1"",""1525""
","
",,1255.7,"<p> Are you ready to play a practice game? </p> <p>In this practice game, you'll be digging up barrels of gems. But, in the real game, you'll be digging up the gems themselves. </p>",,,,,,,0,,,,,,,,,,,,,,,,,,
alien_welcome_prac,30,217007,0.0-12.0-0.0,"""event"",""trial"",""time""
""fullscreenenter"",""1"",""1525""
","
","
","""event"",""trial"",""time""
""fullscreenenter"",""1"",""1525""
","
",,null,run_exp/static/images/task_images/aliens/practice_aliens/planet/alien_planet-5.jpg,null,,,,,,,,,,,,,,,,,,,,,,,,
land_prac,31,217511,0.0-12.0-1.0,"""event"",""trial"",""time""
""fullscreenenter"",""1"",""1525""
","
","
","""event"",""trial"",""time""
""fullscreenenter"",""1"",""1525""
","
",,null,run_exp/static/images/task_images/land.jpg,null,,,,,,,104,,,0,,,,,,,,,,,,,,
dig_prac,32,219520,0.0-12.0-2.0,"""event"",""trial"",""time""
""fullscreenenter"",""1"",""1525""
","
","
","""event"",""trial"",""time""
""fullscreenenter"",""1"",""1525""
","
",,,,,,,,,,,,"[{""stimulus"":""run_exp/static/images/task_images/dig.jpg"",""time"":0.2999999523162842},{""stimulus"":""run_exp/static/images/task_images/land.jpg"",""time"":669.8999999761581},{""stimulus"":""run_exp/static/images/task_images/dig.jpg"",""time"":1343.5999999642372}]",[],,,,,,,,,,,,,,,
harvest_prac,33,220526,0.0-12.0-3.0,"""event"",""trial"",""time""
""fullscreenenter"",""1"",""1525""
","
","
","""event"",""trial"",""time""
""fullscreenenter"",""1"",""1525""
","
",,null,run_exp/static/images/task_images/barrel_text.jpg,null,,,,,,,,,,,,,,,,,,,,,,,,
decision_prac,34,221107,0.0-12.0-4.0,"""event"",""trial"",""time""
""fullscreenenter"",""1"",""1525""
","
","
","""event"",""trial"",""time""
""fullscreenenter"",""1"",""1525""
","
",,579.7,run_exp/static/images/task_images/land.jpg,65,,,,,,,,,,,1,,,,,,,,,,,,,
dig_prac,35,223120,0.0-13.0-0.0,"""event"",""trial"",""time""
""fullscreenenter"",""1"",""1525""
","
","
","""event"",""trial"",""time""
""fullscreenenter"",""1"",""1525""
","
",,,,,,,,,,,,"[{""stimulus"":""run_exp/static/images/task_images/dig.jpg"",""time"":0.20000004768371582},{""stimulus"":""run_exp/static/images/task_images/land.jpg"",""time"":672.1000000238419},{""stimulus"":""run_exp/static/images/task_images/dig.jpg"",""time"":1335.9000000357628}]",[],,,,,,,,,,,,,,,
harvest_prac,36,224127,0.0-13.0-1.0,"""event"",""trial"",""time""
""fullscreenenter"",""1"",""1525""
","
","
","""event"",""trial"",""time""
""fullscreenenter"",""1"",""1525""
","
",,null,run_exp/static/images/task_images/barrel_text.jpg,null,,,,,,,,,,,,,,,,,,,,,,,,
decision_prac,37,224758,0.0-13.0-2.0,"""event"",""trial"",""time""
""fullscreenenter"",""1"",""1525""
","
","
","""event"",""trial"",""time""
""fullscreenenter"",""1"",""1525""
","
",,629.4,run_exp/static/images/task_images/land.jpg,65,,,,,,,,,,,2,,,,,,,,,,,,,
dig_prac,38,226769,0.0-14.0-0.0,"""event"",""trial"",""time""
""fullscreenenter"",""1"",""1525""
","
","
","""event"",""trial"",""time""
""fullscreenenter"",""1"",""1525""
","
",,,,,,,,,,,,"[{""stimulus"":""run_exp/static/images/task_images/dig.jpg"",""time"":0.10000002384185791},{""stimulus"":""run_exp/static/images/task_images/land.jpg"",""time"":674.3000000119209},{""stimulus"":""run_exp/static/images/task_images/dig.jpg"",""time"":1336.8999999761581}]",[],,,,,,,,,,,,,,,
harvest_prac,39,227776,0.0-14.0-1.0,"""event"",""trial"",""time""
""fullscreenenter"",""1"",""1525""
","
","
","""event"",""trial"",""time""
""fullscreenenter"",""1"",""1525""
","
",,null,run_exp/static/images/task_images/barrel_text.jpg,null,,,,,,,,,,,,,,,,,,,,,,,,
decision_prac,40,228274,0.0-14.0-2.0,"""event"",""trial"",""time""
""fullscreenenter"",""1"",""1525""
","
","
","""event"",""trial"",""time""
""fullscreenenter"",""1"",""1525""
","
",,496,run_exp/static/images/task_images/land.jpg,65,,,,,,,,,,,3,,,,,,,,,,,,,
dig_prac,41,230291,0.0-15.0-0.0,"""event"",""trial"",""time""
""fullscreenenter"",""1"",""1525""
","
","
","""event"",""trial"",""time""
""fullscreenenter"",""1"",""1525""
","
",,,,,,,,,,,,"[{""stimulus"":""run_exp/static/images/task_images/dig.jpg"",""time"":0.10000002384185791},{""stimulus"":""run_exp/static/images/task_images/land.jpg"",""time"":676.6999999880791},{""stimulus"":""run_exp/static/images/task_images/dig.jpg"",""time"":1341.699999988079}]",[],,,,,,,,,,,,,,,
harvest_prac,42,231298,0.0-15.0-1.0,"""event"",""trial"",""time""
""fullscreenenter"",""1"",""1525""
","
","
","""event"",""trial"",""time""
""fullscreenenter"",""1"",""1525""
","
",,null,run_exp/static/images/task_images/barrel_text.jpg,null,,,,,,,,,,,,,,,,,,,,,,,,
decision_prac,43,231835,0.0-15.0-2.0,"""event"",""trial"",""time""
""fullscreenenter"",""1"",""1525""
","
","
","""event"",""trial"",""time""
""fullscreenenter"",""1"",""1525""
","
",,536,run_exp/static/images/task_images/land.jpg,65,,,,,,,,,,,4,,,,,,,,,,,,,
dig_prac,44,233847,0.0-16.0-0.0,"""event"",""trial"",""time""
""fullscreenenter"",""1"",""1525""
","
","
","""event"",""trial"",""time""
""fullscreenenter"",""1"",""1525""
","
",,,,,,,,,,,,"[{""stimulus"":""run_exp/static/images/task_images/dig.jpg"",""time"":0.30000001192092896},{""stimulus"":""run_exp/static/images/task_images/land.jpg"",""time"":672.6000000238419},{""stimulus"":""run_exp/static/images/task_images/dig.jpg"",""time"":1336.300000011921}]",[],,,,,,,,,,,,,,,
harvest_prac,45,234857,0.0-16.0-1.0,"""event"",""trial"",""time""
""fullscreenenter"",""1"",""1525""
","
","
","""event"",""trial"",""time""
""fullscreenenter"",""1"",""1525""
","
",,null,run_exp/static/images/task_images/barrel_text.jpg,null,,,,,,,,,,,,,,,,,,,,,,,,
decision_prac,46,235414,0.0-16.0-2.0,"""event"",""trial"",""time""
""fullscreenenter"",""1"",""1525""
","
","
","""event"",""trial"",""time""
""fullscreenenter"",""1"",""1525""
","
",,556.4,run_exp/static/images/task_images/land.jpg,65,,,,,,,,,,,,1,,,,,,,,,,,,
quiz_instruc,47,238324,0.0-17.0-0.0,"""event"",""trial"",""time""
""fullscreenenter"",""1"",""1525""
","
","
","""event"",""trial"",""time""
""fullscreenenter"",""1"",""1525""
","
",,2906.9,run_exp/static/audio/clip_10_quiz.m4a,,,,,,,0,,,,,,,,,,,,,,,,,,
instruc_repeat,48,281125,0.0-17.0-1.0,"""event"",""trial"",""time""
""fullscreenenter"",""1"",""1525""
","
","
","""event"",""trial"",""time""
""fullscreenenter"",""1"",""1525""
","
",,null,"<p> Are you ready to play a practice game? </p> <p>In this practice game, you'll be digging up barrels of gems. But, in the real game, you'll be digging up the gems themselves. </p>",null,"<p>In this game, your goal is to collect as many gems as you can. That’s how you will win bonus money. </p> <p>The entire game will last 20 minutes no matter how many gems you collect or how many planets you visit. </p><p>To stay on a planet and dig again, press the letter A on your keyboard. To leave for a new planet, press the letter L.</p><p>The more you dig on a planet, the fewer gems you’ll get with each dig which is why you might consider leaving for a new planet. </p><p>When you arrive at a new planet, you’ll be greeted by an alien. What the alien looks like does not tell you anything about how much treasure is on the planet. </p>",,,,,,,,,,,,,,,,,,,,,,,
instruc_repeat_continue,49,283207,0.0-17.0-2.0,"""event"",""trial"",""time""
""fullscreenenter"",""1"",""1525""
","
","
","""event"",""trial"",""time""
""fullscreenenter"",""1"",""1525""
","
",,2080.7,"<p> Are you ready to play a practice game? </p> <p>In this practice game, you'll be digging up barrels of gems. But, in the real game, you'll be digging up the gems themselves. </p>",,,,,,,0,,,,,,,,,,,,,,,,,,
quiz_q_1_ask,50,285911,0.0-17.0-3.0,"""event"",""trial"",""time""
""fullscreenenter"",""1"",""1525""
","
","
","""event"",""trial"",""time""
""fullscreenenter"",""1"",""1525""
","
",,2700.5,run_exp/static/audio/clip_11_q1_ask.m4a,,,,,,,2,,,,,,,,,,,,,,,,,,
quiz_q_1_fb_correct,51,289786,0.0-18.0-0.0,"""event"",""trial"",""time""
""fullscreenenter"",""1"",""1525""
","
","
","""event"",""trial"",""time""
""fullscreenenter"",""1"",""1525""
","
",,null,run_exp/static/audio/clip_12_q1_correct.m4a,null,<p>That’s correct. You win extra money by collecting more gems.</p>,,,,,,,,,,,,,,,,,,,,,,,
quiz_q_2_ask,52,293364,0.0-18.0-1.0,"""event"",""trial"",""time""
""fullscreenenter"",""1"",""1525""
","
","
","""event"",""trial"",""time""
""fullscreenenter"",""1"",""1525""
","
",,3575.2,run_exp/static/audio/clip_14_q2_ask.m4a,,,,,,,1,,,,,,,,,,,,,,,,,,
quiz_q_2_fb_correct,53,297402,0.0-19.0-0.0,"""event"",""trial"",""time""
""fullscreenenter"",""1"",""1525""
","
","
","""event"",""trial"",""time""
""fullscreenenter"",""1"",""1525""
","
",,null,run_exp/static/audio/clip_15_q2_correct.m4a,null,<p>That’s correct. The experiment is 20 minutes no matter what.</p>,,,,,,,,,,,,,,,,,,,,,,,
quiz_q_3_ask,54,303017,0.0-19.0-1.0,"""event"",""trial"",""time""
""fullscreenenter"",""1"",""1525""
","
","
","""event"",""trial"",""time""
""fullscreenenter"",""1"",""1525""
","
",,5612.8,run_exp/static/audio/clip_17_q3_ask.m4a,,,,,,,1,,,,,,,,,,,,,,,,,,
quiz_q_3_fb_correct,55,307015,0.0-20.0-0.0,"""event"",""trial"",""time""
""fullscreenenter"",""1"",""1525""
","
","
","""event"",""trial"",""time""
""fullscreenenter"",""1"",""1525""
","
",,null,run_exp/static/audio/clip_18_q3_correct.m4a,null,<p> That’s correct. You press the letter L to travel to a new planet.</p>,,,,,,,,,,,,,,,,,,,,,,,
quiz_q_4_ask,56,316563,0.0-20.0-1.0,"""event"",""trial"",""time""
""fullscreenenter"",""1"",""1525""
","
","
","""event"",""trial"",""time""
""fullscreenenter"",""1"",""1525""
","
",,9545.3,run_exp/static/audio/clip_20_q4_ask.m4a,,,,,,,1,,,,,,,,,,,,,,,,,,
quiz_q_4_fb_incorrect,57,322410,0.0-21.0-0.0,"""event"",""trial"",""time""
""fullscreenenter"",""1"",""1525""
","
","
","""event"",""trial"",""time""
""fullscreenenter"",""1"",""1525""
","
",,null,run_exp/static/audio/clip_22_q4_incorrect.m4a,null,<p>That’s incorrect.  The more you dig on a planet the fewer gems you’ll get with each dig.</p>,,,,,,,,,,,,,,,,,,,,,,,
quiz_q_5_ask,58,330261,0.0-21.0-1.0,"""event"",""trial"",""time""
""fullscreenenter"",""1"",""1525""
","
","
","""event"",""trial"",""time""
""fullscreenenter"",""1"",""1525""
","
",,7848.4,run_exp/static/audio/clip_23_q5_ask.m4a,,,,,,,1,,,,,,,,,,,,,,,,,,
quiz_q_5_fb_correct,59,335275,0.0-22.0-0.0,"""event"",""trial"",""time""
""fullscreenenter"",""1"",""1525""
","
","
","""event"",""trial"",""time""
""fullscreenenter"",""1"",""1525""
","
",,null,run_exp/static/audio/clip_24_q5_correct.m4a,null,<p> That’s correct. The alien tells you nothing about how much treasure is on the planet.</p>,,,,,,,,,,,,,,,,,,,,,,,
quiz_incorrect,60,340871,0.0-23.0-0.0,"""event"",""trial"",""time""
""fullscreenenter"",""1"",""1525""
","
","
","""event"",""trial"",""time""
""fullscreenenter"",""1"",""1525""
","
",,null,run_exp/static/audio/clip_27_incorrect_quiz.m4a,null,,,,,,,,,,,,,,,,,,,,,,,,
quiz_incorrect_continue,61,341596,0.0-23.0-1.0,"""event"",""trial"",""time""
""fullscreenenter"",""1"",""1525""
","
","
","""event"",""trial"",""time""
""fullscreenenter"",""1"",""1525""
","
",,723.7,"<p>Oops, you missed some questions.</p><p>Now that you’ve heard the correct answers. Try the quiz again!</p>",,,,,,,0,,,,,,,,,,,,,,,,,,
quiz_q_1_ask,62,343116,0.0-23.0-2.0,"""event"",""trial"",""time""
""fullscreenenter"",""1"",""1525""
","
","
","""event"",""trial"",""time""
""fullscreenenter"",""1"",""1525""
","
",,1516.8,run_exp/static/audio/clip_11_q1_ask.m4a,,,,,,,2,,,,,,,,,,,,,,,,,,
quiz_q_1_fb_correct,63,347000,0.0-24.0-0.0,"""event"",""trial"",""time""
""fullscreenenter"",""1"",""1525""
","
","
","""event"",""trial"",""time""
""fullscreenenter"",""1"",""1525""
","
",,null,run_exp/static/audio/clip_12_q1_correct.m4a,null,<p>That’s correct. You win extra money by collecting more gems.</p>,,,,,,,,,,,,,,,,,,,,,,,
quiz_q_2_ask,64,348444,0.0-24.0-1.0,"""event"",""trial"",""time""
""fullscreenenter"",""1"",""1525""
","
","
","""event"",""trial"",""time""
""fullscreenenter"",""1"",""1525""
","
",,1441.1,run_exp/static/audio/clip_14_q2_ask.m4a,,,,,,,1,,,,,,,,,,,,,,,,,,
quiz_q_2_fb_correct,65,352458,0.0-25.0-0.0,"""event"",""trial"",""time""
""fullscreenenter"",""1"",""1525""
","
","
","""event"",""trial"",""time""
""fullscreenenter"",""1"",""1525""
","
",,null,run_exp/static/audio/clip_15_q2_correct.m4a,null,<p>That’s correct. The experiment is 20 minutes no matter what.</p>,,,,,,,,,,,,,,,,,,,,,,,
quiz_q_3_ask,66,353909,0.0-25.0-1.0,"""event"",""trial"",""time""
""fullscreenenter"",""1"",""1525""
","
","
","""event"",""trial"",""time""
""fullscreenenter"",""1"",""1525""
","
",,1449.9,run_exp/static/audio/clip_17_q3_ask.m4a,,,,,,,1,,,,,,,,,,,,,,,,,,
quiz_q_3_fb_correct,67,357914,0.0-26.0-0.0,"""event"",""trial"",""time""
""fullscreenenter"",""1"",""1525""
","
","
","""event"",""trial"",""time""
""fullscreenenter"",""1"",""1525""
","
",,null,run_exp/static/audio/clip_18_q3_correct.m4a,null,<p> That’s correct. You press the letter L to travel to a new planet.</p>,,,,,,,,,,,,,,,,,,,,,,,
quiz_q_4_ask,68,360430,0.0-26.0-1.0,"""event"",""trial"",""time""
""fullscreenenter"",""1"",""1525""
","
","
","""event"",""trial"",""time""
""fullscreenenter"",""1"",""1525""
","
",,2513.5,run_exp/static/audio/clip_20_q4_ask.m4a,,,,,,,0,,,,,,,,,,,,,,,,,,
quiz_q_4_fb_correct,69,365740,0.0-27.0-0.0,"""event"",""trial"",""time""
""fullscreenenter"",""1"",""1525""
","
","
","""event"",""trial"",""time""
""fullscreenenter"",""1"",""1525""
","
",,null,run_exp/static/audio/clip_21_q4_correct.m4a,null,<p> That’s correct. The more you dig on a planet the fewer gems you’ll get with each dig. </p>,,,,,,,,,,,,,,,,,,,,,,,
quiz_q_5_ask,70,368852,0.0-27.0-1.0,"""event"",""trial"",""time""
""fullscreenenter"",""1"",""1525""
","
","
","""event"",""trial"",""time""
""fullscreenenter"",""1"",""1525""
","
",,3110.3,run_exp/static/audio/clip_23_q5_ask.m4a,,,,,,,1,,,,,,,,,,,,,,,,,,
quiz_q_5_fb_correct,71,373867,0.0-28.0-0.0,"""event"",""trial"",""time""
""fullscreenenter"",""1"",""1525""
","
","
","""event"",""trial"",""time""
""fullscreenenter"",""1"",""1525""
","
",,null,run_exp/static/audio/clip_24_q5_correct.m4a,null,<p> That’s correct. The alien tells you nothing about how much treasure is on the planet.</p>,,,,,,,,,,,,,,,,,,,,,,,
quiz_correct,72,377327,0.0-29.0-0.0,"""event"",""trial"",""time""
""fullscreenenter"",""1"",""1525""
","
","
","""event"",""trial"",""time""
""fullscreenenter"",""1"",""1525""
","
",,null,run_exp/static/audio/clip_26_correct_quiz.m4a,null,,,,,,,,,,,,,,,,,,,,,,,,
quiz_correct_continue,73,378239,0.0-29.0-1.0,"""event"",""trial"",""time""
""fullscreenenter"",""1"",""1525""
","
","
","""event"",""trial"",""time""
""fullscreenenter"",""1"",""1525""
","
",,911.3,<p>Good job! You're now ready to move on to the real game!</p>,,,,,,,0,,,,,,,,,,,,,,,,,,
audio-keyboard-response,74,388403,0.0-29.0-2.0,"""event"",""trial"",""time""
""fullscreenenter"",""1"",""1525""
","
","
","""event"",""trial"",""time""
""fullscreenenter"",""1"",""1525""
","
",,null,run_exp/static/audio/clip_28_real_game.m4a,null,,,,,,,,,,,,,,,,,,,,,,,,
instruc_begin_exp_contine,75,395163,0.0-29.0-3.0,"""event"",""trial"",""time""
""fullscreenenter"",""1"",""1525""
","
","
","""event"",""trial"",""time""
""fullscreenenter"",""1"",""1525""
","
",,6759.2,"<p>Now that you know how  to dig for space treasure and travel to new planets,you can start exploring! </p><p>Do you want to go over the instructions again or get started with the real game?</p>",,,,,,,1,,,,,,1,,,,,,,,,,,,
alien_welcome,76,400175,0.0-30.0-0.0,"""event"",""trial"",""time""
""fullscreenenter"",""1"",""1525""
","
","
","""event"",""trial"",""time""
""fullscreenenter"",""1"",""1525""
","
",,null,run_exp/static/images/task_images/aliens/old_aliens/planet/alien_planet-13.jpg,null,,,,,,,,,,,,,13,"13,55,3,74,57,66,60,8,39,68,20,80,77,75,6,34,26,76,70,65,32,33,17,78,61,18,27,45,29,7,59,1,62,25,79,41,36",,,,,,,,,,
land,77,400687,0.0-30.0-1.0,"""event"",""trial"",""time""
""fullscreenenter"",""1"",""1525""
","
","
","""event"",""trial"",""time""
""fullscreenenter"",""1"",""1525""
","
",,null,run_exp/static/images/task_images/land.jpg,null,,,,,,,102,,,1,,,,,,,,,,,,,,
dig,78,402701,0.0-30.0-2.0,"""event"",""trial"",""time""
""fullscreenenter"",""1"",""1525""
","
","
","""event"",""trial"",""time""
""fullscreenenter"",""1"",""1525""
","
",,,,,,,,,,,,"[{""stimulus"":""run_exp/static/images/task_images/dig.jpg"",""time"":0.2999999523162842},{""stimulus"":""run_exp/static/images/task_images/land.jpg"",""time"":674.1999999880791},{""stimulus"":""run_exp/static/images/task_images/dig.jpg"",""time"":1337.5999999642372}]",[],1,,,,,,,,,,,,,,
harvest,79,403708,0.0-30.0-3.0,"""event"",""trial"",""time""
""fullscreenenter"",""1"",""1525""
","
","
","""event"",""trial"",""time""
""fullscreenenter"",""1"",""1525""
","
",,null,run_exp/static/images/task_images/gems/102.jpg,null,,,,,,,17,,,1,,,,,102,0.166381664,0.166666667,,,,,,,
decision,80,404282,0.0-30.0-4.0,"""event"",""trial"",""time""
""fullscreenenter"",""1"",""1525""
","
","
","""event"",""trial"",""time""
""fullscreenenter"",""1"",""1525""
","
",,570.3,run_exp/static/images/task_images/land.jpg,65,,,,,,,17,,,1,,,,,,,,9117,1,0,FALSE,,,
dig,81,406716,0.0-31.0-0.0,"""event"",""trial"",""time""
""fullscreenenter"",""1"",""1525""
","
","
","""event"",""trial"",""time""
""fullscreenenter"",""1"",""1525""
","
",,,,,,,,,,,,"[{""stimulus"":""run_exp/static/images/task_images/dig.jpg"",""time"":0.19999998807907104},{""stimulus"":""run_exp/static/images/task_images/land.jpg"",""time"":815.7999999523163},{""stimulus"":""run_exp/static/images/task_images/dig.jpg"",""time"":1620.8999999761581}]",[],1,,,,,,,,,,,,,,
harvest,82,407725,0.0-31.0-1.0,"""event"",""trial"",""time""
""fullscreenenter"",""1"",""1525""
","
","
","""event"",""trial"",""time""
""fullscreenenter"",""1"",""1525""
","
",,null,run_exp/static/images/task_images/gems/17.jpg,null,,,,,,,3,,,1,,,,,17,0.192911762,0.176470588,,,,,,,
decision,83,408112,0.0-31.0-2.0,"""event"",""trial"",""time""
""fullscreenenter"",""1"",""1525""
","
","
","""event"",""trial"",""time""
""fullscreenenter"",""1"",""1525""
","
",,385.2,run_exp/static/images/task_images/land.jpg,65,,,,,,,3,,,1,,,,,,,,12947,1,1,FALSE,,,
dig,84,410734,0.0-32.0-0.0,"""event"",""trial"",""time""
""fullscreenenter"",""1"",""1525""
","
","
","""event"",""trial"",""time""
""fullscreenenter"",""1"",""1525""
","
",,,,,,,,,,,,"[{""stimulus"":""run_exp/static/images/task_images/dig.jpg"",""time"":0.19999998807907104},{""stimulus"":""run_exp/static/images/task_images/land.jpg"",""time"":880.6999999880791},{""stimulus"":""run_exp/static/images/task_images/dig.jpg"",""time"":1748.0999999642372}]",[],1,,,,,,,,,,,,,,
harvest,85,411739,0.0-32.0-1.0,"""event"",""trial"",""time""
""fullscreenenter"",""1"",""1525""
","
","
","""event"",""trial"",""time""
""fullscreenenter"",""1"",""1525""
","
",,null,run_exp/static/images/task_images/gems/3.jpg,null,,,,,,,1,,,1,,,,,3,0.182462083,0.333333333,,,,,,,
decision,86,412072,0.0-32.0-2.0,"""event"",""trial"",""time""
""fullscreenenter"",""1"",""1525""
","
","
","""event"",""trial"",""time""
""fullscreenenter"",""1"",""1525""
","
",,332.2,run_exp/static/images/task_images/land.jpg,65,,,,,,,1,,,1,,,,,,,,16907,1,2,FALSE,,,
dig,87,414746,0.0-33.0-0.0,"""event"",""trial"",""time""
""fullscreenenter"",""1"",""1525""
","
","
","""event"",""trial"",""time""
""fullscreenenter"",""1"",""1525""
","
",,,,,,,,,,,,"[{""stimulus"":""run_exp/static/images/task_images/dig.jpg"",""time"":0.19999998807907104},{""stimulus"":""run_exp/static/images/task_images/land.jpg"",""time"":899.3000000119209},{""stimulus"":""run_exp/static/images/task_images/dig.jpg"",""time"":1787.6000000238419}]",[],1,,,,,,,,,,,,,,
harvest,88,415759,0.0-33.0-1.0,"""event"",""trial"",""time""
""fullscreenenter"",""1"",""1525""
","
","
","""event"",""trial"",""time""
""fullscreenenter"",""1"",""1525""
","
",,null,run_exp/static/images/task_images/gems/1.jpg,null,,,,,,,0,,,1,,,,,1,0.238481008,0,,,,,,,
decision,89,416124,0.0-33.0-2.0,"""event"",""trial"",""time""
""fullscreenenter"",""1"",""1525""
","
","
","""event"",""trial"",""time""
""fullscreenenter"",""1"",""1525""
","
",,363.8,run_exp/static/images/task_images/land.jpg,65,,,,,,,0,,,1,,,,,,,,20959,1,3,FALSE,,,
dig,90,418771,0.0-34.0-0.0,"""event"",""trial"",""time""
""fullscreenenter"",""1"",""1525""
","
","
","""event"",""trial"",""time""
""fullscreenenter"",""1"",""1525""
","
",,,,,,,,,,,,"[{""stimulus"":""run_exp/static/images/task_images/dig.jpg"",""time"":0.19999998807907104},{""stimulus"":""run_exp/static/images/task_images/land.jpg"",""time"":884.5},{""stimulus"":""run_exp/static/images/task_images/dig.jpg"",""time"":1768.199999988079}]",[],1,,,,,,,,,,,,,,
harvest,91,419780,0.0-34.0-1.0,"""event"",""trial"",""time""
""fullscreenenter"",""1"",""1525""
","
","
","""event"",""trial"",""time""
""fullscreenenter"",""1"",""1525""
","
",,null,run_exp/static/images/task_images/gems/0.jpg,null,,,,,,,0,,,1,,,,,0,0.168230457,NaN,,,,,,,
decision,92,420303,0.0-34.0-2.0,"""event"",""trial"",""time""
""fullscreenenter"",""1"",""1525""
","
","
","""event"",""trial"",""time""
""fullscreenenter"",""1"",""1525""
","
",,520.7,run_exp/static/images/task_images/land.jpg,76,,,,,,,0,,,1,,,,,,,,25138,1,4,TRUE,,,
travel,93,429787,0.0-35.0-0.0,"""event"",""trial"",""time""
""fullscreenenter"",""1"",""1525""
","
","
","""event"",""trial"",""time""
""fullscreenenter"",""1"",""1525""
","
",,,,,,,,,,,,"[{""stimulus"":""run_exp/static/images/task_images/rocket-01.jpg"",""time"":0.19999998807907104},{""stimulus"":""run_exp/static/images/task_images/rocket-02.jpg"",""time"":1058.8999999761581},{""stimulus"":""run_exp/static/images/task_images/rocket-03.jpg"",""time"":2113.600000023842},{""stimulus"":""run_exp/static/images/task_images/rocket-04.jpg"",""time"":3162},{""stimulus"":""run_exp/static/images/task_images/rocket-05.jpg"",""time"":4213.899999976158},{""stimulus"":""run_exp/static/images/task_images/rocket-06.jpg"",""time"":5277.899999976158},{""stimulus"":""run_exp/static/images/task_images/rocket-07.jpg"",""time"":6325.800000011921},{""stimulus"":""run_exp/static/images/task_images/rocket-08.jpg"",""time"":7377.100000023842},{""stimulus"":""run_exp/static/images/task_images/rocket-09.jpg"",""time"":8432.800000011921}]",[],1,,,,,,,,,,,,,,
alien_welcome,94,434800,0.0-35.0-1.0,"""event"",""trial"",""time""
""fullscreenenter"",""1"",""1525""
","
","
","""event"",""trial"",""time""
""fullscreenenter"",""1"",""1525""
","
",,null,run_exp/static/images/task_images/aliens/old_aliens/planet/alien_planet-55.jpg,null,,,,,,,,,,,,,55,"13,55,3,74,57,66,60,8,39,68,20,80,77,75,6,34,26,76,70,65,32,33,17,78,61,18,27,45,29,7,59,1,62,25,79,41,36",,,,,,,,,,
land,95,435312,0.0-35.0-2.0,"""event"",""trial"",""time""
""fullscreenenter"",""1"",""1525""
","
","
","""event"",""trial"",""time""
""fullscreenenter"",""1"",""1525""
","
",,null,run_exp/static/images/task_images/land.jpg,null,,,,,,,98,,,2,,,,,,,,,,,,,,
dig,96,437323,0.0-35.0-3.0,"""event"",""trial"",""time""
""fullscreenenter"",""1"",""1525""
","
","
","""event"",""trial"",""time""
""fullscreenenter"",""1"",""1525""
","
",,,,,,,,,,,,"[{""stimulus"":""run_exp/static/images/task_images/dig.jpg"",""time"":0.3999999761581421},{""stimulus"":""run_exp/static/images/task_images/land.jpg"",""time"":678.5},{""stimulus"":""run_exp/static/images/task_images/dig.jpg"",""time"":1342.5}]",[],2,,,,,,,,,,,,,,
harvest,97,438333,0.0-35.0-4.0,"""event"",""trial"",""time""
""fullscreenenter"",""1"",""1525""
","
","
","""event"",""trial"",""time""
""fullscreenenter"",""1"",""1525""
","
",,null,run_exp/static/images/task_images/gems/98.jpg,null,,,,,,,15,,,2,,,,,98,0.152404947,0.153061224,,,,,,,
decision,98,438705,0.0-35.0-5.0,"""event"",""trial"",""time""
""fullscreenenter"",""1"",""1525""
","
","
","""event"",""trial"",""time""
""fullscreenenter"",""1"",""1525""
","
",,370.9,run_exp/static/images/task_images/land.jpg,65,,,,,,,15,,,2,,,,,,,,43540,1,0,FALSE,,,
dig,99,441342,0.0-36.0-0.0,"""event"",""trial"",""time""
""fullscreenenter"",""1"",""1525""
","
","
","""event"",""trial"",""time""
""fullscreenenter"",""1"",""1525""
","
",,,,,,,,,,,,"[{""stimulus"":""run_exp/static/images/task_images/dig.jpg"",""time"":0.3999999761581421},{""stimulus"":""run_exp/static/images/task_images/land.jpg"",""time"":883.5},{""stimulus"":""run_exp/static/images/task_images/dig.jpg"",""time"":1759.5}]",[],2,,,,,,,,,,,,,,
harvest,100,442347,0.0-36.0-1.0,"""event"",""trial"",""time""
""fullscreenenter"",""1"",""1525""
","
","
","""event"",""trial"",""time""
""fullscreenenter"",""1"",""1525""
","
",,null,run_exp/static/images/task_images/gems/15.jpg,null,,,,,,,3,,,2,,,,,15,0.228877016,0.2,,,,,,,
decision,101,442745,0.0-36.0-2.0,"""event"",""trial"",""time""
""fullscreenenter"",""1"",""1525""
","
","
","""event"",""trial"",""time""
""fullscreenenter"",""1"",""1525""
","
",,396.3,run_exp/static/images/task_images/land.jpg,76,,,,,,,3,,,2,,,,,,,,47580,1,1,TRUE,,,
travel,102,452356,0.0-37.0-0.0,"""event"",""trial"",""time""
""fullscreenenter"",""1"",""1525""
","
","
","""event"",""trial"",""time""
""fullscreenenter"",""1"",""1525""
","
",,,,,,,,,,,,"[{""stimulus"":""run_exp/static/images/task_images/rocket-01.jpg"",""time"":0.19999998807907104},{""stimulus"":""run_exp/static/images/task_images/rocket-02.jpg"",""time"":1071.800000011921},{""stimulus"":""run_exp/static/images/task_images/rocket-03.jpg"",""time"":2145},{""stimulus"":""run_exp/static/images/task_images/rocket-04.jpg"",""time"":3208.100000023842},{""stimulus"":""run_exp/static/images/task_images/rocket-05.jpg"",""time"":4272.699999988079},{""stimulus"":""run_exp/static/images/task_images/rocket-06.jpg"",""time"":5344.100000023842},{""stimulus"":""run_exp/static/images/task_images/rocket-07.jpg"",""time"":6407.800000011921},{""stimulus"":""run_exp/static/images/task_images/rocket-08.jpg"",""time"":7475.399999976158},{""stimulus"":""run_exp/static/images/task_images/rocket-09.jpg"",""time"":8546.699999988079}]",[],2,,,,,,,,,,,,,,
alien_welcome,103,457363,0.0-37.0-1.0,"""event"",""trial"",""time""
""fullscreenenter"",""1"",""1525""
","
","
","""event"",""trial"",""time""
""fullscreenenter"",""1"",""1525""
","
",,null,run_exp/static/images/task_images/aliens/old_aliens/planet/alien_planet-3.jpg,null,,,,,,,,,,,,,3,"13,55,3,74,57,66,60,8,39,68,20,80,77,75,6,34,26,76,70,65,32,33,17,78,61,18,27,45,29,7,59,1,62,25,79,41,36",,,,,,,,,,
land,104,457868,0.0-37.0-2.0,"""event"",""trial"",""time""
""fullscreenenter"",""1"",""1525""
","
","
","""event"",""trial"",""time""
""fullscreenenter"",""1"",""1525""
","
",,null,run_exp/static/images/task_images/land.jpg,null,,,,,,,101,,,3,,,,,,,,,,,,,,
dig,105,459880,0.0-37.0-3.0,"""event"",""trial"",""time""
""fullscreenenter"",""1"",""1525""
","
","
","""event"",""trial"",""time""
""fullscreenenter"",""1"",""1525""
","
",,,,,,,,,,,,"[{""stimulus"":""run_exp/static/images/task_images/dig.jpg"",""time"":0.3999999761581421},{""stimulus"":""run_exp/static/images/task_images/land.jpg"",""time"":670.5},{""stimulus"":""run_exp/static/images/task_images/dig.jpg"",""time"":1343.1000000238419}]",[],3,,,,,,,,,,,,,,
harvest,106,460886,0.0-37.0-4.0,"""event"",""trial"",""time""
""fullscreenenter"",""1"",""1525""
","
","
","""event"",""trial"",""time""
""fullscreenenter"",""1"",""1525""
","
",,null,run_exp/static/images/task_images/gems/101.jpg,null,,,,,,,58,,,3,,,,,101,0.579020464,0.574257426,,,,,,,
decision,107,461263,0.0-37.0-5.0,"""event"",""trial"",""time""
""fullscreenenter"",""1"",""1525""
","
","
","""event"",""trial"",""time""
""fullscreenenter"",""1"",""1525""
","
",,375.7,run_exp/static/images/task_images/land.jpg,65,,,,,,,58,,,3,,,,,,,,66098,1,0,FALSE,,,
dig,108,463896,0.0-38.0-0.0,"""event"",""trial"",""time""
""fullscreenenter"",""1"",""1525""
","
","
","""event"",""trial"",""time""
""fullscreenenter"",""1"",""1525""
","
",,,,,,,,,,,,"[{""stimulus"":""run_exp/static/images/task_images/dig.jpg"",""time"":0.19999998807907104},{""stimulus"":""run_exp/static/images/task_images/land.jpg"",""time"":883.1999999880791},{""stimulus"":""run_exp/static/images/task_images/dig.jpg"",""time"":1758.5999999642372}]",[],3,,,,,,,,,,,,,,
harvest,109,464902,0.0-38.0-1.0,"""event"",""trial"",""time""
""fullscreenenter"",""1"",""1525""
","
","
","""event"",""trial"",""time""
""fullscreenenter"",""1"",""1525""
","
",,null,run_exp/static/images/task_images/gems/58.jpg,null,,,,,,,31,,,3,,,,,58,0.53770086,0.534482759,,,,,,,
decision,110,465209,0.0-38.0-2.0,"""event"",""trial"",""time""
""fullscreenenter"",""1"",""1525""
","
","
","""event"",""trial"",""time""
""fullscreenenter"",""1"",""1525""
","
",,305.5,run_exp/static/images/task_images/land.jpg,65,,,,,,,31,,,3,,,,,,,,70044,1,1,FALSE,,,
dig,111,467912,0.0-39.0-0.0,"""event"",""trial"",""time""
""fullscreenenter"",""1"",""1525""
","
","
","""event"",""trial"",""time""
""fullscreenenter"",""1"",""1525""
","
",,,,,,,,,,,,"[{""stimulus"":""run_exp/static/images/task_images/dig.jpg"",""time"":0.20000004768371582},{""stimulus"":""run_exp/static/images/task_images/land.jpg"",""time"":908.8000000119209},{""stimulus"":""run_exp/static/images/task_images/dig.jpg"",""time"":1800.7000000476837}]",[],3,,,,,,,,,,,,,,
harvest,112,468916,0.0-39.0-1.0,"""event"",""trial"",""time""
""fullscreenenter"",""1"",""1525""
","
","
","""event"",""trial"",""time""
""fullscreenenter"",""1"",""1525""
","
",,null,run_exp/static/images/task_images/gems/31.jpg,null,,,,,,,15,,,3,,,,,31,0.499004289,0.483870968,,,,,,,
decision,113,469237,0.0-39.0-2.0,"""event"",""trial"",""time""
""fullscreenenter"",""1"",""1525""
","
","
","""event"",""trial"",""time""
""fullscreenenter"",""1"",""1525""
","
",,320,run_exp/static/images/task_images/land.jpg,76,,,,,,,15,,,3,,,,,,,,74072,1,2,TRUE,,,
travel,114,478927,0.0-40.0-0.0,"""event"",""trial"",""time""
""fullscreenenter"",""1"",""1525""
","
","
","""event"",""trial"",""time""
""fullscreenenter"",""1"",""1525""
","
",,,,,,,,,,,,"[{""stimulus"":""run_exp/static/images/task_images/rocket-01.jpg"",""time"":0.20000004768371582},{""stimulus"":""run_exp/static/images/task_images/rocket-02.jpg"",""time"":1080.9000000357628},{""stimulus"":""run_exp/static/images/task_images/rocket-03.jpg"",""time"":2160.400000035763},{""stimulus"":""run_exp/static/images/task_images/rocket-04.jpg"",""time"":3228.5},{""stimulus"":""run_exp/static/images/task_images/rocket-05.jpg"",""time"":4309.800000011921},{""stimulus"":""run_exp/static/images/task_images/rocket-06.jpg"",""time"":5384.800000011921},{""stimulus"":""run_exp/static/images/task_images/rocket-07.jpg"",""time"":6451.700000047684},{""stimulus"":""run_exp/static/images/task_images/rocket-08.jpg"",""time"":7536.800000011921},{""stimulus"":""run_exp/static/images/task_images/rocket-09.jpg"",""time"":8608.900000035763}]",[],3,,,,,,,,,,,,,,
alien_welcome,115,483937,0.0-40.0-1.0,"""event"",""trial"",""time""
""fullscreenenter"",""1"",""1525""
","
","
","""event"",""trial"",""time""
""fullscreenenter"",""1"",""1525""
","
",,null,run_exp/static/images/task_images/aliens/old_aliens/planet/alien_planet-74.jpg,null,,,,,,,,,,,,,74,"13,55,3,74,57,66,60,8,39,68,20,80,77,75,6,34,26,76,70,65,32,33,17,78,61,18,27,45,29,7,59,1,62,25,79,41,36",,,,,,,,,,
land,116,484442,0.0-40.0-2.0,"""event"",""trial"",""time""
""fullscreenenter"",""1"",""1525""
","
","
","""event"",""trial"",""time""
""fullscreenenter"",""1"",""1525""
","
",,null,run_exp/static/images/task_images/land.jpg,null,,,,,,,98,,,4,,,,,,,,,,,,,,
dig,117,486452,0.0-40.0-3.0,"""event"",""trial"",""time""
""fullscreenenter"",""1"",""1525""
","
","
","""event"",""trial"",""time""
""fullscreenenter"",""1"",""1525""
","
",,,,,,,,,,,,"[{""stimulus"":""run_exp/static/images/task_images/dig.jpg"",""time"":0.699999988079071},{""stimulus"":""run_exp/static/images/task_images/land.jpg"",""time"":677.3999999761581},{""stimulus"":""run_exp/static/images/task_images/dig.jpg"",""time"":1337}]",[],4,,,,,,,,,,,,,,
harvest,118,487461,0.0-40.0-4.0,"""event"",""trial"",""time""
""fullscreenenter"",""1"",""1525""
","
","
","""event"",""trial"",""time""
""fullscreenenter"",""1"",""1525""
","
",,null,run_exp/static/images/task_images/gems/98.jpg,null,,,,,,,42,,,4,,,,,98,0.424570617,0.428571429,,,,,,,
decision,119,487827,0.0-40.0-5.0,"""event"",""trial"",""time""
""fullscreenenter"",""1"",""1525""
","
","
","""event"",""trial"",""time""
""fullscreenenter"",""1"",""1525""
","
",,364.2,run_exp/static/images/task_images/land.jpg,65,,,,,,,42,,,4,,,,,,,,92662,1,0,FALSE,,,
dig,120,490469,0.0-41.0-0.0,"""event"",""trial"",""time""
""fullscreenenter"",""1"",""1525""
","
","
","""event"",""trial"",""time""
""fullscreenenter"",""1"",""1525""
","
",,,,,,,,,,,,"[{""stimulus"":""run_exp/static/images/task_images/dig.jpg"",""time"":0.30000001192092896},{""stimulus"":""run_exp/static/images/task_images/land.jpg"",""time"":889.5999999642372},{""stimulus"":""run_exp/static/images/task_images/dig.jpg"",""time"":1762.0999999642372}]",[],4,,,,,,,,,,,,,,
harvest,121,491477,0.0-41.0-1.0,"""event"",""trial"",""time""
""fullscreenenter"",""1"",""1525""
","
","
","""event"",""trial"",""time""
""fullscreenenter"",""1"",""1525""
","
",,null,run_exp/static/images/task_images/gems/42.jpg,null,,,,,,,21,,,4,,,,,42,0.496186814,0.5,,,,,,,
decision,122,491743,0.0-41.0-2.0,"""event"",""trial"",""time""
""fullscreenenter"",""1"",""1525""
","
","
","""event"",""trial"",""time""
""fullscreenenter"",""1"",""1525""
","
",,264.2,run_exp/static/images/task_images/land.jpg,65,,,,,,,21,,,4,,,,,,,,96578,1,1,FALSE,,,
dig,123,494485,0.0-42.0-0.0,"""event"",""trial"",""time""
""fullscreenenter"",""1"",""1525""
","
","
","""event"",""trial"",""time""
""fullscreenenter"",""1"",""1525""
","
",,,,,,,,,,,,"[{""stimulus"":""run_exp/static/images/task_images/dig.jpg"",""time"":0.19999998807907104},{""stimulus"":""run_exp/static/images/task_images/land.jpg"",""time"":916.4000000357628},{""stimulus"":""run_exp/static/images/task_images/dig.jpg"",""time"":1826.5}]",[],4,,,,,,,,,,,,,,
harvest,124,495496,0.0-42.0-1.0,"""event"",""trial"",""time""
""fullscreenenter"",""1"",""1525""
","
","
","""event"",""trial"",""time""
""fullscreenenter"",""1"",""1525""
","
",,null,run_exp/static/images/task_images/gems/21.jpg,null,,,,,,,11,,,4,,,,,21,0.508391612,0.523809524,,,,,,,
decision,125,495744,0.0-42.0-2.0,"""event"",""trial"",""time""
""fullscreenenter"",""1"",""1525""
","
","
","""event"",""trial"",""time""
""fullscreenenter"",""1"",""1525""
","
",,246.4,run_exp/static/images/task_images/land.jpg,76,,,,,,,11,,,4,,,,,,,,100579,1,2,TRUE,,,
travel,126,505503,0.0-43.0-0.0,"""event"",""trial"",""time""
""fullscreenenter"",""1"",""1525""
","
","
","""event"",""trial"",""time""
""fullscreenenter"",""1"",""1525""
","
",,,,,,,,,,,,"[{""stimulus"":""run_exp/static/images/task_images/rocket-01.jpg"",""time"":0.20000004768371582},{""stimulus"":""run_exp/static/images/task_images/rocket-02.jpg"",""time"":1091.5},{""stimulus"":""run_exp/static/images/task_images/rocket-03.jpg"",""time"":2171.300000011921},{""stimulus"":""run_exp/static/images/task_images/rocket-04.jpg"",""time"":3259.300000011921},{""stimulus"":""run_exp/static/images/task_images/rocket-05.jpg"",""time"":4338.800000011921},{""stimulus"":""run_exp/static/images/task_images/rocket-06.jpg"",""time"":5422.800000011921},{""stimulus"":""run_exp/static/images/task_images/rocket-07.jpg"",""time"":6507},{""stimulus"":""run_exp/static/images/task_images/rocket-08.jpg"",""time"":7587.5},{""stimulus"":""run_exp/static/images/task_images/rocket-09.jpg"",""time"":8666.700000047684}]",[],4,,,,,,,,,,,,,,
alien_welcome,127,510513,0.0-43.0-1.0,"""event"",""trial"",""time""
""fullscreenenter"",""1"",""1525""
","
","
","""event"",""trial"",""time""
""fullscreenenter"",""1"",""1525""
","
",,null,run_exp/static/images/task_images/aliens/old_aliens/planet/alien_planet-57.jpg,null,,,,,,,,,,,,,57,"13,55,3,74,57,66,60,8,39,68,20,80,77,75,6,34,26,76,70,65,32,33,17,78,61,18,27,45,29,7,59,1,62,25,79,41,36",,,,,,,,,,
land,128,511022,0.0-43.0-2.0,"""event"",""trial"",""time""
""fullscreenenter"",""1"",""1525""
","
","
","""event"",""trial"",""time""
""fullscreenenter"",""1"",""1525""
","
",,null,run_exp/static/images/task_images/land.jpg,null,,,,,,,103,,,5,,,,,,,,,,,,,,
dig,129,513034,0.0-43.0-3.0,"""event"",""trial"",""time""
""fullscreenenter"",""1"",""1525""
","
","
","""event"",""trial"",""time""
""fullscreenenter"",""1"",""1525""
","
",,,,,,,,,,,,"[{""stimulus"":""run_exp/static/images/task_images/dig.jpg"",""time"":0.20000004768371582},{""stimulus"":""run_exp/static/images/task_images/land.jpg"",""time"":669.8000000119209},{""stimulus"":""run_exp/static/images/task_images/dig.jpg"",""time"":1342}]",[],5,,,,,,,,,,,,,,
harvest,130,514042,0.0-43.0-4.0,"""event"",""trial"",""time""
""fullscreenenter"",""1"",""1525""
","
","
","""event"",""trial"",""time""
""fullscreenenter"",""1"",""1525""
","
",,null,run_exp/static/images/task_images/gems/103.jpg,null,,,,,,,61,,,5,,,,,103,0.588297367,0.59223301,,,,,,,
decision,131,514407,0.0-43.0-5.0,"""event"",""trial"",""time""
""fullscreenenter"",""1"",""1525""
","
","
","""event"",""trial"",""time""
""fullscreenenter"",""1"",""1525""
","
",,363.6,run_exp/static/images/task_images/land.jpg,65,,,,,,,61,,,5,,,,,,,,119242,1,0,FALSE,,,
dig,132,517055,0.0-44.0-0.0,"""event"",""trial"",""time""
""fullscreenenter"",""1"",""1525""
","
","
","""event"",""trial"",""time""
""fullscreenenter"",""1"",""1525""
","
",,,,,,,,,,,,"[{""stimulus"":""run_exp/static/images/task_images/dig.jpg"",""time"":0.10000002384185791},{""stimulus"":""run_exp/static/images/task_images/land.jpg"",""time"":887.3000000119209},{""stimulus"":""run_exp/static/images/task_images/dig.jpg"",""time"":1762.3999999761581}]",[],5,,,,,,,,,,,,,,
harvest,133,518061,0.0-44.0-1.0,"""event"",""trial"",""time""
""fullscreenenter"",""1"",""1525""
","
","
","""event"",""trial"",""time""
""fullscreenenter"",""1"",""1525""
","
",,null,run_exp/static/images/task_images/gems/61.jpg,null,,,,,,,33,,,5,,,,,61,0.536632587,0.540983607,,,,,,,
decision,134,518337,0.0-44.0-2.0,"""event"",""trial"",""time""
""fullscreenenter"",""1"",""1525""
","
","
","""event"",""trial"",""time""
""fullscreenenter"",""1"",""1525""
","
",,275.5,run_exp/static/images/task_images/land.jpg,65,,,,,,,33,,,5,,,,,,,,123172,1,1,FALSE,,,
dig,135,521070,0.0-45.0-0.0,"""event"",""trial"",""time""
""fullscreenenter"",""1"",""1525""
","
","
","""event"",""trial"",""time""
""fullscreenenter"",""1"",""1525""
","
",,,,,,,,,,,,"[{""stimulus"":""run_exp/static/images/task_images/dig.jpg"",""time"":0.19999998807907104},{""stimulus"":""run_exp/static/images/task_images/land.jpg"",""time"":918.0999999642372},{""stimulus"":""run_exp/static/images/task_images/dig.jpg"",""time"":1817.8999999761581}]",[],5,,,,,,,,,,,,,,
harvest,136,522078,0.0-45.0-1.0,"""event"",""trial"",""time""
""fullscreenenter"",""1"",""1525""
","
","
","""event"",""trial"",""time""
""fullscreenenter"",""1"",""1525""
","
",,null,run_exp/static/images/task_images/gems/33.jpg,null,,,,,,,17,,,5,,,,,33,0.510460542,0.515151515,,,,,,,
decision,137,522588,0.0-45.0-2.0,"""event"",""trial"",""time""
""fullscreenenter"",""1"",""1525""
","
","
","""event"",""trial"",""time""
""fullscreenenter"",""1"",""1525""
","
",,509.6,run_exp/static/images/task_images/land.jpg,76,,,,,,,17,,,5,,,,,,,,127424,1,2,TRUE,,,
travel,138,532085,0.0-46.0-0.0,"""event"",""trial"",""time""
""fullscreenenter"",""1"",""1525""
","
","
","""event"",""trial"",""time""
""fullscreenenter"",""1"",""1525""
","
",,,,,,,,,,,,"[{""stimulus"":""run_exp/static/images/task_images/rocket-01.jpg"",""time"":0.19999998807907104},{""stimulus"":""run_exp/static/images/task_images/rocket-02.jpg"",""time"":1066.699999988079},{""stimulus"":""run_exp/static/images/task_images/rocket-03.jpg"",""time"":2114.599999964237},{""stimulus"":""run_exp/static/images/task_images/rocket-04.jpg"",""time"":3166.5},{""stimulus"":""run_exp/static/images/task_images/rocket-05.jpg"",""time"":4224.299999952316},{""stimulus"":""run_exp/static/images/task_images/rocket-06.jpg"",""time"":5274.699999988079},{""stimulus"":""run_exp/static/images/task_images/rocket-07.jpg"",""time"":6329.299999952316},{""stimulus"":""run_exp/static/images/task_images/rocket-08.jpg"",""time"":7386.799999952316},{""stimulus"":""run_exp/static/images/task_images/rocket-09.jpg"",""time"":8442.299999952316}]",[],5,,,,,,,,,,,,,,
alien_welcome,139,537094,0.0-46.0-1.0,"""event"",""trial"",""time""
""fullscreenenter"",""1"",""1525""
","
","
","""event"",""trial"",""time""
""fullscreenenter"",""1"",""1525""
","
",,null,run_exp/static/images/task_images/aliens/old_aliens/planet/alien_planet-66.jpg,null,,,,,,,,,,,,,66,"13,55,3,74,57,66,60,8,39,68,20,80,77,75,6,34,26,76,70,65,32,33,17,78,61,18,27,45,29,7,59,1,62,25,79,41,36",,,,,,,,,,
land,140,537602,0.0-46.0-2.0,"""event"",""trial"",""time""
""fullscreenenter"",""1"",""1525""
","
","
","""event"",""trial"",""time""
""fullscreenenter"",""1"",""1525""
","
",,null,run_exp/static/images/task_images/land.jpg,null,,,,,,,101,,,6,,,,,,,,,,,,,,
dig,141,539618,0.0-46.0-3.0,"""event"",""trial"",""time""
""fullscreenenter"",""1"",""1525""
","
","
","""event"",""trial"",""time""
""fullscreenenter"",""1"",""1525""
","
",,,,,,,,,,,,"[{""stimulus"":""run_exp/static/images/task_images/dig.jpg"",""time"":0.30000001192092896},{""stimulus"":""run_exp/static/images/task_images/land.jpg"",""time"":674.8000000119209},{""stimulus"":""run_exp/static/images/task_images/dig.jpg"",""time"":1342.5}]",[],6,,,,,,,,,,,,,,
harvest,142,540622,0.0-46.0-4.0,"""event"",""trial"",""time""
""fullscreenenter"",""1"",""1525""
","
","
","""event"",""trial"",""time""
""fullscreenenter"",""1"",""1525""
","
",,null,run_exp/static/images/task_images/gems/101.jpg,null,,,,,,,73,,,6,,,,,101,0.718949157,0.722772277,,,,,,,
decision,143,540985,0.0-46.0-5.0,"""event"",""trial"",""time""
""fullscreenenter"",""1"",""1525""
","
","
","""event"",""trial"",""time""
""fullscreenenter"",""1"",""1525""
","
",,361.4,run_exp/static/images/task_images/land.jpg,65,,,,,,,73,,,6,,,,,,,,145820,1,0,FALSE,,,
dig,144,543634,0.0-47.0-0.0,"""event"",""trial"",""time""
""fullscreenenter"",""1"",""1525""
","
","
","""event"",""trial"",""time""
""fullscreenenter"",""1"",""1525""
","
",,,,,,,,,,,,"[{""stimulus"":""run_exp/static/images/task_images/dig.jpg"",""time"":0.09999996423721313},{""stimulus"":""run_exp/static/images/task_images/land.jpg"",""time"":882.6999999880791},{""stimulus"":""run_exp/static/images/task_images/dig.jpg"",""time"":1762.699999988079}]",[],6,,,,,,,,,,,,,,
harvest,145,544642,0.0-47.0-1.0,"""event"",""trial"",""time""
""fullscreenenter"",""1"",""1525""
","
","
","""event"",""trial"",""time""
""fullscreenenter"",""1"",""1525""
","
",,null,run_exp/static/images/task_images/gems/73.jpg,null,,,,,,,58,,,6,,,,,73,0.79357176,0.794520548,,,,,,,
decision,146,544864,0.0-47.0-2.0,"""event"",""trial"",""time""
""fullscreenenter"",""1"",""1525""
","
","
","""event"",""trial"",""time""
""fullscreenenter"",""1"",""1525""
","
",,221.5,run_exp/static/images/task_images/land.jpg,65,,,,,,,58,,,6,,,,,,,,149700,1,1,FALSE,,,
dig,147,547658,0.0-48.0-0.0,"""event"",""trial"",""time""
""fullscreenenter"",""1"",""1525""
","
","
","""event"",""trial"",""time""
""fullscreenenter"",""1"",""1525""
","
",,,,,,,,,,,,"[{""stimulus"":""run_exp/static/images/task_images/dig.jpg"",""time"":0.19999998807907104},{""stimulus"":""run_exp/static/images/task_images/land.jpg"",""time"":931.2999999523163},{""stimulus"":""run_exp/static/images/task_images/dig.jpg"",""time"":1863.2999999523163}]",[],6,,,,,,,,,,,,,,
harvest,148,548666,0.0-48.0-1.0,"""event"",""trial"",""time""
""fullscreenenter"",""1"",""1525""
","
","
","""event"",""trial"",""time""
""fullscreenenter"",""1"",""1525""
","
",,null,run_exp/static/images/task_images/gems/58.jpg,null,,,,,,,48,,,6,,,,,58,0.832412881,0.827586207,,,,,,,
decision,149,548923,0.0-48.0-2.0,"""event"",""trial"",""time""
""fullscreenenter"",""1"",""1525""
","
","
","""event"",""trial"",""time""
""fullscreenenter"",""1"",""1525""
","
",,255,run_exp/static/images/task_images/land.jpg,65,,,,,,,48,,,6,,,,,,,,153758,1,2,FALSE,,,
dig,150,551678,0.0-49.0-0.0,"""event"",""trial"",""time""
""fullscreenenter"",""1"",""1525""
","
","
","""event"",""trial"",""time""
""fullscreenenter"",""1"",""1525""
","
",,,,,,,,,,,,"[{""stimulus"":""run_exp/static/images/task_images/dig.jpg"",""time"":0.19999998807907104},{""stimulus"":""run_exp/static/images/task_images/land.jpg"",""time"":924.8000000119209},{""stimulus"":""run_exp/static/images/task_images/dig.jpg"",""time"":1836.8999999761581}]",[],6,,,,,,,,,,,,,,
harvest,151,552687,0.0-49.0-1.0,"""event"",""trial"",""time""
""fullscreenenter"",""1"",""1525""
","
","
","""event"",""trial"",""time""
""fullscreenenter"",""1"",""1525""
","
",,null,run_exp/static/images/task_images/gems/48.jpg,null,,,,,,,40,,,6,,,,,48,0.827309123,0.833333333,,,,,,,
decision,152,552962,0.0-49.0-2.0,"""event"",""trial"",""time""
""fullscreenenter"",""1"",""1525""
","
","
","""event"",""trial"",""time""
""fullscreenenter"",""1"",""1525""
","
",,274.4,run_exp/static/images/task_images/land.jpg,65,,,,,,,40,,,6,,,,,,,,157797,1,3,FALSE,,,
dig,153,555694,0.0-50.0-0.0,"""event"",""trial"",""time""
""fullscreenenter"",""1"",""1525""
","
","
","""event"",""trial"",""time""
""fullscreenenter"",""1"",""1525""
","
",,,,,,,,,,,,"[{""stimulus"":""run_exp/static/images/task_images/dig.jpg"",""time"":0.20000004768371582},{""stimulus"":""run_exp/static/images/task_images/land.jpg"",""time"":917.1000000238419},{""stimulus"":""run_exp/static/images/task_images/dig.jpg"",""time"":1826.9000000357628}]",[],6,,,,,,,,,,,,,,
harvest,154,556705,0.0-50.0-1.0,"""event"",""trial"",""time""
""fullscreenenter"",""1"",""1525""
","
","
","""event"",""trial"",""time""
""fullscreenenter"",""1"",""1525""
","
",,null,run_exp/static/images/task_images/gems/40.jpg,null,,,,,,,30,,,6,,,,,40,0.757679357,0.75,,,,,,,
decision,155,556724,0.0-50.0-2.0,"""event"",""trial"",""time""
""fullscreenenter"",""1"",""1525""
","
","
","""event"",""trial"",""time""
""fullscreenenter"",""1"",""1525""
","
",,17.10000002,run_exp/static/images/task_images/land.jpg,65,,,,,,,30,,,6,,,,,,,,161559,1,4,FALSE,,,
dig,156,559723,0.0-51.0-0.0,"""event"",""trial"",""time""
""fullscreenenter"",""1"",""1525""
","
","
","""event"",""trial"",""time""
""fullscreenenter"",""1"",""1525""
","
",,,,,,,,,,,,"[{""stimulus"":""run_exp/static/images/task_images/dig.jpg"",""time"":0.20000004768371582},{""stimulus"":""run_exp/static/images/task_images/land.jpg"",""time"":999.4000000357628},{""stimulus"":""run_exp/static/images/task_images/dig.jpg"",""time"":1991.4000000357628}]",[],6,,,,,,,,,,,,,,
harvest,157,560729,0.0-51.0-1.0,"""event"",""trial"",""time""
""fullscreenenter"",""1"",""1525""
","
","
","""event"",""trial"",""time""
""fullscreenenter"",""1"",""1525""
","
",,null,run_exp/static/images/task_images/gems/30.jpg,null,,,,,,,24,,,6,,,,,30,0.813763645,0.8,,,,,,,
decision,158,560856,0.0-51.0-2.0,"""event"",""trial"",""time""
""fullscreenenter"",""1"",""1525""
","
","
","""event"",""trial"",""time""
""fullscreenenter"",""1"",""1525""
","
",,125.6,run_exp/static/images/task_images/land.jpg,65,,,,,,,24,,,6,,,,,,,,165691,1,5,FALSE,,,
dig,159,563738,0.0-52.0-0.0,"""event"",""trial"",""time""
""fullscreenenter"",""1"",""1525""
","
","
","""event"",""trial"",""time""
""fullscreenenter"",""1"",""1525""
","
",,,,,,,,,,,,"[{""stimulus"":""run_exp/static/images/task_images/dig.jpg"",""time"":0.19999998807907104},{""stimulus"":""run_exp/static/images/task_images/land.jpg"",""time"":965.1999999880791},{""stimulus"":""run_exp/static/images/task_images/dig.jpg"",""time"":1923.7999999523163}]",[],6,,,,,,,,,,,,,,
harvest,160,564743,0.0-52.0-1.0,"""event"",""trial"",""time""
""fullscreenenter"",""1"",""1525""
","
","
","""event"",""trial"",""time""
""fullscreenenter"",""1"",""1525""
","
",,null,run_exp/static/images/task_images/gems/24.jpg,null,,,,,,,20,,,6,,,,,24,0.825045895,0.833333333,,,,,,,
decision,161,565000,0.0-52.0-2.0,"""event"",""trial"",""time""
""fullscreenenter"",""1"",""1525""
","
","
","""event"",""trial"",""time""
""fullscreenenter"",""1"",""1525""
","
",,255.7,run_exp/static/images/task_images/land.jpg,76,,,,,,,20,,,6,,,,,,,,169835,1,6,TRUE,,,
travel,162,574755,0.0-53.0-0.0,"""event"",""trial"",""time""
""fullscreenenter"",""1"",""1525""
","
","
","""event"",""trial"",""time""
""fullscreenenter"",""1"",""1525""
","
",,,,,,,,,,,,"[{""stimulus"":""run_exp/static/images/task_images/rocket-01.jpg"",""time"":0.19999998807907104},{""stimulus"":""run_exp/static/images/task_images/rocket-02.jpg"",""time"":1094.1000000238419},{""stimulus"":""run_exp/static/images/task_images/rocket-03.jpg"",""time"":2175.399999976158},{""stimulus"":""run_exp/static/images/task_images/rocket-04.jpg"",""time"":3253.300000011921},{""stimulus"":""run_exp/static/images/task_images/rocket-05.jpg"",""time"":4333.699999988079},{""stimulus"":""run_exp/static/images/task_images/rocket-06.jpg"",""time"":5419.800000011921},{""stimulus"":""run_exp/static/images/task_images/rocket-07.jpg"",""time"":6503.399999976158},{""stimulus"":""run_exp/static/images/task_images/rocket-08.jpg"",""time"":7583.699999988079},{""stimulus"":""run_exp/static/images/task_images/rocket-09.jpg"",""time"":8663.300000011921}]",[],6,,,,,,,,,,,,,,
alien_welcome,163,579759,0.0-53.0-1.0,"""event"",""trial"",""time""
""fullscreenenter"",""1"",""1525""
","
","
","""event"",""trial"",""time""
""fullscreenenter"",""1"",""1525""
","
",,null,run_exp/static/images/task_images/aliens/old_aliens/planet/alien_planet-60.jpg,null,,,,,,,,,,,,,60,"13,55,3,74,57,66,60,8,39,68,20,80,77,75,6,34,26,76,70,65,32,33,17,78,61,18,27,45,29,7,59,1,62,25,79,41,36",,,,,,,,,,
land,164,580263,0.0-53.0-2.0,"""event"",""trial"",""time""
""fullscreenenter"",""1"",""1525""
","
","
","""event"",""trial"",""time""
""fullscreenenter"",""1"",""1525""
","
",,null,run_exp/static/images/task_images/land.jpg,null,,,,,,,115,,,7,,,,,,,,,,,,,,
dig,165,582273,0.0-53.0-3.0,"""event"",""trial"",""time""
""fullscreenenter"",""1"",""1525""
","
","
","""event"",""trial"",""time""
""fullscreenenter"",""1"",""1525""
","
",,,,,,,,,,,,"[{""stimulus"":""run_exp/static/images/task_images/dig.jpg"",""time"":0.5},{""stimulus"":""run_exp/static/images/task_images/land.jpg"",""time"":671.1000000238419},{""stimulus"":""run_exp/static/images/task_images/dig.jpg"",""time"":1342.6000000238419}]",[],7,,,,,,,,,,,,,,
harvest,166,583279,0.0-53.0-4.0,"""event"",""trial"",""time""
""fullscreenenter"",""1"",""1525""
","
","
","""event"",""trial"",""time""
""fullscreenenter"",""1"",""1525""
","
",,null,run_exp/static/images/task_images/gems/115.jpg,null,,,,,,,89,,,7,,,,,115,0.772910407,0.773913043,,,,,,,
decision,167,583570,0.0-53.0-5.0,"""event"",""trial"",""time""
""fullscreenenter"",""1"",""1525""
","
","
","""event"",""trial"",""time""
""fullscreenenter"",""1"",""1525""
","
",,289.3,run_exp/static/images/task_images/land.jpg,65,,,,,,,89,,,7,,,,,,,,188405,1,0,FALSE,,,
dig,168,586291,0.0-54.0-0.0,"""event"",""trial"",""time""
""fullscreenenter"",""1"",""1525""
","
","
","""event"",""trial"",""time""
""fullscreenenter"",""1"",""1525""
","
",,,,,,,,,,,,"[{""stimulus"":""run_exp/static/images/task_images/dig.jpg"",""time"":0.30000001192092896},{""stimulus"":""run_exp/static/images/task_images/land.jpg"",""time"":910.6000000238419},{""stimulus"":""run_exp/static/images/task_images/dig.jpg"",""time"":1810.300000011921}]",[],7,,,,,,,,,,,,,,
harvest,169,587297,0.0-54.0-1.0,"""event"",""trial"",""time""
""fullscreenenter"",""1"",""1525""
","
","
","""event"",""trial"",""time""
""fullscreenenter"",""1"",""1525""
","
",,null,run_exp/static/images/task_images/gems/89.jpg,null,,,,,,,59,,,7,,,,,89,0.659939185,0.662921348,,,,,,,
decision,170,587392,0.0-54.0-2.0,"""event"",""trial"",""time""
""fullscreenenter"",""1"",""1525""
","
","
","""event"",""trial"",""time""
""fullscreenenter"",""1"",""1525""
","
",,94.10000002,run_exp/static/images/task_images/land.jpg,65,,,,,,,59,,,7,,,,,,,,192227,1,1,FALSE,,,
dig,171,590307,0.0-55.0-0.0,"""event"",""trial"",""time""
""fullscreenenter"",""1"",""1525""
","
","
","""event"",""trial"",""time""
""fullscreenenter"",""1"",""1525""
","
",,,,,,,,,,,,"[{""stimulus"":""run_exp/static/images/task_images/dig.jpg"",""time"":0.19999998807907104},{""stimulus"":""run_exp/static/images/task_images/land.jpg"",""time"":971.5},{""stimulus"":""run_exp/static/images/task_images/dig.jpg"",""time"":1939.199999988079}]",[],7,,,,,,,,,,,,,,
harvest,172,591314,0.0-55.0-1.0,"""event"",""trial"",""time""
""fullscreenenter"",""1"",""1525""
","
","
","""event"",""trial"",""time""
""fullscreenenter"",""1"",""1525""
","
",,null,run_exp/static/images/task_images/gems/59.jpg,null,,,,,,,52,,,7,,,,,59,0.879226139,0.881355932,,,,,,,
decision,173,591339,0.0-55.0-2.0,"""event"",""trial"",""time""
""fullscreenenter"",""1"",""1525""
","
","
","""event"",""trial"",""time""
""fullscreenenter"",""1"",""1525""
","
",,24.10000002,run_exp/static/images/task_images/land.jpg,65,,,,,,,52,,,7,,,,,,,,196174,1,2,FALSE,,,
dig,174,594323,0.0-56.0-0.0,"""event"",""trial"",""time""
""fullscreenenter"",""1"",""1525""
","
","
","""event"",""trial"",""time""
""fullscreenenter"",""1"",""1525""
","
",,,,,,,,,,,,"[{""stimulus"":""run_exp/static/images/task_images/dig.jpg"",""time"":0.19999998807907104},{""stimulus"":""run_exp/static/images/task_images/land.jpg"",""time"":995.1999999880791},{""stimulus"":""run_exp/static/images/task_images/dig.jpg"",""time"":1989.5}]",[],7,,,,,,,,,,,,,,
harvest,175,595327,0.0-56.0-1.0,"""event"",""trial"",""time""
""fullscreenenter"",""1"",""1525""
","
","
","""event"",""trial"",""time""
""fullscreenenter"",""1"",""1525""
","
",,null,run_exp/static/images/task_images/gems/52.jpg,null,,,,,,,42,,,7,,,,,52,0.812285223,0.807692308,,,,,,,
decision,176,595514,0.0-56.0-2.0,"""event"",""trial"",""time""
""fullscreenenter"",""1"",""1525""
","
","
","""event"",""trial"",""time""
""fullscreenenter"",""1"",""1525""
","
",,185.5,run_exp/static/images/task_images/land.jpg,65,,,,,,,42,,,7,,,,,,,,200349,1,3,FALSE,,,
dig,177,598334,0.0-57.0-0.0,"""event"",""trial"",""time""
""fullscreenenter"",""1"",""1525""
","
","
","""event"",""trial"",""time""
""fullscreenenter"",""1"",""1525""
","
",,,,,,,,,,,,"[{""stimulus"":""run_exp/static/images/task_images/dig.jpg"",""time"":0.09999996423721313},{""stimulus"":""run_exp/static/images/task_images/land.jpg"",""time"":945.1999999880791},{""stimulus"":""run_exp/static/images/task_images/dig.jpg"",""time"":1882.199999988079}]",[],7,,,,,,,,,,,,,,
harvest,178,599344,0.0-57.0-1.0,"""event"",""trial"",""time""
""fullscreenenter"",""1"",""1525""
","
","
","""event"",""trial"",""time""
""fullscreenenter"",""1"",""1525""
","
",,null,run_exp/static/images/task_images/gems/42.jpg,null,,,,,,,31,,,7,,,,,42,0.739251691,0.738095238,,,,,,,
decision,179,599656,0.0-57.0-2.0,"""event"",""trial"",""time""
""fullscreenenter"",""1"",""1525""
","
","
","""event"",""trial"",""time""
""fullscreenenter"",""1"",""1525""
","
",,310.7,run_exp/static/images/task_images/land.jpg,65,,,,,,,31,,,7,,,,,,,,204491,1,4,FALSE,,,
dig,180,602355,0.0-58.0-0.0,"""event"",""trial"",""time""
""fullscreenenter"",""1"",""1525""
","
","
","""event"",""trial"",""time""
""fullscreenenter"",""1"",""1525""
","
",,,,,,,,,,,,"[{""stimulus"":""run_exp/static/images/task_images/dig.jpg"",""time"":0.09999996423721313},{""stimulus"":""run_exp/static/images/task_images/land.jpg"",""time"":903.6999999880791},{""stimulus"":""run_exp/static/images/task_images/dig.jpg"",""time"":1795.699999988079}]",[],7,,,,,,,,,,,,,,
harvest,181,603360,0.0-58.0-1.0,"""event"",""trial"",""time""
""fullscreenenter"",""1"",""1525""
","
","
","""event"",""trial"",""time""
""fullscreenenter"",""1"",""1525""
","
",,null,run_exp/static/images/task_images/gems/31.jpg,null,,,,,,,25,,,7,,,,,31,0.821270299,0.806451613,,,,,,,
decision,182,603702,0.0-58.0-2.0,"""event"",""trial"",""time""
""fullscreenenter"",""1"",""1525""
","
","
","""event"",""trial"",""time""
""fullscreenenter"",""1"",""1525""
","
",,340.7,run_exp/static/images/task_images/land.jpg,76,,,,,,,25,,,7,,,,,,,,208537,1,5,TRUE,,,
travel,183,613368,0.0-59.0-0.0,"""event"",""trial"",""time""
""fullscreenenter"",""1"",""1525""
","
","
","""event"",""trial"",""time""
""fullscreenenter"",""1"",""1525""
","
",,,,,,,,,,,,"[{""stimulus"":""run_exp/static/images/task_images/rocket-01.jpg"",""time"":0.19999998807907104},{""stimulus"":""run_exp/static/images/task_images/rocket-02.jpg"",""time"":1079.699999988079},{""stimulus"":""run_exp/static/images/task_images/rocket-03.jpg"",""time"":2152.5},{""stimulus"":""run_exp/static/images/task_images/rocket-04.jpg"",""time"":3231.5},{""stimulus"":""run_exp/static/images/task_images/rocket-05.jpg"",""time"":4294.699999988079},{""stimulus"":""run_exp/static/images/task_images/rocket-06.jpg"",""time"":5374.300000011921},{""stimulus"":""run_exp/static/images/task_images/rocket-07.jpg"",""time"":6451},{""stimulus"":""run_exp/static/images/task_images/rocket-08.jpg"",""time"":7519.199999988079},{""stimulus"":""run_exp/static/images/task_images/rocket-09.jpg"",""time"":8595}]",[],7,,,,,,,,,,,,,,
alien_welcome,184,618380,0.0-59.0-1.0,"""event"",""trial"",""time""
""fullscreenenter"",""1"",""1525""
","
","
","""event"",""trial"",""time""
""fullscreenenter"",""1"",""1525""
","
",,null,run_exp/static/images/task_images/aliens/old_aliens/planet/alien_planet-8.jpg,null,,,,,,,,,,,,,8,"13,55,3,74,57,66,60,8,39,68,20,80,77,75,6,34,26,76,70,65,32,33,17,78,61,18,27,45,29,7,59,1,62,25,79,41,36",,,,,,,,,,
land,185,618890,0.0-59.0-2.0,"""event"",""trial"",""time""
""fullscreenenter"",""1"",""1525""
","
","
","""event"",""trial"",""time""
""fullscreenenter"",""1"",""1525""
","
",,null,run_exp/static/images/task_images/land.jpg,null,,,,,,,102,,,8,,,,,,,,,,,,,,
dig,186,620896,0.0-59.0-3.0,"""event"",""trial"",""time""
""fullscreenenter"",""1"",""1525""
","
","
","""event"",""trial"",""time""
""fullscreenenter"",""1"",""1525""
","
",,,,,,,,,,,,"[{""stimulus"":""run_exp/static/images/task_images/dig.jpg"",""time"":0.30000001192092896},{""stimulus"":""run_exp/static/images/task_images/land.jpg"",""time"":680.6999999880791},{""stimulus"":""run_exp/static/images/task_images/dig.jpg"",""time"":1345}]",[],8,,,,,,,,,,,,,,
harvest,187,621908,0.0-59.0-4.0,"""event"",""trial"",""time""
""fullscreenenter"",""1"",""1525""
","
","
","""event"",""trial"",""time""
""fullscreenenter"",""1"",""1525""
","
",,null,run_exp/static/images/task_images/gems/102.jpg,null,,,,,,,70,,,8,,,,,102,0.684306726,0.68627451,,,,,,,
decision,188,622176,0.0-59.0-5.0,"""event"",""trial"",""time""
""fullscreenenter"",""1"",""1525""
","
","
","""event"",""trial"",""time""
""fullscreenenter"",""1"",""1525""
","
",,266,run_exp/static/images/task_images/land.jpg,65,,,,,,,70,,,8,,,,,,,,227011,1,0,FALSE,,,
dig,189,624920,0.0-60.0-0.0,"""event"",""trial"",""time""
""fullscreenenter"",""1"",""1525""
","
","
","""event"",""trial"",""time""
""fullscreenenter"",""1"",""1525""
","
",,,,,,,,,,,,"[{""stimulus"":""run_exp/static/images/task_images/dig.jpg"",""time"":0.2999999523162842},{""stimulus"":""run_exp/static/images/task_images/land.jpg"",""time"":921.6999999880791},{""stimulus"":""run_exp/static/images/task_images/dig.jpg"",""time"":1829.3999999761581}]",[],8,,,,,,,,,,,,,,
harvest,190,625932,0.0-60.0-1.0,"""event"",""trial"",""time""
""fullscreenenter"",""1"",""1525""
","
","
","""event"",""trial"",""time""
""fullscreenenter"",""1"",""1525""
","
",,null,run_exp/static/images/task_images/gems/70.jpg,null,,,,,,,59,,,8,,,,,70,0.840345262,0.842857143,,,,,,,
decision,191,626024,0.0-60.0-2.0,"""event"",""trial"",""time""
""fullscreenenter"",""1"",""1525""
","
","
","""event"",""trial"",""time""
""fullscreenenter"",""1"",""1525""
","
",,90.30000001,run_exp/static/images/task_images/land.jpg,65,,,,,,,59,,,8,,,,,,,,230859,1,1,FALSE,,,
dig,192,628948,0.0-61.0-0.0,"""event"",""trial"",""time""
""fullscreenenter"",""1"",""1525""
","
","
","""event"",""trial"",""time""
""fullscreenenter"",""1"",""1525""
","
",,,,,,,,,,,,"[{""stimulus"":""run_exp/static/images/task_images/dig.jpg"",""time"":0.19999998807907104},{""stimulus"":""run_exp/static/images/task_images/land.jpg"",""time"":972.7999999523163},{""stimulus"":""run_exp/static/images/task_images/dig.jpg"",""time"":1944.699999988079}]",[],8,,,,,,,,,,,,,,
harvest,193,629952,0.0-61.0-1.0,"""event"",""trial"",""time""
""fullscreenenter"",""1"",""1525""
","
","
","""event"",""trial"",""time""
""fullscreenenter"",""1"",""1525""
","
",,null,run_exp/static/images/task_images/gems/59.jpg,null,,,,,,,48,,,8,,,,,59,0.817690599,0.813559322,,,,,,,
decision,194,630009,0.0-61.0-2.0,"""event"",""trial"",""time""
""fullscreenenter"",""1"",""1525""
","
","
","""event"",""trial"",""time""
""fullscreenenter"",""1"",""1525""
","
",,55.39999998,run_exp/static/images/task_images/land.jpg,65,,,,,,,48,,,8,,,,,,,,234844,1,2,FALSE,,,
dig,195,632963,0.0-62.0-0.0,"""event"",""trial"",""time""
""fullscreenenter"",""1"",""1525""
","
","
","""event"",""trial"",""time""
""fullscreenenter"",""1"",""1525""
","
",,,,,,,,,,,,"[{""stimulus"":""run_exp/static/images/task_images/dig.jpg"",""time"":0.19999998807907104},{""stimulus"":""run_exp/static/images/task_images/land.jpg"",""time"":992.6999999880791},{""stimulus"":""run_exp/static/images/task_images/dig.jpg"",""time"":1964.699999988079}]",[],8,,,,,,,,,,,,,,
harvest,196,633969,0.0-62.0-1.0,"""event"",""trial"",""time""
""fullscreenenter"",""1"",""1525""
","
","
","""event"",""trial"",""time""
""fullscreenenter"",""1"",""1525""
","
",,null,run_exp/static/images/task_images/gems/48.jpg,null,,,,,,,39,,,8,,,,,48,0.812357397,0.8125,,,,,,,
decision,197,634048,0.0-62.0-2.0,"""event"",""trial"",""time""
""fullscreenenter"",""1"",""1525""
","
","
","""event"",""trial"",""time""
""fullscreenenter"",""1"",""1525""
","
",,76.40000004,run_exp/static/images/task_images/land.jpg,65,,,,,,,39,,,8,,,,,,,,238883,1,3,FALSE,,,
dig,198,636980,0.0-63.0-0.0,"""event"",""trial"",""time""
""fullscreenenter"",""1"",""1525""
","
","
","""event"",""trial"",""time""
""fullscreenenter"",""1"",""1525""
","
",,,,,,,,,,,,"[{""stimulus"":""run_exp/static/images/task_images/dig.jpg"",""time"":0.30000001192092896},{""stimulus"":""run_exp/static/images/task_images/land.jpg"",""time"":984.8999999761581},{""stimulus"":""run_exp/static/images/task_images/dig.jpg"",""time"":1961.199999988079}]",[],8,,,,,,,,,,,,,,
harvest,199,637984,0.0-63.0-1.0,"""event"",""trial"",""time""
""fullscreenenter"",""1"",""1525""
","
","
","""event"",""trial"",""time""
""fullscreenenter"",""1"",""1525""
","
",,null,run_exp/static/images/task_images/gems/39.jpg,null,,,,,,,32,,,8,,,,,39,0.832421213,0.820512821,,,,,,,
decision,200,638098,0.0-63.0-2.0,"""event"",""trial"",""time""
""fullscreenenter"",""1"",""1525""
","
","
","""event"",""trial"",""time""
""fullscreenenter"",""1"",""1525""
","
",,112,run_exp/static/images/task_images/land.jpg,65,,,,,,,32,,,8,,,,,,,,242933,1,4,FALSE,,,
dig,201,640997,0.0-64.0-0.0,"""event"",""trial"",""time""
""fullscreenenter"",""1"",""1525""
","
","
","""event"",""trial"",""time""
""fullscreenenter"",""1"",""1525""
","
",,,,,,,,,,,,"[{""stimulus"":""run_exp/static/images/task_images/dig.jpg"",""time"":0.19999998807907104},{""stimulus"":""run_exp/static/images/task_images/land.jpg"",""time"":973.1999999880791},{""stimulus"":""run_exp/static/images/task_images/dig.jpg"",""time"":1935.4000000357628}]",[],8,,,,,,,,,,,,,,
harvest,202,642000,0.0-64.0-1.0,"""event"",""trial"",""time""
""fullscreenenter"",""1"",""1525""
","
","
","""event"",""trial"",""time""
""fullscreenenter"",""1"",""1525""
","
",,null,run_exp/static/images/task_images/gems/32.jpg,null,,,,,,,24,,,8,,,,,32,0.746597793,0.75,,,,,,,
decision,203,642240,0.0-64.0-2.0,"""event"",""trial"",""time""
""fullscreenenter"",""1"",""1525""
","
","
","""event"",""trial"",""time""
""fullscreenenter"",""1"",""1525""
","
",,237.7,run_exp/static/images/task_images/land.jpg,65,,,,,,,24,,,8,,,,,,,,247075,1,5,FALSE,,,
dig,204,645013,0.0-65.0-0.0,"""event"",""trial"",""time""
""fullscreenenter"",""1"",""1525""
","
","
","""event"",""trial"",""time""
""fullscreenenter"",""1"",""1525""
","
",,,,,,,,,,,,"[{""stimulus"":""run_exp/static/images/task_images/dig.jpg"",""time"":0.19999998807907104},{""stimulus"":""run_exp/static/images/task_images/land.jpg"",""time"":929.5},{""stimulus"":""run_exp/static/images/task_images/dig.jpg"",""time"":1845.300000011921}]",[],8,,,,,,,,,,,,,,
harvest,205,646021,0.0-65.0-1.0,"""event"",""trial"",""time""
""fullscreenenter"",""1"",""1525""
","
","
","""event"",""trial"",""time""
""fullscreenenter"",""1"",""1525""
","
",,null,run_exp/static/images/task_images/gems/24.jpg,null,,,,,,,20,,,8,,,,,24,0.824983743,0.833333333,,,,,,,
decision,206,646280,0.0-65.0-2.0,"""event"",""trial"",""time""
""fullscreenenter"",""1"",""1525""
","
","
","""event"",""trial"",""time""
""fullscreenenter"",""1"",""1525""
","
",,258,run_exp/static/images/task_images/land.jpg,76,,,,,,,20,,,8,,,,,,,,251115,1,6,TRUE,,,
travel,207,656025,0.0-66.0-0.0,"""event"",""trial"",""time""
""fullscreenenter"",""1"",""1525""
","
","
","""event"",""trial"",""time""
""fullscreenenter"",""1"",""1525""
","
",,,,,,,,,,,,"[{""stimulus"":""run_exp/static/images/task_images/rocket-01.jpg"",""time"":0.10000002384185791},{""stimulus"":""run_exp/static/images/task_images/rocket-02.jpg"",""time"":1084.800000011921},{""stimulus"":""run_exp/static/images/task_images/rocket-03.jpg"",""time"":2175.300000011921},{""stimulus"":""run_exp/static/images/task_images/rocket-04.jpg"",""time"":3257.5},{""stimulus"":""run_exp/static/images/task_images/rocket-05.jpg"",""time"":4334.800000011921},{""stimulus"":""run_exp/static/images/task_images/rocket-06.jpg"",""time"":5413.300000011921},{""stimulus"":""run_exp/static/images/task_images/rocket-07.jpg"",""time"":6504.899999976158},{""stimulus"":""run_exp/static/images/task_images/rocket-08.jpg"",""time"":7585.5},{""stimulus"":""run_exp/static/images/task_images/rocket-09.jpg"",""time"":8664.5}]",[],8,,,,,,,,,,,,,,
alien_welcome,208,661037,0.0-66.0-1.0,"""event"",""trial"",""time""
""fullscreenenter"",""1"",""1525""
","
","
","""event"",""trial"",""time""
""fullscreenenter"",""1"",""1525""
","
",,null,run_exp/static/images/task_images/aliens/old_aliens/planet/alien_planet-39.jpg,null,,,,,,,,,,,,,39,"13,55,3,74,57,66,60,8,39,68,20,80,77,75,6,34,26,76,70,65,32,33,17,78,61,18,27,45,29,7,59,1,62,25,79,41,36",,,,,,,,,,
land,209,661549,0.0-66.0-2.0,"""event"",""trial"",""time""
""fullscreenenter"",""1"",""1525""
","
","
","""event"",""trial"",""time""
""fullscreenenter"",""1"",""1525""
","
",,null,run_exp/static/images/task_images/land.jpg,null,,,,,,,97,,,9,,,,,,,,,,,,,,
dig,210,663565,0.0-66.0-3.0,"""event"",""trial"",""time""
""fullscreenenter"",""1"",""1525""
","
","
","""event"",""trial"",""time""
""fullscreenenter"",""1"",""1525""
","
",,,,,,,,,,,,"[{""stimulus"":""run_exp/static/images/task_images/dig.jpg"",""time"":0.30000001192092896},{""stimulus"":""run_exp/static/images/task_images/land.jpg"",""time"":677.6999999880791},{""stimulus"":""run_exp/static/images/task_images/dig.jpg"",""time"":1342.5}]",[],9,,,,,,,,,,,,,,
harvest,211,664569,0.0-66.0-4.0,"""event"",""trial"",""time""
""fullscreenenter"",""1"",""1525""
","
","
","""event"",""trial"",""time""
""fullscreenenter"",""1"",""1525""
","
",,null,run_exp/static/images/task_images/gems/97.jpg,null,,,,,,,21,,,9,,,,,97,0.213907397,0.216494845,,,,,,,
decision,212,664888,0.0-66.0-5.0,"""event"",""trial"",""time""
""fullscreenenter"",""1"",""1525""
","
","
","""event"",""trial"",""time""
""fullscreenenter"",""1"",""1525""
","
",,316.9,run_exp/static/images/task_images/land.jpg,65,,,,,,,21,,,9,,,,,,,,269723,1,0,FALSE,,,
dig,213,667576,0.0-67.0-0.0,"""event"",""trial"",""time""
""fullscreenenter"",""1"",""1525""
","
","
","""event"",""trial"",""time""
""fullscreenenter"",""1"",""1525""
","
",,,,,,,,,,,,"[{""stimulus"":""run_exp/static/images/task_images/dig.jpg"",""time"":0.10000002384185791},{""stimulus"":""run_exp/static/images/task_images/land.jpg"",""time"":902.4000000357628},{""stimulus"":""run_exp/static/images/task_images/dig.jpg"",""time"":1791.199999988079}]",[],9,,,,,,,,,,,,,,
harvest,214,668589,0.0-67.0-1.0,"""event"",""trial"",""time""
""fullscreenenter"",""1"",""1525""
","
","
","""event"",""trial"",""time""
""fullscreenenter"",""1"",""1525""
","
",,null,run_exp/static/images/task_images/gems/21.jpg,null,,,,,,,5,,,9,,,,,21,0.247539919,0.238095238,,,,,,,
decision,215,668829,0.0-67.0-2.0,"""event"",""trial"",""time""
""fullscreenenter"",""1"",""1525""
","
","
","""event"",""trial"",""time""
""fullscreenenter"",""1"",""1525""
","
",,238.1,run_exp/static/images/task_images/land.jpg,76,,,,,,,5,,,9,,,,,,,,273664,1,1,TRUE,,,
travel,216,678593,0.0-68.0-0.0,"""event"",""trial"",""time""
""fullscreenenter"",""1"",""1525""
","
","
","""event"",""trial"",""time""
""fullscreenenter"",""1"",""1525""
","
",,,,,,,,,,,,"[{""stimulus"":""run_exp/static/images/task_images/rocket-01.jpg"",""time"":0.2999999523162842},{""stimulus"":""run_exp/static/images/task_images/rocket-02.jpg"",""time"":1091.2999999523163},{""stimulus"":""run_exp/static/images/task_images/rocket-03.jpg"",""time"":2170.099999964237},{""stimulus"":""run_exp/static/images/task_images/rocket-04.jpg"",""time"":3258.099999964237},{""stimulus"":""run_exp/static/images/task_images/rocket-05.jpg"",""time"":4342.199999988079},{""stimulus"":""run_exp/static/images/task_images/rocket-06.jpg"",""time"":5425.399999976158},{""stimulus"":""run_exp/static/images/task_images/rocket-07.jpg"",""time"":6508},{""stimulus"":""run_exp/static/images/task_images/rocket-08.jpg"",""time"":7594.699999988079},{""stimulus"":""run_exp/static/images/task_images/rocket-09.jpg"",""time"":8676.099999964237}]",[],9,,,,,,,,,,,,,,
alien_welcome,217,683606,0.0-68.0-1.0,"""event"",""trial"",""time""
""fullscreenenter"",""1"",""1525""
","
","
","""event"",""trial"",""time""
""fullscreenenter"",""1"",""1525""
","
",,null,run_exp/static/images/task_images/aliens/old_aliens/planet/alien_planet-68.jpg,null,,,,,,,,,,,,,68,"13,55,3,74,57,66,60,8,39,68,20,80,77,75,6,34,26,76,70,65,32,33,17,78,61,18,27,45,29,7,59,1,62,25,79,41,36",,,,,,,,,,
land,218,684114,0.0-68.0-2.0,"""event"",""trial"",""time""
""fullscreenenter"",""1"",""1525""
","
","
","""event"",""trial"",""time""
""fullscreenenter"",""1"",""1525""
","
",,null,run_exp/static/images/task_images/land.jpg,null,,,,,,,101,,,10,,,,,,,,,,,,,,
dig,219,686122,0.0-68.0-3.0,"""event"",""trial"",""time""
""fullscreenenter"",""1"",""1525""
","
","
","""event"",""trial"",""time""
""fullscreenenter"",""1"",""1525""
","
",,,,,,,,,,,,"[{""stimulus"":""run_exp/static/images/task_images/dig.jpg"",""time"":0.40000003576278687},{""stimulus"":""run_exp/static/images/task_images/land.jpg"",""time"":674.1000000238419},{""stimulus"":""run_exp/static/images/task_images/dig.jpg"",""time"":1342.1000000238419}]",[],10,,,,,,,,,,,,,,
harvest,220,687130,0.0-68.0-4.0,"""event"",""trial"",""time""
""fullscreenenter"",""1"",""1525""
","
","
","""event"",""trial"",""time""
""fullscreenenter"",""1"",""1525""
","
",,null,run_exp/static/images/task_images/gems/101.jpg,null,,,,,,,22,,,10,,,,,101,0.220087931,0.217821782,,,,,,,
decision,221,687431,0.0-68.0-5.0,"""event"",""trial"",""time""
""fullscreenenter"",""1"",""1525""
","
","
","""event"",""trial"",""time""
""fullscreenenter"",""1"",""1525""
","
",,299.7,run_exp/static/images/task_images/land.jpg,65,,,,,,,22,,,10,,,,,,,,292266,1,0,FALSE,,,
dig,222,690140,0.0-69.0-0.0,"""event"",""trial"",""time""
""fullscreenenter"",""1"",""1525""
","
","
","""event"",""trial"",""time""
""fullscreenenter"",""1"",""1525""
","
",,,,,,,,,,,,"[{""stimulus"":""run_exp/static/images/task_images/dig.jpg"",""time"":0.30000001192092896},{""stimulus"":""run_exp/static/images/task_images/land.jpg"",""time"":906.7000000476837},{""stimulus"":""run_exp/static/images/task_images/dig.jpg"",""time"":1807.9000000357628}]",[],10,,,,,,,,,,,,,,
harvest,223,691146,0.0-69.0-1.0,"""event"",""trial"",""time""
""fullscreenenter"",""1"",""1525""
","
","
","""event"",""trial"",""time""
""fullscreenenter"",""1"",""1525""
","
",,null,run_exp/static/images/task_images/gems/22.jpg,null,,,,,,,4,,,10,,,,,22,0.20105575,0.181818182,,,,,,,
decision,224,691515,0.0-69.0-2.0,"""event"",""trial"",""time""
""fullscreenenter"",""1"",""1525""
","
","
","""event"",""trial"",""time""
""fullscreenenter"",""1"",""1525""
","
",,367.7,run_exp/static/images/task_images/land.jpg,76,,,,,,,4,,,10,,,,,,,,296350,1,1,TRUE,,,
travel,225,701158,0.0-70.0-0.0,"""event"",""trial"",""time""
""fullscreenenter"",""1"",""1525""
","
","
","""event"",""trial"",""time""
""fullscreenenter"",""1"",""1525""
","
",,,,,,,,,,,,"[{""stimulus"":""run_exp/static/images/task_images/rocket-01.jpg"",""time"":0.10000002384185791},{""stimulus"":""run_exp/static/images/task_images/rocket-02.jpg"",""time"":1075.5},{""stimulus"":""run_exp/static/images/task_images/rocket-03.jpg"",""time"":2148.399999976158},{""stimulus"":""run_exp/static/images/task_images/rocket-04.jpg"",""time"":3218.300000011921},{""stimulus"":""run_exp/static/images/task_images/rocket-05.jpg"",""time"":4286.399999976158},{""stimulus"":""run_exp/static/images/task_images/rocket-06.jpg"",""time"":5354.5},{""stimulus"":""run_exp/static/images/task_images/rocket-07.jpg"",""time"":6431.199999988079},{""stimulus"":""run_exp/static/images/task_images/rocket-08.jpg"",""time"":7503.300000011921},{""stimulus"":""run_exp/static/images/task_images/rocket-09.jpg"",""time"":8563.199999988079}]",[],10,,,,,,,,,,,,,,
alien_welcome,226,706164,0.0-70.0-1.0,"""event"",""trial"",""time""
""fullscreenenter"",""1"",""1525""
","
","
","""event"",""trial"",""time""
""fullscreenenter"",""1"",""1525""
","
",,null,run_exp/static/images/task_images/aliens/old_aliens/planet/alien_planet-20.jpg,null,,,,,,,,,,,,,20,"13,55,3,74,57,66,60,8,39,68,20,80,77,75,6,34,26,76,70,65,32,33,17,78,61,18,27,45,29,7,59,1,62,25,79,41,36",,,,,,,,,,
land,227,706678,0.0-70.0-2.0,"""event"",""trial"",""time""
""fullscreenenter"",""1"",""1525""
","
","
","""event"",""trial"",""time""
""fullscreenenter"",""1"",""1525""
","
",,null,run_exp/static/images/task_images/land.jpg,null,,,,,,,93,,,11,,,,,,,,,,,,,,
dig,228,708690,0.0-70.0-3.0,"""event"",""trial"",""time""
""fullscreenenter"",""1"",""1525""
","
","
","""event"",""trial"",""time""
""fullscreenenter"",""1"",""1525""
","
",,,,,,,,,,,,"[{""stimulus"":""run_exp/static/images/task_images/dig.jpg"",""time"":0.30000001192092896},{""stimulus"":""run_exp/static/images/task_images/land.jpg"",""time"":678.6999999880791},{""stimulus"":""run_exp/static/images/task_images/dig.jpg"",""time"":1338.3999999761581}]",[],11,,,,,,,,,,,,,,
harvest,229,709697,0.0-70.0-4.0,"""event"",""trial"",""time""
""fullscreenenter"",""1"",""1525""
","
","
","""event"",""trial"",""time""
""fullscreenenter"",""1"",""1525""
","
",,null,run_exp/static/images/task_images/gems/93.jpg,null,,,,,,,16,,,11,,,,,93,0.17168644,0.172043011,,,,,,,
decision,230,710112,0.0-70.0-5.0,"""event"",""trial"",""time""
""fullscreenenter"",""1"",""1525""
","
","
","""event"",""trial"",""time""
""fullscreenenter"",""1"",""1525""
","
",,413.9,run_exp/static/images/task_images/land.jpg,65,,,,,,,16,,,11,,,,,,,,314947,1,0,TRUE,,,
end_of_block_continue,231,719003,0.0-71.0-0.0,"""event"",""trial"",""time""
""fullscreenenter"",""1"",""1525""
","
","
","""event"",""trial"",""time""
""fullscreenenter"",""1"",""1525""
","
",,null,run_exp/static/audio/clip_32_block_end.m4a,,,,,,,null,,,,,,,,,,,,,,,,,,
alien_welcome,232,724015,0.0-72.0-0.0,"""event"",""trial"",""time""
""fullscreenenter"",""1"",""1525""
","
","
","""event"",""trial"",""time""
""fullscreenenter"",""1"",""1525""
","
",,null,run_exp/static/images/task_images/aliens/old_aliens/planet/alien_planet-80.jpg,null,,,,,,,,,,,,,80,"13,55,3,74,57,66,60,8,39,68,20,80,77,75,6,34,26,76,70,65,32,33,17,78,61,18,27,45,29,7,59,1,62,25,79,41,36",,,,,,,,,,
land,233,724527,0.0-72.0-1.0,"""event"",""trial"",""time""
""fullscreenenter"",""1"",""1525""
","
","
","""event"",""trial"",""time""
""fullscreenenter"",""1"",""1525""
","
",,null,run_exp/static/images/task_images/land.jpg,null,,,,,,,101,,,12,,,,,,,,,,,,,,
dig,234,726543,0.0-72.0-2.0,"""event"",""trial"",""time""
""fullscreenenter"",""1"",""1525""
","
","
","""event"",""trial"",""time""
""fullscreenenter"",""1"",""1525""
","
",,,,,,,,,,,,"[{""stimulus"":""run_exp/static/images/task_images/dig.jpg"",""time"":0.30000001192092896},{""stimulus"":""run_exp/static/images/task_images/land.jpg"",""time"":673.6999999880791},{""stimulus"":""run_exp/static/images/task_images/dig.jpg"",""time"":1342.199999988079}]",[],12,,,,,,,,,,,,,,
harvest,235,727547,0.0-72.0-3.0,"""event"",""trial"",""time""
""fullscreenenter"",""1"",""1525""
","
","
","""event"",""trial"",""time""
""fullscreenenter"",""1"",""1525""
","
",,null,run_exp/static/images/task_images/gems/101.jpg,null,,,,,,,28,,,12,,,,,101,0.27894633,0.277227723,,,,,,,
decision,236,727949,0.0-72.0-4.0,"""event"",""trial"",""time""
""fullscreenenter"",""1"",""1525""
","
","
","""event"",""trial"",""time""
""fullscreenenter"",""1"",""1525""
","
",,399.8,run_exp/static/images/task_images/land.jpg,65,,,,,,,28,,,12,,,,,,,,8942,2,0,FALSE,,,
dig,237,730559,0.0-73.0-0.0,"""event"",""trial"",""time""
""fullscreenenter"",""1"",""1525""
","
","
","""event"",""trial"",""time""
""fullscreenenter"",""1"",""1525""
","
",,,,,,,,,,,,"[{""stimulus"":""run_exp/static/images/task_images/dig.jpg"",""time"":0.10000002384185791},{""stimulus"":""run_exp/static/images/task_images/land.jpg"",""time"":878.8000000119209},{""stimulus"":""run_exp/static/images/task_images/dig.jpg"",""time"":1738.1000000238419}]",[],12,,,,,,,,,,,,,,
harvest,238,731563,0.0-73.0-1.0,"""event"",""trial"",""time""
""fullscreenenter"",""1"",""1525""
","
","
","""event"",""trial"",""time""
""fullscreenenter"",""1"",""1525""
","
",,null,run_exp/static/images/task_images/gems/28.jpg,null,,,,,,,7,,,12,,,,,28,0.240558343,0.25,,,,,,,
decision,239,731897,0.0-73.0-2.0,"""event"",""trial"",""time""
""fullscreenenter"",""1"",""1525""
","
","
","""event"",""trial"",""time""
""fullscreenenter"",""1"",""1525""
","
",,331.8,run_exp/static/images/task_images/land.jpg,65,,,,,,,7,,,12,,,,,,,,12890,2,1,FALSE,,,
dig,240,734570,0.0-74.0-0.0,"""event"",""trial"",""time""
""fullscreenenter"",""1"",""1525""
","
","
","""event"",""trial"",""time""
""fullscreenenter"",""1"",""1525""
","
",,,,,,,,,,,,"[{""stimulus"":""run_exp/static/images/task_images/dig.jpg"",""time"":0.10000002384185791},{""stimulus"":""run_exp/static/images/task_images/land.jpg"",""time"":894.7000000476837},{""stimulus"":""run_exp/static/images/task_images/dig.jpg"",""time"":1783.5}]",[],12,,,,,,,,,,,,,,
harvest,241,735582,0.0-74.0-1.0,"""event"",""trial"",""time""
""fullscreenenter"",""1"",""1525""
","
","
","""event"",""trial"",""time""
""fullscreenenter"",""1"",""1525""
","
",,null,run_exp/static/images/task_images/gems/7.jpg,null,,,,,,,1,,,12,,,,,7,0.13360173,0.142857143,,,,,,,
decision,242,735798,0.0-74.0-2.0,"""event"",""trial"",""time""
""fullscreenenter"",""1"",""1525""
","
","
","""event"",""trial"",""time""
""fullscreenenter"",""1"",""1525""
","
",,215.1,run_exp/static/images/task_images/land.jpg,76,,,,,,,1,,,12,,,,,,,,16791,2,2,TRUE,,,
travel,243,745591,0.0-75.0-0.0,"""event"",""trial"",""time""
""fullscreenenter"",""1"",""1525""
","
","
","""event"",""trial"",""time""
""fullscreenenter"",""1"",""1525""
","
",,,,,,,,,,,,"[{""stimulus"":""run_exp/static/images/task_images/rocket-01.jpg"",""time"":0.20000004768371582},{""stimulus"":""run_exp/static/images/task_images/rocket-02.jpg"",""time"":1091},{""stimulus"":""run_exp/static/images/task_images/rocket-03.jpg"",""time"":2177.400000035763},{""stimulus"":""run_exp/static/images/task_images/rocket-04.jpg"",""time"":3264.900000035763},{""stimulus"":""run_exp/static/images/task_images/rocket-05.jpg"",""time"":4353.900000035763},{""stimulus"":""run_exp/static/images/task_images/rocket-06.jpg"",""time"":5445.5},{""stimulus"":""run_exp/static/images/task_images/rocket-07.jpg"",""time"":6533.300000011921},{""stimulus"":""run_exp/static/images/task_images/rocket-08.jpg"",""time"":7621.400000035763},{""stimulus"":""run_exp/static/images/task_images/rocket-09.jpg"",""time"":8709.300000011921}]",[],12,,,,,,,,,,,,,,
alien_welcome,244,750595,0.0-75.0-1.0,"""event"",""trial"",""time""
""fullscreenenter"",""1"",""1525""
","
","
","""event"",""trial"",""time""
""fullscreenenter"",""1"",""1525""
","
