trial_type,trial_index,time_elapsed,internal_node_id,interactions,blur_events,focus_events,fullscreenenter_events,fullscreenexit_events,success,rt,stimulus,key_press,prompt,subject_id,participant_id,age,gender,button_pressed,next_reward,animation_sequence,responses,planet,curr_prac_trial,n_prac_rounds,alien,aliens,reward_received,decay_rate_actual,decay_rate_exp,time_in_block,block_num,prt,last_trial_on_planet,button_html,bonus,num_failures
pavlovia,0,4,0.0-0.0,"""event"",""trial"",""time""
""fullscreenenter"",""1"",""3113""
","
","
","""event"",""trial"",""time""
""fullscreenenter"",""1"",""3113""
","
",,,,,,,,,,,,,,,,,,,,,,,,,,,,
fullscreen,1,4092,0.0-1.0,"""event"",""trial"",""time""
""fullscreenenter"",""1"",""3113""
","
","
","""event"",""trial"",""time""
""fullscreenenter"",""1"",""3113""
","
",TRUE,,,,,,,,,,,,,,,,,,,,,,,,,,,
instruc_welcome,2,13886,0.0-2.0,"""event"",""trial"",""time""
""fullscreenenter"",""1"",""3113""
","
","
","""event"",""trial"",""time""
""fullscreenenter"",""1"",""3113""
","
",,null,run_exp/static/audio/clip_1_welcome.m4a,null,"<p>Howdy! In this experiment, you’ll be an explorer traveling through space to collect space treasure.</p><p>Your mission is to collect as much treasure as possible.</p><br><br><p><img src='run_exp/static/images/task_images/opening_img-01.jpg' height='300' width='auto'></p>",8012,2865,14.72,Male,,,,,,,,,,,,,,,,,,,
audio-keyboard-response,3,30485,0.0-3.0,"""event"",""trial"",""time""
""fullscreenenter"",""1"",""3113""
","
","
","""event"",""trial"",""time""
""fullscreenenter"",""1"",""3113""
","
",,null,run_exp/static/audio/clip_2_move.m4a,null,,,,,,,,,,,,,,,,,,,,,,,,
welcome_dec,4,33303,0.0-4.0,"""event"",""trial"",""time""
""fullscreenenter"",""1"",""3113""
","
","
","""event"",""trial"",""time""
""fullscreenenter"",""1"",""3113""
","
",,2816.7,"<p>Howdy! In this experiment, you’ll be an explorer traveling through space to collect space treasure.</p><p>Your mission is to collect as much treasure as possible.</p><br><br><p><img src='run_exp/static/images/task_images/opening_img-01.jpg' height='300' width='auto'></p>",,,,,,,1,,,,,,,,,,,,,,,,,,
html-keyboard-response,5,35259,0.0-5.0,"""event"",""trial"",""time""
""fullscreenenter"",""1"",""3113""
","
","
","""event"",""trial"",""time""
""fullscreenenter"",""1"",""3113""
","
",,1953.9,"<p>Howdy! In this experiment, you’ll be an explorer traveling through space to collect space treasure.</p><p>Your mission is to collect as much treasure as possible.</p><br><br><p><img src='run_exp/static/images/task_images/opening_img-01.jpg' height='300' width='auto'></p><button class=""jspsych-html-btn-unchosen""><img src=""run_exp/static/images/task_images/planet-01.jpg"" height=""50""></button><button class=""jspsych-html-btn-chosen""><img src=""run_exp/static/images/task_images/planet-02.jpg"" height=""50""></button><p><b>[press the space bar to lock in your answer]<b><br></p>",32,,,,,,,,,,,,,,,,,,,,,,,,
instruc_goal,6,45345,0.0-6.0-0.0,"""event"",""trial"",""time""
""fullscreenenter"",""1"",""3113""
","
","
","""event"",""trial"",""time""
""fullscreenenter"",""1"",""3113""
","
",,null,run_exp/static/audio/clip_3_goal.m4a,null,"<p> As a space explorer, you’ll visit different planets to dig for space treasure, these pink gems.</p> <p> The more treasure you dig up, the more bonus money you’ll win! </p><br><br><p><img src='run_exp/static/images/task_images/pink_gem.jpg' height='300' width='auto'></p>",,,,,,,,,,,,,,,,,,,,,,,
instruc_goal,7,48248,0.0-6.0-1.0,"""event"",""trial"",""time""
""fullscreenenter"",""1"",""3113""
","
","
","""event"",""trial"",""time""
""fullscreenenter"",""1"",""3113""
","
",,2902.3,"<p> As a space explorer, you’ll visit different planets to dig for space treasure, these pink gems.</p> <p> The more treasure you dig up, the more bonus money you’ll win! </p><br><br><p><img src='run_exp/static/images/task_images/pink_gem.jpg' height='300' width='auto'></p>",,,,,,,1,,,,,,,,,,,,,,,,,,
html-keyboard-response,8,49815,0.0-6.0-2.0,"""event"",""trial"",""time""
""fullscreenenter"",""1"",""3113""
","
","
","""event"",""trial"",""time""
""fullscreenenter"",""1"",""3113""
","
",,1565.4,"<p> As a space explorer, you’ll visit different planets to dig for space treasure, these pink gems.</p> <p> The more treasure you dig up, the more bonus money you’ll win! </p><br><br><p><img src='run_exp/static/images/task_images/pink_gem.jpg' height='300' width='auto'></p><button class=""jspsych-html-btn-unchosen""><img src=""run_exp/static/images/task_images/planet-01.jpg"" height=""50""></button><button class=""jspsych-html-btn-chosen""><img src=""run_exp/static/images/task_images/planet-02.jpg"" height=""50""></button><p><b>[press the space bar to lock in your answer]<b><br></p>",32,,,,,,,,,,,,,,,,,,,,,,,,
instruc_dig,9,65945,0.0-7.0-0.0,"""event"",""trial"",""time""
""fullscreenenter"",""1"",""3113""
","
","
","""event"",""trial"",""time""
""fullscreenenter"",""1"",""3113""
","
",,null,run_exp/static/audio/clip_4_dig.m4a,null,,,,,,,100,,,,,,,,,,,,,,,,,
instruc_dig_try,10,72250,0.0-7.0-1.0,"""event"",""trial"",""time""
""fullscreenenter"",""1"",""3113""
","
","
","""event"",""trial"",""time""
""fullscreenenter"",""1"",""3113""
","
",,6303.8,"<p> When you’ve arrived at a new planet, you will dig once. </p> <p>Then, you get to decide if you want to stay on the planet and dig again or travel to a new planet and dig there.</p> <p> To stay and dig, press the letter <strong>‘A’</strong> on your keyboard. Try pressing it now! </p><p><img src='run_exp/static/images/task_images/land.jpg'  height='700' width='auto'></p>",65,"<p> When you’ve arrived at a new planet, you will dig once. </p> <p>Then, you get to decide if you want to stay on the planet and dig again or travel to a new planet and dig there.</p> <p> To stay and dig, press the letter <strong>‘A’</strong> on your keyboard. Try pressing it now! </p><p><img src='run_exp/static/images/task_images/land.jpg'  height='700' width='auto'></p>",,,,,,100,,,,,,,,,,,,,,,,,
dig_prac,11,74257,0.0-7.0-2.0,"""event"",""trial"",""time""
""fullscreenenter"",""1"",""3113""
","
","
","""event"",""trial"",""time""
""fullscreenenter"",""1"",""3113""
","
",,,,,,,,,,,,"[{""stimulus"":""run_exp/static/images/task_images/dig.jpg"",""time"":0.09999990463256836},{""stimulus"":""run_exp/static/images/task_images/land.jpg"",""time"":671.7999999523163},{""stimulus"":""run_exp/static/images/task_images/dig.jpg"",""time"":1341.7999999523163}]",[],,,,,,,,,,,,,,,
instruc_travel,12,110506,0.0-7.0-3.0,"""event"",""trial"",""time""
""fullscreenenter"",""1"",""3113""
","
","
","""event"",""trial"",""time""
""fullscreenenter"",""1"",""3113""
","
",,null,run_exp/static/audio/clip_5_travel.m4a,null,"<p>Every time you dig up gems, there are less gems on the planet, so the more you dig on a planet the fewer gems you’ll get with each dig.</p><p>When gems are running low, you may want to travel to a new planet. </p> <p>  Planets are very far apart in this galaxy, so it will take some time to travel between them. </p> <br><p>There are lots and lots of planets for you to visit, so you won’t be able to return to any planets you’ve seen before. </p><br><p>To leave this planet and travel to a new one, press the letter <strong>‘L’</strong> on your keyboard. Try pressing it now! </p><p><img src='run_exp/static/images/task_images/rocket-01.jpg'  height='600' width='auto'></p>",,,,,,,,,,,,,,,,,,,,,,,
instruc_travel_try,13,110718,0.0-7.0-4.0,"""event"",""trial"",""time""
""fullscreenenter"",""1"",""3113""
","
","
","""event"",""trial"",""time""
""fullscreenenter"",""1"",""3113""
","
",,210.8,"<p>Every time you dig up gems, there are less gems on the planet, so the more you dig on a planet the fewer gems you’ll get with each dig.</p><p>When gems are running low, you may want to travel to a new planet. </p> <p>  Planets are very far apart in this galaxy, so it will take some time to travel between them. </p> <br><p>There are lots and lots of planets for you to visit, so you won’t be able to return to any planets you’ve seen before. </p><br><p>To leave this planet and travel to a new one, press the letter <strong>‘L’</strong> on your keyboard. Try pressing it now! </p><p><img src='run_exp/static/images/task_images/rocket-01.jpg'  height='600' width='auto'></p>",76,"<p>Every time you dig up gems, there are less gems on the planet, so the more you dig on a planet the fewer gems you’ll get with each dig.</p><p>When gems are running low, you may want to travel to a new planet. </p> <p>  Planets are very far apart in this galaxy, so it will take some time to travel between them. </p> <br><p>There are lots and lots of planets for you to visit, so you won’t be able to return to any planets you’ve seen before. </p><br><p>To leave this planet and travel to a new one, press the letter <strong>‘L’</strong> on your keyboard. Try pressing it now! </p><p><img src='run_exp/static/images/task_images/rocket-01.jpg'  height='600' width='auto'></p>",,,,,,,,,,,,,,,,,,,,,,,
travel_prac,14,120732,0.0-7.0-5.0,"""event"",""trial"",""time""
""fullscreenenter"",""1"",""3113""
","
","
","""event"",""trial"",""time""
""fullscreenenter"",""1"",""3113""
","
",,,,,,,,,,,,"[{""stimulus"":""run_exp/static/images/task_images/rocket-01.jpg"",""time"":0.10000014305114746},{""stimulus"":""run_exp/static/images/task_images/rocket-02.jpg"",""time"":1117},{""stimulus"":""run_exp/static/images/task_images/rocket-03.jpg"",""time"":2235.300000190735},{""stimulus"":""run_exp/static/images/task_images/rocket-04.jpg"",""time"":3346.800000190735},{""stimulus"":""run_exp/static/images/task_images/rocket-05.jpg"",""time"":4447.400000095367},{""stimulus"":""run_exp/static/images/task_images/rocket-06.jpg"",""time"":5565},{""stimulus"":""run_exp/static/images/task_images/rocket-07.jpg"",""time"":6671.100000143051},{""stimulus"":""run_exp/static/images/task_images/rocket-08.jpg"",""time"":7786.800000190735},{""stimulus"":""run_exp/static/images/task_images/rocket-09.jpg"",""time"":8899.200000047684}]",[],0,,,,,,,,,,,,,,
instruc_alien_greet,15,147965,0.0-7.0-6.0,"""event"",""trial"",""time""
""fullscreenenter"",""1"",""3113""
","
","
","""event"",""trial"",""time""
""fullscreenenter"",""1"",""3113""
","
",,null,run_exp/static/audio/clip_6_alien.m4a,null,"<p>When you arrive at a new planet, the alien who owns the treasure mine on that planet will greet you!</p><p>The better an alien takes care of their mine the easier it is to dig for gems. Some aliens take better care of their mine than others. So, you won’t get exactly the same amount of gems on each planet.</p><p>What the alien looks like does not tell you anything about how many gems there are on the planet.</p><br><p><img src=""run_exp/static/images/task_images/aliens/instructions_aliens/planet/alien_planet-1.jpg""  height=""600"" width=""auto""></p>",,,,,,,,,,,,,,,,,,,,,,,
instruc_alien_greet,16,149111,0.0-7.0-7.0,"""event"",""trial"",""time""
""fullscreenenter"",""1"",""3113""
","
","
","""event"",""trial"",""time""
""fullscreenenter"",""1"",""3113""
","
",,1144.2,"<p>When you arrive at a new planet, the alien who owns the treasure mine on that planet will greet you!</p><p>The better an alien takes care of their mine the easier it is to dig for gems. Some aliens take better care of their mine than others. So, you won’t get exactly the same amount of gems on each planet.</p><p>What the alien looks like does not tell you anything about how many gems there are on the planet.</p><br><p><img src=""run_exp/static/images/task_images/aliens/instructions_aliens/planet/alien_planet-1.jpg""  height=""600"" width=""auto""></p>",,,,,,,1,,,,,,,,,,,,,,,,,,
html-keyboard-response,17,149550,0.0-7.0-8.0,"""event"",""trial"",""time""
""fullscreenenter"",""1"",""3113""
","
","
","""event"",""trial"",""time""
""fullscreenenter"",""1"",""3113""
","
",,437.5999999,"<p>When you arrive at a new planet, the alien who owns the treasure mine on that planet will greet you!</p><p>The better an alien takes care of their mine the easier it is to dig for gems. Some aliens take better care of their mine than others. So, you won’t get exactly the same amount of gems on each planet.</p><p>What the alien looks like does not tell you anything about how many gems there are on the planet.</p><br><p><img src=""run_exp/static/images/task_images/aliens/instructions_aliens/planet/alien_planet-1.jpg""  height=""600"" width=""auto""></p><button class=""jspsych-html-btn-unchosen""><img src=""run_exp/static/images/task_images/planet-01.jpg"" height=""50""></button><button class=""jspsych-html-btn-chosen""><img src=""run_exp/static/images/task_images/planet-02.jpg"" height=""50""></button><p><b>[press the space bar to lock in your answer]<b><br></p>",32,,,,,,,,,,,,,,,,,,,,,,,,
time_out,18,160663,0.0-8.0-0.0,"""event"",""trial"",""time""
""fullscreenenter"",""1"",""3113""
","
","
","""event"",""trial"",""time""
""fullscreenenter"",""1"",""3113""
","
",,null,run_exp/static/audio/clip_7_timeout.m4a,null,"<p>If you don't make your choice fast enough, you’ll have to wait a few seconds before you can make another one.</p><p>You can’t dig for more gems or travel to new planets. You just have to sit and wait.</p><br><p><img src='run_exp/static/images/task_images/time_out.jpg'  height='600' width='auto'></p>",,,,,,,,,,,,,,,,,,,,,,,
time_out,19,163237,0.0-8.0-1.0,"""event"",""trial"",""time""
""fullscreenenter"",""1"",""3113""
","
","
","""event"",""trial"",""time""
""fullscreenenter"",""1"",""3113""
","
",,2571.8,"<p>If you don't make your choice fast enough, you’ll have to wait a few seconds before you can make another one.</p><p>You can’t dig for more gems or travel to new planets. You just have to sit and wait.</p><br><p><img src='run_exp/static/images/task_images/time_out.jpg'  height='600' width='auto'></p>",,,,,,,1,,,,,,,,,,,,,,,,,,
html-keyboard-response,20,163496,0.0-8.0-2.0,"""event"",""trial"",""time""
""fullscreenenter"",""1"",""3113""
","
","
","""event"",""trial"",""time""
""fullscreenenter"",""1"",""3113""
","
",,257.5,"<p>If you don't make your choice fast enough, you’ll have to wait a few seconds before you can make another one.</p><p>You can’t dig for more gems or travel to new planets. You just have to sit and wait.</p><br><p><img src='run_exp/static/images/task_images/time_out.jpg'  height='600' width='auto'></p><button class=""jspsych-html-btn-unchosen""><img src=""run_exp/static/images/task_images/planet-01.jpg"" height=""50""></button><button class=""jspsych-html-btn-chosen""><img src=""run_exp/static/images/task_images/planet-02.jpg"" height=""50""></button><p><b>[press the space bar to lock in your answer]<b><br></p>",32,,,,,,,,,,,,,,,,,,,,,,,,
instruc_break,21,179203,0.0-9.0-0.0,"""event"",""trial"",""time""
""fullscreenenter"",""1"",""3113""
","
","
","""event"",""trial"",""time""
""fullscreenenter"",""1"",""3113""
","
",,null,run_exp/static/audio/clip_8_break.m4a,null,"<p> After digging and traveling for a while, you’ll be able to take a break at home base. </p><p>The game will last 20 minutes no matter what.</p><p>You will visit home base every 5 minutes, so, you will visit home base three times during the game.</p><br><p><img src='run_exp/static/images/task_images/home_base.jpg' height='600' width='auto'></p>",,,,,,,,,,,,,,,,,,,,,,,
instruc_break,22,180572,0.0-9.0-1.0,"""event"",""trial"",""time""
""fullscreenenter"",""1"",""3113""
","
","
","""event"",""trial"",""time""
""fullscreenenter"",""1"",""3113""
","
",,1366.9,"<p> After digging and traveling for a while, you’ll be able to take a break at home base. </p><p>The game will last 20 minutes no matter what.</p><p>You will visit home base every 5 minutes, so, you will visit home base three times during the game.</p><br><p><img src='run_exp/static/images/task_images/home_base.jpg' height='600' width='auto'></p>",,,,,,,1,,,,,,,,,,,,,,,,,,
html-keyboard-response,23,180929,0.0-9.0-2.0,"""event"",""trial"",""time""
""fullscreenenter"",""1"",""3113""
","
","
","""event"",""trial"",""time""
""fullscreenenter"",""1"",""3113""
","
",,356.3,"<p> After digging and traveling for a while, you’ll be able to take a break at home base. </p><p>The game will last 20 minutes no matter what.</p><p>You will visit home base every 5 minutes, so, you will visit home base three times during the game.</p><br><p><img src='run_exp/static/images/task_images/home_base.jpg' height='600' width='auto'></p><button class=""jspsych-html-btn-unchosen""><img src=""run_exp/static/images/task_images/planet-01.jpg"" height=""50""></button><button class=""jspsych-html-btn-chosen""><img src=""run_exp/static/images/task_images/planet-02.jpg"" height=""50""></button><p><b>[press the space bar to lock in your answer]<b><br></p>",32,,,,,,,,,,,,,,,,,,,,,,,,
instruc_prac_game,24,191083,0.0-10.0-0.0,"""event"",""trial"",""time""
""fullscreenenter"",""1"",""3113""
","
","
","""event"",""trial"",""time""
""fullscreenenter"",""1"",""3113""
","
",,null,run_exp/static/audio/clip_9_practice.m4a,null,"<p> Are you ready to play a practice game? </p> <p>In this practice game, you'll be digging up barrels of gems. But, in the real game, you'll be digging up the gems themselves. </p>",,,,,,,,,,,,,,,,,,,,,,,
html-button-response,25,192789,0.0-10.0-1.0,"""event"",""trial"",""time""
""fullscreenenter"",""1"",""3113""
","
","
","""event"",""trial"",""time""
""fullscreenenter"",""1"",""3113""
","
",,1704.5,"<p> Are you ready to play a practice game? </p> <p>In this practice game, you'll be digging up barrels of gems. But, in the real game, you'll be digging up the gems themselves. </p>",,,,,,,0,,,,,,,,,,,,,,,,,,
alien_welcome_prac,26,197795,0.0-11.0-0.0,"""event"",""trial"",""time""
""fullscreenenter"",""1"",""3113""
","
","
","""event"",""trial"",""time""
""fullscreenenter"",""1"",""3113""
","
",,null,run_exp/static/images/task_images/aliens/practice_aliens/planet/alien_planet-5.jpg,null,,,,,,,,,,,,,,,,,,,,,,,,
land_prac,27,198309,0.0-11.0-1.0,"""event"",""trial"",""time""
""fullscreenenter"",""1"",""3113""
","
","
","""event"",""trial"",""time""
""fullscreenenter"",""1"",""3113""
","
",,null,run_exp/static/images/task_images/land.jpg,null,,,,,,,100,,,0,,,,,,,,,,,,,,
dig_prac,28,200329,0.0-11.0-2.0,"""event"",""trial"",""time""
""fullscreenenter"",""1"",""3113""
","
","
","""event"",""trial"",""time""
""fullscreenenter"",""1"",""3113""
","
",,,,,,,,,,,,"[{""stimulus"":""run_exp/static/images/task_images/dig.jpg"",""time"":0.2999999523162842},{""stimulus"":""run_exp/static/images/task_images/land.jpg"",""time"":674.9000000953674},{""stimulus"":""run_exp/static/images/task_images/dig.jpg"",""time"":1339.1000001430511}]",[],,,,,,,,,,,,,,,
harvest_prac,29,201341,0.0-11.0-3.0,"""event"",""trial"",""time""
""fullscreenenter"",""1"",""3113""
","
","
","""event"",""trial"",""time""
""fullscreenenter"",""1"",""3113""
","
",,null,run_exp/static/images/task_images/barrel_text.jpg,null,,,,,,,,,,,,,,,,,,,,,,,,
decision_prac,30,203392,0.0-11.0-4.0,"""event"",""trial"",""time""
""fullscreenenter"",""1"",""3113""
","
","
","""event"",""trial"",""time""
""fullscreenenter"",""1"",""3113""
","
",,2049.5,run_exp/static/images/task_images/land.jpg,65,,,,,,,,,,,1,,,,,,,,,,,,,
dig_prac,31,205399,0.0-12.0-0.0,"""event"",""trial"",""time""
""fullscreenenter"",""1"",""3113""
","
","
","""event"",""trial"",""time""
""fullscreenenter"",""1"",""3113""
","
",,,,,,,,,,,,"[{""stimulus"":""run_exp/static/images/task_images/dig.jpg"",""time"":0},{""stimulus"":""run_exp/static/images/task_images/land.jpg"",""time"":674.2999999523163},{""stimulus"":""run_exp/static/images/task_images/dig.jpg"",""time"":1342.2000000476837}]",[],,,,,,,,,,,,,,,
harvest_prac,32,206401,0.0-12.0-1.0,"""event"",""trial"",""time""
""fullscreenenter"",""1"",""3113""
","
","
","""event"",""trial"",""time""
""fullscreenenter"",""1"",""3113""
","
",,null,run_exp/static/images/task_images/barrel_text.jpg,null,,,,,,,,,,,,,,,,,,,,,,,,
decision_prac,33,206515,0.0-12.0-2.0,"""event"",""trial"",""time""
""fullscreenenter"",""1"",""3113""
","
","
","""event"",""trial"",""time""
""fullscreenenter"",""1"",""3113""
","
",,112.8,run_exp/static/images/task_images/land.jpg,65,,,,,,,,,,,2,,,,,,,,,,,,,
dig_prac,34,208526,0.0-13.0-0.0,"""event"",""trial"",""time""
""fullscreenenter"",""1"",""3113""
","
","
","""event"",""trial"",""time""
""fullscreenenter"",""1"",""3113""
","
",,,,,,,,,,,,"[{""stimulus"":""run_exp/static/images/task_images/dig.jpg"",""time"":0.20000004768371582},{""stimulus"":""run_exp/static/images/task_images/land.jpg"",""time"":678.7000000476837},{""stimulus"":""run_exp/static/images/task_images/dig.jpg"",""time"":1341.5}]",[],,,,,,,,,,,,,,,
harvest_prac,35,209540,0.0-13.0-1.0,"""event"",""trial"",""time""
""fullscreenenter"",""1"",""3113""
","
","
","""event"",""trial"",""time""
""fullscreenenter"",""1"",""3113""
","
",,null,run_exp/static/images/task_images/barrel_text.jpg,null,,,,,,,,,,,,,,,,,,,,,,,,
decision_prac,36,209740,0.0-13.0-2.0,"""event"",""trial"",""time""
""fullscreenenter"",""1"",""3113""
","
","
","""event"",""trial"",""time""
""fullscreenenter"",""1"",""3113""
","
",,199,run_exp/static/images/task_images/land.jpg,65,,,,,,,,,,,3,,,,,,,,,,,,,
dig_prac,37,211748,0.0-14.0-0.0,"""event"",""trial"",""time""
""fullscreenenter"",""1"",""3113""
","
","
","""event"",""trial"",""time""
""fullscreenenter"",""1"",""3113""
","
",,,,,,,,,,,,"[{""stimulus"":""run_exp/static/images/task_images/dig.jpg"",""time"":0},{""stimulus"":""run_exp/static/images/task_images/land.jpg"",""time"":677.5},{""stimulus"":""run_exp/static/images/task_images/dig.jpg"",""time"":1342.2000000476837}]",[],,,,,,,,,,,,,,,
harvest_prac,38,212751,0.0-14.0-1.0,"""event"",""trial"",""time""
""fullscreenenter"",""1"",""3113""
","
","
","""event"",""trial"",""time""
""fullscreenenter"",""1"",""3113""
","
",,null,run_exp/static/images/task_images/barrel_text.jpg,null,,,,,,,,,,,,,,,,,,,,,,,,
decision_prac,39,213067,0.0-14.0-2.0,"""event"",""trial"",""time""
""fullscreenenter"",""1"",""3113""
","
","
","""event"",""trial"",""time""
""fullscreenenter"",""1"",""3113""
","
",,315.9000001,run_exp/static/images/task_images/land.jpg,65,,,,,,,,,,,4,,,,,,,,,,,,,
dig_prac,40,215073,0.0-15.0-0.0,"""event"",""trial"",""time""
""fullscreenenter"",""1"",""3113""
","
","
","""event"",""trial"",""time""
""fullscreenenter"",""1"",""3113""
","
",,,,,,,,,,,,"[{""stimulus"":""run_exp/static/images/task_images/dig.jpg"",""time"":0.20000004768371582},{""stimulus"":""run_exp/static/images/task_images/land.jpg"",""time"":672.8000001907349},{""stimulus"":""run_exp/static/images/task_images/dig.jpg"",""time"":1336.8000001907349}]",[],,,,,,,,,,,,,,,
harvest_prac,41,216084,0.0-15.0-1.0,"""event"",""trial"",""time""
""fullscreenenter"",""1"",""3113""
","
","
","""event"",""trial"",""time""
""fullscreenenter"",""1"",""3113""
","
",,null,run_exp/static/images/task_images/barrel_text.jpg,null,,,,,,,,,,,,,,,,,,,,,,,,
decision_prac,42,216956,0.0-15.0-2.0,"""event"",""trial"",""time""
""fullscreenenter"",""1"",""3113""
","
","
","""event"",""trial"",""time""
""fullscreenenter"",""1"",""3113""
","
",,870.9000001,run_exp/static/images/task_images/land.jpg,65,,,,,,,,,,,,1,,,,,,,,,,,,
quiz_instruc,43,218999,0.0-16.0-0.0,"""event"",""trial"",""time""
""fullscreenenter"",""1"",""3113""
","
","
","""event"",""trial"",""time""
""fullscreenenter"",""1"",""3113""
","
",,2041,run_exp/static/audio/clip_10_quiz.m4a,,,,,,,0,,,,,,,,,,,,,,,,,,
instruc_repeat,44,261785,0.0-16.0-1.0,"""event"",""trial"",""time""
""fullscreenenter"",""1"",""3113""
","
","
","""event"",""trial"",""time""
""fullscreenenter"",""1"",""3113""
","
",,null,"<p> Are you ready to play a practice game? </p> <p>In this practice game, you'll be digging up barrels of gems. But, in the real game, you'll be digging up the gems themselves. </p>",null,"<p>In this game, your goal is to collect as many gems as you can. That’s how you will win bonus money. </p> <p>The entire game will last 20 minutes no matter how many gems you collect or how many planets you visit. </p><p>To stay on a planet and dig again, press the letter A on your keyboard. To leave for a new planet, press the letter L.</p><p>The more you dig on a planet, the fewer gems you’ll get with each dig which is why you might consider leaving for a new planet. </p><p>When you arrive at a new planet, you’ll be greeted by an alien. What the alien looks like does not tell you anything about how much treasure is on the planet. </p>",,,,,,,,,,,,,,,,,,,,,,,
instruc_repeat_continue,45,285584,0.0-16.0-2.0,"""event"",""trial"",""time""
""fullscreenenter"",""1"",""3113""
","
","
","""event"",""trial"",""time""
""fullscreenenter"",""1"",""3113""
","
",,23798.2,"<p> Are you ready to play a practice game? </p> <p>In this practice game, you'll be digging up barrels of gems. But, in the real game, you'll be digging up the gems themselves. </p>",,,,,,,0,,,,,,,,,,,,,,,,,,
quiz_q_1_ask,46,288596,0.0-16.0-3.0,"""event"",""trial"",""time""
""fullscreenenter"",""1"",""3113""
","
","
","""event"",""trial"",""time""
""fullscreenenter"",""1"",""3113""
","
",,3010.5,run_exp/static/audio/clip_11_q1_ask.m4a,,,,,,,2,,,,,,,,,,,,,,,,,,
quiz_q_1_fb_correct,47,292459,0.0-17.0-0.0,"""event"",""trial"",""time""
""fullscreenenter"",""1"",""3113""
","
","
","""event"",""trial"",""time""
""fullscreenenter"",""1"",""3113""
","
",,null,run_exp/static/audio/clip_12_q1_correct.m4a,null,<p>That’s correct. You win extra money by collecting more gems.</p>,,,,,,,,,,,,,,,,,,,,,,,
quiz_q_2_ask,48,299068,0.0-17.0-1.0,"""event"",""trial"",""time""
""fullscreenenter"",""1"",""3113""
","
","
","""event"",""trial"",""time""
""fullscreenenter"",""1"",""3113""
","
",,6607.9,run_exp/static/audio/clip_14_q2_ask.m4a,,,,,,,1,,,,,,,,,,,,,,,,,,
quiz_q_2_fb_correct,49,303099,0.0-18.0-0.0,"""event"",""trial"",""time""
""fullscreenenter"",""1"",""3113""
","
","
","""event"",""trial"",""time""
""fullscreenenter"",""1"",""3113""
","
",,null,run_exp/static/audio/clip_15_q2_correct.m4a,null,<p>That’s correct. The experiment is 20 minutes no matter what.</p>,,,,,,,,,,,,,,,,,,,,,,,
quiz_q_3_ask,50,310571,0.0-18.0-1.0,"""event"",""trial"",""time""
""fullscreenenter"",""1"",""3113""
","
","
","""event"",""trial"",""time""
""fullscreenenter"",""1"",""3113""
","
",,7471,run_exp/static/audio/clip_17_q3_ask.m4a,,,,,,,1,,,,,,,,,,,,,,,,,,
quiz_q_3_fb_correct,51,314579,0.0-19.0-0.0,"""event"",""trial"",""time""
""fullscreenenter"",""1"",""3113""
","
","
","""event"",""trial"",""time""
""fullscreenenter"",""1"",""3113""
","
",,null,run_exp/static/audio/clip_18_q3_correct.m4a,null,<p> That’s correct. You press the letter L to travel to a new planet.</p>,,,,,,,,,,,,,,,,,,,,,,,
quiz_q_4_ask,52,319428,0.0-19.0-1.0,"""event"",""trial"",""time""
""fullscreenenter"",""1"",""3113""
","
","
","""event"",""trial"",""time""
""fullscreenenter"",""1"",""3113""
","
",,4848.2,run_exp/static/audio/clip_20_q4_ask.m4a,,,,,,,0,,,,,,,,,,,,,,,,,,
quiz_q_4_fb_correct,53,324779,0.0-20.0-0.0,"""event"",""trial"",""time""
""fullscreenenter"",""1"",""3113""
","
","
","""event"",""trial"",""time""
""fullscreenenter"",""1"",""3113""
","
",,null,run_exp/static/audio/clip_21_q4_correct.m4a,null,<p> That’s correct. The more you dig on a planet the fewer gems you’ll get with each dig. </p>,,,,,,,,,,,,,,,,,,,,,,,
quiz_q_5_ask,54,330532,0.0-20.0-1.0,"""event"",""trial"",""time""
""fullscreenenter"",""1"",""3113""
","
","
","""event"",""trial"",""time""
""fullscreenenter"",""1"",""3113""
","
",,5752,run_exp/static/audio/clip_23_q5_ask.m4a,,,,,,,1,,,,,,,,,,,,,,,,,,
quiz_q_5_fb_correct,55,335559,0.0-21.0-0.0,"""event"",""trial"",""time""
""fullscreenenter"",""1"",""3113""
","
","
","""event"",""trial"",""time""
""fullscreenenter"",""1"",""3113""
","
",,null,run_exp/static/audio/clip_24_q5_correct.m4a,null,<p> That’s correct. The alien tells you nothing about how much treasure is on the planet.</p>,,,,,,,,,,,,,,,,,,,,,,,
quiz_correct,56,339059,0.0-22.0-0.0,"""event"",""trial"",""time""
""fullscreenenter"",""1"",""3113""
","
","
","""event"",""trial"",""time""
""fullscreenenter"",""1"",""3113""
","
",,null,run_exp/static/audio/clip_26_correct_quiz.m4a,null,,,,,,,,,,,,,,,,,,,,,,,,
quiz_correct_continue,57,340920,0.0-22.0-1.0,"""event"",""trial"",""time""
""fullscreenenter"",""1"",""3113""
","
","
","""event"",""trial"",""time""
""fullscreenenter"",""1"",""3113""
","
",,1860.5,<p>Good job! You're now ready to move on to the real game!</p>,,,,,,,0,,,,,,,,,,,,,,,,,,
audio-keyboard-response,58,351077,0.0-22.0-2.0,"""event"",""trial"",""time""
""fullscreenenter"",""1"",""3113""
","
","
","""event"",""trial"",""time""
""fullscreenenter"",""1"",""3113""
","
",,null,run_exp/static/audio/clip_28_real_game.m4a,null,,,,,,,,,,,,,,,,,,,,,,,,
instruc_begin_exp_contine,59,357407,0.0-22.0-3.0,"""event"",""trial"",""time""
""fullscreenenter"",""1"",""3113""
","
","
","""event"",""trial"",""time""
""fullscreenenter"",""1"",""3113""
","
",,6328.5,"<p>Now that you know how  to dig for space treasure and travel to new planets,you can start exploring! </p><p>Do you want to go over the instructions again or get started with the real game?</p>",,,,,,,1,,,,,,1,,,,,,,,,,,,
alien_welcome,60,362424,0.0-23.0-0.0,"""event"",""trial"",""time""
""fullscreenenter"",""1"",""3113""
","
","
","""event"",""trial"",""time""
""fullscreenenter"",""1"",""3113""
","
",,null,run_exp/static/images/task_images/aliens/old_aliens/planet/alien_planet-27.jpg,null,,,,,,,,,,,,,27,"27,66,54,61,53,60,78,45,19,68,20,21,75,8,18,35,26,24,33,76,10,9,63,62,2,79,50,3,51,74,77,15,52,16,34,57,17,39,28,23,49,73",,,,,,,,,,
land,61,362941,0.0-23.0-1.0,"""event"",""trial"",""time""
""fullscreenenter"",""1"",""3113""
","
","
","""event"",""trial"",""time""
""fullscreenenter"",""1"",""3113""
","
",,null,run_exp/static/images/task_images/land.jpg,null,,,,,,,100,,,1,,,,,,,,,,,,,,
dig,62,364950,0.0-23.0-2.0,"""event"",""trial"",""time""
""fullscreenenter"",""1"",""3113""
","
","
","""event"",""trial"",""time""
""fullscreenenter"",""1"",""3113""
","
",,,,,,,,,,,,"[{""stimulus"":""run_exp/static/images/task_images/dig.jpg"",""time"":0.10000014305114746},{""stimulus"":""run_exp/static/images/task_images/land.jpg"",""time"":677.7000000476837},{""stimulus"":""run_exp/static/images/task_images/dig.jpg"",""time"":1341.6000001430511}]",[],1,,,,,,,,,,,,,,
harvest,63,365967,0.0-23.0-3.0,"""event"",""trial"",""time""
""fullscreenenter"",""1"",""3113""
","
","
","""event"",""trial"",""time""
""fullscreenenter"",""1"",""3113""
","
",,null,run_exp/static/images/task_images/gems/100.jpg,null,,,,,,,20,,,1,,,,,100,0.201017272,0.2,,,,,,,
decision,64,367159,0.0-23.0-4.0,"""event"",""trial"",""time""
""fullscreenenter"",""1"",""3113""
","
","
","""event"",""trial"",""time""
""fullscreenenter"",""1"",""3113""
","
",,1190.8,run_exp/static/images/task_images/land.jpg,65,,,,,,,20,,,1,,,,,,,,9752,1,0,FALSE,,,
dig,65,368977,0.0-24.0-0.0,"""event"",""trial"",""time""
""fullscreenenter"",""1"",""3113""
","
","
","""event"",""trial"",""time""
""fullscreenenter"",""1"",""3113""
","
",,,,,,,,,,,,"[{""stimulus"":""run_exp/static/images/task_images/dig.jpg"",""time"":0.09999990463256836},{""stimulus"":""run_exp/static/images/task_images/land.jpg"",""time"":604.2000000476837},{""stimulus"":""run_exp/static/images/task_images/dig.jpg"",""time"":1210.8999998569489}]",[],1,,,,,,,,,,,,,,
harvest,66,369993,0.0-24.0-1.0,"""event"",""trial"",""time""
""fullscreenenter"",""1"",""3113""
","
","
","""event"",""trial"",""time""
""fullscreenenter"",""1"",""3113""
","
",,null,run_exp/static/images/task_images/gems/20.jpg,null,,,,,,,5,,,1,,,,,20,0.243977583,0.25,,,,,,,
decision,67,370587,0.0-24.0-2.0,"""event"",""trial"",""time""
""fullscreenenter"",""1"",""3113""
","
","
","""event"",""trial"",""time""
""fullscreenenter"",""1"",""3113""
","
",,592.6000001,run_exp/static/images/task_images/land.jpg,76,,,,,,,5,,,1,,,,,,,,13179,1,1,TRUE,,,
travel,68,380009,0.0-25.0-0.0,"""event"",""trial"",""time""
""fullscreenenter"",""1"",""3113""
","
","
","""event"",""trial"",""time""
""fullscreenenter"",""1"",""3113""
","
",,,,,,,,,,,,"[{""stimulus"":""run_exp/static/images/task_images/rocket-01.jpg"",""time"":0.10000014305114746},{""stimulus"":""run_exp/static/images/task_images/rocket-02.jpg"",""time"":1049.8000001907349},{""stimulus"":""run_exp/static/images/task_images/rocket-03.jpg"",""time"":2104},{""stimulus"":""run_exp/static/images/task_images/rocket-04.jpg"",""time"":3139},{""stimulus"":""run_exp/static/images/task_images/rocket-05.jpg"",""time"":4184.600000143051},{""stimulus"":""run_exp/static/images/task_images/rocket-06.jpg"",""time"":5234.400000095367},{""stimulus"":""run_exp/static/images/task_images/rocket-07.jpg"",""time"":6278.600000143051},{""stimulus"":""run_exp/static/images/task_images/rocket-08.jpg"",""time"":7326.200000047684},{""stimulus"":""run_exp/static/images/task_images/rocket-09.jpg"",""time"":8370.900000095367}]",[],1,,,,,,,,,,,,,,
alien_welcome,69,385012,0.0-25.0-1.0,"""event"",""trial"",""time""
""fullscreenenter"",""1"",""3113""
","
","
","""event"",""trial"",""time""
""fullscreenenter"",""1"",""3113""
","
",,null,run_exp/static/images/task_images/aliens/old_aliens/planet/alien_planet-66.jpg,null,,,,,,,,,,,,,66,"27,66,54,61,53,60,78,45,19,68,20,21,75,8,18,35,26,24,33,76,10,9,63,62,2,79,50,3,51,74,77,15,52,16,34,57,17,39,28,23,49,73",,,,,,,,,,
land,70,385514,0.0-25.0-2.0,"""event"",""trial"",""time""
""fullscreenenter"",""1"",""3113""
","
","
","""event"",""trial"",""time""
""fullscreenenter"",""1"",""3113""
","
",,null,run_exp/static/images/task_images/land.jpg,null,,,,,,,104,,,2,,,,,,,,,,,,,,
dig,71,387521,0.0-25.0-3.0,"""event"",""trial"",""time""
""fullscreenenter"",""1"",""3113""
","
","
","""event"",""trial"",""time""
""fullscreenenter"",""1"",""3113""
","
",,,,,,,,,,,,"[{""stimulus"":""run_exp/static/images/task_images/dig.jpg"",""time"":0.09999990463256836},{""stimulus"":""run_exp/static/images/task_images/land.jpg"",""time"":676.2999999523163},{""stimulus"":""run_exp/static/images/task_images/dig.jpg"",""time"":1340.7999999523163}]",[],2,,,,,,,,,,,,,,
harvest,72,388527,0.0-25.0-4.0,"""event"",""trial"",""time""
""fullscreenenter"",""1"",""3113""
","
","
","""event"",""trial"",""time""
""fullscreenenter"",""1"",""3113""
","
",,null,run_exp/static/images/task_images/gems/104.jpg,null,,,,,,,13,,,2,,,,,104,0.126327686,0.125,,,,,,,
decision,73,388586,0.0-25.0-5.0,"""event"",""trial"",""time""
""fullscreenenter"",""1"",""3113""
","
","
","""event"",""trial"",""time""
""fullscreenenter"",""1"",""3113""
","
",,57.4000001,run_exp/static/images/task_images/land.jpg,65,,,,,,,13,,,2,,,,,,,,31178,1,0,FALSE,,,
dig,74,391529,0.0-26.0-0.0,"""event"",""trial"",""time""
""fullscreenenter"",""1"",""3113""
","
","
","""event"",""trial"",""time""
""fullscreenenter"",""1"",""3113""
","
",,,,,,,,,,,,"[{""stimulus"":""run_exp/static/images/task_images/dig.jpg"",""time"":0.20000004768371582},{""stimulus"":""run_exp/static/images/task_images/land.jpg"",""time"":996.8999998569489},{""stimulus"":""run_exp/static/images/task_images/dig.jpg"",""time"":1964.3999998569489}]",[],2,,,,,,,,,,,,,,
harvest,75,392533,0.0-26.0-1.0,"""event"",""trial"",""time""
""fullscreenenter"",""1"",""3113""
","
","
","""event"",""trial"",""time""
""fullscreenenter"",""1"",""3113""
","
",,null,run_exp/static/images/task_images/gems/13.jpg,null,,,,,,,2,,,2,,,,,13,0.161853746,0.153846154,,,,,,,
decision,76,392769,0.0-26.0-2.0,"""event"",""trial"",""time""
""fullscreenenter"",""1"",""3113""
","
","
","""event"",""trial"",""time""
""fullscreenenter"",""1"",""3113""
","
",,235.2,run_exp/static/images/task_images/land.jpg,65,,,,,,,2,,,2,,,,,,,,35361,1,1,FALSE,,,
dig,77,395537,0.0-27.0-0.0,"""event"",""trial"",""time""
""fullscreenenter"",""1"",""3113""
","
","
","""event"",""trial"",""time""
""fullscreenenter"",""1"",""3113""
","
",,,,,,,,,,,,"[{""stimulus"":""run_exp/static/images/task_images/dig.jpg"",""time"":0},{""stimulus"":""run_exp/static/images/task_images/land.jpg"",""time"":928},{""stimulus"":""run_exp/static/images/task_images/dig.jpg"",""time"":1851.3999998569489}]",[],2,,,,,,,,,,,,,,
harvest,78,396540,0.0-27.0-1.0,"""event"",""trial"",""time""
""fullscreenenter"",""1"",""3113""
","
","
","""event"",""trial"",""time""
""fullscreenenter"",""1"",""3113""
","
",,null,run_exp/static/images/task_images/gems/2.jpg,null,,,,,,,0,,,2,,,,,2,0.176662878,0,,,,,,,
decision,79,397139,0.0-27.0-2.0,"""event"",""trial"",""time""
""fullscreenenter"",""1"",""3113""
","
","
","""event"",""trial"",""time""
""fullscreenenter"",""1"",""3113""
","
",,598.7,run_exp/static/images/task_images/land.jpg,76,,,,,,,0,,,2,,,,,,,,39732,1,2,TRUE,,,
travel,80,406553,0.0-28.0-0.0,"""event"",""trial"",""time""
""fullscreenenter"",""1"",""3113""
","
","
","""event"",""trial"",""time""
""fullscreenenter"",""1"",""3113""
","
",,,,,,,,,,,,"[{""stimulus"":""run_exp/static/images/task_images/rocket-01.jpg"",""time"":0.19999980926513672},{""stimulus"":""run_exp/static/images/task_images/rocket-02.jpg"",""time"":1058.5},{""stimulus"":""run_exp/static/images/task_images/rocket-03.jpg"",""time"":2100.899999856949},{""stimulus"":""run_exp/static/images/task_images/rocket-04.jpg"",""time"":3146.5},{""stimulus"":""run_exp/static/images/task_images/rocket-05.jpg"",""time"":4192.5},{""stimulus"":""run_exp/static/images/task_images/rocket-06.jpg"",""time"":5222.699999809265},{""stimulus"":""run_exp/static/images/task_images/rocket-07.jpg"",""time"":6271},{""stimulus"":""run_exp/static/images/task_images/rocket-08.jpg"",""time"":7316.599999904633},{""stimulus"":""run_exp/static/images/task_images/rocket-09.jpg"",""time"":8364.5}]",[],2,,,,,,,,,,,,,,
alien_welcome,81,411560,0.0-28.0-1.0,"""event"",""trial"",""time""
""fullscreenenter"",""1"",""3113""
","
","
","""event"",""trial"",""time""
""fullscreenenter"",""1"",""3113""
","
",,null,run_exp/static/images/task_images/aliens/old_aliens/planet/alien_planet-54.jpg,null,,,,,,,,,,,,,54,"27,66,54,61,53,60,78,45,19,68,20,21,75,8,18,35,26,24,33,76,10,9,63,62,2,79,50,3,51,74,77,15,52,16,34,57,17,39,28,23,49,73",,,,,,,,,,
land,82,412077,0.0-28.0-2.0,"""event"",""trial"",""time""
""fullscreenenter"",""1"",""3113""
","
","
","""event"",""trial"",""time""
""fullscreenenter"",""1"",""3113""
","
",,null,run_exp/static/images/task_images/land.jpg,null,,,,,,,107,,,3,,,,,,,,,,,,,,
dig,83,414083,0.0-28.0-3.0,"""event"",""trial"",""time""
""fullscreenenter"",""1"",""3113""
","
","
","""event"",""trial"",""time""
""fullscreenenter"",""1"",""3113""
","
",,,,,,,,,,,,"[{""stimulus"":""run_exp/static/images/task_images/dig.jpg"",""time"":0.20000004768371582},{""stimulus"":""run_exp/static/images/task_images/land.jpg"",""time"":675.2000000476837},{""stimulus"":""run_exp/static/images/task_images/dig.jpg"",""time"":1339.3999998569489}]",[],3,,,,,,,,,,,,,,
harvest,84,415089,0.0-28.0-4.0,"""event"",""trial"",""time""
""fullscreenenter"",""1"",""3113""
","
","
","""event"",""trial"",""time""
""fullscreenenter"",""1"",""3113""
","
",,null,run_exp/static/images/task_images/gems/107.jpg,null,,,,,,,62,,,3,,,,,107,0.579516945,0.579439252,,,,,,,
decision,85,415256,0.0-28.0-5.0,"""event"",""trial"",""time""
""fullscreenenter"",""1"",""3113""
","
","
","""event"",""trial"",""time""
""fullscreenenter"",""1"",""3113""
","
",,166,run_exp/static/images/task_images/land.jpg,65,,,,,,,62,,,3,,,,,,,,57848,1,0,FALSE,,,
dig,86,418094,0.0-29.0-0.0,"""event"",""trial"",""time""
""fullscreenenter"",""1"",""3113""
","
","
","""event"",""trial"",""time""
""fullscreenenter"",""1"",""3113""
","
",,,,,,,,,,,,"[{""stimulus"":""run_exp/static/images/task_images/dig.jpg"",""time"":0.09999990463256836},{""stimulus"":""run_exp/static/images/task_images/land.jpg"",""time"":955.7999999523163},{""stimulus"":""run_exp/static/images/task_images/dig.jpg"",""time"":1889.5999999046326}]",[],3,,,,,,,,,,,,,,
harvest,87,419097,0.0-29.0-1.0,"""event"",""trial"",""time""
""fullscreenenter"",""1"",""3113""
","
","
","""event"",""trial"",""time""
""fullscreenenter"",""1"",""3113""
","
",,null,run_exp/static/images/task_images/gems/62.jpg,null,,,,,,,31,,,3,,,,,62,0.505282677,0.5,,,,,,,
decision,88,419200,0.0-29.0-2.0,"""event"",""trial"",""time""
""fullscreenenter"",""1"",""3113""
","
","
","""event"",""trial"",""time""
""fullscreenenter"",""1"",""3113""
","
",,102.9000001,run_exp/static/images/task_images/land.jpg,65,,,,,,,31,,,3,,,,,,,,61792,1,1,FALSE,,,
dig,89,422098,0.0-30.0-0.0,"""event"",""trial"",""time""
""fullscreenenter"",""1"",""3113""
","
","
","""event"",""trial"",""time""
""fullscreenenter"",""1"",""3113""
","
",,,,,,,,,,,,"[{""stimulus"":""run_exp/static/images/task_images/dig.jpg"",""time"":0.10000014305114746},{""stimulus"":""run_exp/static/images/task_images/land.jpg"",""time"":969.3000001907349},{""stimulus"":""run_exp/static/images/task_images/dig.jpg"",""time"":1931.9000000953674}]",[],3,,,,,,,,,,,,,,
harvest,90,423101,0.0-30.0-1.0,"""event"",""trial"",""time""
""fullscreenenter"",""1"",""3113""
","
","
","""event"",""trial"",""time""
""fullscreenenter"",""1"",""3113""
","
",,null,run_exp/static/images/task_images/gems/31.jpg,null,,,,,,,16,,,3,,,,,31,0.531477027,0.516129032,,,,,,,
decision,91,424278,0.0-30.0-2.0,"""event"",""trial"",""time""
""fullscreenenter"",""1"",""3113""
","
","
","""event"",""trial"",""time""
""fullscreenenter"",""1"",""3113""
","
",,1175.7,run_exp/static/images/task_images/land.jpg,65,,,,,,,16,,,3,,,,,,,,66870,1,2,FALSE,,,
dig,92,426105,0.0-31.0-0.0,"""event"",""trial"",""time""
""fullscreenenter"",""1"",""3113""
","
","
","""event"",""trial"",""time""
""fullscreenenter"",""1"",""3113""
","
",,,,,,,,,,,,"[{""stimulus"":""run_exp/static/images/task_images/dig.jpg"",""time"":0.10000014305114746},{""stimulus"":""run_exp/static/images/task_images/land.jpg"",""time"":625.2000000476837},{""stimulus"":""run_exp/static/images/task_images/dig.jpg"",""time"":1225.4000000953674}]",[],3,,,,,,,,,,,,,,
harvest,93,427119,0.0-31.0-1.0,"""event"",""trial"",""time""
""fullscreenenter"",""1"",""3113""
","
","
","""event"",""trial"",""time""
""fullscreenenter"",""1"",""3113""
","
",,null,run_exp/static/images/task_images/gems/16.jpg,null,,,,,,,7,,,3,,,,,16,0.440265657,0.4375,,,,,,,
decision,94,427318,0.0-31.0-2.0,"""event"",""trial"",""time""
""fullscreenenter"",""1"",""3113""
","
","
","""event"",""trial"",""time""
""fullscreenenter"",""1"",""3113""
","
",,197.3999999,run_exp/static/images/task_images/land.jpg,65,,,,,,,7,,,3,,,,,,,,69910,1,3,FALSE,,,
dig,95,430125,0.0-32.0-0.0,"""event"",""trial"",""time""
""fullscreenenter"",""1"",""3113""
","
","
","""event"",""trial"",""time""
""fullscreenenter"",""1"",""3113""
","
",,,,,,,,,,,,"[{""stimulus"":""run_exp/static/images/task_images/dig.jpg"",""time"":0.09999990463256836},{""stimulus"":""run_exp/static/images/task_images/land.jpg"",""time"":946},{""stimulus"":""run_exp/static/images/task_images/dig.jpg"",""time"":1875.7000000476837}]",[],3,,,,,,,,,,,,,,
harvest,96,431129,0.0-32.0-1.0,"""event"",""trial"",""time""
""fullscreenenter"",""1"",""3113""
","
","
","""event"",""trial"",""time""
""fullscreenenter"",""1"",""3113""
","
",,null,run_exp/static/images/task_images/gems/7.jpg,null,,,,,,,3,,,3,,,,,7,0.497513797,0.428571429,,,,,,,
decision,97,431196,0.0-32.0-2.0,"""event"",""trial"",""time""
""fullscreenenter"",""1"",""3113""
","
","
","""event"",""trial"",""time""
""fullscreenenter"",""1"",""3113""
","
",,66.79999995,run_exp/static/images/task_images/land.jpg,76,,,,,,,3,,,3,,,,,,,,73788,1,4,TRUE,,,
travel,98,441137,0.0-33.0-0.0,"""event"",""trial"",""time""
""fullscreenenter"",""1"",""3113""
","
","
","""event"",""trial"",""time""
""fullscreenenter"",""1"",""3113""
","
",,,,,,,,,,,,"[{""stimulus"":""run_exp/static/images/task_images/rocket-01.jpg"",""time"":0},{""stimulus"":""run_exp/static/images/task_images/rocket-02.jpg"",""time"":1104.9000000953674},{""stimulus"":""run_exp/static/images/task_images/rocket-03.jpg"",""time"":2213},{""stimulus"":""run_exp/static/images/task_images/rocket-04.jpg"",""time"":3310.300000190735},{""stimulus"":""run_exp/static/images/task_images/rocket-05.jpg"",""time"":4422.700000047684},{""stimulus"":""run_exp/static/images/task_images/rocket-06.jpg"",""time"":5530.400000095367},{""stimulus"":""run_exp/static/images/task_images/rocket-07.jpg"",""time"":6619.200000047684},{""stimulus"":""run_exp/static/images/task_images/rocket-08.jpg"",""time"":7730.600000143051},{""stimulus"":""run_exp/static/images/task_images/rocket-09.jpg"",""time"":8829.100000143051}]",[],3,,,,,,,,,,,,,,
alien_welcome,99,446141,0.0-33.0-1.0,"""event"",""trial"",""time""
""fullscreenenter"",""1"",""3113""
","
","
","""event"",""trial"",""time""
""fullscreenenter"",""1"",""3113""
","
",,null,run_exp/static/images/task_images/aliens/old_aliens/planet/alien_planet-61.jpg,null,,,,,,,,,,,,,61,"27,66,54,61,53,60,78,45,19,68,20,21,75,8,18,35,26,24,33,76,10,9,63,62,2,79,50,3,51,74,77,15,52,16,34,57,17,39,28,23,49,73",,,,,,,,,,
land,100,446651,0.0-33.0-2.0,"""event"",""trial"",""time""
""fullscreenenter"",""1"",""3113""
","
","
","""event"",""trial"",""time""
""fullscreenenter"",""1"",""3113""
","
",,null,run_exp/static/images/task_images/land.jpg,null,,,,,,,106,,,4,,,,,,,,,,,,,,
dig,101,448669,0.0-33.0-3.0,"""event"",""trial"",""time""
""fullscreenenter"",""1"",""3113""
","
","
","""event"",""trial"",""time""
""fullscreenenter"",""1"",""3113""
","
",,,,,,,,,,,,"[{""stimulus"":""run_exp/static/images/task_images/dig.jpg"",""time"":0.2999999523162842},{""stimulus"":""run_exp/static/images/task_images/land.jpg"",""time"":672.6000001430511},{""stimulus"":""run_exp/static/images/task_images/dig.jpg"",""time"":1338.5}]",[],4,,,,,,,,,,,,,,
harvest,102,449677,0.0-33.0-4.0,"""event"",""trial"",""time""
""fullscreenenter"",""1"",""3113""
","
","
","""event"",""trial"",""time""
""fullscreenenter"",""1"",""3113""
","
",,null,run_exp/static/images/task_images/gems/106.jpg,null,,,,,,,51,,,4,,,,,106,0.482727515,0.481132075,,,,,,,
decision,103,450334,0.0-33.0-5.0,"""event"",""trial"",""time""
""fullscreenenter"",""1"",""3113""
","
","
","""event"",""trial"",""time""
""fullscreenenter"",""1"",""3113""
","
",,655.5,run_exp/static/images/task_images/land.jpg,65,,,,,,,51,,,4,,,,,,,,92926,1,0,FALSE,,,
dig,104,452690,0.0-34.0-0.0,"""event"",""trial"",""time""
""fullscreenenter"",""1"",""3113""
","
","
","""event"",""trial"",""time""
""fullscreenenter"",""1"",""3113""
","
",,,,,,,,,,,,"[{""stimulus"":""run_exp/static/images/task_images/dig.jpg"",""time"":0.10000014305114746},{""stimulus"":""run_exp/static/images/task_images/land.jpg"",""time"":790},{""stimulus"":""run_exp/static/images/task_images/dig.jpg"",""time"":1574.2999999523163}]",[],4,,,,,,,,,,,,,,
harvest,105,453699,0.0-34.0-1.0,"""event"",""trial"",""time""
""fullscreenenter"",""1"",""3113""
","
","
","""event"",""trial"",""time""
""fullscreenenter"",""1"",""3113""
","
",,null,run_exp/static/images/task_images/gems/51.jpg,null,,,,,,,28,,,4,,,,,51,0.54174932,0.549019608,,,,,,,
decision,106,454979,0.0-34.0-2.0,"""event"",""trial"",""time""
""fullscreenenter"",""1"",""3113""
","
","
","""event"",""trial"",""time""
""fullscreenenter"",""1"",""3113""
","
",,1279.5,run_exp/static/images/task_images/land.jpg,76,,,,,,,28,,,4,,,,,,,,97571,1,1,TRUE,,,
travel,107,463703,0.0-35.0-0.0,"""event"",""trial"",""time""
""fullscreenenter"",""1"",""3113""
","
","
","""event"",""trial"",""time""
""fullscreenenter"",""1"",""3113""
","
",,,,,,,,,,,,"[{""stimulus"":""run_exp/static/images/task_images/rocket-01.jpg"",""time"":0.09999990463256836},{""stimulus"":""run_exp/static/images/task_images/rocket-02.jpg"",""time"":977.2999999523163},{""stimulus"":""run_exp/static/images/task_images/rocket-03.jpg"",""time"":1941.4000000953674},{""stimulus"":""run_exp/static/images/task_images/rocket-04.jpg"",""time"":2908},{""stimulus"":""run_exp/static/images/task_images/rocket-05.jpg"",""time"":3883.2000000476837},{""stimulus"":""run_exp/static/images/task_images/rocket-06.jpg"",""time"":4845.400000095367},{""stimulus"":""run_exp/static/images/task_images/rocket-07.jpg"",""time"":5815},{""stimulus"":""run_exp/static/images/task_images/rocket-08.jpg"",""time"":6777.900000095367},{""stimulus"":""run_exp/static/images/task_images/rocket-09.jpg"",""time"":7757.599999904633}]",[],4,,,,,,,,,,,,,,
alien_welcome,108,468707,0.0-35.0-1.0,"""event"",""trial"",""time""
""fullscreenenter"",""1"",""3113""
","
","
","""event"",""trial"",""time""
""fullscreenenter"",""1"",""3113""
","
",,null,run_exp/static/images/task_images/aliens/old_aliens/planet/alien_planet-53.jpg,null,,,,,,,,,,,,,53,"27,66,54,61,53,60,78,45,19,68,20,21,75,8,18,35,26,24,33,76,10,9,63,62,2,79,50,3,51,74,77,15,52,16,34,57,17,39,28,23,49,73",,,,,,,,,,
land,109,469222,0.0-35.0-2.0,"""event"",""trial"",""time""
""fullscreenenter"",""1"",""3113""
","
","
","""event"",""trial"",""time""
""fullscreenenter"",""1"",""3113""
","
",,null,run_exp/static/images/task_images/land.jpg,null,,,,,,,105,,,5,,,,,,,,,,,,,,
dig,110,471226,0.0-35.0-3.0,"""event"",""trial"",""time""
""fullscreenenter"",""1"",""3113""
","
","
","""event"",""trial"",""time""
""fullscreenenter"",""1"",""3113""
","
",,,,,,,,,,,,"[{""stimulus"":""run_exp/static/images/task_images/dig.jpg"",""time"":0.20000004768371582},{""stimulus"":""run_exp/static/images/task_images/land.jpg"",""time"":675.2999999523163},{""stimulus"":""run_exp/static/images/task_images/dig.jpg"",""time"":1336.5}]",[],5,,,,,,,,,,,,,,
harvest,111,472234,0.0-35.0-4.0,"""event"",""trial"",""time""
""fullscreenenter"",""1"",""3113""
","
","
","""event"",""trial"",""time""
""fullscreenenter"",""1"",""3113""
","
",,null,run_exp/static/images/task_images/gems/105.jpg,null,,,,,,,51,,,5,,,,,105,0.48498611,0.485714286,,,,,,,
decision,112,472460,0.0-35.0-5.0,"""event"",""trial"",""time""
""fullscreenenter"",""1"",""3113""
","
","
","""event"",""trial"",""time""
""fullscreenenter"",""1"",""3113""
","
",,225.3999999,run_exp/static/images/task_images/land.jpg,65,,,,,,,51,,,5,,,,,,,,115052,1,0,FALSE,,,
dig,113,475237,0.0-36.0-0.0,"""event"",""trial"",""time""
""fullscreenenter"",""1"",""3113""
","
","
","""event"",""trial"",""time""
""fullscreenenter"",""1"",""3113""
","
",,,,,,,,,,,,"[{""stimulus"":""run_exp/static/images/task_images/dig.jpg"",""time"":0.09999990463256836},{""stimulus"":""run_exp/static/images/task_images/land.jpg"",""time"":931.1999998092651},{""stimulus"":""run_exp/static/images/task_images/dig.jpg"",""time"":1863}]",[],5,,,,,,,,,,,,,,
harvest,114,476250,0.0-36.0-1.0,"""event"",""trial"",""time""
""fullscreenenter"",""1"",""3113""
","
","
","""event"",""trial"",""time""
""fullscreenenter"",""1"",""3113""
","
",,null,run_exp/static/images/task_images/gems/51.jpg,null,,,,,,,22,,,5,,,,,51,0.423439083,0.431372549,,,,,,,
decision,115,476461,0.0-36.0-2.0,"""event"",""trial"",""time""
""fullscreenenter"",""1"",""3113""
","
","
","""event"",""trial"",""time""
""fullscreenenter"",""1"",""3113""
","
",,210.7,run_exp/static/images/task_images/land.jpg,65,,,,,,,22,,,5,,,,,,,,119053,1,1,FALSE,,,
dig,116,479258,0.0-37.0-0.0,"""event"",""trial"",""time""
""fullscreenenter"",""1"",""3113""
","
","
","""event"",""trial"",""time""
""fullscreenenter"",""1"",""3113""
","
",,,,,,,,,,,,"[{""stimulus"":""run_exp/static/images/task_images/dig.jpg"",""time"":0.10000014305114746},{""stimulus"":""run_exp/static/images/task_images/land.jpg"",""time"":931.6000001430511},{""stimulus"":""run_exp/static/images/task_images/dig.jpg"",""time"":1865.4000000953674}]",[],5,,,,,,,,,,,,,,
harvest,117,480273,0.0-37.0-1.0,"""event"",""trial"",""time""
""fullscreenenter"",""1"",""3113""
","
","
","""event"",""trial"",""time""
""fullscreenenter"",""1"",""3113""
","
",,null,run_exp/static/images/task_images/gems/22.jpg,null,,,,,,,11,,,5,,,,,22,0.497554907,0.5,,,,,,,
decision,118,480445,0.0-37.0-2.0,"""event"",""trial"",""time""
""fullscreenenter"",""1"",""3113""
","
","
","""event"",""trial"",""time""
""fullscreenenter"",""1"",""3113""
","
",,171.5,run_exp/static/images/task_images/land.jpg,76,,,,,,,11,,,5,,,,,,,,123037,1,2,TRUE,,,
travel,119,490288,0.0-38.0-0.0,"""event"",""trial"",""time""
""fullscreenenter"",""1"",""3113""
","
","
","""event"",""trial"",""time""
""fullscreenenter"",""1"",""3113""
","
",,,,,,,,,,,,"[{""stimulus"":""run_exp/static/images/task_images/rocket-01.jpg"",""time"":0.09999990463256836},{""stimulus"":""run_exp/static/images/task_images/rocket-02.jpg"",""time"":1106.5},{""stimulus"":""run_exp/static/images/task_images/rocket-03.jpg"",""time"":2196.5},{""stimulus"":""run_exp/static/images/task_images/rocket-04.jpg"",""time"":3284.5999999046326},{""stimulus"":""run_exp/static/images/task_images/rocket-05.jpg"",""time"":4378.599999904633},{""stimulus"":""run_exp/static/images/task_images/rocket-06.jpg"",""time"":5473.599999904633},{""stimulus"":""run_exp/static/images/task_images/rocket-07.jpg"",""time"":6568.200000047684},{""stimulus"":""run_exp/static/images/task_images/rocket-08.jpg"",""time"":7652.200000047684},{""stimulus"":""run_exp/static/images/task_images/rocket-09.jpg"",""time"":8746.700000047684}]",[],5,,,,,,,,,,,,,,
alien_welcome,120,495295,0.0-38.0-1.0,"""event"",""trial"",""time""
""fullscreenenter"",""1"",""3113""
","
","
","""event"",""trial"",""time""
""fullscreenenter"",""1"",""3113""
","
",,null,run_exp/static/images/task_images/aliens/old_aliens/planet/alien_planet-60.jpg,null,,,,,,,,,,,,,60,"27,66,54,61,53,60,78,45,19,68,20,21,75,8,18,35,26,24,33,76,10,9,63,62,2,79,50,3,51,74,77,15,52,16,34,57,17,39,28,23,49,73",,,,,,,,,,
land,121,495802,0.0-38.0-2.0,"""event"",""trial"",""time""
""fullscreenenter"",""1"",""3113""
","
","
","""event"",""trial"",""time""
""fullscreenenter"",""1"",""3113""
","
",,null,run_exp/static/images/task_images/land.jpg,null,,,,,,,104,,,6,,,,,,,,,,,,,,
dig,122,497820,0.0-38.0-3.0,"""event"",""trial"",""time""
""fullscreenenter"",""1"",""3113""
","
","
","""event"",""trial"",""time""
""fullscreenenter"",""1"",""3113""
","
",,,,,,,,,,,,"[{""stimulus"":""run_exp/static/images/task_images/dig.jpg"",""time"":0.20000004768371582},{""stimulus"":""run_exp/static/images/task_images/land.jpg"",""time"":672},{""stimulus"":""run_exp/static/images/task_images/dig.jpg"",""time"":1349.7000000476837}]",[],6,,,,,,,,,,,,,,
harvest,123,498822,0.0-38.0-4.0,"""event"",""trial"",""time""
""fullscreenenter"",""1"",""3113""
","
","
","""event"",""trial"",""time""
""fullscreenenter"",""1"",""3113""
","
",,null,run_exp/static/images/task_images/gems/104.jpg,null,,,,,,,84,,,6,,,,,104,0.810176593,0.807692308,,,,,,,
decision,124,498901,0.0-38.0-5.0,"""event"",""trial"",""time""
""fullscreenenter"",""1"",""3113""
","
","
","""event"",""trial"",""time""
""fullscreenenter"",""1"",""3113""
","
",,77.29999995,run_exp/static/images/task_images/land.jpg,65,,,,,,,84,,,6,,,,,,,,141493,1,0,FALSE,,,
dig,125,501826,0.0-39.0-0.0,"""event"",""trial"",""time""
""fullscreenenter"",""1"",""3113""
","
","
","""event"",""trial"",""time""
""fullscreenenter"",""1"",""3113""
","
",,,,,,,,,,,,"[{""stimulus"":""run_exp/static/images/task_images/dig.jpg"",""time"":0.10000014305114746},{""stimulus"":""run_exp/static/images/task_images/land.jpg"",""time"":982.4000000953674},{""stimulus"":""run_exp/static/images/task_images/dig.jpg"",""time"":1959.8000001907349}]",[],6,,,,,,,,,,,,,,
harvest,126,502828,0.0-39.0-1.0,"""event"",""trial"",""time""
""fullscreenenter"",""1"",""3113""
","
","
","""event"",""trial"",""time""
""fullscreenenter"",""1"",""3113""
","
",,null,run_exp/static/images/task_images/gems/84.jpg,null,,,,,,,73,,,6,,,,,84,0.868348407,0.869047619,,,,,,,
decision,127,502893,0.0-39.0-2.0,"""event"",""trial"",""time""
""fullscreenenter"",""1"",""3113""
","
","
","""event"",""trial"",""time""
""fullscreenenter"",""1"",""3113""
","
",,63.70000005,run_exp/static/images/task_images/land.jpg,65,,,,,,,73,,,6,,,,,,,,145485,1,1,FALSE,,,
dig,128,505836,0.0-40.0-0.0,"""event"",""trial"",""time""
""fullscreenenter"",""1"",""3113""
","
","
","""event"",""trial"",""time""
""fullscreenenter"",""1"",""3113""
","
",,,,,,,,,,,,"[{""stimulus"":""run_exp/static/images/task_images/dig.jpg"",""time"":0.20000004768371582},{""stimulus"":""run_exp/static/images/task_images/land.jpg"",""time"":993.5},{""stimulus"":""run_exp/static/images/task_images/dig.jpg"",""time"":1958}]",[],6,,,,,,,,,,,,,,
harvest,129,506854,0.0-40.0-1.0,"""event"",""trial"",""time""
""fullscreenenter"",""1"",""3113""
","
","
","""event"",""trial"",""time""
""fullscreenenter"",""1"",""3113""
","
",,null,run_exp/static/images/task_images/gems/73.jpg,null,,,,,,,60,,,6,,,,,73,0.819526005,0.821917808,,,,,,,
decision,130,507427,0.0-40.0-2.0,"""event"",""trial"",""time""
""fullscreenenter"",""1"",""3113""
","
","
","""event"",""trial"",""time""
""fullscreenenter"",""1"",""3113""
","
",,571.9000001,run_exp/static/images/task_images/land.jpg,65,,,,,,,60,,,6,,,,,,,,150019,1,2,FALSE,,,
dig,131,509865,0.0-41.0-0.0,"""event"",""trial"",""time""
""fullscreenenter"",""1"",""3113""
","
","
","""event"",""trial"",""time""
""fullscreenenter"",""1"",""3113""
","
",,,,,,,,,,,,"[{""stimulus"":""run_exp/static/images/task_images/dig.jpg"",""time"":0.09999990463256836},{""stimulus"":""run_exp/static/images/task_images/land.jpg"",""time"":823.8999998569489},{""stimulus"":""run_exp/static/images/task_images/dig.jpg"",""time"":1627.3999998569489}]",[],6,,,,,,,,,,,,,,
harvest,132,510878,0.0-41.0-1.0,"""event"",""trial"",""time""
""fullscreenenter"",""1"",""3113""
","
","
","""event"",""trial"",""time""
""fullscreenenter"",""1"",""3113""
","
",,null,run_exp/static/images/task_images/gems/60.jpg,null,,,,,,,55,,,6,,,,,60,0.909788667,0.916666667,,,,,,,
decision,133,511031,0.0-41.0-2.0,"""event"",""trial"",""time""
""fullscreenenter"",""1"",""3113""
","
","
","""event"",""trial"",""time""
""fullscreenenter"",""1"",""3113""
","
",,151.7,run_exp/static/images/task_images/land.jpg,65,,,,,,,55,,,6,,,,,,,,153623,1,3,FALSE,,,
dig,134,513882,0.0-42.0-0.0,"""event"",""trial"",""time""
""fullscreenenter"",""1"",""3113""
","
","
","""event"",""trial"",""time""
""fullscreenenter"",""1"",""3113""
","
",,,,,,,,,,,,"[{""stimulus"":""run_exp/static/images/task_images/dig.jpg"",""time"":0.09999990463256836},{""stimulus"":""run_exp/static/images/task_images/land.jpg"",""time"":951.0999999046326},{""stimulus"":""run_exp/static/images/task_images/dig.jpg"",""time"":1911.8999998569489}]",[],6,,,,,,,,,,,,,,
harvest,135,514899,0.0-42.0-1.0,"""event"",""trial"",""time""
""fullscreenenter"",""1"",""3113""
","
","
","""event"",""trial"",""time""
""fullscreenenter"",""1"",""3113""
","
",,null,run_exp/static/images/task_images/gems/55.jpg,null,,,,,,,50,,,6,,,,,55,0.903848614,0.909090909,,,,,,,
decision,136,514900,0.0-42.0-2.0,"""event"",""trial"",""time""
""fullscreenenter"",""1"",""3113""
","
","
","""event"",""trial"",""time""
""fullscreenenter"",""1"",""3113""
","
",,0.100000143,run_exp/static/images/task_images/land.jpg,65,,,,,,,50,,,6,,,,,,,,157492,1,4,FALSE,,,
dig,137,517900,0.0-43.0-0.0,"""event"",""trial"",""time""
""fullscreenenter"",""1"",""3113""
","
","
","""event"",""trial"",""time""
""fullscreenenter"",""1"",""3113""
","
",,,,,,,,,,,,"[{""stimulus"":""run_exp/static/images/task_images/dig.jpg"",""time"":0.10000014305114746},{""stimulus"":""run_exp/static/images/task_images/land.jpg"",""time"":1010.9000000953674},{""stimulus"":""run_exp/static/images/task_images/dig.jpg"",""time"":1999.1000001430511}]",[],6,,,,,,,,,,,,,,
harvest,138,518904,0.0-43.0-1.0,"""event"",""trial"",""time""
""fullscreenenter"",""1"",""3113""
","
","
","""event"",""trial"",""time""
""fullscreenenter"",""1"",""3113""
","
",,null,run_exp/static/images/task_images/gems/50.jpg,null,,,,,,,38,,,6,,,,,50,0.753835823,0.76,,,,,,,
decision,139,519542,0.0-43.0-2.0,"""event"",""trial"",""time""
""fullscreenenter"",""1"",""3113""
","
","
","""event"",""trial"",""time""
""fullscreenenter"",""1"",""3113""
","
",,636.9000001,run_exp/static/images/task_images/land.jpg,65,,,,,,,38,,,6,,,,,,,,162134,1,5,FALSE,,,
dig,140,521916,0.0-44.0-0.0,"""event"",""trial"",""time""
""fullscreenenter"",""1"",""3113""
","
","
","""event"",""trial"",""time""
""fullscreenenter"",""1"",""3113""
","
",,,,,,,,,,,,"[{""stimulus"":""run_exp/static/images/task_images/dig.jpg"",""time"":0.09999990463256836},{""stimulus"":""run_exp/static/images/task_images/land.jpg"",""time"":793},{""stimulus"":""run_exp/static/images/task_images/dig.jpg"",""time"":1580.7000000476837}]",[],6,,,,,,,,,,,,,,
harvest,141,522929,0.0-44.0-1.0,"""event"",""trial"",""time""
""fullscreenenter"",""1"",""3113""
","
","
","""event"",""trial"",""time""
""fullscreenenter"",""1"",""3113""
","
",,null,run_exp/static/images/task_images/gems/38.jpg,null,,,,,,,29,,,6,,,,,38,0.763703028,0.763157895,,,,,,,
decision,142,522963,0.0-44.0-2.0,"""event"",""trial"",""time""
""fullscreenenter"",""1"",""3113""
","
","
","""event"",""trial"",""time""
""fullscreenenter"",""1"",""3113""
","
",,33,run_exp/static/images/task_images/land.jpg,65,,,,,,,29,,,6,,,,,,,,165555,1,6,FALSE,,,
dig,143,525932,0.0-45.0-0.0,"""event"",""trial"",""time""
""fullscreenenter"",""1"",""3113""
","
","
","""event"",""trial"",""time""
""fullscreenenter"",""1"",""3113""
","
",,,,,,,,,,,,"[{""stimulus"":""run_exp/static/images/task_images/dig.jpg"",""time"":0.20000004768371582},{""stimulus"":""run_exp/static/images/task_images/land.jpg"",""time"":1002.2999999523163},{""stimulus"":""run_exp/static/images/task_images/dig.jpg"",""time"":1988.7000000476837}]",[],6,,,,,,,,,,,,,,
harvest,144,526949,0.0-45.0-1.0,"""event"",""trial"",""time""
""fullscreenenter"",""1"",""3113""
","
","
","""event"",""trial"",""time""
""fullscreenenter"",""1"",""3113""
","
",,null,run_exp/static/images/task_images/gems/29.jpg,null,,,,,,,23,,,6,,,,,29,0.803891256,0.793103448,,,,,,,
decision,145,527485,0.0-45.0-2.0,"""event"",""trial"",""time""
""fullscreenenter"",""1"",""3113""
","
","
","""event"",""trial"",""time""
""fullscreenenter"",""1"",""3113""
","
",,534.7,run_exp/static/images/task_images/land.jpg,65,,,,,,,23,,,6,,,,,,,,170077,1,7,FALSE,,,
dig,146,529957,0.0-46.0-0.0,"""event"",""trial"",""time""
""fullscreenenter"",""1"",""3113""
","
","
","""event"",""trial"",""time""
""fullscreenenter"",""1"",""3113""
","
",,,,,,,,,,,,"[{""stimulus"":""run_exp/static/images/task_images/dig.jpg"",""time"":0.10000014305114746},{""stimulus"":""run_exp/static/images/task_images/land.jpg"",""time"":828.7000000476837},{""stimulus"":""run_exp/static/images/task_images/dig.jpg"",""time"":1647.2000000476837}]",[],6,,,,,,,,,,,,,,
harvest,147,530972,0.0-46.0-1.0,"""event"",""trial"",""time""
""fullscreenenter"",""1"",""3113""
","
","
","""event"",""trial"",""time""
""fullscreenenter"",""1"",""3113""
","
",,null,run_exp/static/images/task_images/gems/23.jpg,null,,,,,,,19,,,6,,,,,23,0.815177336,0.826086957,,,,,,,
decision,148,531109,0.0-46.0-2.0,"""event"",""trial"",""time""
""fullscreenenter"",""1"",""3113""
","
","
","""event"",""trial"",""time""
""fullscreenenter"",""1"",""3113""
","
",,136.2,run_exp/static/images/task_images/land.jpg,76,,,,,,,19,,,6,,,,,,,,173701,1,8,TRUE,,,
travel,149,540982,0.0-47.0-0.0,"""event"",""trial"",""time""
""fullscreenenter"",""1"",""3113""
","
","
","""event"",""trial"",""time""
""fullscreenenter"",""1"",""3113""
","
",,,,,,,,,,,,"[{""stimulus"":""run_exp/static/images/task_images/rocket-01.jpg"",""time"":0.09999990463256836},{""stimulus"":""run_exp/static/images/task_images/rocket-02.jpg"",""time"":1104.2999999523163},{""stimulus"":""run_exp/static/images/task_images/rocket-03.jpg"",""time"":2194.0999999046326},{""stimulus"":""run_exp/static/images/task_images/rocket-04.jpg"",""time"":3296.9000000953674},{""stimulus"":""run_exp/static/images/task_images/rocket-05.jpg"",""time"":4389.599999904633},{""stimulus"":""run_exp/static/images/task_images/rocket-06.jpg"",""time"":5485.299999952316},{""stimulus"":""run_exp/static/images/task_images/rocket-07.jpg"",""time"":6582.5},{""stimulus"":""run_exp/static/images/task_images/rocket-08.jpg"",""time"":7678.900000095367},{""stimulus"":""run_exp/static/images/task_images/rocket-09.jpg"",""time"":8763.799999952316}]",[],6,,,,,,,,,,,,,,
alien_welcome,150,545985,0.0-47.0-1.0,"""event"",""trial"",""time""
""fullscreenenter"",""1"",""3113""
","
","
","""event"",""trial"",""time""
""fullscreenenter"",""1"",""3113""
","
",,null,run_exp/static/images/task_images/aliens/old_aliens/planet/alien_planet-78.jpg,null,,,,,,,,,,,,,78,"27,66,54,61,53,60,78,45,19,68,20,21,75,8,18,35,26,24,33,76,10,9,63,62,2,79,50,3,51,74,77,15,52,16,34,57,17,39,28,23,49,73",,,,,,,,,,
land,151,546495,0.0-47.0-2.0,"""event"",""trial"",""time""
""fullscreenenter"",""1"",""3113""
","
","
","""event"",""trial"",""time""
""fullscreenenter"",""1"",""3113""
","
",,null,run_exp/static/images/task_images/land.jpg,null,,,,,,,89,,,7,,,,,,,,,,,,,,
dig,152,548513,0.0-47.0-3.0,"""event"",""trial"",""time""
""fullscreenenter"",""1"",""3113""
","
","
","""event"",""trial"",""time""
""fullscreenenter"",""1"",""3113""
","
",,,,,,,,,,,,"[{""stimulus"":""run_exp/static/images/task_images/dig.jpg"",""time"":0.09999990463256836},{""stimulus"":""run_exp/static/images/task_images/land.jpg"",""time"":674.7999999523163},{""stimulus"":""run_exp/static/images/task_images/dig.jpg"",""time"":1338.7000000476837}]",[],7,,,,,,,,,,,,,,
harvest,153,549523,0.0-47.0-4.0,"""event"",""trial"",""time""
""fullscreenenter"",""1"",""3113""
","
","
","""event"",""trial"",""time""
""fullscreenenter"",""1"",""3113""
","
",,null,run_exp/static/images/task_images/gems/89.jpg,null,,,,,,,69,,,7,,,,,89,0.774506351,0.775280899,,,,,,,
decision,154,549636,0.0-47.0-5.0,"""event"",""trial"",""time""
""fullscreenenter"",""1"",""3113""
","
","
","""event"",""trial"",""time""
""fullscreenenter"",""1"",""3113""
","
",,112.4000001,run_exp/static/images/task_images/land.jpg,65,,,,,,,69,,,7,,,,,,,,192228,1,0,FALSE,,,
dig,155,552529,0.0-48.0-0.0,"""event"",""trial"",""time""
""fullscreenenter"",""1"",""3113""
","
","
","""event"",""trial"",""time""
""fullscreenenter"",""1"",""3113""
","
",,,,,,,,,,,,"[{""stimulus"":""run_exp/static/images/task_images/dig.jpg"",""time"":0.09999990463256836},{""stimulus"":""run_exp/static/images/task_images/land.jpg"",""time"":977.2000000476837},{""stimulus"":""run_exp/static/images/task_images/dig.jpg"",""time"":1939.0999999046326}]",[],7,,,,,,,,,,,,,,
harvest,156,553543,0.0-48.0-1.0,"""event"",""trial"",""time""
""fullscreenenter"",""1"",""3113""
","
","
","""event"",""trial"",""time""
""fullscreenenter"",""1"",""3113""
","
",,null,run_exp/static/images/task_images/gems/69.jpg,null,,,,,,,55,,,7,,,,,69,0.803881207,0.797101449,,,,,,,
decision,157,554105,0.0-48.0-2.0,"""event"",""trial"",""time""
""fullscreenenter"",""1"",""3113""
","
","
","""event"",""trial"",""time""
""fullscreenenter"",""1"",""3113""
","
",,560.5,run_exp/static/images/task_images/land.jpg,65,,,,,,,55,,,7,,,,,,,,196697,1,1,FALSE,,,
dig,158,556552,0.0-49.0-0.0,"""event"",""trial"",""time""
""fullscreenenter"",""1"",""3113""
","
","
","""event"",""trial"",""time""
""fullscreenenter"",""1"",""3113""
","
",,,,,,,,,,,,"[{""stimulus"":""run_exp/static/images/task_images/dig.jpg"",""time"":0.09999990463256836},{""stimulus"":""run_exp/static/images/task_images/land.jpg"",""time"":818},{""stimulus"":""run_exp/static/images/task_images/dig.jpg"",""time"":1638.7999999523163}]",[],7,,,,,,,,,,,,,,
harvest,159,557560,0.0-49.0-1.0,"""event"",""trial"",""time""
""fullscreenenter"",""1"",""3113""
","
","
","""event"",""trial"",""time""
""fullscreenenter"",""1"",""3113""
","
",,null,run_exp/static/images/task_images/gems/55.jpg,null,,,,,,,48,,,7,,,,,55,0.874055641,0.872727273,,,,,,,
decision,160,557703,0.0-49.0-2.0,"""event"",""trial"",""time""
""fullscreenenter"",""1"",""3113""
","
","
","""event"",""trial"",""time""
""fullscreenenter"",""1"",""3113""
","
",,142.3000002,run_exp/static/images/task_images/land.jpg,65,,,,,,,48,,,7,,,,,,,,200295,1,2,FALSE,,,
dig,161,560571,0.0-50.0-0.0,"""event"",""trial"",""time""
""fullscreenenter"",""1"",""3113""
","
","
","""event"",""trial"",""time""
""fullscreenenter"",""1"",""3113""
","
",,,,,,,,,,,,"[{""stimulus"":""run_exp/static/images/task_images/dig.jpg"",""time"":0.10000014305114746},{""stimulus"":""run_exp/static/images/task_images/land.jpg"",""time"":954.2000000476837},{""stimulus"":""run_exp/static/images/task_images/dig.jpg"",""time"":1919.9000000953674}]",[],7,,,,,,,,,,,,,,
harvest,162,561586,0.0-50.0-1.0,"""event"",""trial"",""time""
""fullscreenenter"",""1"",""3113""
","
","
","""event"",""trial"",""time""
""fullscreenenter"",""1"",""3113""
","
",,null,run_exp/static/images/task_images/gems/48.jpg,null,,,,,,,39,,,7,,,,,48,0.815639715,0.8125,,,,,,,
decision,163,561588,0.0-50.0-2.0,"""event"",""trial"",""time""
""fullscreenenter"",""1"",""3113""
","
","
","""event"",""trial"",""time""
""fullscreenenter"",""1"",""3113""
","
",,0.699999809,run_exp/static/images/task_images/land.jpg,65,,,,,,,39,,,7,,,,,,,,204180,1,3,FALSE,,,
dig,164,564593,0.0-51.0-0.0,"""event"",""trial"",""time""
""fullscreenenter"",""1"",""3113""
","
","
","""event"",""trial"",""time""
""fullscreenenter"",""1"",""3113""
","
",,,,,,,,,,,,"[{""stimulus"":""run_exp/static/images/task_images/dig.jpg"",""time"":0.19999980926513672},{""stimulus"":""run_exp/static/images/task_images/land.jpg"",""time"":1011.2999999523163},{""stimulus"":""run_exp/static/images/task_images/dig.jpg"",""time"":2015.2999999523163}]",[],7,,,,,,,,,,,,,,
harvest,165,565595,0.0-51.0-1.0,"""event"",""trial"",""time""
""fullscreenenter"",""1"",""3113""
","
","
","""event"",""trial"",""time""
""fullscreenenter"",""1"",""3113""
","
",,null,run_exp/static/images/task_images/gems/39.jpg,null,,,,,,,31,,,7,,,,,39,0.803552891,0.794871795,,,,,,,
decision,166,565710,0.0-51.0-2.0,"""event"",""trial"",""time""
""fullscreenenter"",""1"",""3113""
","
","
","""event"",""trial"",""time""
""fullscreenenter"",""1"",""3113""
","
",,114.3,run_exp/static/images/task_images/land.jpg,76,,,,,,,31,,,7,,,,,,,,208302,1,4,TRUE,,,
travel,167,575609,0.0-52.0-0.0,"""event"",""trial"",""time""
""fullscreenenter"",""1"",""3113""
","
","
","""event"",""trial"",""time""
""fullscreenenter"",""1"",""3113""
","
",,,,,,,,,,,,"[{""stimulus"":""run_exp/static/images/task_images/rocket-01.jpg"",""time"":0.09999990463256836},{""stimulus"":""run_exp/static/images/task_images/rocket-02.jpg"",""time"":1106.7999999523163},{""stimulus"":""run_exp/static/images/task_images/rocket-03.jpg"",""time"":2201.5},{""stimulus"":""run_exp/static/images/task_images/rocket-04.jpg"",""time"":3295.5},{""stimulus"":""run_exp/static/images/task_images/rocket-05.jpg"",""time"":4407.799999952316},{""stimulus"":""run_exp/static/images/task_images/rocket-06.jpg"",""time"":5503.200000047684},{""stimulus"":""run_exp/static/images/task_images/rocket-07.jpg"",""time"":6597},{""stimulus"":""run_exp/static/images/task_images/rocket-08.jpg"",""time"":7687.099999904633},{""stimulus"":""run_exp/static/images/task_images/rocket-09.jpg"",""time"":8799.200000047684}]",[],7,,,,,,,,,,,,,,
alien_welcome,168,580623,0.0-52.0-1.0,"""event"",""trial"",""time""
""fullscreenenter"",""1"",""3113""
","
","
","""event"",""trial"",""time""
""fullscreenenter"",""1"",""3113""
","
",,null,run_exp/static/images/task_images/aliens/old_aliens/planet/alien_planet-45.jpg,null,,,,,,,,,,,,,45,"27,66,54,61,53,60,78,45,19,68,20,21,75,8,18,35,26,24,33,76,10,9,63,62,2,79,50,3,51,74,77,15,52,16,34,57,17,39,28,23,49,73",,,,,,,,,,
land,169,581134,0.0-52.0-2.0,"""event"",""trial"",""time""
""fullscreenenter"",""1"",""3113""
","
","
","""event"",""trial"",""time""
""fullscreenenter"",""1"",""3113""
","
",,null,run_exp/static/images/task_images/land.jpg,null,,,,,,,103,,,8,,,,,,,,,,,,,,
dig,170,583139,0.0-52.0-3.0,"""event"",""trial"",""time""
""fullscreenenter"",""1"",""3113""
","
","
","""event"",""trial"",""time""
""fullscreenenter"",""1"",""3113""
","
",,,,,,,,,,,,"[{""stimulus"":""run_exp/static/images/task_images/dig.jpg"",""time"":0.20000004768371582},{""stimulus"":""run_exp/static/images/task_images/land.jpg"",""time"":674.9000000953674},{""stimulus"":""run_exp/static/images/task_images/dig.jpg"",""time"":1339.7000000476837}]",[],8,,,,,,,,,,,,,,
harvest,171,584144,0.0-52.0-4.0,"""event"",""trial"",""time""
""fullscreenenter"",""1"",""3113""
","
","
","""event"",""trial"",""time""
""fullscreenenter"",""1"",""3113""
","
",,null,run_exp/static/images/task_images/gems/103.jpg,null,,,,,,,87,,,8,,,,,103,0.84564266,0.844660194,,,,,,,
decision,172,584870,0.0-52.0-5.0,"""event"",""trial"",""time""
""fullscreenenter"",""1"",""3113""
","
","
","""event"",""trial"",""time""
""fullscreenenter"",""1"",""3113""
","
",,724.3,run_exp/static/images/task_images/land.jpg,65,,,,,,,87,,,8,,,,,,,,227462,1,0,FALSE,,,
dig,173,587156,0.0-53.0-0.0,"""event"",""trial"",""time""
""fullscreenenter"",""1"",""3113""
","
","
","""event"",""trial"",""time""
""fullscreenenter"",""1"",""3113""
","
",,,,,,,,,,,,"[{""stimulus"":""run_exp/static/images/task_images/dig.jpg"",""time"":0.09999990463256836},{""stimulus"":""run_exp/static/images/task_images/land.jpg"",""time"":763.8999998569489},{""stimulus"":""run_exp/static/images/task_images/dig.jpg"",""time"":1525.1999998092651}]",[],8,,,,,,,,,,,,,,
harvest,174,588166,0.0-53.0-1.0,"""event"",""trial"",""time""
""fullscreenenter"",""1"",""3113""
","
","
","""event"",""trial"",""time""
""fullscreenenter"",""1"",""3113""
","
",,null,run_exp/static/images/task_images/gems/87.jpg,null,,,,,,,72,,,8,,,,,87,0.822815285,0.827586207,,,,,,,
decision,175,588420,0.0-53.0-2.0,"""event"",""trial"",""time""
""fullscreenenter"",""1"",""3113""
","
","
","""event"",""trial"",""time""
""fullscreenenter"",""1"",""3113""
","
",,252.5999999,run_exp/static/images/task_images/land.jpg,65,,,,,,,72,,,8,,,,,,,,231012,1,1,FALSE,,,
dig,176,591169,0.0-54.0-0.0,"""event"",""trial"",""time""
""fullscreenenter"",""1"",""3113""
","
","
","""event"",""trial"",""time""
""fullscreenenter"",""1"",""3113""
","
",,,,,,,,,,,,"[{""stimulus"":""run_exp/static/images/task_images/dig.jpg"",""time"":0.09999990463256836},{""stimulus"":""run_exp/static/images/task_images/land.jpg"",""time"":922.3999998569489},{""stimulus"":""run_exp/static/images/task_images/dig.jpg"",""time"":1837.3999998569489}]",[],8,,,,,,,,,,,,,,
harvest,177,592172,0.0-54.0-1.0,"""event"",""trial"",""time""
""fullscreenenter"",""1"",""3113""
","
","
","""event"",""trial"",""time""
""fullscreenenter"",""1"",""3113""
","
",,null,run_exp/static/images/task_images/gems/72.jpg,null,,,,,,,59,,,8,,,,,72,0.816684215,0.819444444,,,,,,,
decision,178,592631,0.0-54.0-2.0,"""event"",""trial"",""time""
""fullscreenenter"",""1"",""3113""
","
","
","""event"",""trial"",""time""
""fullscreenenter"",""1"",""3113""
","
",,457.7,run_exp/static/images/task_images/land.jpg,65,,,,,,,59,,,8,,,,,,,,235223,1,2,FALSE,,,
dig,179,595180,0.0-55.0-0.0,"""event"",""trial"",""time""
""fullscreenenter"",""1"",""3113""
","
","
","""event"",""trial"",""time""
""fullscreenenter"",""1"",""3113""
","
",,,,,,,,,,,,"[{""stimulus"":""run_exp/static/images/task_images/dig.jpg"",""time"":0.10000014305114746},{""stimulus"":""run_exp/static/images/task_images/land.jpg"",""time"":860.2999999523163},{""stimulus"":""run_exp/static/images/task_images/dig.jpg"",""time"":1704.4000000953674}]",[],8,,,,,,,,,,,,,,
harvest,180,596196,0.0-55.0-1.0,"""event"",""trial"",""time""
""fullscreenenter"",""1"",""3113""
","
","
","""event"",""trial"",""time""
""fullscreenenter"",""1"",""3113""
","
",,null,run_exp/static/images/task_images/gems/59.jpg,null,,,,,,,46,,,8,,,,,59,0.785080956,0.779661017,,,,,,,
decision,181,596253,0.0-55.0-2.0,"""event"",""trial"",""time""
""fullscreenenter"",""1"",""3113""
","
","
","""event"",""trial"",""time""
""fullscreenenter"",""1"",""3113""
","
",,57,run_exp/static/images/task_images/land.jpg,65,,,,,,,46,,,8,,,,,,,,238845,1,3,FALSE,,,
dig,182,599209,0.0-56.0-0.0,"""event"",""trial"",""time""
""fullscreenenter"",""1"",""3113""
","
","
","""event"",""trial"",""time""
""fullscreenenter"",""1"",""3113""
","
",,,,,,,,,,,,"[{""stimulus"":""run_exp/static/images/task_images/dig.jpg"",""time"":0.20000004768371582},{""stimulus"":""run_exp/static/images/task_images/land.jpg"",""time"":991.7000000476837},{""stimulus"":""run_exp/static/images/task_images/dig.jpg"",""time"":1976.2000000476837}]",[],8,,,,,,,,,,,,,,
harvest,183,600218,0.0-56.0-1.0,"""event"",""trial"",""time""
""fullscreenenter"",""1"",""3113""
","
","
","""event"",""trial"",""time""
""fullscreenenter"",""1"",""3113""
","
",,null,run_exp/static/images/task_images/gems/46.jpg,null,,,,,,,31,,,8,,,,,46,0.682337799,0.673913043,,,,,,,
decision,184,600539,0.0-56.0-2.0,"""event"",""trial"",""time""
""fullscreenenter"",""1"",""3113""
","
","
","""event"",""trial"",""time""
""fullscreenenter"",""1"",""3113""
","
",,320,run_exp/static/images/task_images/land.jpg,76,,,,,,,31,,,8,,,,,,,,243131,1,4,TRUE,,,
travel,185,610230,0.0-57.0-0.0,"""event"",""trial"",""time""
""fullscreenenter"",""1"",""3113""
","
","
","""event"",""trial"",""time""
""fullscreenenter"",""1"",""3113""
","
",,,,,,,,,,,,"[{""stimulus"":""run_exp/static/images/task_images/rocket-01.jpg"",""time"":0.20000004768371582},{""stimulus"":""run_exp/static/images/task_images/rocket-02.jpg"",""time"":1083.5},{""stimulus"":""run_exp/static/images/task_images/rocket-03.jpg"",""time"":2157.7999999523163},{""stimulus"":""run_exp/static/images/task_images/rocket-04.jpg"",""time"":3229.5999999046326},{""stimulus"":""run_exp/static/images/task_images/rocket-05.jpg"",""time"":4305.599999904633},{""stimulus"":""run_exp/static/images/task_images/rocket-06.jpg"",""time"":5383.299999952316},{""stimulus"":""run_exp/static/images/task_images/rocket-07.jpg"",""time"":6465.299999952316},{""stimulus"":""run_exp/static/images/task_images/rocket-08.jpg"",""time"":7541.799999952316},{""stimulus"":""run_exp/static/images/task_images/rocket-09.jpg"",""time"":8609.5}]",[],8,,,,,,,,,,,,,,
alien_welcome,186,615241,0.0-57.0-1.0,"""event"",""trial"",""time""
""fullscreenenter"",""1"",""3113""
","
","
","""event"",""trial"",""time""
""fullscreenenter"",""1"",""3113""
","
",,null,run_exp/static/images/task_images/aliens/old_aliens/planet/alien_planet-19.jpg,null,,,,,,,,,,,,,19,"27,66,54,61,53,60,78,45,19,68,20,21,75,8,18,35,26,24,33,76,10,9,63,62,2,79,50,3,51,74,77,15,52,16,34,57,17,39,28,23,49,73",,,,,,,,,,
land,187,615756,0.0-57.0-2.0,"""event"",""trial"",""time""
""fullscreenenter"",""1"",""3113""
","
","
","""event"",""trial"",""time""
""fullscreenenter"",""1"",""3113""
","
",,null,run_exp/static/images/task_images/land.jpg,null,,,,,,,100,,,9,,,,,,,,,,,,,,
dig,188,617760,0.0-57.0-3.0,"""event"",""trial"",""time""
""fullscreenenter"",""1"",""3113""
","
","
","""event"",""trial"",""time""
""fullscreenenter"",""1"",""3113""
","
",,,,,,,,,,,,"[{""stimulus"":""run_exp/static/images/task_images/dig.jpg"",""time"":0.19999980926513672},{""stimulus"":""run_exp/static/images/task_images/land.jpg"",""time"":673.0999999046326},{""stimulus"":""run_exp/static/images/task_images/dig.jpg"",""time"":1339.1999998092651}]",[],9,,,,,,,,,,,,,,
harvest,189,618774,0.0-57.0-4.0,"""event"",""trial"",""time""
""fullscreenenter"",""1"",""3113""
","
","
","""event"",""trial"",""time""
""fullscreenenter"",""1"",""3113""
","
",,null,run_exp/static/images/task_images/gems/100.jpg,null,,,,,,,32,,,9,,,,,100,0.318973331,0.32,,,,,,,
decision,190,619505,0.0-57.0-5.0,"""event"",""trial"",""time""
""fullscreenenter"",""1"",""3113""
","
","
","""event"",""trial"",""time""
""fullscreenenter"",""1"",""3113""
","
",,730.5,run_exp/static/images/task_images/land.jpg,65,,,,,,,32,,,9,,,,,,,,262097,1,0,FALSE,,,
dig,191,621778,0.0-58.0-0.0,"""event"",""trial"",""time""
""fullscreenenter"",""1"",""3113""
","
","
","""event"",""trial"",""time""
""fullscreenenter"",""1"",""3113""
","
",,,,,,,,,,,,"[{""stimulus"":""run_exp/static/images/task_images/dig.jpg"",""time"":0.10000014305114746},{""stimulus"":""run_exp/static/images/task_images/land.jpg"",""time"":766},{""stimulus"":""run_exp/static/images/task_images/dig.jpg"",""time"":1528.2000000476837}]",[],9,,,,,,,,,,,,,,
harvest,192,622790,0.0-58.0-1.0,"""event"",""trial"",""time""
""fullscreenenter"",""1"",""3113""
","
","
","""event"",""trial"",""time""
""fullscreenenter"",""1"",""3113""
","
",,null,run_exp/static/images/task_images/gems/32.jpg,null,,,,,,,6,,,9,,,,,32,0.193199502,0.1875,,,,,,,
decision,193,623716,0.0-58.0-2.0,"""event"",""trial"",""time""
""fullscreenenter"",""1"",""3113""
","
","
","""event"",""trial"",""time""
""fullscreenenter"",""1"",""3113""
","
",,924.9000001,run_exp/static/images/task_images/land.jpg,76,,,,,,,6,,,9,,,,,,,,266308,1,1,TRUE,,,
travel,194,632802,0.0-59.0-0.0,"""event"",""trial"",""time""
""fullscreenenter"",""1"",""3113""
","
","
","""event"",""trial"",""time""
""fullscreenenter"",""1"",""3113""
","
",,,,,,,,,,,,"[{""stimulus"":""run_exp/static/images/task_images/rocket-01.jpg"",""time"":0.10000014305114746},{""stimulus"":""run_exp/static/images/task_images/rocket-02.jpg"",""time"":1013.9000000953674},{""stimulus"":""run_exp/static/images/task_images/rocket-03.jpg"",""time"":2025.9000000953674},{""stimulus"":""run_exp/static/images/task_images/rocket-04.jpg"",""time"":3037.600000143051},{""stimulus"":""run_exp/static/images/task_images/rocket-05.jpg"",""time"":4033.7000000476837},{""stimulus"":""run_exp/static/images/task_images/rocket-06.jpg"",""time"":5047.400000095367},{""stimulus"":""run_exp/static/images/task_images/rocket-07.jpg"",""time"":6055.700000047684},{""stimulus"":""run_exp/static/images/task_images/rocket-08.jpg"",""time"":7058.100000143051},{""stimulus"":""run_exp/static/images/task_images/rocket-09.jpg"",""time"":8071.600000143051}]",[],9,,,,,,,,,,,,,,
alien_welcome,195,637810,0.0-59.0-1.0,"""event"",""trial"",""time""
""fullscreenenter"",""1"",""3113""
","
","
","""event"",""trial"",""time""
""fullscreenenter"",""1"",""3113""
","
",,null,run_exp/static/images/task_images/aliens/old_aliens/planet/alien_planet-68.jpg,null,,,,,,,,,,,,,68,"27,66,54,61,53,60,78,45,19,68,20,21,75,8,18,35,26,24,33,76,10,9,63,62,2,79,50,3,51,74,77,15,52,16,34,57,17,39,28,23,49,73",,,,,,,,,,
land,196,638324,0.0-59.0-2.0,"""event"",""trial"",""time""
""fullscreenenter"",""1"",""3113""
","
","
","""event"",""trial"",""time""
""fullscreenenter"",""1"",""3113""
","
",,null,run_exp/static/images/task_images/land.jpg,null,,,,,,,98,,,10,,,,,,,,,,,,,,
dig,197,640329,0.0-59.0-3.0,"""event"",""trial"",""time""
""fullscreenenter"",""1"",""3113""
","
","
","""event"",""trial"",""time""
""fullscreenenter"",""1"",""3113""
","
",,,,,,,,,,,,"[{""stimulus"":""run_exp/static/images/task_images/dig.jpg"",""time"":0.09999990463256836},{""stimulus"":""run_exp/static/images/task_images/land.jpg"",""time"":677.0999999046326},{""stimulus"":""run_exp/static/images/task_images/dig.jpg"",""time"":1342.7999999523163}]",[],10,,,,,,,,,,,,,,
harvest,198,641338,0.0-59.0-4.0,"""event"",""trial"",""time""
""fullscreenenter"",""1"",""3113""
","
","
","""event"",""trial"",""time""
""fullscreenenter"",""1"",""3113""
","
",,null,run_exp/static/images/task_images/gems/98.jpg,null,,,,,,,18,,,10,,,,,98,0.182913071,0.183673469,,,,,,,
decision,199,641604,0.0-59.0-5.0,"""event"",""trial"",""time""
""fullscreenenter"",""1"",""3113""
","
","
","""event"",""trial"",""time""
""fullscreenenter"",""1"",""3113""
","
",,265.0999999,run_exp/static/images/task_images/land.jpg,65,,,,,,,18,,,10,,,,,,,,284196,1,0,FALSE,,,
dig,200,644343,0.0-60.0-0.0,"""event"",""trial"",""time""
""fullscreenenter"",""1"",""3113""
","
","
","""event"",""trial"",""time""
""fullscreenenter"",""1"",""3113""
","
",,,,,,,,,,,,"[{""stimulus"":""run_exp/static/images/task_images/dig.jpg"",""time"":0},{""stimulus"":""run_exp/static/images/task_images/land.jpg"",""time"":925.5},{""stimulus"":""run_exp/static/images/task_images/dig.jpg"",""time"":1823.6000001430511}]",[],10,,,,,,,,,,,,,,
harvest,201,645346,0.0-60.0-1.0,"""event"",""trial"",""time""
""fullscreenenter"",""1"",""3113""
","
","
","""event"",""trial"",""time""
""fullscreenenter"",""1"",""3113""
","
",,null,run_exp/static/images/task_images/gems/18.jpg,null,,,,,,,5,,,10,,,,,18,0.290662268,0.277777778,,,,,,,
decision,202,645507,0.0-60.0-2.0,"""event"",""trial"",""time""
""fullscreenenter"",""1"",""3113""
","
","
","""event"",""trial"",""time""
""fullscreenenter"",""1"",""3113""
","
",,159.8999999,run_exp/static/images/task_images/land.jpg,76,,,,,,,5,,,10,,,,,,,,288099,1,1,TRUE,,,
travel,203,655355,0.0-61.0-0.0,"""event"",""trial"",""time""
""fullscreenenter"",""1"",""3113""
","
","
","""event"",""trial"",""time""
""fullscreenenter"",""1"",""3113""
","
",,,,,,,,,,,,"[{""stimulus"":""run_exp/static/images/task_images/rocket-01.jpg"",""time"":0},{""stimulus"":""run_exp/static/images/task_images/rocket-02.jpg"",""time"":1094.8999998569489},{""stimulus"":""run_exp/static/images/task_images/rocket-03.jpg"",""time"":2202.399999856949},{""stimulus"":""run_exp/static/images/task_images/rocket-04.jpg"",""time"":3284.2999999523163},{""stimulus"":""run_exp/static/images/task_images/rocket-05.jpg"",""time"":4377.699999809265},{""stimulus"":""run_exp/static/images/task_images/rocket-06.jpg"",""time"":5472.199999809265},{""stimulus"":""run_exp/static/images/task_images/rocket-07.jpg"",""time"":6573},{""stimulus"":""run_exp/static/images/task_images/rocket-08.jpg"",""time"":7653.599999904633},{""stimulus"":""run_exp/static/images/task_images/rocket-09.jpg"",""time"":8748.899999856949}]",[],10,,,,,,,,,,,,,,
alien_welcome,204,660358,0.0-61.0-1.0,"""event"",""trial"",""time""
""fullscreenenter"",""1"",""3113""
","
","
","""event"",""trial"",""time""
""fullscreenenter"",""1"",""3113""
","
",,null,run_exp/static/images/task_images/aliens/old_aliens/planet/alien_planet-20.jpg,null,,,,,,,,,,,,,20,"27,66,54,61,53,60,78,45,19,68,20,21,75,8,18,35,26,24,33,76,10,9,63,62,2,79,50,3,51,74,77,15,52,16,34,57,17,39,28,23,49,73",,,,,,,,,,
land,205,660865,0.0-61.0-2.0,"""event"",""trial"",""time""
""fullscreenenter"",""1"",""3113""
","
","
","""event"",""trial"",""time""
""fullscreenenter"",""1"",""3113""
","
",,null,run_exp/static/images/task_images/land.jpg,null,,,,,,,100,,,11,,,,,,,,,,,,,,
dig,206,662869,0.0-61.0-3.0,"""event"",""trial"",""time""
""fullscreenenter"",""1"",""3113""
","
","
","""event"",""trial"",""time""
""fullscreenenter"",""1"",""3113""
","
",,,,,,,,,,,,"[{""stimulus"":""run_exp/static/images/task_images/dig.jpg"",""time"":0.10000014305114746},{""stimulus"":""run_exp/static/images/task_images/land.jpg"",""time"":673.4000000953674},{""stimulus"":""run_exp/static/images/task_images/dig.jpg"",""time"":1339.3000001907349}]",[],11,,,,,,,,,,,,,,
harvest,207,663886,0.0-61.0-4.0,"""event"",""trial"",""time""
""fullscreenenter"",""1"",""3113""
","
","
","""event"",""trial"",""time""
""fullscreenenter"",""1"",""3113""
","
",,null,run_exp/static/images/task_images/gems/100.jpg,null,,,,,,,28,,,11,,,,,100,0.276178613,0.28,,,,,,,
decision,208,664928,0.0-61.0-5.0,"""event"",""trial"",""time""
""fullscreenenter"",""1"",""3113""
","
","
","""event"",""trial"",""time""
""fullscreenenter"",""1"",""3113""
","
",,1040.6,run_exp/static/images/task_images/land.jpg,65,,,,,,,28,,,11,,,,,,,,307520,1,0,TRUE,,,
end_of_block_continue,209,669191,0.0-62.0-0.0,"""event"",""trial"",""time""
""fullscreenenter"",""1"",""3113""
","
","
","""event"",""trial"",""time""
""fullscreenenter"",""1"",""3113""
","
",,4260.8,run_exp/static/audio/clip_32_block_end.m4a,,,,,,,0,,,,,,,,,,,,,,,,,,
alien_welcome,210,674201,0.0-63.0-0.0,"""event"",""trial"",""time""
""fullscreenenter"",""1"",""3113""
","
","
","""event"",""trial"",""time""
""fullscreenenter"",""1"",""3113""
","
",,null,run_exp/static/images/task_images/aliens/old_aliens/planet/alien_planet-21.jpg,null,,,,,,,,,,,,,21,"27,66,54,61,53,60,78,45,19,68,20,21,75,8,18,35,26,24,33,76,10,9,63,62,2,79,50,3,51,74,77,15,52,16,34,57,17,39,28,23,49,73",,,,,,,,,,
land,211,674709,0.0-63.0-1.0,"""event"",""trial"",""time""
""fullscreenenter"",""1"",""3113""
","
","
","""event"",""trial"",""time""
""fullscreenenter"",""1"",""3113""
","
",,null,run_exp/static/images/task_images/land.jpg,null,,,,,,,105,,,12,,,,,,,,,,,,,,
dig,212,676714,0.0-63.0-2.0,"""event"",""trial"",""time""
""fullscreenenter"",""1"",""3113""
","
","
","""event"",""trial"",""time""
""fullscreenenter"",""1"",""3113""
","
",,,,,,,,,,,,"[{""stimulus"":""run_exp/static/images/task_images/dig.jpg"",""time"":0.09999990463256836},{""stimulus"":""run_exp/static/images/task_images/land.jpg"",""time"":675.7000000476837},{""stimulus"":""run_exp/static/images/task_images/dig.jpg"",""time"":1339.7999999523163}]",[],12,,,,,,,,,,,,,,
harvest,213,677717,0.0-63.0-3.0,"""event"",""trial"",""time""
""fullscreenenter"",""1"",""3113""
","
","
","""event"",""trial"",""time""
""fullscreenenter"",""1"",""3113""
","
",,null,run_exp/static/images/task_images/gems/105.jpg,null,,,,,,,18,,,12,,,,,105,0.168338833,0.171428571,,,,,,,
decision,214,678198,0.0-63.0-4.0,"""event"",""trial"",""time""
""fullscreenenter"",""1"",""3113""
","
","
","""event"",""trial"",""time""
""fullscreenenter"",""1"",""3113""
","
",,479.7,run_exp/static/images/task_images/land.jpg,65,,,,,,,18,,,12,,,,,,,,9005,2,0,FALSE,,,
dig,215,680730,0.0-64.0-0.0,"""event"",""trial"",""time""
""fullscreenenter"",""1"",""3113""
","
","
","""event"",""trial"",""time""
""fullscreenenter"",""1"",""3113""
","
",,,,,,,,,,,,"[{""stimulus"":""run_exp/static/images/task_images/dig.jpg"",""time"":0.19999980926513672},{""stimulus"":""run_exp/static/images/task_images/land.jpg"",""time"":852.1999998092651},{""stimulus"":""run_exp/static/images/task_images/dig.jpg"",""time"":1686.2999999523163}]",[],12,,,,,,,,,,,,,,
harvest,216,681740,0.0-64.0-1.0,"""event"",""trial"",""time""
""fullscreenenter"",""1"",""3113""
","
","
","""event"",""trial"",""time""
""fullscreenenter"",""1"",""3113""
","
",,null,run_exp/static/images/task_images/gems/18.jpg,null,,,,,,,4,,,12,,,,,18,0.248618505,0.222222222,,,,,,,
decision,217,681996,0.0-64.0-2.0,"""event"",""trial"",""time""
""fullscreenenter"",""1"",""3113""
","
","
","""event"",""trial"",""time""
""fullscreenenter"",""1"",""3113""
","
",,255.4000001,run_exp/static/images/task_images/land.jpg,76,,,,,,,4,,,12,,,,,,,,12803,2,1,TRUE,,,
travel,218,691739,0.0-65.0-0.0,"""event"",""trial"",""time""
""fullscreenenter"",""1"",""3113""
","
","
","""event"",""trial"",""time""
""fullscreenenter"",""1"",""3113""
","
",,,,,,,,,,,,"[{""stimulus"":""run_exp/static/images/task_images/rocket-01.jpg"",""time"":0},{""stimulus"":""run_exp/static/images/task_images/rocket-02.jpg"",""time"":1088.5},{""stimulus"":""run_exp/static/images/task_images/rocket-03.jpg"",""time"":2178.5},{""stimulus"":""run_exp/static/images/task_images/rocket-04.jpg"",""time"":3262.2999999523163},{""stimulus"":""run_exp/static/images/task_images/rocket-05.jpg"",""time"":4341.799999952316},{""stimulus"":""run_exp/static/images/task_images/rocket-06.jpg"",""time"":5419.299999952316},{""stimulus"":""run_exp/static/images/task_images/rocket-07.jpg"",""time"":6501.799999952316},{""stimulus"":""run_exp/static/images/task_images/rocket-08.jpg"",""time"":7581.900000095367},{""stimulus"":""run_exp/static/images/task_images/rocket-09.jpg"",""time"":8663.700000047684}]",[],12,,,,,,,,,,,,,,
alien_welcome,219,696746,0.0-65.0-1.0,"""event"",""trial"",""time""
""fullscreenenter"",""1"",""3113""
","
","
","""event"",""trial"",""time""
""fullscreenenter"",""1"",""3113""
","
",,null,run_exp/static/images/task_images/aliens/old_aliens/planet/alien_planet-75.jpg,null,,,,,,,,,,,,,75,"27,66,54,61,53,60,78,45,19,68,20,21,75,8,18,35,26,24,33,76,10,9,63,62,2,79,50,3,51,74,77,15,52,16,34,57,17,39,28,23,49,73",,,,,,,,,,
land,220,697251,0.0-65.0-2.0,"""event"",""trial"",""time""
""fullscreenenter"",""1"",""3113""
","
","
","""event"",""trial"",""time""
""fullscreenenter"",""1"",""3113""
","
",,null,run_exp/static/images/task_images/land.jpg,null,,,,,,,98,,,13,,,,,,,,,,,,,,
dig,221,699254,0.0-65.0-3.0,"""event"",""trial"",""time""
""fullscreenenter"",""1"",""3113""
","
","
","""event"",""trial"",""time""
""fullscreenenter"",""1"",""3113""
","
",,,,,,,,,,,,"[{""stimulus"":""run_exp/static/images/task_images/dig.jpg"",""time"":0.20000004768371582},{""stimulus"":""run_exp/static/images/task_images/land.jpg"",""time"":671.8999998569489},{""stimulus"":""run_exp/static/images/task_images/dig.jpg"",""time"":1336.2999999523163}]",[],13,,,,,,,,,,,,,,
harvest,222,700255,0.0-65.0-4.0,"""event"",""trial"",""time""
""fullscreenenter"",""1"",""3113""
","
","
","""event"",""trial"",""time""
""fullscreenenter"",""1"",""3113""
","
",,null,run_exp/static/images/task_images/gems/98.jpg,null,,,,,,,10,,,13,,,,,98,0.097004707,0.102040816,,,,,,,
decision,223,700816,0.0-65.0-5.0,"""event"",""trial"",""time""
""fullscreenenter"",""1"",""3113""
","
","
","""event"",""trial"",""time""
""fullscreenenter"",""1"",""3113""
","
",,560.3,run_exp/static/images/task_images/land.jpg,65,,,,,,,10,,,13,,,,,,,,31623,2,0,FALSE,,,
dig,224,703272,0.0-66.0-0.0,"""event"",""trial"",""time""
""fullscreenenter"",""1"",""3113""
","
","
","""event"",""trial"",""time""
""fullscreenenter"",""1"",""3113""
","
",,,,,,,,,,,,"[{""stimulus"":""run_exp/static/images/task_images/dig.jpg"",""time"":0},{""stimulus"":""run_exp/static/images/task_images/land.jpg"",""time"":819.2999999523163},{""stimulus"":""run_exp/static/images/task_images/dig.jpg"",""time"":1638.7999999523163}]",[],13,,,,,,,,,,,,,,
harvest,225,704281,0.0-66.0-1.0,"""event"",""trial"",""time""
""fullscreenenter"",""1"",""3113""
","
","
","""event"",""trial"",""time""
""fullscreenenter"",""1"",""3113""
","
",,null,run_exp/static/images/task_images/gems/10.jpg,null,,,,,,,3,,,13,,,,,10,0.292233358,0.3,,,,,,,
decision,226,704970,0.0-66.0-2.0,"""event"",""trial"",""time""
""fullscreenenter"",""1"",""3113""
","
","
","""event"",""trial"",""time""
""fullscreenenter"",""1"",""3113""
","
",,687.9000001,run_exp/static/images/task_images/land.jpg,76,,,,,,,3,,,13,,,,,,,,35777,2,1,TRUE,,,
travel,227,714282,0.0-67.0-0.0,"""event"",""trial"",""time""
""fullscreenenter"",""1"",""3113""
","
","
","""event"",""trial"",""time""
""fullscreenenter"",""1"",""3113""
","
",,,,,,,,,,,,"[{""stimulus"":""run_exp/static/images/task_images/rocket-01.jpg"",""time"":0.20000004768371582},{""stimulus"":""run_exp/static/images/task_images/rocket-02.jpg"",""time"":1036.4000000953674},{""stimulus"":""run_exp/static/images/task_images/rocket-03.jpg"",""time"":2077.4000000953674},{""stimulus"":""run_exp/static/images/task_images/rocket-04.jpg"",""time"":3103.5},{""stimulus"":""run_exp/static/images/task_images/rocket-05.jpg"",""time"":4141.700000047684},{""stimulus"":""run_exp/static/images/task_images/rocket-06.jpg"",""time"":5171.799999952316},{""stimulus"":""run_exp/static/images/task_images/rocket-07.jpg"",""time"":6216.5},{""stimulus"":""run_exp/static/images/task_images/rocket-08.jpg"",""time"":7249.799999952316},{""stimulus"":""run_exp/static/images/task_images/rocket-09.jpg"",""time"":8280.400000095367}]",[],13,,,,,,,,,,,,,,
alien_welcome,228,719288,0.0-67.0-1.0,"""event"",""trial"",""time""
""fullscreenenter"",""1"",""3113""
","
","
","""event"",""trial"",""time""
""fullscreenenter"",""1"",""3113""
","
",,null,run_exp/static/images/task_images/aliens/old_aliens/planet/alien_planet-8.jpg,null,,,,,,,,,,,,,8,"27,66,54,61,53,60,78,45,19,68,20,21,75,8,18,35,26,24,33,76,10,9,63,62,2,79,50,3,51,74,77,15,52,16,34,57,17,39,28,23,49,73",,,,,,,,,,
land,229,719790,0.0-67.0-2.0,"""event"",""trial"",""time""
""fullscreenenter"",""1"",""3113""
","
","
","""event"",""trial"",""time""
""fullscreenenter"",""1"",""3113""
","
",,null,run_exp/static/images/task_images/land.jpg,null,,,,,,,108,,,14,,,,,,,,,,,,,,
dig,230,721805,0.0-67.0-3.0,"""event"",""trial"",""time""
""fullscreenenter"",""1"",""3113""
","
","
","""event"",""trial"",""time""
""fullscreenenter"",""1"",""3113""
","
",,,,,,,,,,,,"[{""stimulus"":""run_exp/static/images/task_images/dig.jpg"",""time"":0.20000004768371582},{""stimulus"":""run_exp/static/images/task_images/land.jpg"",""time"":673.4000000953674},{""stimulus"":""run_exp/static/images/task_images/dig.jpg"",""time"":1336.8000001907349}]",[],14,,,,,,,,,,,,,,
harvest,231,722816,0.0-67.0-4.0,"""event"",""trial"",""time""
""fullscreenenter"",""1"",""3113""
","
","
","""event"",""trial"",""time""
""fullscreenenter"",""1"",""3113""
","
",,null,run_exp/static/images/task_images/gems/108.jpg,null,,,,,,,25,,,14,,,,,108,0.230525292,0.231481481,,,,,,,
decision,232,723866,0.0-67.0-5.0,"""event"",""trial"",""time""
""fullscreenenter"",""1"",""3113""
","
","
","""event"",""trial"",""time""
""fullscreenenter"",""1"",""3113""
","
",,1048.9,run_exp/static/images/task_images/land.jpg,65,,,,,,,25,,,14,,,,,,,,54673,2,0,FALSE,,,
dig,233,725831,0.0-68.0-0.0,"""event"",""trial"",""time""
""fullscreenenter"",""1"",""3113""
","
","
","""event"",""trial"",""time""
""fullscreenenter"",""1"",""3113""
","
",,,,,,,,,,,,"[{""stimulus"":""run_exp/static/images/task_images/dig.jpg"",""time"":0.10000014305114746},{""stimulus"":""run_exp/static/images/task_images/land.jpg"",""time"":666.1000001430511},{""stimulus"":""run_exp/static/images/task_images/dig.jpg"",""time"":1315.7000000476837}]",[],14,,,,,,,,,,,,,,
harvest,234,726838,0.0-68.0-1.0,"""event"",""trial"",""time""
""fullscreenenter"",""1"",""3113""
","
","
","""event"",""trial"",""time""
""fullscreenenter"",""1"",""3113""
","
",,null,run_exp/static/images/task_images/gems/25.jpg,null,,,,,,,7,,,14,,,,,25,0.2977979,0.28,,,,,,,
decision,235,727168,0.0-68.0-2.0,"""event"",""trial"",""time""
""fullscreenenter"",""1"",""3113""
","
","
","""event"",""trial"",""time""
""fullscreenenter"",""1"",""3113""
","
",,329.5,run_exp/static/images/task_images/land.jpg,76,,,,,,,7,,,14,,,,,,,,57976,2,1,TRUE,,,
travel,236,736851,0.0-69.0-0.0,"""event"",""trial"",""time""
""fullscreenenter"",""1"",""3113""
","
","
","""event"",""trial"",""time""
""fullscreenenter"",""1"",""3113""
","
",,,,,,,,,,,,"[{""stimulus"":""run_exp/static/images/task_images/rocket-01.jpg"",""time"":0.09999990463256836},{""stimulus"":""run_exp/static/images/task_images/rocket-02.jpg"",""time"":1079.2999999523163},{""stimulus"":""run_exp/static/images/task_images/rocket-03.jpg"",""time"":2153},{""stimulus"":""run_exp/static/images/task_images/rocket-04.jpg"",""time"":3232.2999999523163},{""stimulus"":""run_exp/static/images/task_images/rocket-05.jpg"",""time"":4311.899999856949},{""stimulus"":""run_exp/static/images/task_images/rocket-06.jpg"",""time"":5374.699999809265},{""stimulus"":""run_exp/static/images/task_images/rocket-07.jpg"",""time"":6457.099999904633},{""stimulus"":""run_exp/static/images/task_images/rocket-08.jpg"",""time"":7522.699999809265},{""stimulus"":""run_exp/static/images/task_images/rocket-09.jpg"",""time"":8602.099999904633}]",[],14,,,,,,,,,,,,,,
alien_welcome,237,741862,0.0-69.0-1.0,"""event"",""trial"",""time""
""fullscreenenter"",""1"",""3113""
","
","
","""event"",""trial"",""time""
""fullscreenenter"",""1"",""3113""
","
",,null,run_exp/static/images/task_images/aliens/old_aliens/planet/alien_planet-18.jpg,null,,,,,,,,,,,,,18,"27,66,54,61,53,60,78,45,19,68,20,21,75,8,18,35,26,24,33,76,10,9,63,62,2,79,50,3,51,74,77,15,52,16,34,57,17,39,28,23,49,73",,,,,,,,,,
land,238,742376,0.0-69.0-2.0,"""event"",""trial"",""time""
""fullscreenenter"",""1"",""3113""
","
","
","""event"",""trial"",""time""
""fullscreenenter"",""1"",""3113""
","
",,null,run_exp/static/images/task_images/land.jpg,null,,,,,,,107,,,15,,,,,,,,,,,,,,
dig,239,744380,0.0-69.0-3.0,"""event"",""trial"",""time""
""fullscreenenter"",""1"",""3113""
","
","
","""event"",""trial"",""time""
""fullscreenenter"",""1"",""3113""
","
",,,,,,,,,,,,"[{""stimulus"":""run_exp/static/images/task_images/dig.jpg"",""time"":0.19999980926513672},{""stimulus"":""run_exp/static/images/task_images/land.jpg"",""time"":675.0999999046326},{""stimulus"":""run_exp/static/images/task_images/dig.jpg"",""time"":1339}]",[],15,,,,,,,,,,,,,,
harvest,240,745386,0.0-69.0-4.0,"""event"",""trial"",""time""
""fullscreenenter"",""1"",""3113""
","
","
","""event"",""trial"",""time""
""fullscreenenter"",""1"",""3113""
","
