trial_type,trial_index,time_elapsed,internal_node_id,interactions,blur_events,focus_events,fullscreenenter_events,fullscreenexit_events,success,rt,stimulus,key_press,prompt,subject_id,participant_id,age,gender,button_pressed,next_reward,animation_sequence,responses,planet,curr_prac_trial,n_prac_rounds,alien,aliens,reward_received,decay_rate_actual,decay_rate_exp,time_in_block,block_num,prt,last_trial_on_planet,button_html,bonus,num_failures
pavlovia,0,4,0.0-0.0,"""event"",""trial"",""time""
""focus"",""0"",""0""
""blur"",""0"",""0""
""focus"",""0"",""0""
""blur"",""0"",""0""
""focus"",""0"",""0""
""blur"",""0"",""0""
""focus"",""0"",""0""
""blur"",""0"",""0""
""focus"",""1"",""87354""
""fullscreenenter"",""1"",""89136""
","""event"",""trial"",""time""
""blur"",""0"",""0""
""blur"",""0"",""0""
""blur"",""0"",""0""
""blur"",""0"",""0""
","""event"",""trial"",""time""
""focus"",""0"",""0""
""focus"",""0"",""0""
""focus"",""0"",""0""
""focus"",""0"",""0""
""focus"",""1"",""87354""
","""event"",""trial"",""time""
""fullscreenenter"",""1"",""89136""
","
",,,,,,,,,,,,,,,,,,,,,,,,,,,,
fullscreen,1,89803,0.0-1.0,"""event"",""trial"",""time""
""focus"",""0"",""0""
""blur"",""0"",""0""
""focus"",""0"",""0""
""blur"",""0"",""0""
""focus"",""0"",""0""
""blur"",""0"",""0""
""focus"",""0"",""0""
""blur"",""0"",""0""
""focus"",""1"",""87354""
""fullscreenenter"",""1"",""89136""
","""event"",""trial"",""time""
""blur"",""0"",""0""
""blur"",""0"",""0""
""blur"",""0"",""0""
""blur"",""0"",""0""
","""event"",""trial"",""time""
""focus"",""0"",""0""
""focus"",""0"",""0""
""focus"",""0"",""0""
""focus"",""0"",""0""
""focus"",""1"",""87354""
","""event"",""trial"",""time""
""fullscreenenter"",""1"",""89136""
","
",TRUE,,,,,,,,,,,,,,,,,,,,,,,,,,,
instruc_welcome,2,100067,0.0-2.0,"""event"",""trial"",""time""
""focus"",""0"",""0""
""blur"",""0"",""0""
""focus"",""0"",""0""
""blur"",""0"",""0""
""focus"",""0"",""0""
""blur"",""0"",""0""
""focus"",""0"",""0""
""blur"",""0"",""0""
""focus"",""1"",""87354""
""fullscreenenter"",""1"",""89136""
","""event"",""trial"",""time""
""blur"",""0"",""0""
""blur"",""0"",""0""
""blur"",""0"",""0""
""blur"",""0"",""0""
","""event"",""trial"",""time""
""focus"",""0"",""0""
""focus"",""0"",""0""
""focus"",""0"",""0""
""focus"",""0"",""0""
""focus"",""1"",""87354""
","""event"",""trial"",""time""
""fullscreenenter"",""1"",""89136""
","
",,null,run_exp/static/audio/clip_1_welcome.m4a,null,"<p>Howdy! In this experiment, you’ll be an explorer traveling through space to collect space treasure.</p><p>Your mission is to collect as much treasure as possible.</p><br><br><p><img src='run_exp/static/images/task_images/opening_img-01.jpg' height='300' width='auto'></p>",8018,37,17.21,Male,,,,,,,,,,,,,,,,,,,
audio-keyboard-response,3,116672,0.0-3.0,"""event"",""trial"",""time""
""focus"",""0"",""0""
""blur"",""0"",""0""
""focus"",""0"",""0""
""blur"",""0"",""0""
""focus"",""0"",""0""
""blur"",""0"",""0""
""focus"",""0"",""0""
""blur"",""0"",""0""
""focus"",""1"",""87354""
""fullscreenenter"",""1"",""89136""
","""event"",""trial"",""time""
""blur"",""0"",""0""
""blur"",""0"",""0""
""blur"",""0"",""0""
""blur"",""0"",""0""
","""event"",""trial"",""time""
""focus"",""0"",""0""
""focus"",""0"",""0""
""focus"",""0"",""0""
""focus"",""0"",""0""
""focus"",""1"",""87354""
","""event"",""trial"",""time""
""fullscreenenter"",""1"",""89136""
","
",,null,run_exp/static/audio/clip_2_move.m4a,null,,,,,,,,,,,,,,,,,,,,,,,,
welcome_dec,4,120659,0.0-4.0,"""event"",""trial"",""time""
""focus"",""0"",""0""
""blur"",""0"",""0""
""focus"",""0"",""0""
""blur"",""0"",""0""
""focus"",""0"",""0""
""blur"",""0"",""0""
""focus"",""0"",""0""
""blur"",""0"",""0""
""focus"",""1"",""87354""
""fullscreenenter"",""1"",""89136""
","""event"",""trial"",""time""
""blur"",""0"",""0""
""blur"",""0"",""0""
""blur"",""0"",""0""
""blur"",""0"",""0""
","""event"",""trial"",""time""
""focus"",""0"",""0""
""focus"",""0"",""0""
""focus"",""0"",""0""
""focus"",""0"",""0""
""focus"",""1"",""87354""
","""event"",""trial"",""time""
""fullscreenenter"",""1"",""89136""
","
",,3984,"<p>Howdy! In this experiment, you’ll be an explorer traveling through space to collect space treasure.</p><p>Your mission is to collect as much treasure as possible.</p><br><br><p><img src='run_exp/static/images/task_images/opening_img-01.jpg' height='300' width='auto'></p>",,,,,,,1,,,,,,,,,,,,,,,,,,
html-keyboard-response,5,122484,0.0-5.0,"""event"",""trial"",""time""
""focus"",""0"",""0""
""blur"",""0"",""0""
""focus"",""0"",""0""
""blur"",""0"",""0""
""focus"",""0"",""0""
""blur"",""0"",""0""
""focus"",""0"",""0""
""blur"",""0"",""0""
""focus"",""1"",""87354""
""fullscreenenter"",""1"",""89136""
","""event"",""trial"",""time""
""blur"",""0"",""0""
""blur"",""0"",""0""
""blur"",""0"",""0""
""blur"",""0"",""0""
","""event"",""trial"",""time""
""focus"",""0"",""0""
""focus"",""0"",""0""
""focus"",""0"",""0""
""focus"",""0"",""0""
""focus"",""1"",""87354""
","""event"",""trial"",""time""
""fullscreenenter"",""1"",""89136""
","
",,1820,"<p>Howdy! In this experiment, you’ll be an explorer traveling through space to collect space treasure.</p><p>Your mission is to collect as much treasure as possible.</p><br><br><p><img src='run_exp/static/images/task_images/opening_img-01.jpg' height='300' width='auto'></p><button class=""jspsych-html-btn-unchosen""><img src=""run_exp/static/images/task_images/planet-01.jpg"" height=""50""></button><button class=""jspsych-html-btn-chosen""><img src=""run_exp/static/images/task_images/planet-02.jpg"" height=""50""></button><p><b>[press the space bar to lock in your answer]<b><br></p>",32,,,,,,,,,,,,,,,,,,,,,,,,
instruc_goal,6,132542,0.0-6.0-0.0,"""event"",""trial"",""time""
""focus"",""0"",""0""
""blur"",""0"",""0""
""focus"",""0"",""0""
""blur"",""0"",""0""
""focus"",""0"",""0""
""blur"",""0"",""0""
""focus"",""0"",""0""
""blur"",""0"",""0""
""focus"",""1"",""87354""
""fullscreenenter"",""1"",""89136""
","""event"",""trial"",""time""
""blur"",""0"",""0""
""blur"",""0"",""0""
""blur"",""0"",""0""
""blur"",""0"",""0""
","""event"",""trial"",""time""
""focus"",""0"",""0""
""focus"",""0"",""0""
""focus"",""0"",""0""
""focus"",""0"",""0""
""focus"",""1"",""87354""
","""event"",""trial"",""time""
""fullscreenenter"",""1"",""89136""
","
",,null,run_exp/static/audio/clip_3_goal.m4a,null,"<p> As a space explorer, you’ll visit different planets to dig for space treasure, these pink gems.</p> <p> The more treasure you dig up, the more bonus money you’ll win! </p><br><br><p><img src='run_exp/static/images/task_images/pink_gem.jpg' height='300' width='auto'></p>",,,,,,,,,,,,,,,,,,,,,,,
instruc_goal,7,134035,0.0-6.0-1.0,"""event"",""trial"",""time""
""focus"",""0"",""0""
""blur"",""0"",""0""
""focus"",""0"",""0""
""blur"",""0"",""0""
""focus"",""0"",""0""
""blur"",""0"",""0""
""focus"",""0"",""0""
""blur"",""0"",""0""
""focus"",""1"",""87354""
""fullscreenenter"",""1"",""89136""
","""event"",""trial"",""time""
""blur"",""0"",""0""
""blur"",""0"",""0""
""blur"",""0"",""0""
""blur"",""0"",""0""
","""event"",""trial"",""time""
""focus"",""0"",""0""
""focus"",""0"",""0""
""focus"",""0"",""0""
""focus"",""0"",""0""
""focus"",""1"",""87354""
","""event"",""trial"",""time""
""fullscreenenter"",""1"",""89136""
","
",,1491,"<p> As a space explorer, you’ll visit different planets to dig for space treasure, these pink gems.</p> <p> The more treasure you dig up, the more bonus money you’ll win! </p><br><br><p><img src='run_exp/static/images/task_images/pink_gem.jpg' height='300' width='auto'></p>",,,,,,,1,,,,,,,,,,,,,,,,,,
html-keyboard-response,8,134441,0.0-6.0-2.0,"""event"",""trial"",""time""
""focus"",""0"",""0""
""blur"",""0"",""0""
""focus"",""0"",""0""
""blur"",""0"",""0""
""focus"",""0"",""0""
""blur"",""0"",""0""
""focus"",""0"",""0""
""blur"",""0"",""0""
""focus"",""1"",""87354""
""fullscreenenter"",""1"",""89136""
","""event"",""trial"",""time""
""blur"",""0"",""0""
""blur"",""0"",""0""
""blur"",""0"",""0""
""blur"",""0"",""0""
","""event"",""trial"",""time""
""focus"",""0"",""0""
""focus"",""0"",""0""
""focus"",""0"",""0""
""focus"",""0"",""0""
""focus"",""1"",""87354""
","""event"",""trial"",""time""
""fullscreenenter"",""1"",""89136""
","
",,401,"<p> As a space explorer, you’ll visit different planets to dig for space treasure, these pink gems.</p> <p> The more treasure you dig up, the more bonus money you’ll win! </p><br><br><p><img src='run_exp/static/images/task_images/pink_gem.jpg' height='300' width='auto'></p><button class=""jspsych-html-btn-unchosen""><img src=""run_exp/static/images/task_images/planet-01.jpg"" height=""50""></button><button class=""jspsych-html-btn-chosen""><img src=""run_exp/static/images/task_images/planet-02.jpg"" height=""50""></button><p><b>[press the space bar to lock in your answer]<b><br></p>",32,,,,,,,,,,,,,,,,,,,,,,,,
instruc_dig,9,150447,0.0-7.0-0.0,"""event"",""trial"",""time""
""focus"",""0"",""0""
""blur"",""0"",""0""
""focus"",""0"",""0""
""blur"",""0"",""0""
""focus"",""0"",""0""
""blur"",""0"",""0""
""focus"",""0"",""0""
""blur"",""0"",""0""
""focus"",""1"",""87354""
""fullscreenenter"",""1"",""89136""
","""event"",""trial"",""time""
""blur"",""0"",""0""
""blur"",""0"",""0""
""blur"",""0"",""0""
""blur"",""0"",""0""
","""event"",""trial"",""time""
""focus"",""0"",""0""
""focus"",""0"",""0""
""focus"",""0"",""0""
""focus"",""0"",""0""
""focus"",""1"",""87354""
","""event"",""trial"",""time""
""fullscreenenter"",""1"",""89136""
","
",,null,run_exp/static/audio/clip_4_dig.m4a,null,,,,,,,100,,,,,,,,,,,,,,,,,
instruc_dig_try,10,151696,0.0-7.0-1.0,"""event"",""trial"",""time""
""focus"",""0"",""0""
""blur"",""0"",""0""
""focus"",""0"",""0""
""blur"",""0"",""0""
""focus"",""0"",""0""
""blur"",""0"",""0""
""focus"",""0"",""0""
""blur"",""0"",""0""
""focus"",""1"",""87354""
""fullscreenenter"",""1"",""89136""
","""event"",""trial"",""time""
""blur"",""0"",""0""
""blur"",""0"",""0""
""blur"",""0"",""0""
""blur"",""0"",""0""
","""event"",""trial"",""time""
""focus"",""0"",""0""
""focus"",""0"",""0""
""focus"",""0"",""0""
""focus"",""0"",""0""
""focus"",""1"",""87354""
","""event"",""trial"",""time""
""fullscreenenter"",""1"",""89136""
","
",,1246,"<p> When you’ve arrived at a new planet, you will dig once. </p> <p>Then, you get to decide if you want to stay on the planet and dig again or travel to a new planet and dig there.</p> <p> To stay and dig, press the letter <strong>‘A’</strong> on your keyboard. Try pressing it now! </p><p><img src='run_exp/static/images/task_images/land.jpg'  height='700' width='auto'></p>",65,"<p> When you’ve arrived at a new planet, you will dig once. </p> <p>Then, you get to decide if you want to stay on the planet and dig again or travel to a new planet and dig there.</p> <p> To stay and dig, press the letter <strong>‘A’</strong> on your keyboard. Try pressing it now! </p><p><img src='run_exp/static/images/task_images/land.jpg'  height='700' width='auto'></p>",,,,,,100,,,,,,,,,,,,,,,,,
dig_prac,11,153767,0.0-7.0-2.0,"""event"",""trial"",""time""
""focus"",""0"",""0""
""blur"",""0"",""0""
""focus"",""0"",""0""
""blur"",""0"",""0""
""focus"",""0"",""0""
""blur"",""0"",""0""
""focus"",""0"",""0""
""blur"",""0"",""0""
""focus"",""1"",""87354""
""fullscreenenter"",""1"",""89136""
","""event"",""trial"",""time""
""blur"",""0"",""0""
""blur"",""0"",""0""
""blur"",""0"",""0""
""blur"",""0"",""0""
","""event"",""trial"",""time""
""focus"",""0"",""0""
""focus"",""0"",""0""
""focus"",""0"",""0""
""focus"",""0"",""0""
""focus"",""1"",""87354""
","""event"",""trial"",""time""
""fullscreenenter"",""1"",""89136""
","
",,,,,,,,,,,,"[{""stimulus"":""run_exp/static/images/task_images/dig.jpg"",""time"":1},{""stimulus"":""run_exp/static/images/task_images/land.jpg"",""time"":681},{""stimulus"":""run_exp/static/images/task_images/dig.jpg"",""time"":1355}]",[],,,,,,,,,,,,,,,
instruc_travel,12,190000,0.0-7.0-3.0,"""event"",""trial"",""time""
""focus"",""0"",""0""
""blur"",""0"",""0""
""focus"",""0"",""0""
""blur"",""0"",""0""
""focus"",""0"",""0""
""blur"",""0"",""0""
""focus"",""0"",""0""
""blur"",""0"",""0""
""focus"",""1"",""87354""
""fullscreenenter"",""1"",""89136""
","""event"",""trial"",""time""
""blur"",""0"",""0""
""blur"",""0"",""0""
""blur"",""0"",""0""
""blur"",""0"",""0""
","""event"",""trial"",""time""
""focus"",""0"",""0""
""focus"",""0"",""0""
""focus"",""0"",""0""
""focus"",""0"",""0""
""focus"",""1"",""87354""
","""event"",""trial"",""time""
""fullscreenenter"",""1"",""89136""
","
",,null,run_exp/static/audio/clip_5_travel.m4a,null,"<p>Every time you dig up gems, there are less gems on the planet, so the more you dig on a planet the fewer gems you’ll get with each dig.</p><p>When gems are running low, you may want to travel to a new planet. </p> <p>  Planets are very far apart in this galaxy, so it will take some time to travel between them. </p> <br><p>There are lots and lots of planets for you to visit, so you won’t be able to return to any planets you’ve seen before. </p><br><p>To leave this planet and travel to a new one, press the letter <strong>‘L’</strong> on your keyboard. Try pressing it now! </p><p><img src='run_exp/static/images/task_images/rocket-01.jpg'  height='600' width='auto'></p>",,,,,,,,,,,,,,,,,,,,,,,
instruc_travel_try,13,190958,0.0-7.0-4.0,"""event"",""trial"",""time""
""focus"",""0"",""0""
""blur"",""0"",""0""
""focus"",""0"",""0""
""blur"",""0"",""0""
""focus"",""0"",""0""
""blur"",""0"",""0""
""focus"",""0"",""0""
""blur"",""0"",""0""
""focus"",""1"",""87354""
""fullscreenenter"",""1"",""89136""
","""event"",""trial"",""time""
""blur"",""0"",""0""
""blur"",""0"",""0""
""blur"",""0"",""0""
""blur"",""0"",""0""
","""event"",""trial"",""time""
""focus"",""0"",""0""
""focus"",""0"",""0""
""focus"",""0"",""0""
""focus"",""0"",""0""
""focus"",""1"",""87354""
","""event"",""trial"",""time""
""fullscreenenter"",""1"",""89136""
","
",,956,"<p>Every time you dig up gems, there are less gems on the planet, so the more you dig on a planet the fewer gems you’ll get with each dig.</p><p>When gems are running low, you may want to travel to a new planet. </p> <p>  Planets are very far apart in this galaxy, so it will take some time to travel between them. </p> <br><p>There are lots and lots of planets for you to visit, so you won’t be able to return to any planets you’ve seen before. </p><br><p>To leave this planet and travel to a new one, press the letter <strong>‘L’</strong> on your keyboard. Try pressing it now! </p><p><img src='run_exp/static/images/task_images/rocket-01.jpg'  height='600' width='auto'></p>",76,"<p>Every time you dig up gems, there are less gems on the planet, so the more you dig on a planet the fewer gems you’ll get with each dig.</p><p>When gems are running low, you may want to travel to a new planet. </p> <p>  Planets are very far apart in this galaxy, so it will take some time to travel between them. </p> <br><p>There are lots and lots of planets for you to visit, so you won’t be able to return to any planets you’ve seen before. </p><br><p>To leave this planet and travel to a new one, press the letter <strong>‘L’</strong> on your keyboard. Try pressing it now! </p><p><img src='run_exp/static/images/task_images/rocket-01.jpg'  height='600' width='auto'></p>",,,,,,,,,,,,,,,,,,,,,,,
travel_prac,14,201027,0.0-7.0-5.0,"""event"",""trial"",""time""
""focus"",""0"",""0""
""blur"",""0"",""0""
""focus"",""0"",""0""
""blur"",""0"",""0""
""focus"",""0"",""0""
""blur"",""0"",""0""
""focus"",""0"",""0""
""blur"",""0"",""0""
""focus"",""1"",""87354""
""fullscreenenter"",""1"",""89136""
""fullscreenexit"",""15"",""224770""
","""event"",""trial"",""time""
""blur"",""0"",""0""
""blur"",""0"",""0""
""blur"",""0"",""0""
""blur"",""0"",""0""
","""event"",""trial"",""time""
""focus"",""0"",""0""
""focus"",""0"",""0""
""focus"",""0"",""0""
""focus"",""0"",""0""
""focus"",""1"",""87354""
","""event"",""trial"",""time""
""fullscreenenter"",""1"",""89136""
","""event"",""trial"",""time""
""fullscreenexit"",""15"",""224770""
",,,,,,,,,,,,"[{""stimulus"":""run_exp/static/images/task_images/rocket-01.jpg"",""time"":0},{""stimulus"":""run_exp/static/images/task_images/rocket-02.jpg"",""time"":1120},{""stimulus"":""run_exp/static/images/task_images/rocket-03.jpg"",""time"":2237},{""stimulus"":""run_exp/static/images/task_images/rocket-04.jpg"",""time"":3352},{""stimulus"":""run_exp/static/images/task_images/rocket-05.jpg"",""time"":4471},{""stimulus"":""run_exp/static/images/task_images/rocket-06.jpg"",""time"":5581},{""stimulus"":""run_exp/static/images/task_images/rocket-07.jpg"",""time"":6703},{""stimulus"":""run_exp/static/images/task_images/rocket-08.jpg"",""time"":7821},{""stimulus"":""run_exp/static/images/task_images/rocket-09.jpg"",""time"":8938}]",[],0,,,,,,,,,,,,,,
instruc_alien_greet,15,228234,0.0-7.0-6.0,"""event"",""trial"",""time""
""focus"",""0"",""0""
""blur"",""0"",""0""
""focus"",""0"",""0""
""blur"",""0"",""0""
""focus"",""0"",""0""
""blur"",""0"",""0""
""focus"",""0"",""0""
""blur"",""0"",""0""
""focus"",""1"",""87354""
""fullscreenenter"",""1"",""89136""
""fullscreenexit"",""15"",""224770""
","""event"",""trial"",""time""
""blur"",""0"",""0""
""blur"",""0"",""0""
""blur"",""0"",""0""
""blur"",""0"",""0""
","""event"",""trial"",""time""
""focus"",""0"",""0""
""focus"",""0"",""0""
""focus"",""0"",""0""
""focus"",""0"",""0""
""focus"",""1"",""87354""
","""event"",""trial"",""time""
""fullscreenenter"",""1"",""89136""
","""event"",""trial"",""time""
""fullscreenexit"",""15"",""224770""
",,null,run_exp/static/audio/clip_6_alien.m4a,null,"<p>When you arrive at a new planet, the alien who owns the treasure mine on that planet will greet you!</p><p>The better an alien takes care of their mine the easier it is to dig for gems. Some aliens take better care of their mine than others. So, you won’t get exactly the same amount of gems on each planet.</p><p>What the alien looks like does not tell you anything about how many gems there are on the planet.</p><br><p><img src=""run_exp/static/images/task_images/aliens/instructions_aliens/planet/alien_planet-1.jpg""  height=""600"" width=""auto""></p>",,,,,,,,,,,,,,,,,,,,,,,
instruc_alien_greet,16,232331,0.0-7.0-7.0,"""event"",""trial"",""time""
""focus"",""0"",""0""
""blur"",""0"",""0""
""focus"",""0"",""0""
""blur"",""0"",""0""
""focus"",""0"",""0""
""blur"",""0"",""0""
""focus"",""0"",""0""
""blur"",""0"",""0""
""focus"",""1"",""87354""
""fullscreenenter"",""1"",""89136""
""fullscreenexit"",""15"",""224770""
","""event"",""trial"",""time""
""blur"",""0"",""0""
""blur"",""0"",""0""
""blur"",""0"",""0""
""blur"",""0"",""0""
","""event"",""trial"",""time""
""focus"",""0"",""0""
""focus"",""0"",""0""
""focus"",""0"",""0""
""focus"",""0"",""0""
""focus"",""1"",""87354""
","""event"",""trial"",""time""
""fullscreenenter"",""1"",""89136""
","""event"",""trial"",""time""
""fullscreenexit"",""15"",""224770""
",,4092,"<p>When you arrive at a new planet, the alien who owns the treasure mine on that planet will greet you!</p><p>The better an alien takes care of their mine the easier it is to dig for gems. Some aliens take better care of their mine than others. So, you won’t get exactly the same amount of gems on each planet.</p><p>What the alien looks like does not tell you anything about how many gems there are on the planet.</p><br><p><img src=""run_exp/static/images/task_images/aliens/instructions_aliens/planet/alien_planet-1.jpg""  height=""600"" width=""auto""></p>",,,,,,,1,,,,,,,,,,,,,,,,,,
html-keyboard-response,17,234436,0.0-7.0-8.0,"""event"",""trial"",""time""
""focus"",""0"",""0""
""blur"",""0"",""0""
""focus"",""0"",""0""
""blur"",""0"",""0""
""focus"",""0"",""0""
""blur"",""0"",""0""
""focus"",""0"",""0""
""blur"",""0"",""0""
""focus"",""1"",""87354""
""fullscreenenter"",""1"",""89136""
""fullscreenexit"",""15"",""224770""
","""event"",""trial"",""time""
""blur"",""0"",""0""
""blur"",""0"",""0""
""blur"",""0"",""0""
""blur"",""0"",""0""
","""event"",""trial"",""time""
""focus"",""0"",""0""
""focus"",""0"",""0""
""focus"",""0"",""0""
""focus"",""0"",""0""
""focus"",""1"",""87354""
","""event"",""trial"",""time""
""fullscreenenter"",""1"",""89136""
","""event"",""trial"",""time""
""fullscreenexit"",""15"",""224770""
",,2101,"<p>When you arrive at a new planet, the alien who owns the treasure mine on that planet will greet you!</p><p>The better an alien takes care of their mine the easier it is to dig for gems. Some aliens take better care of their mine than others. So, you won’t get exactly the same amount of gems on each planet.</p><p>What the alien looks like does not tell you anything about how many gems there are on the planet.</p><br><p><img src=""run_exp/static/images/task_images/aliens/instructions_aliens/planet/alien_planet-1.jpg""  height=""600"" width=""auto""></p><button class=""jspsych-html-btn-unchosen""><img src=""run_exp/static/images/task_images/planet-01.jpg"" height=""50""></button><button class=""jspsych-html-btn-chosen""><img src=""run_exp/static/images/task_images/planet-02.jpg"" height=""50""></button><p><b>[press the space bar to lock in your answer]<b><br></p>",32,,,,,,,,,,,,,,,,,,,,,,,,
time_out,18,245663,0.0-8.0-0.0,"""event"",""trial"",""time""
""focus"",""0"",""0""
""blur"",""0"",""0""
""focus"",""0"",""0""
""blur"",""0"",""0""
""focus"",""0"",""0""
""blur"",""0"",""0""
""focus"",""0"",""0""
""blur"",""0"",""0""
""focus"",""1"",""87354""
""fullscreenenter"",""1"",""89136""
""fullscreenexit"",""15"",""224770""
","""event"",""trial"",""time""
""blur"",""0"",""0""
""blur"",""0"",""0""
""blur"",""0"",""0""
""blur"",""0"",""0""
","""event"",""trial"",""time""
""focus"",""0"",""0""
""focus"",""0"",""0""
""focus"",""0"",""0""
""focus"",""0"",""0""
""focus"",""1"",""87354""
","""event"",""trial"",""time""
""fullscreenenter"",""1"",""89136""
","""event"",""trial"",""time""
""fullscreenexit"",""15"",""224770""
",,null,run_exp/static/audio/clip_7_timeout.m4a,null,"<p>If you don't make your choice fast enough, you’ll have to wait a few seconds before you can make another one.</p><p>You can’t dig for more gems or travel to new planets. You just have to sit and wait.</p><br><p><img src='run_exp/static/images/task_images/time_out.jpg'  height='600' width='auto'></p>",,,,,,,,,,,,,,,,,,,,,,,
time_out,19,247628,0.0-8.0-1.0,"""event"",""trial"",""time""
""focus"",""0"",""0""
""blur"",""0"",""0""
""focus"",""0"",""0""
""blur"",""0"",""0""
""focus"",""0"",""0""
""blur"",""0"",""0""
""focus"",""0"",""0""
""blur"",""0"",""0""
""focus"",""1"",""87354""
""fullscreenenter"",""1"",""89136""
""fullscreenexit"",""15"",""224770""
","""event"",""trial"",""time""
""blur"",""0"",""0""
""blur"",""0"",""0""
""blur"",""0"",""0""
""blur"",""0"",""0""
","""event"",""trial"",""time""
""focus"",""0"",""0""
""focus"",""0"",""0""
""focus"",""0"",""0""
""focus"",""0"",""0""
""focus"",""1"",""87354""
","""event"",""trial"",""time""
""fullscreenenter"",""1"",""89136""
","""event"",""trial"",""time""
""fullscreenexit"",""15"",""224770""
",,1964,"<p>If you don't make your choice fast enough, you’ll have to wait a few seconds before you can make another one.</p><p>You can’t dig for more gems or travel to new planets. You just have to sit and wait.</p><br><p><img src='run_exp/static/images/task_images/time_out.jpg'  height='600' width='auto'></p>",,,,,,,1,,,,,,,,,,,,,,,,,,
html-keyboard-response,20,248237,0.0-8.0-2.0,"""event"",""trial"",""time""
""focus"",""0"",""0""
""blur"",""0"",""0""
""focus"",""0"",""0""
""blur"",""0"",""0""
""focus"",""0"",""0""
""blur"",""0"",""0""
""focus"",""0"",""0""
""blur"",""0"",""0""
""focus"",""1"",""87354""
""fullscreenenter"",""1"",""89136""
""fullscreenexit"",""15"",""224770""
","""event"",""trial"",""time""
""blur"",""0"",""0""
""blur"",""0"",""0""
""blur"",""0"",""0""
""blur"",""0"",""0""
","""event"",""trial"",""time""
""focus"",""0"",""0""
""focus"",""0"",""0""
""focus"",""0"",""0""
""focus"",""0"",""0""
""focus"",""1"",""87354""
","""event"",""trial"",""time""
""fullscreenenter"",""1"",""89136""
","""event"",""trial"",""time""
""fullscreenexit"",""15"",""224770""
",,607,"<p>If you don't make your choice fast enough, you’ll have to wait a few seconds before you can make another one.</p><p>You can’t dig for more gems or travel to new planets. You just have to sit and wait.</p><br><p><img src='run_exp/static/images/task_images/time_out.jpg'  height='600' width='auto'></p><button class=""jspsych-html-btn-unchosen""><img src=""run_exp/static/images/task_images/planet-01.jpg"" height=""50""></button><button class=""jspsych-html-btn-chosen""><img src=""run_exp/static/images/task_images/planet-02.jpg"" height=""50""></button><p><b>[press the space bar to lock in your answer]<b><br></p>",32,,,,,,,,,,,,,,,,,,,,,,,,
instruc_break,21,264095,0.0-9.0-0.0,"""event"",""trial"",""time""
""focus"",""0"",""0""
""blur"",""0"",""0""
""focus"",""0"",""0""
""blur"",""0"",""0""
""focus"",""0"",""0""
""blur"",""0"",""0""
""focus"",""0"",""0""
""blur"",""0"",""0""
""focus"",""1"",""87354""
""fullscreenenter"",""1"",""89136""
""fullscreenexit"",""15"",""224770""
","""event"",""trial"",""time""
""blur"",""0"",""0""
""blur"",""0"",""0""
""blur"",""0"",""0""
""blur"",""0"",""0""
","""event"",""trial"",""time""
""focus"",""0"",""0""
""focus"",""0"",""0""
""focus"",""0"",""0""
""focus"",""0"",""0""
""focus"",""1"",""87354""
","""event"",""trial"",""time""
""fullscreenenter"",""1"",""89136""
","""event"",""trial"",""time""
""fullscreenexit"",""15"",""224770""
",,null,run_exp/static/audio/clip_8_break.m4a,null,"<p> After digging and traveling for a while, you’ll be able to take a break at home base. </p><p>The game will last 20 minutes no matter what.</p><p>You will visit home base every 5 minutes, so, you will visit home base three times during the game.</p><br><p><img src='run_exp/static/images/task_images/home_base.jpg' height='600' width='auto'></p>",,,,,,,,,,,,,,,,,,,,,,,
instruc_break,22,269747,0.0-9.0-1.0,"""event"",""trial"",""time""
""focus"",""0"",""0""
""blur"",""0"",""0""
""focus"",""0"",""0""
""blur"",""0"",""0""
""focus"",""0"",""0""
""blur"",""0"",""0""
""focus"",""0"",""0""
""blur"",""0"",""0""
""focus"",""1"",""87354""
""fullscreenenter"",""1"",""89136""
""fullscreenexit"",""15"",""224770""
","""event"",""trial"",""time""
""blur"",""0"",""0""
""blur"",""0"",""0""
""blur"",""0"",""0""
""blur"",""0"",""0""
","""event"",""trial"",""time""
""focus"",""0"",""0""
""focus"",""0"",""0""
""focus"",""0"",""0""
""focus"",""0"",""0""
""focus"",""1"",""87354""
","""event"",""trial"",""time""
""fullscreenenter"",""1"",""89136""
","""event"",""trial"",""time""
""fullscreenexit"",""15"",""224770""
",,5651,"<p> After digging and traveling for a while, you’ll be able to take a break at home base. </p><p>The game will last 20 minutes no matter what.</p><p>You will visit home base every 5 minutes, so, you will visit home base three times during the game.</p><br><p><img src='run_exp/static/images/task_images/home_base.jpg' height='600' width='auto'></p>",,,,,,,1,,,,,,,,,,,,,,,,,,
html-keyboard-response,23,271492,0.0-9.0-2.0,"""event"",""trial"",""time""
""focus"",""0"",""0""
""blur"",""0"",""0""
""focus"",""0"",""0""
""blur"",""0"",""0""
""focus"",""0"",""0""
""blur"",""0"",""0""
""focus"",""0"",""0""
""blur"",""0"",""0""
""focus"",""1"",""87354""
""fullscreenenter"",""1"",""89136""
""fullscreenexit"",""15"",""224770""
","""event"",""trial"",""time""
""blur"",""0"",""0""
""blur"",""0"",""0""
""blur"",""0"",""0""
""blur"",""0"",""0""
","""event"",""trial"",""time""
""focus"",""0"",""0""
""focus"",""0"",""0""
""focus"",""0"",""0""
""focus"",""0"",""0""
""focus"",""1"",""87354""
","""event"",""trial"",""time""
""fullscreenenter"",""1"",""89136""
","""event"",""trial"",""time""
""fullscreenexit"",""15"",""224770""
",,1742,"<p> After digging and traveling for a while, you’ll be able to take a break at home base. </p><p>The game will last 20 minutes no matter what.</p><p>You will visit home base every 5 minutes, so, you will visit home base three times during the game.</p><br><p><img src='run_exp/static/images/task_images/home_base.jpg' height='600' width='auto'></p><button class=""jspsych-html-btn-unchosen""><img src=""run_exp/static/images/task_images/planet-01.jpg"" height=""50""></button><button class=""jspsych-html-btn-chosen""><img src=""run_exp/static/images/task_images/planet-02.jpg"" height=""50""></button><p><b>[press the space bar to lock in your answer]<b><br></p>",32,,,,,,,,,,,,,,,,,,,,,,,,
instruc_prac_game,24,281760,0.0-10.0-0.0,"""event"",""trial"",""time""
""focus"",""0"",""0""
""blur"",""0"",""0""
""focus"",""0"",""0""
""blur"",""0"",""0""
""focus"",""0"",""0""
""blur"",""0"",""0""
""focus"",""0"",""0""
""blur"",""0"",""0""
""focus"",""1"",""87354""
""fullscreenenter"",""1"",""89136""
""fullscreenexit"",""15"",""224770""
","""event"",""trial"",""time""
""blur"",""0"",""0""
""blur"",""0"",""0""
""blur"",""0"",""0""
""blur"",""0"",""0""
","""event"",""trial"",""time""
""focus"",""0"",""0""
""focus"",""0"",""0""
""focus"",""0"",""0""
""focus"",""0"",""0""
""focus"",""1"",""87354""
","""event"",""trial"",""time""
""fullscreenenter"",""1"",""89136""
","""event"",""trial"",""time""
""fullscreenexit"",""15"",""224770""
",,null,run_exp/static/audio/clip_9_practice.m4a,null,"<p> Are you ready to play a practice game? </p> <p>In this practice game, you'll be digging up barrels of gems. But, in the real game, you'll be digging up the gems themselves. </p>",,,,,,,,,,,,,,,,,,,,,,,
html-button-response,25,282851,0.0-10.0-1.0,"""event"",""trial"",""time""
""focus"",""0"",""0""
""blur"",""0"",""0""
""focus"",""0"",""0""
""blur"",""0"",""0""
""focus"",""0"",""0""
""blur"",""0"",""0""
""focus"",""0"",""0""
""blur"",""0"",""0""
""focus"",""1"",""87354""
""fullscreenenter"",""1"",""89136""
""fullscreenexit"",""15"",""224770""
","""event"",""trial"",""time""
""blur"",""0"",""0""
""blur"",""0"",""0""
""blur"",""0"",""0""
""blur"",""0"",""0""
","""event"",""trial"",""time""
""focus"",""0"",""0""
""focus"",""0"",""0""
""focus"",""0"",""0""
""focus"",""0"",""0""
""focus"",""1"",""87354""
","""event"",""trial"",""time""
""fullscreenenter"",""1"",""89136""
","""event"",""trial"",""time""
""fullscreenexit"",""15"",""224770""
",,1091,"<p> Are you ready to play a practice game? </p> <p>In this practice game, you'll be digging up barrels of gems. But, in the real game, you'll be digging up the gems themselves. </p>",,,,,,,0,,,,,,,,,,,,,,,,,,
alien_welcome_prac,26,287861,0.0-11.0-0.0,"""event"",""trial"",""time""
""focus"",""0"",""0""
""blur"",""0"",""0""
""focus"",""0"",""0""
""blur"",""0"",""0""
""focus"",""0"",""0""
""blur"",""0"",""0""
""focus"",""0"",""0""
""blur"",""0"",""0""
""focus"",""1"",""87354""
""fullscreenenter"",""1"",""89136""
""fullscreenexit"",""15"",""224770""
","""event"",""trial"",""time""
""blur"",""0"",""0""
""blur"",""0"",""0""
""blur"",""0"",""0""
""blur"",""0"",""0""
","""event"",""trial"",""time""
""focus"",""0"",""0""
""focus"",""0"",""0""
""focus"",""0"",""0""
""focus"",""0"",""0""
""focus"",""1"",""87354""
","""event"",""trial"",""time""
""fullscreenenter"",""1"",""89136""
","""event"",""trial"",""time""
""fullscreenexit"",""15"",""224770""
",,null,run_exp/static/images/task_images/aliens/practice_aliens/planet/alien_planet-5.jpg,null,,,,,,,,,,,,,,,,,,,,,,,,
land_prac,27,288366,0.0-11.0-1.0,"""event"",""trial"",""time""
""focus"",""0"",""0""
""blur"",""0"",""0""
""focus"",""0"",""0""
""blur"",""0"",""0""
""focus"",""0"",""0""
""blur"",""0"",""0""
""focus"",""0"",""0""
""blur"",""0"",""0""
""focus"",""1"",""87354""
""fullscreenenter"",""1"",""89136""
""fullscreenexit"",""15"",""224770""
","""event"",""trial"",""time""
""blur"",""0"",""0""
""blur"",""0"",""0""
""blur"",""0"",""0""
""blur"",""0"",""0""
","""event"",""trial"",""time""
""focus"",""0"",""0""
""focus"",""0"",""0""
""focus"",""0"",""0""
""focus"",""0"",""0""
""focus"",""1"",""87354""
","""event"",""trial"",""time""
""fullscreenenter"",""1"",""89136""
","""event"",""trial"",""time""
""fullscreenexit"",""15"",""224770""
",,null,run_exp/static/images/task_images/land.jpg,null,,,,,,,108,,,0,,,,,,,,,,,,,,
dig_prac,28,290391,0.0-11.0-2.0,"""event"",""trial"",""time""
""focus"",""0"",""0""
""blur"",""0"",""0""
""focus"",""0"",""0""
""blur"",""0"",""0""
""focus"",""0"",""0""
""blur"",""0"",""0""
""focus"",""0"",""0""
""blur"",""0"",""0""
""focus"",""1"",""87354""
""fullscreenenter"",""1"",""89136""
""fullscreenexit"",""15"",""224770""
","""event"",""trial"",""time""
""blur"",""0"",""0""
""blur"",""0"",""0""
""blur"",""0"",""0""
""blur"",""0"",""0""
","""event"",""trial"",""time""
""focus"",""0"",""0""
""focus"",""0"",""0""
""focus"",""0"",""0""
""focus"",""0"",""0""
""focus"",""1"",""87354""
","""event"",""trial"",""time""
""fullscreenenter"",""1"",""89136""
","""event"",""trial"",""time""
""fullscreenexit"",""15"",""224770""
",,,,,,,,,,,,"[{""stimulus"":""run_exp/static/images/task_images/dig.jpg"",""time"":0},{""stimulus"":""run_exp/static/images/task_images/land.jpg"",""time"":670},{""stimulus"":""run_exp/static/images/task_images/dig.jpg"",""time"":1344}]",[],,,,,,,,,,,,,,,
harvest_prac,29,291403,0.0-11.0-3.0,"""event"",""trial"",""time""
""focus"",""0"",""0""
""blur"",""0"",""0""
""focus"",""0"",""0""
""blur"",""0"",""0""
""focus"",""0"",""0""
""blur"",""0"",""0""
""focus"",""0"",""0""
""blur"",""0"",""0""
""focus"",""1"",""87354""
""fullscreenenter"",""1"",""89136""
""fullscreenexit"",""15"",""224770""
","""event"",""trial"",""time""
""blur"",""0"",""0""
""blur"",""0"",""0""
""blur"",""0"",""0""
""blur"",""0"",""0""
","""event"",""trial"",""time""
""focus"",""0"",""0""
""focus"",""0"",""0""
""focus"",""0"",""0""
""focus"",""0"",""0""
""focus"",""1"",""87354""
","""event"",""trial"",""time""
""fullscreenenter"",""1"",""89136""
","""event"",""trial"",""time""
""fullscreenexit"",""15"",""224770""
",,null,run_exp/static/images/task_images/barrel_text.jpg,null,,,,,,,,,,,,,,,,,,,,,,,,
decision_prac,30,293392,0.0-11.0-4.0,"""event"",""trial"",""time""
""focus"",""0"",""0""
""blur"",""0"",""0""
""focus"",""0"",""0""
""blur"",""0"",""0""
""focus"",""0"",""0""
""blur"",""0"",""0""
""focus"",""0"",""0""
""blur"",""0"",""0""
""focus"",""1"",""87354""
""fullscreenenter"",""1"",""89136""
""fullscreenexit"",""15"",""224770""
","""event"",""trial"",""time""
""blur"",""0"",""0""
""blur"",""0"",""0""
""blur"",""0"",""0""
""blur"",""0"",""0""
","""event"",""trial"",""time""
""focus"",""0"",""0""
""focus"",""0"",""0""
""focus"",""0"",""0""
""focus"",""0"",""0""
""focus"",""1"",""87354""
","""event"",""trial"",""time""
""fullscreenenter"",""1"",""89136""
","""event"",""trial"",""time""
""fullscreenexit"",""15"",""224770""
",,1988,run_exp/static/images/task_images/land.jpg,65,,,,,,,,,,,1,,,,,,,,,,,,,
dig_prac,31,295430,0.0-12.0-0.0,"""event"",""trial"",""time""
""focus"",""0"",""0""
""blur"",""0"",""0""
""focus"",""0"",""0""
""blur"",""0"",""0""
""focus"",""0"",""0""
""blur"",""0"",""0""
""focus"",""0"",""0""
""blur"",""0"",""0""
""focus"",""1"",""87354""
""fullscreenenter"",""1"",""89136""
""fullscreenexit"",""15"",""224770""
","""event"",""trial"",""time""
""blur"",""0"",""0""
""blur"",""0"",""0""
""blur"",""0"",""0""
""blur"",""0"",""0""
","""event"",""trial"",""time""
""focus"",""0"",""0""
""focus"",""0"",""0""
""focus"",""0"",""0""
""focus"",""0"",""0""
""focus"",""1"",""87354""
","""event"",""trial"",""time""
""fullscreenenter"",""1"",""89136""
","""event"",""trial"",""time""
""fullscreenexit"",""15"",""224770""
",,,,,,,,,,,,"[{""stimulus"":""run_exp/static/images/task_images/dig.jpg"",""time"":1},{""stimulus"":""run_exp/static/images/task_images/land.jpg"",""time"":675},{""stimulus"":""run_exp/static/images/task_images/dig.jpg"",""time"":1351}]",[],,,,,,,,,,,,,,,
harvest_prac,32,296436,0.0-12.0-1.0,"""event"",""trial"",""time""
""focus"",""0"",""0""
""blur"",""0"",""0""
""focus"",""0"",""0""
""blur"",""0"",""0""
""focus"",""0"",""0""
""blur"",""0"",""0""
""focus"",""0"",""0""
""blur"",""0"",""0""
""focus"",""1"",""87354""
""fullscreenenter"",""1"",""89136""
""fullscreenexit"",""15"",""224770""
","""event"",""trial"",""time""
""blur"",""0"",""0""
""blur"",""0"",""0""
""blur"",""0"",""0""
""blur"",""0"",""0""
","""event"",""trial"",""time""
""focus"",""0"",""0""
""focus"",""0"",""0""
""focus"",""0"",""0""
""focus"",""0"",""0""
""focus"",""1"",""87354""
","""event"",""trial"",""time""
""fullscreenenter"",""1"",""89136""
","""event"",""trial"",""time""
""fullscreenexit"",""15"",""224770""
",,null,run_exp/static/images/task_images/barrel_text.jpg,null,,,,,,,,,,,,,,,,,,,,,,,,
decision_prac,33,297649,0.0-12.0-2.0,"""event"",""trial"",""time""
""focus"",""0"",""0""
""blur"",""0"",""0""
""focus"",""0"",""0""
""blur"",""0"",""0""
""focus"",""0"",""0""
""blur"",""0"",""0""
""focus"",""0"",""0""
""blur"",""0"",""0""
""focus"",""1"",""87354""
""fullscreenenter"",""1"",""89136""
""fullscreenexit"",""15"",""224770""
","""event"",""trial"",""time""
""blur"",""0"",""0""
""blur"",""0"",""0""
""blur"",""0"",""0""
""blur"",""0"",""0""
","""event"",""trial"",""time""
""focus"",""0"",""0""
""focus"",""0"",""0""
""focus"",""0"",""0""
""focus"",""0"",""0""
""focus"",""1"",""87354""
","""event"",""trial"",""time""
""fullscreenenter"",""1"",""89136""
","""event"",""trial"",""time""
""fullscreenexit"",""15"",""224770""
",,1212,run_exp/static/images/task_images/land.jpg,65,,,,,,,,,,,2,,,,,,,,,,,,,
dig_prac,34,299697,0.0-13.0-0.0,"""event"",""trial"",""time""
""focus"",""0"",""0""
""blur"",""0"",""0""
""focus"",""0"",""0""
""blur"",""0"",""0""
""focus"",""0"",""0""
""blur"",""0"",""0""
""focus"",""0"",""0""
""blur"",""0"",""0""
""focus"",""1"",""87354""
""fullscreenenter"",""1"",""89136""
""fullscreenexit"",""15"",""224770""
","""event"",""trial"",""time""
""blur"",""0"",""0""
""blur"",""0"",""0""
""blur"",""0"",""0""
""blur"",""0"",""0""
","""event"",""trial"",""time""
""focus"",""0"",""0""
""focus"",""0"",""0""
""focus"",""0"",""0""
""focus"",""0"",""0""
""focus"",""1"",""87354""
","""event"",""trial"",""time""
""fullscreenenter"",""1"",""89136""
","""event"",""trial"",""time""
""fullscreenexit"",""15"",""224770""
",,,,,,,,,,,,"[{""stimulus"":""run_exp/static/images/task_images/dig.jpg"",""time"":0},{""stimulus"":""run_exp/static/images/task_images/land.jpg"",""time"":679},{""stimulus"":""run_exp/static/images/task_images/dig.jpg"",""time"":1357}]",[],,,,,,,,,,,,,,,
harvest_prac,35,300700,0.0-13.0-1.0,"""event"",""trial"",""time""
""focus"",""0"",""0""
""blur"",""0"",""0""
""focus"",""0"",""0""
""blur"",""0"",""0""
""focus"",""0"",""0""
""blur"",""0"",""0""
""focus"",""0"",""0""
""blur"",""0"",""0""
""focus"",""1"",""87354""
""fullscreenenter"",""1"",""89136""
""fullscreenexit"",""15"",""224770""
","""event"",""trial"",""time""
""blur"",""0"",""0""
""blur"",""0"",""0""
""blur"",""0"",""0""
""blur"",""0"",""0""
","""event"",""trial"",""time""
""focus"",""0"",""0""
""focus"",""0"",""0""
""focus"",""0"",""0""
""focus"",""0"",""0""
""focus"",""1"",""87354""
","""event"",""trial"",""time""
""fullscreenenter"",""1"",""89136""
","""event"",""trial"",""time""
""fullscreenexit"",""15"",""224770""
",,null,run_exp/static/images/task_images/barrel_text.jpg,null,,,,,,,,,,,,,,,,,,,,,,,,
decision_prac,36,301430,0.0-13.0-2.0,"""event"",""trial"",""time""
""focus"",""0"",""0""
""blur"",""0"",""0""
""focus"",""0"",""0""
""blur"",""0"",""0""
""focus"",""0"",""0""
""blur"",""0"",""0""
""focus"",""0"",""0""
""blur"",""0"",""0""
""focus"",""1"",""87354""
""fullscreenenter"",""1"",""89136""
""fullscreenexit"",""15"",""224770""
","""event"",""trial"",""time""
""blur"",""0"",""0""
""blur"",""0"",""0""
""blur"",""0"",""0""
""blur"",""0"",""0""
","""event"",""trial"",""time""
""focus"",""0"",""0""
""focus"",""0"",""0""
""focus"",""0"",""0""
""focus"",""0"",""0""
""focus"",""1"",""87354""
","""event"",""trial"",""time""
""fullscreenenter"",""1"",""89136""
","""event"",""trial"",""time""
""fullscreenexit"",""15"",""224770""
",,728,run_exp/static/images/task_images/land.jpg,65,,,,,,,,,,,3,,,,,,,,,,,,,
dig_prac,37,303468,0.0-14.0-0.0,"""event"",""trial"",""time""
""focus"",""0"",""0""
""blur"",""0"",""0""
""focus"",""0"",""0""
""blur"",""0"",""0""
""focus"",""0"",""0""
""blur"",""0"",""0""
""focus"",""0"",""0""
""blur"",""0"",""0""
""focus"",""1"",""87354""
""fullscreenenter"",""1"",""89136""
""fullscreenexit"",""15"",""224770""
","""event"",""trial"",""time""
""blur"",""0"",""0""
""blur"",""0"",""0""
""blur"",""0"",""0""
""blur"",""0"",""0""
","""event"",""trial"",""time""
""focus"",""0"",""0""
""focus"",""0"",""0""
""focus"",""0"",""0""
""focus"",""0"",""0""
""focus"",""1"",""87354""
","""event"",""trial"",""time""
""fullscreenenter"",""1"",""89136""
","""event"",""trial"",""time""
""fullscreenexit"",""15"",""224770""
",,,,,,,,,,,,"[{""stimulus"":""run_exp/static/images/task_images/dig.jpg"",""time"":0},{""stimulus"":""run_exp/static/images/task_images/land.jpg"",""time"":678},{""stimulus"":""run_exp/static/images/task_images/dig.jpg"",""time"":1354}]",[],,,,,,,,,,,,,,,
harvest_prac,38,304472,0.0-14.0-1.0,"""event"",""trial"",""time""
""focus"",""0"",""0""
""blur"",""0"",""0""
""focus"",""0"",""0""
""blur"",""0"",""0""
""focus"",""0"",""0""
""blur"",""0"",""0""
""focus"",""0"",""0""
""blur"",""0"",""0""
""focus"",""1"",""87354""
""fullscreenenter"",""1"",""89136""
""fullscreenexit"",""15"",""224770""
","""event"",""trial"",""time""
""blur"",""0"",""0""
""blur"",""0"",""0""
""blur"",""0"",""0""
""blur"",""0"",""0""
","""event"",""trial"",""time""
""focus"",""0"",""0""
""focus"",""0"",""0""
""focus"",""0"",""0""
""focus"",""0"",""0""
""focus"",""1"",""87354""
","""event"",""trial"",""time""
""fullscreenenter"",""1"",""89136""
","""event"",""trial"",""time""
""fullscreenexit"",""15"",""224770""
",,null,run_exp/static/images/task_images/barrel_text.jpg,null,,,,,,,,,,,,,,,,,,,,,,,,
decision_prac,39,304691,0.0-14.0-2.0,"""event"",""trial"",""time""
""focus"",""0"",""0""
""blur"",""0"",""0""
""focus"",""0"",""0""
""blur"",""0"",""0""
""focus"",""0"",""0""
""blur"",""0"",""0""
""focus"",""0"",""0""
""blur"",""0"",""0""
""focus"",""1"",""87354""
""fullscreenenter"",""1"",""89136""
""fullscreenexit"",""15"",""224770""
","""event"",""trial"",""time""
""blur"",""0"",""0""
""blur"",""0"",""0""
""blur"",""0"",""0""
""blur"",""0"",""0""
","""event"",""trial"",""time""
""focus"",""0"",""0""
""focus"",""0"",""0""
""focus"",""0"",""0""
""focus"",""0"",""0""
""focus"",""1"",""87354""
","""event"",""trial"",""time""
""fullscreenenter"",""1"",""89136""
","""event"",""trial"",""time""
""fullscreenexit"",""15"",""224770""
",,219,run_exp/static/images/task_images/land.jpg,65,,,,,,,,,,,4,,,,,,,,,,,,,
dig_prac,40,306735,0.0-15.0-0.0,"""event"",""trial"",""time""
""focus"",""0"",""0""
""blur"",""0"",""0""
""focus"",""0"",""0""
""blur"",""0"",""0""
""focus"",""0"",""0""
""blur"",""0"",""0""
""focus"",""0"",""0""
""blur"",""0"",""0""
""focus"",""1"",""87354""
""fullscreenenter"",""1"",""89136""
""fullscreenexit"",""15"",""224770""
","""event"",""trial"",""time""
""blur"",""0"",""0""
""blur"",""0"",""0""
""blur"",""0"",""0""
""blur"",""0"",""0""
","""event"",""trial"",""time""
""focus"",""0"",""0""
""focus"",""0"",""0""
""focus"",""0"",""0""
""focus"",""0"",""0""
""focus"",""1"",""87354""
","""event"",""trial"",""time""
""fullscreenenter"",""1"",""89136""
","""event"",""trial"",""time""
""fullscreenexit"",""15"",""224770""
",,,,,,,,,,,,"[{""stimulus"":""run_exp/static/images/task_images/dig.jpg"",""time"":0},{""stimulus"":""run_exp/static/images/task_images/land.jpg"",""time"":683},{""stimulus"":""run_exp/static/images/task_images/dig.jpg"",""time"":1360}]",[],,,,,,,,,,,,,,,
harvest_prac,41,307741,0.0-15.0-1.0,"""event"",""trial"",""time""
""focus"",""0"",""0""
""blur"",""0"",""0""
""focus"",""0"",""0""
""blur"",""0"",""0""
""focus"",""0"",""0""
""blur"",""0"",""0""
""focus"",""0"",""0""
""blur"",""0"",""0""
""focus"",""1"",""87354""
""fullscreenenter"",""1"",""89136""
""fullscreenexit"",""15"",""224770""
","""event"",""trial"",""time""
""blur"",""0"",""0""
""blur"",""0"",""0""
""blur"",""0"",""0""
""blur"",""0"",""0""
","""event"",""trial"",""time""
""focus"",""0"",""0""
""focus"",""0"",""0""
""focus"",""0"",""0""
""focus"",""0"",""0""
""focus"",""1"",""87354""
","""event"",""trial"",""time""
""fullscreenenter"",""1"",""89136""
","""event"",""trial"",""time""
""fullscreenexit"",""15"",""224770""
",,null,run_exp/static/images/task_images/barrel_text.jpg,null,,,,,,,,,,,,,,,,,,,,,,,,
decision_prac,42,307850,0.0-15.0-2.0,"""event"",""trial"",""time""
""focus"",""0"",""0""
""blur"",""0"",""0""
""focus"",""0"",""0""
""blur"",""0"",""0""
""focus"",""0"",""0""
""blur"",""0"",""0""
""focus"",""0"",""0""
""blur"",""0"",""0""
""focus"",""1"",""87354""
""fullscreenenter"",""1"",""89136""
""fullscreenexit"",""15"",""224770""
","""event"",""trial"",""time""
""blur"",""0"",""0""
""blur"",""0"",""0""
""blur"",""0"",""0""
""blur"",""0"",""0""
","""event"",""trial"",""time""
""focus"",""0"",""0""
""focus"",""0"",""0""
""focus"",""0"",""0""
""focus"",""0"",""0""
""focus"",""1"",""87354""
","""event"",""trial"",""time""
""fullscreenenter"",""1"",""89136""
","""event"",""trial"",""time""
""fullscreenexit"",""15"",""224770""
",,108,run_exp/static/images/task_images/land.jpg,65,,,,,,,,,,,,1,,,,,,,,,,,,
quiz_instruc,43,309419,0.0-16.0-0.0,"""event"",""trial"",""time""
""focus"",""0"",""0""
""blur"",""0"",""0""
""focus"",""0"",""0""
""blur"",""0"",""0""
""focus"",""0"",""0""
""blur"",""0"",""0""
""focus"",""0"",""0""
""blur"",""0"",""0""
""focus"",""1"",""87354""
""fullscreenenter"",""1"",""89136""
""fullscreenexit"",""15"",""224770""
""blur"",""44"",""326669""
""focus"",""44"",""331975""
","""event"",""trial"",""time""
""blur"",""0"",""0""
""blur"",""0"",""0""
""blur"",""0"",""0""
""blur"",""0"",""0""
""blur"",""44"",""326669""
","""event"",""trial"",""time""
""focus"",""0"",""0""
""focus"",""0"",""0""
""focus"",""0"",""0""
""focus"",""0"",""0""
""focus"",""1"",""87354""
""focus"",""44"",""331975""
","""event"",""trial"",""time""
""fullscreenenter"",""1"",""89136""
","""event"",""trial"",""time""
""fullscreenexit"",""15"",""224770""
",,1566,run_exp/static/audio/clip_10_quiz.m4a,,,,,,,0,,,,,,,,,,,,,,,,,,
instruc_repeat,44,352163,0.0-16.0-1.0,"""event"",""trial"",""time""
""focus"",""0"",""0""
""blur"",""0"",""0""
""focus"",""0"",""0""
""blur"",""0"",""0""
""focus"",""0"",""0""
""blur"",""0"",""0""
""focus"",""0"",""0""
""blur"",""0"",""0""
""focus"",""1"",""87354""
""fullscreenenter"",""1"",""89136""
""fullscreenexit"",""15"",""224770""
""blur"",""44"",""326669""
""focus"",""44"",""331975""
","""event"",""trial"",""time""
""blur"",""0"",""0""
""blur"",""0"",""0""
""blur"",""0"",""0""
""blur"",""0"",""0""
""blur"",""44"",""326669""
","""event"",""trial"",""time""
""focus"",""0"",""0""
""focus"",""0"",""0""
""focus"",""0"",""0""
""focus"",""0"",""0""
""focus"",""1"",""87354""
""focus"",""44"",""331975""
","""event"",""trial"",""time""
""fullscreenenter"",""1"",""89136""
","""event"",""trial"",""time""
""fullscreenexit"",""15"",""224770""
",,null,"<p> Are you ready to play a practice game? </p> <p>In this practice game, you'll be digging up barrels of gems. But, in the real game, you'll be digging up the gems themselves. </p>",null,"<p>In this game, your goal is to collect as many gems as you can. That’s how you will win bonus money. </p> <p>The entire game will last 20 minutes no matter how many gems you collect or how many planets you visit. </p><p>To stay on a planet and dig again, press the letter A on your keyboard. To leave for a new planet, press the letter L.</p><p>The more you dig on a planet, the fewer gems you’ll get with each dig which is why you might consider leaving for a new planet. </p><p>When you arrive at a new planet, you’ll be greeted by an alien. What the alien looks like does not tell you anything about how much treasure is on the planet. </p>",,,,,,,,,,,,,,,,,,,,,,,
instruc_repeat_continue,45,353163,0.0-16.0-2.0,"""event"",""trial"",""time""
""focus"",""0"",""0""
""blur"",""0"",""0""
""focus"",""0"",""0""
""blur"",""0"",""0""
""focus"",""0"",""0""
""blur"",""0"",""0""
""focus"",""0"",""0""
""blur"",""0"",""0""
""focus"",""1"",""87354""
""fullscreenenter"",""1"",""89136""
""fullscreenexit"",""15"",""224770""
""blur"",""44"",""326669""
""focus"",""44"",""331975""
","""event"",""trial"",""time""
""blur"",""0"",""0""
""blur"",""0"",""0""
""blur"",""0"",""0""
""blur"",""0"",""0""
""blur"",""44"",""326669""
","""event"",""trial"",""time""
""focus"",""0"",""0""
""focus"",""0"",""0""
""focus"",""0"",""0""
""focus"",""0"",""0""
""focus"",""1"",""87354""
""focus"",""44"",""331975""
","""event"",""trial"",""time""
""fullscreenenter"",""1"",""89136""
","""event"",""trial"",""time""
""fullscreenexit"",""15"",""224770""
",,998,"<p> Are you ready to play a practice game? </p> <p>In this practice game, you'll be digging up barrels of gems. But, in the real game, you'll be digging up the gems themselves. </p>",,,,,,,0,,,,,,,,,,,,,,,,,,
quiz_q_1_ask,46,357299,0.0-16.0-3.0,"""event"",""trial"",""time""
""focus"",""0"",""0""
""blur"",""0"",""0""
""focus"",""0"",""0""
""blur"",""0"",""0""
""focus"",""0"",""0""
""blur"",""0"",""0""
""focus"",""0"",""0""
""blur"",""0"",""0""
""focus"",""1"",""87354""
""fullscreenenter"",""1"",""89136""
""fullscreenexit"",""15"",""224770""
""blur"",""44"",""326669""
""focus"",""44"",""331975""
","""event"",""trial"",""time""
""blur"",""0"",""0""
""blur"",""0"",""0""
""blur"",""0"",""0""
""blur"",""0"",""0""
""blur"",""44"",""326669""
","""event"",""trial"",""time""
""focus"",""0"",""0""
""focus"",""0"",""0""
""focus"",""0"",""0""
""focus"",""0"",""0""
""focus"",""1"",""87354""
""focus"",""44"",""331975""
","""event"",""trial"",""time""
""fullscreenenter"",""1"",""89136""
","""event"",""trial"",""time""
""fullscreenexit"",""15"",""224770""
",,4134,run_exp/static/audio/clip_11_q1_ask.m4a,,,,,,,2,,,,,,,,,,,,,,,,,,
quiz_q_1_fb_correct,47,361136,0.0-17.0-0.0,"""event"",""trial"",""time""
""focus"",""0"",""0""
""blur"",""0"",""0""
""focus"",""0"",""0""
""blur"",""0"",""0""
""focus"",""0"",""0""
""blur"",""0"",""0""
""focus"",""0"",""0""
""blur"",""0"",""0""
""focus"",""1"",""87354""
""fullscreenenter"",""1"",""89136""
""fullscreenexit"",""15"",""224770""
""blur"",""44"",""326669""
""focus"",""44"",""331975""
","""event"",""trial"",""time""
""blur"",""0"",""0""
""blur"",""0"",""0""
""blur"",""0"",""0""
""blur"",""0"",""0""
""blur"",""44"",""326669""
","""event"",""trial"",""time""
""focus"",""0"",""0""
""focus"",""0"",""0""
""focus"",""0"",""0""
""focus"",""0"",""0""
""focus"",""1"",""87354""
""focus"",""44"",""331975""
","""event"",""trial"",""time""
""fullscreenenter"",""1"",""89136""
","""event"",""trial"",""time""
""fullscreenexit"",""15"",""224770""
",,null,run_exp/static/audio/clip_12_q1_correct.m4a,null,<p>That’s correct. You win extra money by collecting more gems.</p>,,,,,,,,,,,,,,,,,,,,,,,
quiz_q_2_ask,48,363067,0.0-17.0-1.0,"""event"",""trial"",""time""
""focus"",""0"",""0""
""blur"",""0"",""0""
""focus"",""0"",""0""
""blur"",""0"",""0""
""focus"",""0"",""0""
""blur"",""0"",""0""
""focus"",""0"",""0""
""blur"",""0"",""0""
""focus"",""1"",""87354""
""fullscreenenter"",""1"",""89136""
""fullscreenexit"",""15"",""224770""
""blur"",""44"",""326669""
""focus"",""44"",""331975""
","""event"",""trial"",""time""
""blur"",""0"",""0""
""blur"",""0"",""0""
""blur"",""0"",""0""
""blur"",""0"",""0""
""blur"",""44"",""326669""
","""event"",""trial"",""time""
""focus"",""0"",""0""
""focus"",""0"",""0""
""focus"",""0"",""0""
""focus"",""0"",""0""
""focus"",""1"",""87354""
""focus"",""44"",""331975""
","""event"",""trial"",""time""
""fullscreenenter"",""1"",""89136""
","""event"",""trial"",""time""
""fullscreenexit"",""15"",""224770""
",,1928,run_exp/static/audio/clip_14_q2_ask.m4a,,,,,,,1,,,,,,,,,,,,,,,,,,
quiz_q_2_fb_correct,49,367065,0.0-18.0-0.0,"""event"",""trial"",""time""
""focus"",""0"",""0""
""blur"",""0"",""0""
""focus"",""0"",""0""
""blur"",""0"",""0""
""focus"",""0"",""0""
""blur"",""0"",""0""
""focus"",""0"",""0""
""blur"",""0"",""0""
""focus"",""1"",""87354""
""fullscreenenter"",""1"",""89136""
""fullscreenexit"",""15"",""224770""
""blur"",""44"",""326669""
""focus"",""44"",""331975""
","""event"",""trial"",""time""
""blur"",""0"",""0""
""blur"",""0"",""0""
""blur"",""0"",""0""
""blur"",""0"",""0""
""blur"",""44"",""326669""
","""event"",""trial"",""time""
""focus"",""0"",""0""
""focus"",""0"",""0""
""focus"",""0"",""0""
""focus"",""0"",""0""
""focus"",""1"",""87354""
""focus"",""44"",""331975""
","""event"",""trial"",""time""
""fullscreenenter"",""1"",""89136""
","""event"",""trial"",""time""
""fullscreenexit"",""15"",""224770""
",,null,run_exp/static/audio/clip_15_q2_correct.m4a,null,<p>That’s correct. The experiment is 20 minutes no matter what.</p>,,,,,,,,,,,,,,,,,,,,,,,
quiz_q_3_ask,50,373795,0.0-18.0-1.0,"""event"",""trial"",""time""
""focus"",""0"",""0""
""blur"",""0"",""0""
""focus"",""0"",""0""
""blur"",""0"",""0""
""focus"",""0"",""0""
""blur"",""0"",""0""
""focus"",""0"",""0""
""blur"",""0"",""0""
""focus"",""1"",""87354""
""fullscreenenter"",""1"",""89136""
""fullscreenexit"",""15"",""224770""
""blur"",""44"",""326669""
""focus"",""44"",""331975""
","""event"",""trial"",""time""
""blur"",""0"",""0""
""blur"",""0"",""0""
""blur"",""0"",""0""
""blur"",""0"",""0""
""blur"",""44"",""326669""
","""event"",""trial"",""time""
""focus"",""0"",""0""
""focus"",""0"",""0""
""focus"",""0"",""0""
""focus"",""0"",""0""
""focus"",""1"",""87354""
""focus"",""44"",""331975""
","""event"",""trial"",""time""
""fullscreenenter"",""1"",""89136""
","""event"",""trial"",""time""
""fullscreenexit"",""15"",""224770""
",,6728,run_exp/static/audio/clip_17_q3_ask.m4a,,,,,,,1,,,,,,,,,,,,,,,,,,
quiz_q_3_fb_correct,51,377776,0.0-19.0-0.0,"""event"",""trial"",""time""
""focus"",""0"",""0""
""blur"",""0"",""0""
""focus"",""0"",""0""
""blur"",""0"",""0""
""focus"",""0"",""0""
""blur"",""0"",""0""
""focus"",""0"",""0""
""blur"",""0"",""0""
""focus"",""1"",""87354""
""fullscreenenter"",""1"",""89136""
""fullscreenexit"",""15"",""224770""
""blur"",""44"",""326669""
""focus"",""44"",""331975""
","""event"",""trial"",""time""
""blur"",""0"",""0""
""blur"",""0"",""0""
""blur"",""0"",""0""
""blur"",""0"",""0""
""blur"",""44"",""326669""
","""event"",""trial"",""time""
""focus"",""0"",""0""
""focus"",""0"",""0""
""focus"",""0"",""0""
""focus"",""0"",""0""
""focus"",""1"",""87354""
""focus"",""44"",""331975""
","""event"",""trial"",""time""
""fullscreenenter"",""1"",""89136""
","""event"",""trial"",""time""
""fullscreenexit"",""15"",""224770""
",,null,run_exp/static/audio/clip_18_q3_correct.m4a,null,<p> That’s correct. You press the letter L to travel to a new planet.</p>,,,,,,,,,,,,,,,,,,,,,,,
quiz_q_4_ask,52,383922,0.0-19.0-1.0,"""event"",""trial"",""time""
""focus"",""0"",""0""
""blur"",""0"",""0""
""focus"",""0"",""0""
""blur"",""0"",""0""
""focus"",""0"",""0""
""blur"",""0"",""0""
""focus"",""0"",""0""
""blur"",""0"",""0""
""focus"",""1"",""87354""
""fullscreenenter"",""1"",""89136""
""fullscreenexit"",""15"",""224770""
""blur"",""44"",""326669""
""focus"",""44"",""331975""
","""event"",""trial"",""time""
""blur"",""0"",""0""
""blur"",""0"",""0""
""blur"",""0"",""0""
""blur"",""0"",""0""
""blur"",""44"",""326669""
","""event"",""trial"",""time""
""focus"",""0"",""0""
""focus"",""0"",""0""
""focus"",""0"",""0""
""focus"",""0"",""0""
""focus"",""1"",""87354""
""focus"",""44"",""331975""
","""event"",""trial"",""time""
""fullscreenenter"",""1"",""89136""
","""event"",""trial"",""time""
""fullscreenexit"",""15"",""224770""
",,6145,run_exp/static/audio/clip_20_q4_ask.m4a,,,,,,,0,,,,,,,,,,,,,,,,,,
quiz_q_4_fb_correct,53,389236,0.0-20.0-0.0,"""event"",""trial"",""time""
""focus"",""0"",""0""
""blur"",""0"",""0""
""focus"",""0"",""0""
""blur"",""0"",""0""
""focus"",""0"",""0""
""blur"",""0"",""0""
""focus"",""0"",""0""
""blur"",""0"",""0""
""focus"",""1"",""87354""
""fullscreenenter"",""1"",""89136""
""fullscreenexit"",""15"",""224770""
""blur"",""44"",""326669""
""focus"",""44"",""331975""
","""event"",""trial"",""time""
""blur"",""0"",""0""
""blur"",""0"",""0""
""blur"",""0"",""0""
""blur"",""0"",""0""
""blur"",""44"",""326669""
","""event"",""trial"",""time""
""focus"",""0"",""0""
""focus"",""0"",""0""
""focus"",""0"",""0""
""focus"",""0"",""0""
""focus"",""1"",""87354""
""focus"",""44"",""331975""
","""event"",""trial"",""time""
""fullscreenenter"",""1"",""89136""
","""event"",""trial"",""time""
""fullscreenexit"",""15"",""224770""
",,null,run_exp/static/audio/clip_21_q4_correct.m4a,null,<p> That’s correct. The more you dig on a planet the fewer gems you’ll get with each dig. </p>,,,,,,,,,,,,,,,,,,,,,,,
quiz_q_5_ask,54,391843,0.0-20.0-1.0,"""event"",""trial"",""time""
""focus"",""0"",""0""
""blur"",""0"",""0""
""focus"",""0"",""0""
""blur"",""0"",""0""
""focus"",""0"",""0""
""blur"",""0"",""0""
""focus"",""0"",""0""
""blur"",""0"",""0""
""focus"",""1"",""87354""
""fullscreenenter"",""1"",""89136""
""fullscreenexit"",""15"",""224770""
""blur"",""44"",""326669""
""focus"",""44"",""331975""
","""event"",""trial"",""time""
""blur"",""0"",""0""
""blur"",""0"",""0""
""blur"",""0"",""0""
""blur"",""0"",""0""
""blur"",""44"",""326669""
","""event"",""trial"",""time""
""focus"",""0"",""0""
""focus"",""0"",""0""
""focus"",""0"",""0""
""focus"",""0"",""0""
""focus"",""1"",""87354""
""focus"",""44"",""331975""
","""event"",""trial"",""time""
""fullscreenenter"",""1"",""89136""
","""event"",""trial"",""time""
""fullscreenexit"",""15"",""224770""
",,2605,run_exp/static/audio/clip_23_q5_ask.m4a,,,,,,,1,,,,,,,,,,,,,,,,,,
quiz_q_5_fb_correct,55,396827,0.0-21.0-0.0,"""event"",""trial"",""time""
""focus"",""0"",""0""
""blur"",""0"",""0""
""focus"",""0"",""0""
""blur"",""0"",""0""
""focus"",""0"",""0""
""blur"",""0"",""0""
""focus"",""0"",""0""
""blur"",""0"",""0""
""focus"",""1"",""87354""
""fullscreenenter"",""1"",""89136""
""fullscreenexit"",""15"",""224770""
""blur"",""44"",""326669""
""focus"",""44"",""331975""
","""event"",""trial"",""time""
""blur"",""0"",""0""
""blur"",""0"",""0""
""blur"",""0"",""0""
""blur"",""0"",""0""
""blur"",""44"",""326669""
","""event"",""trial"",""time""
""focus"",""0"",""0""
""focus"",""0"",""0""
""focus"",""0"",""0""
""focus"",""0"",""0""
""focus"",""1"",""87354""
""focus"",""44"",""331975""
","""event"",""trial"",""time""
""fullscreenenter"",""1"",""89136""
","""event"",""trial"",""time""
""fullscreenexit"",""15"",""224770""
",,null,run_exp/static/audio/clip_24_q5_correct.m4a,null,<p> That’s correct. The alien tells you nothing about how much treasure is on the planet.</p>,,,,,,,,,,,,,,,,,,,,,,,
quiz_correct,56,400277,0.0-22.0-0.0,"""event"",""trial"",""time""
""focus"",""0"",""0""
""blur"",""0"",""0""
""focus"",""0"",""0""
""blur"",""0"",""0""
""focus"",""0"",""0""
""blur"",""0"",""0""
""focus"",""0"",""0""
""blur"",""0"",""0""
""focus"",""1"",""87354""
""fullscreenenter"",""1"",""89136""
""fullscreenexit"",""15"",""224770""
""blur"",""44"",""326669""
""focus"",""44"",""331975""
","""event"",""trial"",""time""
""blur"",""0"",""0""
""blur"",""0"",""0""
""blur"",""0"",""0""
""blur"",""0"",""0""
""blur"",""44"",""326669""
","""event"",""trial"",""time""
""focus"",""0"",""0""
""focus"",""0"",""0""
""focus"",""0"",""0""
""focus"",""0"",""0""
""focus"",""1"",""87354""
""focus"",""44"",""331975""
","""event"",""trial"",""time""
""fullscreenenter"",""1"",""89136""
","""event"",""trial"",""time""
""fullscreenexit"",""15"",""224770""
",,null,run_exp/static/audio/clip_26_correct_quiz.m4a,null,,,,,,,,,,,,,,,,,,,,,,,,
quiz_correct_continue,57,401314,0.0-22.0-1.0,"""event"",""trial"",""time""
""focus"",""0"",""0""
""blur"",""0"",""0""
""focus"",""0"",""0""
""blur"",""0"",""0""
""focus"",""0"",""0""
""blur"",""0"",""0""
""focus"",""0"",""0""
""blur"",""0"",""0""
""focus"",""1"",""87354""
""fullscreenenter"",""1"",""89136""
""fullscreenexit"",""15"",""224770""
""blur"",""44"",""326669""
""focus"",""44"",""331975""
","""event"",""trial"",""time""
""blur"",""0"",""0""
""blur"",""0"",""0""
""blur"",""0"",""0""
""blur"",""0"",""0""
""blur"",""44"",""326669""
","""event"",""trial"",""time""
""focus"",""0"",""0""
""focus"",""0"",""0""
""focus"",""0"",""0""
""focus"",""0"",""0""
""focus"",""1"",""87354""
""focus"",""44"",""331975""
","""event"",""trial"",""time""
""fullscreenenter"",""1"",""89136""
","""event"",""trial"",""time""
""fullscreenexit"",""15"",""224770""
",,1035,<p>Good job! You're now ready to move on to the real game!</p>,,,,,,,0,,,,,,,,,,,,,,,,,,
audio-keyboard-response,58,411411,0.0-22.0-2.0,"""event"",""trial"",""time""
""focus"",""0"",""0""
""blur"",""0"",""0""
""focus"",""0"",""0""
""blur"",""0"",""0""
""focus"",""0"",""0""
""blur"",""0"",""0""
""focus"",""0"",""0""
""blur"",""0"",""0""
""focus"",""1"",""87354""
""fullscreenenter"",""1"",""89136""
""fullscreenexit"",""15"",""224770""
""blur"",""44"",""326669""
""focus"",""44"",""331975""
","""event"",""trial"",""time""
""blur"",""0"",""0""
""blur"",""0"",""0""
""blur"",""0"",""0""
""blur"",""0"",""0""
""blur"",""44"",""326669""
","""event"",""trial"",""time""
""focus"",""0"",""0""
""focus"",""0"",""0""
""focus"",""0"",""0""
""focus"",""0"",""0""
""focus"",""1"",""87354""
""focus"",""44"",""331975""
","""event"",""trial"",""time""
""fullscreenenter"",""1"",""89136""
","""event"",""trial"",""time""
""fullscreenexit"",""15"",""224770""
",,null,run_exp/static/audio/clip_28_real_game.m4a,null,,,,,,,,,,,,,,,,,,,,,,,,
instruc_begin_exp_contine,59,412571,0.0-22.0-3.0,"""event"",""trial"",""time""
""focus"",""0"",""0""
""blur"",""0"",""0""
""focus"",""0"",""0""
""blur"",""0"",""0""
""focus"",""0"",""0""
""blur"",""0"",""0""
""focus"",""0"",""0""
""blur"",""0"",""0""
""focus"",""1"",""87354""
""fullscreenenter"",""1"",""89136""
""fullscreenexit"",""15"",""224770""
""blur"",""44"",""326669""
""focus"",""44"",""331975""
","""event"",""trial"",""time""
""blur"",""0"",""0""
""blur"",""0"",""0""
""blur"",""0"",""0""
""blur"",""0"",""0""
""blur"",""44"",""326669""
","""event"",""trial"",""time""
""focus"",""0"",""0""
""focus"",""0"",""0""
""focus"",""0"",""0""
""focus"",""0"",""0""
""focus"",""1"",""87354""
""focus"",""44"",""331975""
","""event"",""trial"",""time""
""fullscreenenter"",""1"",""89136""
","""event"",""trial"",""time""
""fullscreenexit"",""15"",""224770""
",,1158,"<p>Now that you know how  to dig for space treasure and travel to new planets,you can start exploring! </p><p>Do you want to go over the instructions again or get started with the real game?</p>",,,,,,,1,,,,,,1,,,,,,,,,,,,
alien_welcome,60,417586,0.0-23.0-0.0,"""event"",""trial"",""time""
""focus"",""0"",""0""
""blur"",""0"",""0""
""focus"",""0"",""0""
""blur"",""0"",""0""
""focus"",""0"",""0""
""blur"",""0"",""0""
""focus"",""0"",""0""
""blur"",""0"",""0""
""focus"",""1"",""87354""
""fullscreenenter"",""1"",""89136""
""fullscreenexit"",""15"",""224770""
""blur"",""44"",""326669""
""focus"",""44"",""331975""
","""event"",""trial"",""time""
""blur"",""0"",""0""
""blur"",""0"",""0""
""blur"",""0"",""0""
""blur"",""0"",""0""
""blur"",""44"",""326669""
","""event"",""trial"",""time""
""focus"",""0"",""0""
""focus"",""0"",""0""
""focus"",""0"",""0""
""focus"",""0"",""0""
""focus"",""1"",""87354""
""focus"",""44"",""331975""
","""event"",""trial"",""time""
""fullscreenenter"",""1"",""89136""
","""event"",""trial"",""time""
""fullscreenexit"",""15"",""224770""
",,null,run_exp/static/images/task_images/aliens/old_aliens/planet/alien_planet-53.jpg,null,,,,,,,,,,,,,53,"53,22,46,39,25,74,54,32,24,11,29,57,3,18,37,55,15,12,1,73,65,27,23,30,60,64,50,16,66,71,14,21,6",,,,,,,,,,
land,61,418094,0.0-23.0-1.0,"""event"",""trial"",""time""
""focus"",""0"",""0""
""blur"",""0"",""0""
""focus"",""0"",""0""
""blur"",""0"",""0""
""focus"",""0"",""0""
""blur"",""0"",""0""
""focus"",""0"",""0""
""blur"",""0"",""0""
""focus"",""1"",""87354""
""fullscreenenter"",""1"",""89136""
""fullscreenexit"",""15"",""224770""
""blur"",""44"",""326669""
""focus"",""44"",""331975""
","""event"",""trial"",""time""
""blur"",""0"",""0""
""blur"",""0"",""0""
""blur"",""0"",""0""
""blur"",""0"",""0""
""blur"",""44"",""326669""
","""event"",""trial"",""time""
""focus"",""0"",""0""
""focus"",""0"",""0""
""focus"",""0"",""0""
""focus"",""0"",""0""
""focus"",""1"",""87354""
""focus"",""44"",""331975""
","""event"",""trial"",""time""
""fullscreenenter"",""1"",""89136""
","""event"",""trial"",""time""
""fullscreenexit"",""15"",""224770""
",,null,run_exp/static/images/task_images/land.jpg,null,,,,,,,103,,,1,,,,,,,,,,,,,,
dig,62,420122,0.0-23.0-2.0,"""event"",""trial"",""time""
""focus"",""0"",""0""
""blur"",""0"",""0""
""focus"",""0"",""0""
""blur"",""0"",""0""
""focus"",""0"",""0""
""blur"",""0"",""0""
""focus"",""0"",""0""
""blur"",""0"",""0""
""focus"",""1"",""87354""
""fullscreenenter"",""1"",""89136""
""fullscreenexit"",""15"",""224770""
""blur"",""44"",""326669""
""focus"",""44"",""331975""
","""event"",""trial"",""time""
""blur"",""0"",""0""
""blur"",""0"",""0""
""blur"",""0"",""0""
""blur"",""0"",""0""
""blur"",""44"",""326669""
","""event"",""trial"",""time""
""focus"",""0"",""0""
""focus"",""0"",""0""
""focus"",""0"",""0""
""focus"",""0"",""0""
""focus"",""1"",""87354""
""focus"",""44"",""331975""
","""event"",""trial"",""time""
""fullscreenenter"",""1"",""89136""
","""event"",""trial"",""time""
""fullscreenexit"",""15"",""224770""
",,,,,,,,,,,,"[{""stimulus"":""run_exp/static/images/task_images/dig.jpg"",""time"":0},{""stimulus"":""run_exp/static/images/task_images/land.jpg"",""time"":669},{""stimulus"":""run_exp/static/images/task_images/dig.jpg"",""time"":1344}]",[],1,,,,,,,,,,,,,,
harvest,63,421133,0.0-23.0-3.0,"""event"",""trial"",""time""
""focus"",""0"",""0""
""blur"",""0"",""0""
""focus"",""0"",""0""
""blur"",""0"",""0""
""focus"",""0"",""0""
""blur"",""0"",""0""
""focus"",""0"",""0""
""blur"",""0"",""0""
""focus"",""1"",""87354""
""fullscreenenter"",""1"",""89136""
""fullscreenexit"",""15"",""224770""
""blur"",""44"",""326669""
""focus"",""44"",""331975""
","""event"",""trial"",""time""
""blur"",""0"",""0""
""blur"",""0"",""0""
""blur"",""0"",""0""
""blur"",""0"",""0""
""blur"",""44"",""326669""
","""event"",""trial"",""time""
""focus"",""0"",""0""
""focus"",""0"",""0""
""focus"",""0"",""0""
""focus"",""0"",""0""
""focus"",""1"",""87354""
""focus"",""44"",""331975""
","""event"",""trial"",""time""
""fullscreenenter"",""1"",""89136""
","""event"",""trial"",""time""
""fullscreenexit"",""15"",""224770""
",,null,run_exp/static/images/task_images/gems/103.jpg,null,,,,,,,24,,,1,,,,,103,0.228960906,0.233009709,,,,,,,
decision,64,422310,0.0-23.0-4.0,"""event"",""trial"",""time""
""focus"",""0"",""0""
""blur"",""0"",""0""
""focus"",""0"",""0""
""blur"",""0"",""0""
""focus"",""0"",""0""
""blur"",""0"",""0""
""focus"",""0"",""0""
""blur"",""0"",""0""
""focus"",""1"",""87354""
""fullscreenenter"",""1"",""89136""
""fullscreenexit"",""15"",""224770""
""blur"",""44"",""326669""
""focus"",""44"",""331975""
","""event"",""trial"",""time""
""blur"",""0"",""0""
""blur"",""0"",""0""
""blur"",""0"",""0""
""blur"",""0"",""0""
""blur"",""44"",""326669""
","""event"",""trial"",""time""
""focus"",""0"",""0""
""focus"",""0"",""0""
""focus"",""0"",""0""
""focus"",""0"",""0""
""focus"",""1"",""87354""
""focus"",""44"",""331975""
","""event"",""trial"",""time""
""fullscreenenter"",""1"",""89136""
","""event"",""trial"",""time""
""fullscreenexit"",""15"",""224770""
",,1175,run_exp/static/images/task_images/land.jpg,65,,,,,,,24,,,1,,,,,,,,9738,1,0,FALSE,,,
dig,65,424158,0.0-24.0-0.0,"""event"",""trial"",""time""
""focus"",""0"",""0""
""blur"",""0"",""0""
""focus"",""0"",""0""
""blur"",""0"",""0""
""focus"",""0"",""0""
""blur"",""0"",""0""
""focus"",""0"",""0""
""blur"",""0"",""0""
""focus"",""1"",""87354""
""fullscreenenter"",""1"",""89136""
""fullscreenexit"",""15"",""224770""
""blur"",""44"",""326669""
""focus"",""44"",""331975""
","""event"",""trial"",""time""
""blur"",""0"",""0""
""blur"",""0"",""0""
""blur"",""0"",""0""
""blur"",""0"",""0""
""blur"",""44"",""326669""
","""event"",""trial"",""time""
""focus"",""0"",""0""
""focus"",""0"",""0""
""focus"",""0"",""0""
""focus"",""0"",""0""
""focus"",""1"",""87354""
""focus"",""44"",""331975""
","""event"",""trial"",""time""
""fullscreenenter"",""1"",""89136""
","""event"",""trial"",""time""
""fullscreenexit"",""15"",""224770""
",,,,,,,,,,,,"[{""stimulus"":""run_exp/static/images/task_images/dig.jpg"",""time"":0},{""stimulus"":""run_exp/static/images/task_images/land.jpg"",""time"":615},{""stimulus"":""run_exp/static/images/task_images/dig.jpg"",""time"":1228}]",[],1,,,,,,,,,,,,,,
harvest,66,425168,0.0-24.0-1.0,"""event"",""trial"",""time""
""focus"",""0"",""0""
""blur"",""0"",""0""
""focus"",""0"",""0""
""blur"",""0"",""0""
""focus"",""0"",""0""
""blur"",""0"",""0""
""focus"",""0"",""0""
""blur"",""0"",""0""
""focus"",""1"",""87354""
""fullscreenenter"",""1"",""89136""
""fullscreenexit"",""15"",""224770""
""blur"",""44"",""326669""
""focus"",""44"",""331975""
","""event"",""trial"",""time""
""blur"",""0"",""0""
""blur"",""0"",""0""
""blur"",""0"",""0""
""blur"",""0"",""0""
""blur"",""44"",""326669""
","""event"",""trial"",""time""
""focus"",""0"",""0""
""focus"",""0"",""0""
""focus"",""0"",""0""
""focus"",""0"",""0""
""focus"",""1"",""87354""
""focus"",""44"",""331975""
","""event"",""trial"",""time""
""fullscreenenter"",""1"",""89136""
","""event"",""trial"",""time""
""fullscreenexit"",""15"",""224770""
",,null,run_exp/static/images/task_images/gems/24.jpg,null,,,,,,,6,,,1,,,,,24,0.26670005,0.25,,,,,,,
decision,67,426082,0.0-24.0-2.0,"""event"",""trial"",""time""
""focus"",""0"",""0""
""blur"",""0"",""0""
""focus"",""0"",""0""
""blur"",""0"",""0""
""focus"",""0"",""0""
""blur"",""0"",""0""
""focus"",""0"",""0""
""blur"",""0"",""0""
""focus"",""1"",""87354""
""fullscreenenter"",""1"",""89136""
""fullscreenexit"",""15"",""224770""
""blur"",""44"",""326669""
""focus"",""44"",""331975""
","""event"",""trial"",""time""
""blur"",""0"",""0""
""blur"",""0"",""0""
""blur"",""0"",""0""
""blur"",""0"",""0""
""blur"",""44"",""326669""
","""event"",""trial"",""time""
""focus"",""0"",""0""
""focus"",""0"",""0""
""focus"",""0"",""0""
""focus"",""0"",""0""
""focus"",""1"",""87354""
""focus"",""44"",""331975""
","""event"",""trial"",""time""
""fullscreenenter"",""1"",""89136""
","""event"",""trial"",""time""
""fullscreenexit"",""15"",""224770""
",,912,run_exp/static/images/task_images/land.jpg,76,,,,,,,6,,,1,,,,,,,,13510,1,1,TRUE,,,
travel,68,435252,0.0-25.0-0.0,"""event"",""trial"",""time""
""focus"",""0"",""0""
""blur"",""0"",""0""
""focus"",""0"",""0""
""blur"",""0"",""0""
""focus"",""0"",""0""
""blur"",""0"",""0""
""focus"",""0"",""0""
""blur"",""0"",""0""
""focus"",""1"",""87354""
""fullscreenenter"",""1"",""89136""
""fullscreenexit"",""15"",""224770""
""blur"",""44"",""326669""
""focus"",""44"",""331975""
","""event"",""trial"",""time""
""blur"",""0"",""0""
""blur"",""0"",""0""
""blur"",""0"",""0""
""blur"",""0"",""0""
""blur"",""44"",""326669""
","""event"",""trial"",""time""
""focus"",""0"",""0""
""focus"",""0"",""0""
""focus"",""0"",""0""
""focus"",""0"",""0""
""focus"",""1"",""87354""
""focus"",""44"",""331975""
","""event"",""trial"",""time""
""fullscreenenter"",""1"",""89136""
","""event"",""trial"",""time""
""fullscreenexit"",""15"",""224770""
",,,,,,,,,,,,"[{""stimulus"":""run_exp/static/images/task_images/rocket-01.jpg"",""time"":0},{""stimulus"":""run_exp/static/images/task_images/rocket-02.jpg"",""time"":1015},{""stimulus"":""run_exp/static/images/task_images/rocket-03.jpg"",""time"":2037},{""stimulus"":""run_exp/static/images/task_images/rocket-04.jpg"",""time"":3046},{""stimulus"":""run_exp/static/images/task_images/rocket-05.jpg"",""time"":4065},{""stimulus"":""run_exp/static/images/task_images/rocket-06.jpg"",""time"":5085},{""stimulus"":""run_exp/static/images/task_images/rocket-07.jpg"",""time"":6108},{""stimulus"":""run_exp/static/images/task_images/rocket-08.jpg"",""time"":7118},{""stimulus"":""run_exp/static/images/task_images/rocket-09.jpg"",""time"":8139}]",[],1,,,,,,,,,,,,,,
alien_welcome,69,440271,0.0-25.0-1.0,"""event"",""trial"",""time""
""focus"",""0"",""0""
""blur"",""0"",""0""
""focus"",""0"",""0""
""blur"",""0"",""0""
""focus"",""0"",""0""
""blur"",""0"",""0""
""focus"",""0"",""0""
""blur"",""0"",""0""
""focus"",""1"",""87354""
""fullscreenenter"",""1"",""89136""
""fullscreenexit"",""15"",""224770""
""blur"",""44"",""326669""
""focus"",""44"",""331975""
","""event"",""trial"",""time""
""blur"",""0"",""0""
""blur"",""0"",""0""
""blur"",""0"",""0""
""blur"",""0"",""0""
""blur"",""44"",""326669""
","""event"",""trial"",""time""
""focus"",""0"",""0""
""focus"",""0"",""0""
""focus"",""0"",""0""
""focus"",""0"",""0""
""focus"",""1"",""87354""
""focus"",""44"",""331975""
","""event"",""trial"",""time""
""fullscreenenter"",""1"",""89136""
","""event"",""trial"",""time""
""fullscreenexit"",""15"",""224770""
",,null,run_exp/static/images/task_images/aliens/old_aliens/planet/alien_planet-22.jpg,null,,,,,,,,,,,,,22,"53,22,46,39,25,74,54,32,24,11,29,57,3,18,37,55,15,12,1,73,65,27,23,30,60,64,50,16,66,71,14,21,6",,,,,,,,,,
land,70,440785,0.0-25.0-2.0,"""event"",""trial"",""time""
""focus"",""0"",""0""
""blur"",""0"",""0""
""focus"",""0"",""0""
""blur"",""0"",""0""
""focus"",""0"",""0""
""blur"",""0"",""0""
""focus"",""0"",""0""
""blur"",""0"",""0""
""focus"",""1"",""87354""
""fullscreenenter"",""1"",""89136""
""fullscreenexit"",""15"",""224770""
""blur"",""44"",""326669""
""focus"",""44"",""331975""
","""event"",""trial"",""time""
""blur"",""0"",""0""
""blur"",""0"",""0""
""blur"",""0"",""0""
""blur"",""0"",""0""
""blur"",""44"",""326669""
","""event"",""trial"",""time""
""focus"",""0"",""0""
""focus"",""0"",""0""
""focus"",""0"",""0""
""focus"",""0"",""0""
""focus"",""1"",""87354""
""focus"",""44"",""331975""
","""event"",""trial"",""time""
""fullscreenenter"",""1"",""89136""
","""event"",""trial"",""time""
""fullscreenexit"",""15"",""224770""
",,null,run_exp/static/images/task_images/land.jpg,null,,,,,,,101,,,2,,,,,,,,,,,,,,
dig,71,442818,0.0-25.0-3.0,"""event"",""trial"",""time""
""focus"",""0"",""0""
""blur"",""0"",""0""
""focus"",""0"",""0""
""blur"",""0"",""0""
""focus"",""0"",""0""
""blur"",""0"",""0""
""focus"",""0"",""0""
""blur"",""0"",""0""
""focus"",""1"",""87354""
""fullscreenenter"",""1"",""89136""
""fullscreenexit"",""15"",""224770""
""blur"",""44"",""326669""
""focus"",""44"",""331975""
","""event"",""trial"",""time""
""blur"",""0"",""0""
""blur"",""0"",""0""
""blur"",""0"",""0""
""blur"",""0"",""0""
""blur"",""44"",""326669""
","""event"",""trial"",""time""
""focus"",""0"",""0""
""focus"",""0"",""0""
""focus"",""0"",""0""
""focus"",""0"",""0""
""focus"",""1"",""87354""
""focus"",""44"",""331975""
","""event"",""trial"",""time""
""fullscreenenter"",""1"",""89136""
","""event"",""trial"",""time""
""fullscreenexit"",""15"",""224770""
",,,,,,,,,,,,"[{""stimulus"":""run_exp/static/images/task_images/dig.jpg"",""time"":1},{""stimulus"":""run_exp/static/images/task_images/land.jpg"",""time"":673},{""stimulus"":""run_exp/static/images/task_images/dig.jpg"",""time"":1343}]",[],2,,,,,,,,,,,,,,
harvest,72,443829,0.0-25.0-4.0,"""event"",""trial"",""time""
""focus"",""0"",""0""
""blur"",""0"",""0""
""focus"",""0"",""0""
""blur"",""0"",""0""
""focus"",""0"",""0""
""blur"",""0"",""0""
""focus"",""0"",""0""
""blur"",""0"",""0""
""focus"",""1"",""87354""
""fullscreenenter"",""1"",""89136""
""fullscreenexit"",""15"",""224770""
""blur"",""44"",""326669""
""focus"",""44"",""331975""
","""event"",""trial"",""time""
""blur"",""0"",""0""
""blur"",""0"",""0""
""blur"",""0"",""0""
""blur"",""0"",""0""
""blur"",""44"",""326669""
","""event"",""trial"",""time""
""focus"",""0"",""0""
""focus"",""0"",""0""
""focus"",""0"",""0""
""focus"",""0"",""0""
""focus"",""1"",""87354""
""focus"",""44"",""331975""
","""event"",""trial"",""time""
""fullscreenenter"",""1"",""89136""
","""event"",""trial"",""time""
""fullscreenexit"",""15"",""224770""
",,null,run_exp/static/images/task_images/gems/101.jpg,null,,,,,,,24,,,2,,,,,101,0.241903213,0.237623762,,,,,,,
decision,73,444457,0.0-25.0-5.0,"""event"",""trial"",""time""
""focus"",""0"",""0""
""blur"",""0"",""0""
""focus"",""0"",""0""
""blur"",""0"",""0""
""focus"",""0"",""0""
""blur"",""0"",""0""
""focus"",""0"",""0""
""blur"",""0"",""0""
""focus"",""1"",""87354""
""fullscreenenter"",""1"",""89136""
""fullscreenexit"",""15"",""224770""
""blur"",""44"",""326669""
""focus"",""44"",""331975""
","""event"",""trial"",""time""
""blur"",""0"",""0""
""blur"",""0"",""0""
""blur"",""0"",""0""
""blur"",""0"",""0""
""blur"",""44"",""326669""
","""event"",""trial"",""time""
""focus"",""0"",""0""
""focus"",""0"",""0""
""focus"",""0"",""0""
""focus"",""0"",""0""
""focus"",""1"",""87354""
""focus"",""44"",""331975""
","""event"",""trial"",""time""
""fullscreenenter"",""1"",""89136""
","""event"",""trial"",""time""
""fullscreenexit"",""15"",""224770""
",,626,run_exp/static/images/task_images/land.jpg,65,,,,,,,24,,,2,,,,,,,,31885,1,0,FALSE,,,
dig,74,446856,0.0-26.0-0.0,"""event"",""trial"",""time""
""focus"",""0"",""0""
""blur"",""0"",""0""
""focus"",""0"",""0""
""blur"",""0"",""0""
""focus"",""0"",""0""
""blur"",""0"",""0""
""focus"",""0"",""0""
""blur"",""0"",""0""
""focus"",""1"",""87354""
""fullscreenenter"",""1"",""89136""
""fullscreenexit"",""15"",""224770""
""blur"",""44"",""326669""
""focus"",""44"",""331975""
","""event"",""trial"",""time""
""blur"",""0"",""0""
""blur"",""0"",""0""
""blur"",""0"",""0""
""blur"",""0"",""0""
""blur"",""44"",""326669""
","""event"",""trial"",""time""
""focus"",""0"",""0""
""focus"",""0"",""0""
""focus"",""0"",""0""
""focus"",""0"",""0""
""focus"",""1"",""87354""
""focus"",""44"",""331975""
","""event"",""trial"",""time""
""fullscreenenter"",""1"",""89136""
","""event"",""trial"",""time""
""fullscreenexit"",""15"",""224770""
",,,,,,,,,,,,"[{""stimulus"":""run_exp/static/images/task_images/dig.jpg"",""time"":0},{""stimulus"":""run_exp/static/images/task_images/land.jpg"",""time"":797},{""stimulus"":""run_exp/static/images/task_images/dig.jpg"",""time"":1600}]",[],2,,,,,,,,,,,,,,
harvest,75,447871,0.0-26.0-1.0,"""event"",""trial"",""time""
""focus"",""0"",""0""
""blur"",""0"",""0""
""focus"",""0"",""0""
""blur"",""0"",""0""
""focus"",""0"",""0""
""blur"",""0"",""0""
""focus"",""0"",""0""
""blur"",""0"",""0""
""focus"",""1"",""87354""
""fullscreenenter"",""1"",""89136""
""fullscreenexit"",""15"",""224770""
""blur"",""44"",""326669""
""focus"",""44"",""331975""
","""event"",""trial"",""time""
""blur"",""0"",""0""
""blur"",""0"",""0""
""blur"",""0"",""0""
""blur"",""0"",""0""
""blur"",""44"",""326669""
","""event"",""trial"",""time""
""focus"",""0"",""0""
""focus"",""0"",""0""
""focus"",""0"",""0""
""focus"",""0"",""0""
""focus"",""1"",""87354""
""focus"",""44"",""331975""
","""event"",""trial"",""time""
""fullscreenenter"",""1"",""89136""
","""event"",""trial"",""time""
""fullscreenexit"",""15"",""224770""
",,null,run_exp/static/images/task_images/gems/24.jpg,null,,,,,,,7,,,2,,,,,24,0.279242433,0.291666667,,,,,,,
decision,76,448375,0.0-26.0-2.0,"""event"",""trial"",""time""
""focus"",""0"",""0""
""blur"",""0"",""0""
""focus"",""0"",""0""
""blur"",""0"",""0""
""focus"",""0"",""0""
""blur"",""0"",""0""
""focus"",""0"",""0""
""blur"",""0"",""0""
""focus"",""1"",""87354""
""fullscreenenter"",""1"",""89136""
""fullscreenexit"",""15"",""224770""
""blur"",""44"",""326669""
""focus"",""44"",""331975""
","""event"",""trial"",""time""
""blur"",""0"",""0""
""blur"",""0"",""0""
""blur"",""0"",""0""
""blur"",""0"",""0""
""blur"",""44"",""326669""
","""event"",""trial"",""time""
""focus"",""0"",""0""
""focus"",""0"",""0""
""focus"",""0"",""0""
""focus"",""0"",""0""
""focus"",""1"",""87354""
""focus"",""44"",""331975""
","""event"",""trial"",""time""
""fullscreenenter"",""1"",""89136""
","""event"",""trial"",""time""
""fullscreenexit"",""15"",""224770""
",,502,run_exp/static/images/task_images/land.jpg,76,,,,,,,7,,,2,,,,,,,,35803,1,1,TRUE,,,
travel,77,457979,0.0-27.0-0.0,"""event"",""trial"",""time""
""focus"",""0"",""0""
""blur"",""0"",""0""
""focus"",""0"",""0""
""blur"",""0"",""0""
""focus"",""0"",""0""
""blur"",""0"",""0""
""focus"",""0"",""0""
""blur"",""0"",""0""
""focus"",""1"",""87354""
""fullscreenenter"",""1"",""89136""
""fullscreenexit"",""15"",""224770""
""blur"",""44"",""326669""
""focus"",""44"",""331975""
","""event"",""trial"",""time""
""blur"",""0"",""0""
""blur"",""0"",""0""
""blur"",""0"",""0""
""blur"",""0"",""0""
""blur"",""44"",""326669""
","""event"",""trial"",""time""
""focus"",""0"",""0""
""focus"",""0"",""0""
""focus"",""0"",""0""
""focus"",""0"",""0""
""focus"",""1"",""87354""
""focus"",""44"",""331975""
","""event"",""trial"",""time""
""fullscreenenter"",""1"",""89136""
","""event"",""trial"",""time""
""fullscreenexit"",""15"",""224770""
",,,,,,,,,,,,"[{""stimulus"":""run_exp/static/images/task_images/rocket-01.jpg"",""time"":0},{""stimulus"":""run_exp/static/images/task_images/rocket-02.jpg"",""time"":1073},{""stimulus"":""run_exp/static/images/task_images/rocket-03.jpg"",""time"":2139},{""stimulus"":""run_exp/static/images/task_images/rocket-04.jpg"",""time"":3205},{""stimulus"":""run_exp/static/images/task_images/rocket-05.jpg"",""time"":4271},{""stimulus"":""run_exp/static/images/task_images/rocket-06.jpg"",""time"":5326},{""stimulus"":""run_exp/static/images/task_images/rocket-07.jpg"",""time"":6391},{""stimulus"":""run_exp/static/images/task_images/rocket-08.jpg"",""time"":7458},{""stimulus"":""run_exp/static/images/task_images/rocket-09.jpg"",""time"":8526}]",[],2,,,,,,,,,,,,,,
alien_welcome,78,462992,0.0-27.0-1.0,"""event"",""trial"",""time""
""focus"",""0"",""0""
""blur"",""0"",""0""
""focus"",""0"",""0""
""blur"",""0"",""0""
""focus"",""0"",""0""
""blur"",""0"",""0""
""focus"",""0"",""0""
""blur"",""0"",""0""
""focus"",""1"",""87354""
""fullscreenenter"",""1"",""89136""
""fullscreenexit"",""15"",""224770""
""blur"",""44"",""326669""
""focus"",""44"",""331975""
","""event"",""trial"",""time""
""blur"",""0"",""0""
""blur"",""0"",""0""
""blur"",""0"",""0""
""blur"",""0"",""0""
""blur"",""44"",""326669""
","""event"",""trial"",""time""
""focus"",""0"",""0""
""focus"",""0"",""0""
""focus"",""0"",""0""
""focus"",""0"",""0""
""focus"",""1"",""87354""
""focus"",""44"",""331975""
","""event"",""trial"",""time""
""fullscreenenter"",""1"",""89136""
","""event"",""trial"",""time""
""fullscreenexit"",""15"",""224770""
",,null,run_exp/static/images/task_images/aliens/old_aliens/planet/alien_planet-46.jpg,null,,,,,,,,,,,,,46,"53,22,46,39,25,74,54,32,24,11,29,57,3,18,37,55,15,12,1,73,65,27,23,30,60,64,50,16,66,71,14,21,6",,,,,,,,,,
land,79,463498,0.0-27.0-2.0,"""event"",""trial"",""time""
""focus"",""0"",""0""
""blur"",""0"",""0""
""focus"",""0"",""0""
""blur"",""0"",""0""
""focus"",""0"",""0""
""blur"",""0"",""0""
""focus"",""0"",""0""
""blur"",""0"",""0""
""focus"",""1"",""87354""
""fullscreenenter"",""1"",""89136""
""fullscreenexit"",""15"",""224770""
""blur"",""44"",""326669""
""focus"",""44"",""331975""
","""event"",""trial"",""time""
""blur"",""0"",""0""
""blur"",""0"",""0""
""blur"",""0"",""0""
""blur"",""0"",""0""
""blur"",""44"",""326669""
","""event"",""trial"",""time""
""focus"",""0"",""0""
""focus"",""0"",""0""
""focus"",""0"",""0""
""focus"",""0"",""0""
""focus"",""1"",""87354""
""focus"",""44"",""331975""
","""event"",""trial"",""time""
""fullscreenenter"",""1"",""89136""
","""event"",""trial"",""time""
""fullscreenexit"",""15"",""224770""
",,null,run_exp/static/images/task_images/land.jpg,null,,,,,,,96,,,3,,,,,,,,,,,,,,
dig,80,465531,0.0-27.0-3.0,"""event"",""trial"",""time""
""focus"",""0"",""0""
""blur"",""0"",""0""
""focus"",""0"",""0""
""blur"",""0"",""0""
""focus"",""0"",""0""
""blur"",""0"",""0""
""focus"",""0"",""0""
""blur"",""0"",""0""
""focus"",""1"",""87354""
""fullscreenenter"",""1"",""89136""
""fullscreenexit"",""15"",""224770""
""blur"",""44"",""326669""
""focus"",""44"",""331975""
","""event"",""trial"",""time""
""blur"",""0"",""0""
""blur"",""0"",""0""
""blur"",""0"",""0""
""blur"",""0"",""0""
""blur"",""44"",""326669""
","""event"",""trial"",""time""
""focus"",""0"",""0""
""focus"",""0"",""0""
""focus"",""0"",""0""
""focus"",""0"",""0""
""focus"",""1"",""87354""
""focus"",""44"",""331975""
","""event"",""trial"",""time""
""fullscreenenter"",""1"",""89136""
","""event"",""trial"",""time""
""fullscreenexit"",""15"",""224770""
",,,,,,,,,,,,"[{""stimulus"":""run_exp/static/images/task_images/dig.jpg"",""time"":0},{""stimulus"":""run_exp/static/images/task_images/land.jpg"",""time"":671},{""stimulus"":""run_exp/static/images/task_images/dig.jpg"",""time"":1347}]",[],3,,,,,,,,,,,,,,
harvest,81,466544,0.0-27.0-4.0,"""event"",""trial"",""time""
""focus"",""0"",""0""
""blur"",""0"",""0""
""focus"",""0"",""0""
""blur"",""0"",""0""
""focus"",""0"",""0""
""blur"",""0"",""0""
""focus"",""0"",""0""
""blur"",""0"",""0""
""focus"",""1"",""87354""
""fullscreenenter"",""1"",""89136""
""fullscreenexit"",""15"",""224770""
""blur"",""44"",""326669""
""focus"",""44"",""331975""
","""event"",""trial"",""time""
""blur"",""0"",""0""
""blur"",""0"",""0""
""blur"",""0"",""0""
""blur"",""0"",""0""
""blur"",""44"",""326669""
","""event"",""trial"",""time""
""focus"",""0"",""0""
""focus"",""0"",""0""
""focus"",""0"",""0""
""focus"",""0"",""0""
""focus"",""1"",""87354""
""focus"",""44"",""331975""
","""event"",""trial"",""time""
""fullscreenenter"",""1"",""89136""
","""event"",""trial"",""time""
""fullscreenexit"",""15"",""224770""
",,null,run_exp/static/images/task_images/gems/96.jpg,null,,,,,,,46,,,3,,,,,96,0.478501011,0.479166667,,,,,,,
decision,82,466730,0.0-27.0-5.0,"""event"",""trial"",""time""
""focus"",""0"",""0""
""blur"",""0"",""0""
""focus"",""0"",""0""
""blur"",""0"",""0""
""focus"",""0"",""0""
""blur"",""0"",""0""
""focus"",""0"",""0""
""blur"",""0"",""0""
""focus"",""1"",""87354""
""fullscreenenter"",""1"",""89136""
""fullscreenexit"",""15"",""224770""
""blur"",""44"",""326669""
""focus"",""44"",""331975""
","""event"",""trial"",""time""
""blur"",""0"",""0""
""blur"",""0"",""0""
""blur"",""0"",""0""
""blur"",""0"",""0""
""blur"",""44"",""326669""
","""event"",""trial"",""time""
""focus"",""0"",""0""
""focus"",""0"",""0""
""focus"",""0"",""0""
""focus"",""0"",""0""
""focus"",""1"",""87354""
""focus"",""44"",""331975""
","""event"",""trial"",""time""
""fullscreenenter"",""1"",""89136""
","""event"",""trial"",""time""
""fullscreenexit"",""15"",""224770""
",,185,run_exp/static/images/task_images/land.jpg,65,,,,,,,46,,,3,,,,,,,,54158,1,0,FALSE,,,
dig,83,469580,0.0-28.0-0.0,"""event"",""trial"",""time""
""focus"",""0"",""0""
""blur"",""0"",""0""
""focus"",""0"",""0""
""blur"",""0"",""0""
""focus"",""0"",""0""
""blur"",""0"",""0""
""focus"",""0"",""0""
""blur"",""0"",""0""
""focus"",""1"",""87354""
""fullscreenenter"",""1"",""89136""
""fullscreenexit"",""15"",""224770""
""blur"",""44"",""326669""
""focus"",""44"",""331975""
","""event"",""trial"",""time""
""blur"",""0"",""0""
""blur"",""0"",""0""
""blur"",""0"",""0""
""blur"",""0"",""0""
""blur"",""44"",""326669""
","""event"",""trial"",""time""
""focus"",""0"",""0""
""focus"",""0"",""0""
""focus"",""0"",""0""
""focus"",""0"",""0""
""focus"",""1"",""87354""
""focus"",""44"",""331975""
","""event"",""trial"",""time""
""fullscreenenter"",""1"",""89136""
","""event"",""trial"",""time""
""fullscreenexit"",""15"",""224770""
",,,,,,,,,,,,"[{""stimulus"":""run_exp/static/images/task_images/dig.jpg"",""time"":0},{""stimulus"":""run_exp/static/images/task_images/land.jpg"",""time"":954},{""stimulus"":""run_exp/static/images/task_images/dig.jpg"",""time"":1898}]",[],3,,,,,,,,,,,,,,
harvest,84,470591,0.0-28.0-1.0,"""event"",""trial"",""time""
""focus"",""0"",""0""
""blur"",""0"",""0""
""focus"",""0"",""0""
""blur"",""0"",""0""
""focus"",""0"",""0""
""blur"",""0"",""0""
""focus"",""0"",""0""
""blur"",""0"",""0""
""focus"",""1"",""87354""
""fullscreenenter"",""1"",""89136""
""fullscreenexit"",""15"",""224770""
""blur"",""44"",""326669""
""focus"",""44"",""331975""
","""event"",""trial"",""time""
""blur"",""0"",""0""
""blur"",""0"",""0""
""blur"",""0"",""0""
""blur"",""0"",""0""
""blur"",""44"",""326669""
","""event"",""trial"",""time""
""focus"",""0"",""0""
""focus"",""0"",""0""
""focus"",""0"",""0""
""focus"",""0"",""0""
""focus"",""1"",""87354""
""focus"",""44"",""331975""
","""event"",""trial"",""time""
""fullscreenenter"",""1"",""89136""
","""event"",""trial"",""time""
""fullscreenexit"",""15"",""224770""
",,null,run_exp/static/images/task_images/gems/46.jpg,null,,,,,,,18,,,3,,,,,46,0.395464778,0.391304348,,,,,,,
decision,85,470798,0.0-28.0-2.0,"""event"",""trial"",""time""
""focus"",""0"",""0""
""blur"",""0"",""0""
""focus"",""0"",""0""
""blur"",""0"",""0""
""focus"",""0"",""0""
""blur"",""0"",""0""
""focus"",""0"",""0""
""blur"",""0"",""0""
""focus"",""1"",""87354""
""fullscreenenter"",""1"",""89136""
""fullscreenexit"",""15"",""224770""
""blur"",""44"",""326669""
""focus"",""44"",""331975""
","""event"",""trial"",""time""
""blur"",""0"",""0""
""blur"",""0"",""0""
""blur"",""0"",""0""
""blur"",""0"",""0""
""blur"",""44"",""326669""
","""event"",""trial"",""time""
""focus"",""0"",""0""
""focus"",""0"",""0""
""focus"",""0"",""0""
""focus"",""0"",""0""
""focus"",""1"",""87354""
""focus"",""44"",""331975""
","""event"",""trial"",""time""
""fullscreenenter"",""1"",""89136""
","""event"",""trial"",""time""
""fullscreenexit"",""15"",""224770""
",,204,run_exp/static/images/task_images/land.jpg,65,,,,,,,18,,,3,,,,,,,,58226,1,1,FALSE,,,
dig,86,473630,0.0-29.0-0.0,"""event"",""trial"",""time""
""focus"",""0"",""0""
""blur"",""0"",""0""
""focus"",""0"",""0""
""blur"",""0"",""0""
""focus"",""0"",""0""
""blur"",""0"",""0""
""focus"",""0"",""0""
""blur"",""0"",""0""
""focus"",""1"",""87354""
""fullscreenenter"",""1"",""89136""
""fullscreenexit"",""15"",""224770""
""blur"",""44"",""326669""
""focus"",""44"",""331975""
","""event"",""trial"",""time""
""blur"",""0"",""0""
""blur"",""0"",""0""
""blur"",""0"",""0""
""blur"",""0"",""0""
""blur"",""44"",""326669""
","""event"",""trial"",""time""
""focus"",""0"",""0""
""focus"",""0"",""0""
""focus"",""0"",""0""
""focus"",""0"",""0""
""focus"",""1"",""87354""
""focus"",""44"",""331975""
","""event"",""trial"",""time""
""fullscreenenter"",""1"",""89136""
","""event"",""trial"",""time""
""fullscreenexit"",""15"",""224770""
",,,,,,,,,,,,"[{""stimulus"":""run_exp/static/images/task_images/dig.jpg"",""time"":0},{""stimulus"":""run_exp/static/images/task_images/land.jpg"",""time"":945},{""stimulus"":""run_exp/static/images/task_images/dig.jpg"",""time"":1884}]",[],3,,,,,,,,,,,,,,
harvest,87,474644,0.0-29.0-1.0,"""event"",""trial"",""time""
""focus"",""0"",""0""
""blur"",""0"",""0""
""focus"",""0"",""0""
""blur"",""0"",""0""
""focus"",""0"",""0""
""blur"",""0"",""0""
""focus"",""0"",""0""
""blur"",""0"",""0""
""focus"",""1"",""87354""
""fullscreenenter"",""1"",""89136""
""fullscreenexit"",""15"",""224770""
""blur"",""44"",""326669""
""focus"",""44"",""331975""
","""event"",""trial"",""time""
""blur"",""0"",""0""
""blur"",""0"",""0""
""blur"",""0"",""0""
""blur"",""0"",""0""
""blur"",""44"",""326669""
","""event"",""trial"",""time""
""focus"",""0"",""0""
""focus"",""0"",""0""
""focus"",""0"",""0""
""focus"",""0"",""0""
""focus"",""1"",""87354""
""focus"",""44"",""331975""
","""event"",""trial"",""time""
""fullscreenenter"",""1"",""89136""
","""event"",""trial"",""time""
""fullscreenexit"",""15"",""224770""
",,null,run_exp/static/images/task_images/gems/18.jpg,null,,,,,,,9,,,3,,,,,18,0.512466254,0.5,,,,,,,
decision,88,476559,0.0-29.0-2.0,"""event"",""trial"",""time""
""focus"",""0"",""0""
""blur"",""0"",""0""
""focus"",""0"",""0""
""blur"",""0"",""0""
""focus"",""0"",""0""
""blur"",""0"",""0""
""focus"",""0"",""0""
""blur"",""0"",""0""
""focus"",""1"",""87354""
""fullscreenenter"",""1"",""89136""
""fullscreenexit"",""15"",""224770""
""blur"",""44"",""326669""
""focus"",""44"",""331975""
","""event"",""trial"",""time""
""blur"",""0"",""0""
""blur"",""0"",""0""
""blur"",""0"",""0""
""blur"",""0"",""0""
""blur"",""44"",""326669""
","""event"",""trial"",""time""
""focus"",""0"",""0""
""focus"",""0"",""0""
""focus"",""0"",""0""
""focus"",""0"",""0""
""focus"",""1"",""87354""
""focus"",""44"",""331975""
","""event"",""trial"",""time""
""fullscreenenter"",""1"",""89136""
","""event"",""trial"",""time""
""fullscreenexit"",""15"",""224770""
",,1912,run_exp/static/images/task_images/land.jpg,76,,,,,,,9,,,3,,,,,,,,63987,1,2,TRUE,,,
travel,89,484778,0.0-30.0-0.0,"""event"",""trial"",""time""
""focus"",""0"",""0""
""blur"",""0"",""0""
""focus"",""0"",""0""
""blur"",""0"",""0""
""focus"",""0"",""0""
""blur"",""0"",""0""
""focus"",""0"",""0""
""blur"",""0"",""0""
""focus"",""1"",""87354""
""fullscreenenter"",""1"",""89136""
""fullscreenexit"",""15"",""224770""
""blur"",""44"",""326669""
""focus"",""44"",""331975""
","""event"",""trial"",""time""
""blur"",""0"",""0""
""blur"",""0"",""0""
""blur"",""0"",""0""
""blur"",""0"",""0""
""blur"",""44"",""326669""
","""event"",""trial"",""time""
""focus"",""0"",""0""
""focus"",""0"",""0""
""focus"",""0"",""0""
""focus"",""0"",""0""
""focus"",""1"",""87354""
""focus"",""44"",""331975""
","""event"",""trial"",""time""
""fullscreenenter"",""1"",""89136""
","""event"",""trial"",""time""
""fullscreenexit"",""15"",""224770""
",,,,,,,,,,,,"[{""stimulus"":""run_exp/static/images/task_images/rocket-01.jpg"",""time"":0},{""stimulus"":""run_exp/static/images/task_images/rocket-02.jpg"",""time"":909},{""stimulus"":""run_exp/static/images/task_images/rocket-03.jpg"",""time"":1821},{""stimulus"":""run_exp/static/images/task_images/rocket-04.jpg"",""time"":2733},{""stimulus"":""run_exp/static/images/task_images/rocket-05.jpg"",""time"":3647},{""stimulus"":""run_exp/static/images/task_images/rocket-06.jpg"",""time"":4560},{""stimulus"":""run_exp/static/images/task_images/rocket-07.jpg"",""time"":5472},{""stimulus"":""run_exp/static/images/task_images/rocket-08.jpg"",""time"":6382},{""stimulus"":""run_exp/static/images/task_images/rocket-09.jpg"",""time"":7294}]",[],3,,,,,,,,,,,,,,
alien_welcome,90,489786,0.0-30.0-1.0,"""event"",""trial"",""time""
""focus"",""0"",""0""
""blur"",""0"",""0""
""focus"",""0"",""0""
""blur"",""0"",""0""
""focus"",""0"",""0""
""blur"",""0"",""0""
""focus"",""0"",""0""
""blur"",""0"",""0""
""focus"",""1"",""87354""
""fullscreenenter"",""1"",""89136""
""fullscreenexit"",""15"",""224770""
""blur"",""44"",""326669""
""focus"",""44"",""331975""
","""event"",""trial"",""time""
""blur"",""0"",""0""
""blur"",""0"",""0""
""blur"",""0"",""0""
""blur"",""0"",""0""
""blur"",""44"",""326669""
","""event"",""trial"",""time""
""focus"",""0"",""0""
""focus"",""0"",""0""
""focus"",""0"",""0""
""focus"",""0"",""0""
""focus"",""1"",""87354""
""focus"",""44"",""331975""
","""event"",""trial"",""time""
""fullscreenenter"",""1"",""89136""
","""event"",""trial"",""time""
""fullscreenexit"",""15"",""224770""
",,null,run_exp/static/images/task_images/aliens/old_aliens/planet/alien_planet-39.jpg,null,,,,,,,,,,,,,39,"53,22,46,39,25,74,54,32,24,11,29,57,3,18,37,55,15,12,1,73,65,27,23,30,60,64,50,16,66,71,14,21,6",,,,,,,,,,
land,91,490302,0.0-30.0-2.0,"""event"",""trial"",""time""
""focus"",""0"",""0""
""blur"",""0"",""0""
""focus"",""0"",""0""
""blur"",""0"",""0""
""focus"",""0"",""0""
""blur"",""0"",""0""
""focus"",""0"",""0""
""blur"",""0"",""0""
""focus"",""1"",""87354""
""fullscreenenter"",""1"",""89136""
""fullscreenexit"",""15"",""224770""
""blur"",""44"",""326669""
""focus"",""44"",""331975""
","""event"",""trial"",""time""
""blur"",""0"",""0""
""blur"",""0"",""0""
""blur"",""0"",""0""
""blur"",""0"",""0""
""blur"",""44"",""326669""
","""event"",""trial"",""time""
""focus"",""0"",""0""
""focus"",""0"",""0""
""focus"",""0"",""0""
""focus"",""0"",""0""
""focus"",""1"",""87354""
""focus"",""44"",""331975""
","""event"",""trial"",""time""
""fullscreenenter"",""1"",""89136""
","""event"",""trial"",""time""
""fullscreenexit"",""15"",""224770""
",,null,run_exp/static/images/task_images/land.jpg,null,,,,,,,104,,,4,,,,,,,,,,,,,,
dig,92,492332,0.0-30.0-3.0,"""event"",""trial"",""time""
""focus"",""0"",""0""
""blur"",""0"",""0""
""focus"",""0"",""0""
""blur"",""0"",""0""
""focus"",""0"",""0""
""blur"",""0"",""0""
""focus"",""0"",""0""
""blur"",""0"",""0""
""focus"",""1"",""87354""
""fullscreenenter"",""1"",""89136""
""fullscreenexit"",""15"",""224770""
""blur"",""44"",""326669""
""focus"",""44"",""331975""
","""event"",""trial"",""time""
""blur"",""0"",""0""
""blur"",""0"",""0""
""blur"",""0"",""0""
""blur"",""0"",""0""
""blur"",""44"",""326669""
","""event"",""trial"",""time""
""focus"",""0"",""0""
""focus"",""0"",""0""
""focus"",""0"",""0""
""focus"",""0"",""0""
""focus"",""1"",""87354""
""focus"",""44"",""331975""
","""event"",""trial"",""time""
""fullscreenenter"",""1"",""89136""
","""event"",""trial"",""time""
""fullscreenexit"",""15"",""224770""
",,,,,,,,,,,,"[{""stimulus"":""run_exp/static/images/task_images/dig.jpg"",""time"":0},{""stimulus"":""run_exp/static/images/task_images/land.jpg"",""time"":673},{""stimulus"":""run_exp/static/images/task_images/dig.jpg"",""time"":1348}]",[],4,,,,,,,,,,,,,,
harvest,93,493348,0.0-30.0-4.0,"""event"",""trial"",""time""
""focus"",""0"",""0""
""blur"",""0"",""0""
""focus"",""0"",""0""
""blur"",""0"",""0""
""focus"",""0"",""0""
""blur"",""0"",""0""
""focus"",""0"",""0""
""blur"",""0"",""0""
""focus"",""1"",""87354""
""fullscreenenter"",""1"",""89136""
""fullscreenexit"",""15"",""224770""
""blur"",""44"",""326669""
""focus"",""44"",""331975""
","""event"",""trial"",""time""
""blur"",""0"",""0""
""blur"",""0"",""0""
""blur"",""0"",""0""
""blur"",""0"",""0""
""blur"",""44"",""326669""
","""event"",""trial"",""time""
""focus"",""0"",""0""
""focus"",""0"",""0""
""focus"",""0"",""0""
""focus"",""0"",""0""
""focus"",""1"",""87354""
""focus"",""44"",""331975""
","""event"",""trial"",""time""
""fullscreenenter"",""1"",""89136""
","""event"",""trial"",""time""
""fullscreenexit"",""15"",""224770""
",,null,run_exp/static/images/task_images/gems/104.jpg,null,,,,,,,53,,,4,,,,,104,0.508707397,0.509615385,,,,,,,
decision,94,495164,0.0-30.0-5.0,"""event"",""trial"",""time""
""focus"",""0"",""0""
""blur"",""0"",""0""
""focus"",""0"",""0""
""blur"",""0"",""0""
""focus"",""0"",""0""
""blur"",""0"",""0""
""focus"",""0"",""0""
""blur"",""0"",""0""
""focus"",""1"",""87354""
""fullscreenenter"",""1"",""89136""
""fullscreenexit"",""15"",""224770""
""blur"",""44"",""326669""
""focus"",""44"",""331975""
","""event"",""trial"",""time""
""blur"",""0"",""0""
""blur"",""0"",""0""
""blur"",""0"",""0""
""blur"",""0"",""0""
""blur"",""44"",""326669""
","""event"",""trial"",""time""
""focus"",""0"",""0""
""focus"",""0"",""0""
""focus"",""0"",""0""
""focus"",""0"",""0""
""focus"",""1"",""87354""
""focus"",""44"",""331975""
","""event"",""trial"",""time""
""fullscreenenter"",""1"",""89136""
","""event"",""trial"",""time""
""fullscreenexit"",""15"",""224770""
",,1816,run_exp/static/images/task_images/land.jpg,65,,,,,,,53,,,4,,,,,,,,82593,1,0,FALSE,,,
dig,95,496362,0.0-31.0-0.0,"""event"",""trial"",""time""
""focus"",""0"",""0""
""blur"",""0"",""0""
""focus"",""0"",""0""
""blur"",""0"",""0""
""focus"",""0"",""0""
""blur"",""0"",""0""
""focus"",""0"",""0""
""blur"",""0"",""0""
""focus"",""1"",""87354""
""fullscreenenter"",""1"",""89136""
""fullscreenexit"",""15"",""224770""
""blur"",""44"",""326669""
""focus"",""44"",""331975""
","""event"",""trial"",""time""
""blur"",""0"",""0""
""blur"",""0"",""0""
""blur"",""0"",""0""
""blur"",""0"",""0""
""blur"",""44"",""326669""
","""event"",""trial"",""time""
""focus"",""0"",""0""
""focus"",""0"",""0""
""focus"",""0"",""0""
""focus"",""0"",""0""
""focus"",""1"",""87354""
""focus"",""44"",""331975""
","""event"",""trial"",""time""
""fullscreenenter"",""1"",""89136""
","""event"",""trial"",""time""
""fullscreenexit"",""15"",""224770""
