"trial_type","trial_index","time_elapsed","internal_node_id","interactions","blur_events","focus_events","fullscreenenter_events","fullscreenexit_events","success"
"pavlovia","0","6","0.0-0.0","""event"",""trial"",""time""
""fullscreenenter"",""1"",""1160""
","
","
","""event"",""trial"",""time""
""fullscreenenter"",""1"",""1160""
","
",""
"fullscreen","1","2137","0.0-1.0","""event"",""trial"",""time""
""fullscreenenter"",""1"",""1160""
""fullscreenexit"",""2"",""4984""
""blur"",""2"",""5025""
""focus"",""2"",""5047""
""blur"",""2"",""7916""
""focus"",""2"",""7943""
""blur"",""2"",""14243""
","""event"",""trial"",""time""
""blur"",""2"",""5025""
""blur"",""2"",""7916""
""blur"",""2"",""14243""
","""event"",""trial"",""time""
""focus"",""2"",""5047""
""focus"",""2"",""7943""
","""event"",""trial"",""time""
""fullscreenenter"",""1"",""1160""
","""event"",""trial"",""time""
""fullscreenexit"",""2"",""4984""
","true"
