trial_type,trial_index,time_elapsed,internal_node_id,interactions,blur_events,focus_events,fullscreenenter_events,fullscreenexit_events,success,rt,stimulus,key_press,prompt,subject_id,participant_id,age,gender,button_pressed,next_reward,animation_sequence,responses,planet,curr_prac_trial,n_prac_rounds,alien,aliens,reward_received,decay_rate_actual,decay_rate_exp,time_in_block,block_num,prt,last_trial_on_planet,button_html,bonus,num_failures
pavlovia,0,19,0.0-0.0,"""event"",""trial"",""time""
""focus"",""0"",""0""
","
","""event"",""trial"",""time""
""focus"",""0"",""0""
","
","
",,,,,,,,,,,,,,,,,,,,,,,,,,,,
fullscreen,1,6562,0.0-1.0,"""event"",""trial"",""time""
""focus"",""0"",""0""
""fullscreenenter"",""2"",""9206""
","
","""event"",""trial"",""time""
""focus"",""0"",""0""
","""event"",""trial"",""time""
""fullscreenenter"",""2"",""9206""
","
",TRUE,,,,,,,,,,,,,,,,,,,,,,,,,,,
instruc_welcome,2,19814,0.0-2.0,"""event"",""trial"",""time""
""focus"",""0"",""0""
""fullscreenenter"",""2"",""9206""
","
","""event"",""trial"",""time""
""focus"",""0"",""0""
","""event"",""trial"",""time""
""fullscreenenter"",""2"",""9206""
","
",,null,run_exp/static/audio/clip_1_welcome.m4a,null,"<p>Howdy! In this experiment, you’ll be an explorer traveling through space to collect space treasure.</p><p>Your mission is to collect as much treasure as possible.</p><br><br><p><img src='run_exp/static/images/task_images/opening_img-01.jpg' height='300' width='auto'></p>",8003,3496,13.82,Female,,,,,,,,,,,,,,,,,,,
audio-keyboard-response,3,36679,0.0-3.0,"""event"",""trial"",""time""
""focus"",""0"",""0""
""fullscreenenter"",""2"",""9206""
","
","""event"",""trial"",""time""
""focus"",""0"",""0""
","""event"",""trial"",""time""
""fullscreenenter"",""2"",""9206""
","
",,null,run_exp/static/audio/clip_2_move.m4a,null,,,,,,,,,,,,,,,,,,,,,,,,
welcome_dec,4,44011,0.0-4.0,"""event"",""trial"",""time""
""focus"",""0"",""0""
""fullscreenenter"",""2"",""9206""
","
","""event"",""trial"",""time""
""focus"",""0"",""0""
","""event"",""trial"",""time""
""fullscreenenter"",""2"",""9206""
","
",,7328,"<p>Howdy! In this experiment, you’ll be an explorer traveling through space to collect space treasure.</p><p>Your mission is to collect as much treasure as possible.</p><br><br><p><img src='run_exp/static/images/task_images/opening_img-01.jpg' height='300' width='auto'></p>",,,,,,,1,,,,,,,,,,,,,,,,,,
html-keyboard-response,5,49726,0.0-5.0,"""event"",""trial"",""time""
""focus"",""0"",""0""
""fullscreenenter"",""2"",""9206""
","
","""event"",""trial"",""time""
""focus"",""0"",""0""
","""event"",""trial"",""time""
""fullscreenenter"",""2"",""9206""
","
",,5340,"<p>Howdy! In this experiment, you’ll be an explorer traveling through space to collect space treasure.</p><p>Your mission is to collect as much treasure as possible.</p><br><br><p><img src='run_exp/static/images/task_images/opening_img-01.jpg' height='300' width='auto'></p><button class=""jspsych-html-btn-unchosen""><img src=""run_exp/static/images/task_images/planet-01.jpg"" height=""50""></button><button class=""jspsych-html-btn-chosen""><img src=""run_exp/static/images/task_images/planet-02.jpg"" height=""50""></button><p><b>[press the space bar to lock in your answer]<b><br></p>",32,,,,,,,,,,,,,,,,,,,,,,,,
instruc_goal,6,59839,0.0-6.0-0.0,"""event"",""trial"",""time""
""focus"",""0"",""0""
""fullscreenenter"",""2"",""9206""
","
","""event"",""trial"",""time""
""focus"",""0"",""0""
","""event"",""trial"",""time""
""fullscreenenter"",""2"",""9206""
","
",,null,run_exp/static/audio/clip_3_goal.m4a,null,"<p> As a space explorer, you’ll visit different planets to dig for space treasure, these pink gems.</p> <p> The more treasure you dig up, the more bonus money you’ll win! </p><br><br><p><img src='run_exp/static/images/task_images/pink_gem.jpg' height='300' width='auto'></p>",,,,,,,,,,,,,,,,,,,,,,,
instruc_goal,7,70163,0.0-6.0-1.0,"""event"",""trial"",""time""
""focus"",""0"",""0""
""fullscreenenter"",""2"",""9206""
","
","""event"",""trial"",""time""
""focus"",""0"",""0""
","""event"",""trial"",""time""
""fullscreenenter"",""2"",""9206""
","
",,10316,"<p> As a space explorer, you’ll visit different planets to dig for space treasure, these pink gems.</p> <p> The more treasure you dig up, the more bonus money you’ll win! </p><br><br><p><img src='run_exp/static/images/task_images/pink_gem.jpg' height='300' width='auto'></p>",,,,,,,1,,,,,,,,,,,,,,,,,,
html-keyboard-response,8,70806,0.0-6.0-2.0,"""event"",""trial"",""time""
""focus"",""0"",""0""
""fullscreenenter"",""2"",""9206""
","
","""event"",""trial"",""time""
""focus"",""0"",""0""
","""event"",""trial"",""time""
""fullscreenenter"",""2"",""9206""
","
",,639,"<p> As a space explorer, you’ll visit different planets to dig for space treasure, these pink gems.</p> <p> The more treasure you dig up, the more bonus money you’ll win! </p><br><br><p><img src='run_exp/static/images/task_images/pink_gem.jpg' height='300' width='auto'></p><button class=""jspsych-html-btn-unchosen""><img src=""run_exp/static/images/task_images/planet-01.jpg"" height=""50""></button><button class=""jspsych-html-btn-chosen""><img src=""run_exp/static/images/task_images/planet-02.jpg"" height=""50""></button><p><b>[press the space bar to lock in your answer]<b><br></p>",32,,,,,,,,,,,,,,,,,,,,,,,,
instruc_dig,9,87273,0.0-7.0-0.0,"""event"",""trial"",""time""
""focus"",""0"",""0""
""fullscreenenter"",""2"",""9206""
","
","""event"",""trial"",""time""
""focus"",""0"",""0""
","""event"",""trial"",""time""
""fullscreenenter"",""2"",""9206""
","
",,null,run_exp/static/audio/clip_4_dig.m4a,null,,,,,,,100,,,,,,,,,,,,,,,,,
instruc_dig_try,10,88765,0.0-7.0-1.0,"""event"",""trial"",""time""
""focus"",""0"",""0""
""fullscreenenter"",""2"",""9206""
","
","""event"",""trial"",""time""
""focus"",""0"",""0""
","""event"",""trial"",""time""
""fullscreenenter"",""2"",""9206""
","
",,1488,"<p> When you’ve arrived at a new planet, you will dig once. </p> <p>Then, you get to decide if you want to stay on the planet and dig again or travel to a new planet and dig there.</p> <p> To stay and dig, press the letter <strong>‘A’</strong> on your keyboard. Try pressing it now! </p><p><img src='run_exp/static/images/task_images/land.jpg'  height='700' width='auto'></p>",65,"<p> When you’ve arrived at a new planet, you will dig once. </p> <p>Then, you get to decide if you want to stay on the planet and dig again or travel to a new planet and dig there.</p> <p> To stay and dig, press the letter <strong>‘A’</strong> on your keyboard. Try pressing it now! </p><p><img src='run_exp/static/images/task_images/land.jpg'  height='700' width='auto'></p>",,,,,,100,,,,,,,,,,,,,,,,,
dig_prac,11,93814,0.0-7.0-2.0,"""event"",""trial"",""time""
""focus"",""0"",""0""
""fullscreenenter"",""2"",""9206""
","
","""event"",""trial"",""time""
""focus"",""0"",""0""
","""event"",""trial"",""time""
""fullscreenenter"",""2"",""9206""
","
",,,,,,,,,,,,"[{""stimulus"":""run_exp/static/images/task_images/dig.jpg"",""time"":0},{""stimulus"":""run_exp/static/images/task_images/land.jpg"",""time"":682},{""stimulus"":""run_exp/static/images/task_images/dig.jpg"",""time"":1355}]",[],,,,,,,,,,,,,,,
instruc_travel,12,130341,0.0-7.0-3.0,"""event"",""trial"",""time""
""focus"",""0"",""0""
""fullscreenenter"",""2"",""9206""
","
","""event"",""trial"",""time""
""focus"",""0"",""0""
","""event"",""trial"",""time""
""fullscreenenter"",""2"",""9206""
","
",,null,run_exp/static/audio/clip_5_travel.m4a,null,"<p>Every time you dig up gems, there are less gems on the planet, so the more you dig on a planet the fewer gems you’ll get with each dig.</p><p>When gems are running low, you may want to travel to a new planet. </p> <p>  Planets are very far apart in this galaxy, so it will take some time to travel between them. </p> <br><p>There are lots and lots of planets for you to visit, so you won’t be able to return to any planets you’ve seen before. </p><br><p>To leave this planet and travel to a new one, press the letter <strong>‘L’</strong> on your keyboard. Try pressing it now! </p><p><img src='run_exp/static/images/task_images/rocket-01.jpg'  height='600' width='auto'></p>",,,,,,,,,,,,,,,,,,,,,,,
instruc_travel_try,13,130725,0.0-7.0-4.0,"""event"",""trial"",""time""
""focus"",""0"",""0""
""fullscreenenter"",""2"",""9206""
","
","""event"",""trial"",""time""
""focus"",""0"",""0""
","""event"",""trial"",""time""
""fullscreenenter"",""2"",""9206""
","
",,382,"<p>Every time you dig up gems, there are less gems on the planet, so the more you dig on a planet the fewer gems you’ll get with each dig.</p><p>When gems are running low, you may want to travel to a new planet. </p> <p>  Planets are very far apart in this galaxy, so it will take some time to travel between them. </p> <br><p>There are lots and lots of planets for you to visit, so you won’t be able to return to any planets you’ve seen before. </p><br><p>To leave this planet and travel to a new one, press the letter <strong>‘L’</strong> on your keyboard. Try pressing it now! </p><p><img src='run_exp/static/images/task_images/rocket-01.jpg'  height='600' width='auto'></p>",76,"<p>Every time you dig up gems, there are less gems on the planet, so the more you dig on a planet the fewer gems you’ll get with each dig.</p><p>When gems are running low, you may want to travel to a new planet. </p> <p>  Planets are very far apart in this galaxy, so it will take some time to travel between them. </p> <br><p>There are lots and lots of planets for you to visit, so you won’t be able to return to any planets you’ve seen before. </p><br><p>To leave this planet and travel to a new one, press the letter <strong>‘L’</strong> on your keyboard. Try pressing it now! </p><p><img src='run_exp/static/images/task_images/rocket-01.jpg'  height='600' width='auto'></p>",,,,,,,,,,,,,,,,,,,,,,,
travel_prac,14,140808,0.0-7.0-5.0,"""event"",""trial"",""time""
""focus"",""0"",""0""
""fullscreenenter"",""2"",""9206""
","
","""event"",""trial"",""time""
""focus"",""0"",""0""
","""event"",""trial"",""time""
""fullscreenenter"",""2"",""9206""
","
",,,,,,,,,,,,"[{""stimulus"":""run_exp/static/images/task_images/rocket-01.jpg"",""time"":0},{""stimulus"":""run_exp/static/images/task_images/rocket-02.jpg"",""time"":1119},{""stimulus"":""run_exp/static/images/task_images/rocket-03.jpg"",""time"":2242},{""stimulus"":""run_exp/static/images/task_images/rocket-04.jpg"",""time"":3365},{""stimulus"":""run_exp/static/images/task_images/rocket-05.jpg"",""time"":4484},{""stimulus"":""run_exp/static/images/task_images/rocket-06.jpg"",""time"":5606},{""stimulus"":""run_exp/static/images/task_images/rocket-07.jpg"",""time"":6720},{""stimulus"":""run_exp/static/images/task_images/rocket-08.jpg"",""time"":7844},{""stimulus"":""run_exp/static/images/task_images/rocket-09.jpg"",""time"":8956}]",[],0,,,,,,,,,,,,,,
instruc_alien_greet,15,168039,0.0-7.0-6.0,"""event"",""trial"",""time""
""focus"",""0"",""0""
""fullscreenenter"",""2"",""9206""
","
","""event"",""trial"",""time""
""focus"",""0"",""0""
","""event"",""trial"",""time""
""fullscreenenter"",""2"",""9206""
","
",,null,run_exp/static/audio/clip_6_alien.m4a,null,"<p>When you arrive at a new planet, the alien who owns the treasure mine on that planet will greet you!</p><p>The better an alien takes care of their mine the easier it is to dig for gems. Some aliens take better care of their mine than others. So, you won’t get exactly the same amount of gems on each planet.</p><p>What the alien looks like does not tell you anything about how many gems there are on the planet.</p><br><p><img src=""run_exp/static/images/task_images/aliens/instructions_aliens/planet/alien_planet-1.jpg""  height=""600"" width=""auto""></p>",,,,,,,,,,,,,,,,,,,,,,,
instruc_alien_greet,16,169475,0.0-7.0-7.0,"""event"",""trial"",""time""
""focus"",""0"",""0""
""fullscreenenter"",""2"",""9206""
","
","""event"",""trial"",""time""
""focus"",""0"",""0""
","""event"",""trial"",""time""
""fullscreenenter"",""2"",""9206""
","
",,1435,"<p>When you arrive at a new planet, the alien who owns the treasure mine on that planet will greet you!</p><p>The better an alien takes care of their mine the easier it is to dig for gems. Some aliens take better care of their mine than others. So, you won’t get exactly the same amount of gems on each planet.</p><p>What the alien looks like does not tell you anything about how many gems there are on the planet.</p><br><p><img src=""run_exp/static/images/task_images/aliens/instructions_aliens/planet/alien_planet-1.jpg""  height=""600"" width=""auto""></p>",,,,,,,1,,,,,,,,,,,,,,,,,,
html-keyboard-response,17,170531,0.0-7.0-8.0,"""event"",""trial"",""time""
""focus"",""0"",""0""
""fullscreenenter"",""2"",""9206""
","
","""event"",""trial"",""time""
""focus"",""0"",""0""
","""event"",""trial"",""time""
""fullscreenenter"",""2"",""9206""
","
",,1054,"<p>When you arrive at a new planet, the alien who owns the treasure mine on that planet will greet you!</p><p>The better an alien takes care of their mine the easier it is to dig for gems. Some aliens take better care of their mine than others. So, you won’t get exactly the same amount of gems on each planet.</p><p>What the alien looks like does not tell you anything about how many gems there are on the planet.</p><br><p><img src=""run_exp/static/images/task_images/aliens/instructions_aliens/planet/alien_planet-1.jpg""  height=""600"" width=""auto""></p><button class=""jspsych-html-btn-unchosen""><img src=""run_exp/static/images/task_images/planet-01.jpg"" height=""50""></button><button class=""jspsych-html-btn-chosen""><img src=""run_exp/static/images/task_images/planet-02.jpg"" height=""50""></button><p><b>[press the space bar to lock in your answer]<b><br></p>",32,,,,,,,,,,,,,,,,,,,,,,,,
time_out,18,181644,0.0-8.0-0.0,"""event"",""trial"",""time""
""focus"",""0"",""0""
""fullscreenenter"",""2"",""9206""
","
","""event"",""trial"",""time""
""focus"",""0"",""0""
","""event"",""trial"",""time""
""fullscreenenter"",""2"",""9206""
","
",,null,run_exp/static/audio/clip_7_timeout.m4a,null,"<p>If you don't make your choice fast enough, you’ll have to wait a few seconds before you can make another one.</p><p>You can’t dig for more gems or travel to new planets. You just have to sit and wait.</p><br><p><img src='run_exp/static/images/task_images/time_out.jpg'  height='600' width='auto'></p>",,,,,,,,,,,,,,,,,,,,,,,
time_out,19,183410,0.0-8.0-1.0,"""event"",""trial"",""time""
""focus"",""0"",""0""
""fullscreenenter"",""2"",""9206""
","
","""event"",""trial"",""time""
""focus"",""0"",""0""
","""event"",""trial"",""time""
""fullscreenenter"",""2"",""9206""
","
",,1765,"<p>If you don't make your choice fast enough, you’ll have to wait a few seconds before you can make another one.</p><p>You can’t dig for more gems or travel to new planets. You just have to sit and wait.</p><br><p><img src='run_exp/static/images/task_images/time_out.jpg'  height='600' width='auto'></p>",,,,,,,1,,,,,,,,,,,,,,,,,,
html-keyboard-response,20,183708,0.0-8.0-2.0,"""event"",""trial"",""time""
""focus"",""0"",""0""
""fullscreenenter"",""2"",""9206""
","
","""event"",""trial"",""time""
""focus"",""0"",""0""
","""event"",""trial"",""time""
""fullscreenenter"",""2"",""9206""
","
",,294,"<p>If you don't make your choice fast enough, you’ll have to wait a few seconds before you can make another one.</p><p>You can’t dig for more gems or travel to new planets. You just have to sit and wait.</p><br><p><img src='run_exp/static/images/task_images/time_out.jpg'  height='600' width='auto'></p><button class=""jspsych-html-btn-unchosen""><img src=""run_exp/static/images/task_images/planet-01.jpg"" height=""50""></button><button class=""jspsych-html-btn-chosen""><img src=""run_exp/static/images/task_images/planet-02.jpg"" height=""50""></button><p><b>[press the space bar to lock in your answer]<b><br></p>",32,,,,,,,,,,,,,,,,,,,,,,,,
instruc_break,21,199409,0.0-9.0-0.0,"""event"",""trial"",""time""
""focus"",""0"",""0""
""fullscreenenter"",""2"",""9206""
","
","""event"",""trial"",""time""
""focus"",""0"",""0""
","""event"",""trial"",""time""
""fullscreenenter"",""2"",""9206""
","
",,null,run_exp/static/audio/clip_8_break.m4a,null,"<p> After digging and traveling for a while, you’ll be able to take a break at home base. </p><p>The game will last 20 minutes no matter what.</p><p>You will visit home base every 5 minutes, so, you will visit home base three times during the game.</p><br><p><img src='run_exp/static/images/task_images/home_base.jpg' height='600' width='auto'></p>",,,,,,,,,,,,,,,,,,,,,,,
instruc_break,22,200746,0.0-9.0-1.0,"""event"",""trial"",""time""
""focus"",""0"",""0""
""fullscreenenter"",""2"",""9206""
","
","""event"",""trial"",""time""
""focus"",""0"",""0""
","""event"",""trial"",""time""
""fullscreenenter"",""2"",""9206""
","
",,1337,"<p> After digging and traveling for a while, you’ll be able to take a break at home base. </p><p>The game will last 20 minutes no matter what.</p><p>You will visit home base every 5 minutes, so, you will visit home base three times during the game.</p><br><p><img src='run_exp/static/images/task_images/home_base.jpg' height='600' width='auto'></p>",,,,,,,1,,,,,,,,,,,,,,,,,,
html-keyboard-response,23,201100,0.0-9.0-2.0,"""event"",""trial"",""time""
""focus"",""0"",""0""
""fullscreenenter"",""2"",""9206""
","
","""event"",""trial"",""time""
""focus"",""0"",""0""
","""event"",""trial"",""time""
""fullscreenenter"",""2"",""9206""
","
",,351,"<p> After digging and traveling for a while, you’ll be able to take a break at home base. </p><p>The game will last 20 minutes no matter what.</p><p>You will visit home base every 5 minutes, so, you will visit home base three times during the game.</p><br><p><img src='run_exp/static/images/task_images/home_base.jpg' height='600' width='auto'></p><button class=""jspsych-html-btn-unchosen""><img src=""run_exp/static/images/task_images/planet-01.jpg"" height=""50""></button><button class=""jspsych-html-btn-chosen""><img src=""run_exp/static/images/task_images/planet-02.jpg"" height=""50""></button><p><b>[press the space bar to lock in your answer]<b><br></p>",32,,,,,,,,,,,,,,,,,,,,,,,,
instruc_prac_game,24,211250,0.0-10.0-0.0,"""event"",""trial"",""time""
""focus"",""0"",""0""
""fullscreenenter"",""2"",""9206""
","
","""event"",""trial"",""time""
""focus"",""0"",""0""
","""event"",""trial"",""time""
""fullscreenenter"",""2"",""9206""
","
",,null,run_exp/static/audio/clip_9_practice.m4a,null,"<p> Are you ready to play a practice game? </p> <p>In this practice game, you'll be digging up barrels of gems. But, in the real game, you'll be digging up the gems themselves. </p>",,,,,,,,,,,,,,,,,,,,,,,
html-button-response,25,212786,0.0-10.0-1.0,"""event"",""trial"",""time""
""focus"",""0"",""0""
""fullscreenenter"",""2"",""9206""
","
","""event"",""trial"",""time""
""focus"",""0"",""0""
","""event"",""trial"",""time""
""fullscreenenter"",""2"",""9206""
","
",,1536,"<p> Are you ready to play a practice game? </p> <p>In this practice game, you'll be digging up barrels of gems. But, in the real game, you'll be digging up the gems themselves. </p>",,,,,,,0,,,,,,,,,,,,,,,,,,
alien_welcome_prac,26,217791,0.0-11.0-0.0,"""event"",""trial"",""time""
""focus"",""0"",""0""
""fullscreenenter"",""2"",""9206""
","
","""event"",""trial"",""time""
""focus"",""0"",""0""
","""event"",""trial"",""time""
""fullscreenenter"",""2"",""9206""
","
",,null,run_exp/static/images/task_images/aliens/practice_aliens/planet/alien_planet-5.jpg,null,,,,,,,,,,,,,,,,,,,,,,,,
land_prac,27,218296,0.0-11.0-1.0,"""event"",""trial"",""time""
""focus"",""0"",""0""
""fullscreenenter"",""2"",""9206""
","
","""event"",""trial"",""time""
""focus"",""0"",""0""
","""event"",""trial"",""time""
""fullscreenenter"",""2"",""9206""
","
",,null,run_exp/static/images/task_images/land.jpg,null,,,,,,,103,,,0,,,,,,,,,,,,,,
dig_prac,28,220335,0.0-11.0-2.0,"""event"",""trial"",""time""
""focus"",""0"",""0""
""fullscreenenter"",""2"",""9206""
","
","""event"",""trial"",""time""
""focus"",""0"",""0""
","""event"",""trial"",""time""
""fullscreenenter"",""2"",""9206""
","
",,,,,,,,,,,,"[{""stimulus"":""run_exp/static/images/task_images/dig.jpg"",""time"":1},{""stimulus"":""run_exp/static/images/task_images/land.jpg"",""time"":677},{""stimulus"":""run_exp/static/images/task_images/dig.jpg"",""time"":1358}]",[],,,,,,,,,,,,,,,
harvest_prac,29,221351,0.0-11.0-3.0,"""event"",""trial"",""time""
""focus"",""0"",""0""
""fullscreenenter"",""2"",""9206""
","
","""event"",""trial"",""time""
""focus"",""0"",""0""
","""event"",""trial"",""time""
""fullscreenenter"",""2"",""9206""
","
",,null,run_exp/static/images/task_images/barrel_text.jpg,null,,,,,,,,,,,,,,,,,,,,,,,,
decision_prac,30,223148,0.0-11.0-4.0,"""event"",""trial"",""time""
""focus"",""0"",""0""
""fullscreenenter"",""2"",""9206""
","
","""event"",""trial"",""time""
""focus"",""0"",""0""
","""event"",""trial"",""time""
""fullscreenenter"",""2"",""9206""
","
",,1796,run_exp/static/images/task_images/land.jpg,65,,,,,,,,,,,1,,,,,,,,,,,,,
dig_prac,31,225188,0.0-12.0-0.0,"""event"",""trial"",""time""
""focus"",""0"",""0""
""fullscreenenter"",""2"",""9206""
","
","""event"",""trial"",""time""
""focus"",""0"",""0""
","""event"",""trial"",""time""
""fullscreenenter"",""2"",""9206""
","
",,,,,,,,,,,,"[{""stimulus"":""run_exp/static/images/task_images/dig.jpg"",""time"":0},{""stimulus"":""run_exp/static/images/task_images/land.jpg"",""time"":678},{""stimulus"":""run_exp/static/images/task_images/dig.jpg"",""time"":1351}]",[],,,,,,,,,,,,,,,
harvest_prac,32,226202,0.0-12.0-1.0,"""event"",""trial"",""time""
""focus"",""0"",""0""
""fullscreenenter"",""2"",""9206""
","
","""event"",""trial"",""time""
""focus"",""0"",""0""
","""event"",""trial"",""time""
""fullscreenenter"",""2"",""9206""
","
",,null,run_exp/static/images/task_images/barrel_text.jpg,null,,,,,,,,,,,,,,,,,,,,,,,,
decision_prac,33,227267,0.0-12.0-2.0,"""event"",""trial"",""time""
""focus"",""0"",""0""
""fullscreenenter"",""2"",""9206""
","
","""event"",""trial"",""time""
""focus"",""0"",""0""
","""event"",""trial"",""time""
""fullscreenenter"",""2"",""9206""
","
",,1065,run_exp/static/images/task_images/land.jpg,65,,,,,,,,,,,2,,,,,,,,,,,,,
dig_prac,34,229300,0.0-13.0-0.0,"""event"",""trial"",""time""
""focus"",""0"",""0""
""fullscreenenter"",""2"",""9206""
","
","""event"",""trial"",""time""
""focus"",""0"",""0""
","""event"",""trial"",""time""
""fullscreenenter"",""2"",""9206""
","
",,,,,,,,,,,,"[{""stimulus"":""run_exp/static/images/task_images/dig.jpg"",""time"":0},{""stimulus"":""run_exp/static/images/task_images/land.jpg"",""time"":680},{""stimulus"":""run_exp/static/images/task_images/dig.jpg"",""time"":1352}]",[],,,,,,,,,,,,,,,
harvest_prac,35,230314,0.0-13.0-1.0,"""event"",""trial"",""time""
""focus"",""0"",""0""
""fullscreenenter"",""2"",""9206""
","
","""event"",""trial"",""time""
""focus"",""0"",""0""
","""event"",""trial"",""time""
""fullscreenenter"",""2"",""9206""
","
",,null,run_exp/static/images/task_images/barrel_text.jpg,null,,,,,,,,,,,,,,,,,,,,,,,,
decision_prac,36,231219,0.0-13.0-2.0,"""event"",""trial"",""time""
""focus"",""0"",""0""
""fullscreenenter"",""2"",""9206""
","
","""event"",""trial"",""time""
""focus"",""0"",""0""
","""event"",""trial"",""time""
""fullscreenenter"",""2"",""9206""
","
",,906,run_exp/static/images/task_images/land.jpg,65,,,,,,,,,,,3,,,,,,,,,,,,,
dig_prac,37,233245,0.0-14.0-0.0,"""event"",""trial"",""time""
""focus"",""0"",""0""
""fullscreenenter"",""2"",""9206""
","
","""event"",""trial"",""time""
""focus"",""0"",""0""
","""event"",""trial"",""time""
""fullscreenenter"",""2"",""9206""
","
",,,,,,,,,,,,"[{""stimulus"":""run_exp/static/images/task_images/dig.jpg"",""time"":1},{""stimulus"":""run_exp/static/images/task_images/land.jpg"",""time"":673},{""stimulus"":""run_exp/static/images/task_images/dig.jpg"",""time"":1346}]",[],,,,,,,,,,,,,,,
harvest_prac,38,234259,0.0-14.0-1.0,"""event"",""trial"",""time""
""focus"",""0"",""0""
""fullscreenenter"",""2"",""9206""
","
","""event"",""trial"",""time""
""focus"",""0"",""0""
","""event"",""trial"",""time""
""fullscreenenter"",""2"",""9206""
","
",,null,run_exp/static/images/task_images/barrel_text.jpg,null,,,,,,,,,,,,,,,,,,,,,,,,
decision_prac,39,235108,0.0-14.0-2.0,"""event"",""trial"",""time""
""focus"",""0"",""0""
""fullscreenenter"",""2"",""9206""
","
","""event"",""trial"",""time""
""focus"",""0"",""0""
","""event"",""trial"",""time""
""fullscreenenter"",""2"",""9206""
","
",,847,run_exp/static/images/task_images/land.jpg,65,,,,,,,,,,,4,,,,,,,,,,,,,
dig_prac,40,237132,0.0-15.0-0.0,"""event"",""trial"",""time""
""focus"",""0"",""0""
""fullscreenenter"",""2"",""9206""
","
","""event"",""trial"",""time""
""focus"",""0"",""0""
","""event"",""trial"",""time""
""fullscreenenter"",""2"",""9206""
","
",,,,,,,,,,,,"[{""stimulus"":""run_exp/static/images/task_images/dig.jpg"",""time"":0},{""stimulus"":""run_exp/static/images/task_images/land.jpg"",""time"":675},{""stimulus"":""run_exp/static/images/task_images/dig.jpg"",""time"":1344}]",[],,,,,,,,,,,,,,,
harvest_prac,41,238134,0.0-15.0-1.0,"""event"",""trial"",""time""
""focus"",""0"",""0""
""fullscreenenter"",""2"",""9206""
","
","""event"",""trial"",""time""
""focus"",""0"",""0""
","""event"",""trial"",""time""
""fullscreenenter"",""2"",""9206""
","
",,null,run_exp/static/images/task_images/barrel_text.jpg,null,,,,,,,,,,,,,,,,,,,,,,,,
decision_prac,42,239084,0.0-15.0-2.0,"""event"",""trial"",""time""
""focus"",""0"",""0""
""fullscreenenter"",""2"",""9206""
","
","""event"",""trial"",""time""
""focus"",""0"",""0""
","""event"",""trial"",""time""
""fullscreenenter"",""2"",""9206""
","
",,949,run_exp/static/images/task_images/land.jpg,65,,,,,,,,,,,,1,,,,,,,,,,,,
quiz_instruc,43,240531,0.0-16.0-0.0,"""event"",""trial"",""time""
""focus"",""0"",""0""
""fullscreenenter"",""2"",""9206""
","
","""event"",""trial"",""time""
""focus"",""0"",""0""
","""event"",""trial"",""time""
""fullscreenenter"",""2"",""9206""
","
",,1444,run_exp/static/audio/clip_10_quiz.m4a,,,,,,,0,,,,,,,,,,,,,,,,,,
instruc_repeat,44,283304,0.0-16.0-1.0,"""event"",""trial"",""time""
""focus"",""0"",""0""
""fullscreenenter"",""2"",""9206""
","
","""event"",""trial"",""time""
""focus"",""0"",""0""
","""event"",""trial"",""time""
""fullscreenenter"",""2"",""9206""
","
",,null,"<p> Are you ready to play a practice game? </p> <p>In this practice game, you'll be digging up barrels of gems. But, in the real game, you'll be digging up the gems themselves. </p>",null,"<p>In this game, your goal is to collect as many gems as you can. That’s how you will win bonus money. </p> <p>The entire game will last 20 minutes no matter how many gems you collect or how many planets you visit. </p><p>To stay on a planet and dig again, press the letter A on your keyboard. To leave for a new planet, press the letter L.</p><p>The more you dig on a planet, the fewer gems you’ll get with each dig which is why you might consider leaving for a new planet. </p><p>When you arrive at a new planet, you’ll be greeted by an alien. What the alien looks like does not tell you anything about how much treasure is on the planet. </p>",,,,,,,,,,,,,,,,,,,,,,,
instruc_repeat_continue,45,284083,0.0-16.0-2.0,"""event"",""trial"",""time""
""focus"",""0"",""0""
""fullscreenenter"",""2"",""9206""
","
","""event"",""trial"",""time""
""focus"",""0"",""0""
","""event"",""trial"",""time""
""fullscreenenter"",""2"",""9206""
","
",,776,"<p> Are you ready to play a practice game? </p> <p>In this practice game, you'll be digging up barrels of gems. But, in the real game, you'll be digging up the gems themselves. </p>",,,,,,,0,,,,,,,,,,,,,,,,,,
quiz_q_1_ask,46,286811,0.0-16.0-3.0,"""event"",""trial"",""time""
""focus"",""0"",""0""
""fullscreenenter"",""2"",""9206""
","
","""event"",""trial"",""time""
""focus"",""0"",""0""
","""event"",""trial"",""time""
""fullscreenenter"",""2"",""9206""
","
",,2727,run_exp/static/audio/clip_11_q1_ask.m4a,,,,,,,2,,,,,,,,,,,,,,,,,,
quiz_q_1_fb_correct,47,290642,0.0-17.0-0.0,"""event"",""trial"",""time""
""focus"",""0"",""0""
""fullscreenenter"",""2"",""9206""
","
","""event"",""trial"",""time""
""focus"",""0"",""0""
","""event"",""trial"",""time""
""fullscreenenter"",""2"",""9206""
","
",,null,run_exp/static/audio/clip_12_q1_correct.m4a,null,<p>That’s correct. You win extra money by collecting more gems.</p>,,,,,,,,,,,,,,,,,,,,,,,
quiz_q_2_ask,48,294858,0.0-17.0-1.0,"""event"",""trial"",""time""
""focus"",""0"",""0""
""fullscreenenter"",""2"",""9206""
","
","""event"",""trial"",""time""
""focus"",""0"",""0""
","""event"",""trial"",""time""
""fullscreenenter"",""2"",""9206""
","
",,4215,run_exp/static/audio/clip_14_q2_ask.m4a,,,,,,,1,,,,,,,,,,,,,,,,,,
quiz_q_2_fb_correct,49,298850,0.0-18.0-0.0,"""event"",""trial"",""time""
""focus"",""0"",""0""
""fullscreenenter"",""2"",""9206""
","
","""event"",""trial"",""time""
""focus"",""0"",""0""
","""event"",""trial"",""time""
""fullscreenenter"",""2"",""9206""
","
",,null,run_exp/static/audio/clip_15_q2_correct.m4a,null,<p>That’s correct. The experiment is 20 minutes no matter what.</p>,,,,,,,,,,,,,,,,,,,,,,,
quiz_q_3_ask,50,300595,0.0-18.0-1.0,"""event"",""trial"",""time""
""focus"",""0"",""0""
""fullscreenenter"",""2"",""9206""
","
","""event"",""trial"",""time""
""focus"",""0"",""0""
","""event"",""trial"",""time""
""fullscreenenter"",""2"",""9206""
","
",,1743,run_exp/static/audio/clip_17_q3_ask.m4a,,,,,,,1,,,,,,,,,,,,,,,,,,
quiz_q_3_fb_correct,51,304551,0.0-19.0-0.0,"""event"",""trial"",""time""
""focus"",""0"",""0""
""fullscreenenter"",""2"",""9206""
","
","""event"",""trial"",""time""
""focus"",""0"",""0""
","""event"",""trial"",""time""
""fullscreenenter"",""2"",""9206""
","
",,null,run_exp/static/audio/clip_18_q3_correct.m4a,null,<p> That’s correct. You press the letter L to travel to a new planet.</p>,,,,,,,,,,,,,,,,,,,,,,,
quiz_q_4_ask,52,308786,0.0-19.0-1.0,"""event"",""trial"",""time""
""focus"",""0"",""0""
""fullscreenenter"",""2"",""9206""
","
","""event"",""trial"",""time""
""focus"",""0"",""0""
","""event"",""trial"",""time""
""fullscreenenter"",""2"",""9206""
","
",,4236,run_exp/static/audio/clip_20_q4_ask.m4a,,,,,,,1,,,,,,,,,,,,,,,,,,
quiz_q_4_fb_incorrect,53,314603,0.0-20.0-0.0,"""event"",""trial"",""time""
""focus"",""0"",""0""
""fullscreenenter"",""2"",""9206""
","
","""event"",""trial"",""time""
""focus"",""0"",""0""
","""event"",""trial"",""time""
""fullscreenenter"",""2"",""9206""
","
",,null,run_exp/static/audio/clip_22_q4_incorrect.m4a,null,<p>That’s incorrect.  The more you dig on a planet the fewer gems you’ll get with each dig.</p>,,,,,,,,,,,,,,,,,,,,,,,
quiz_q_5_ask,54,316747,0.0-20.0-1.0,"""event"",""trial"",""time""
""focus"",""0"",""0""
""fullscreenenter"",""2"",""9206""
","
","""event"",""trial"",""time""
""focus"",""0"",""0""
","""event"",""trial"",""time""
""fullscreenenter"",""2"",""9206""
","
",,2142,run_exp/static/audio/clip_23_q5_ask.m4a,,,,,,,1,,,,,,,,,,,,,,,,,,
quiz_q_5_fb_correct,55,321717,0.0-21.0-0.0,"""event"",""trial"",""time""
""focus"",""0"",""0""
""fullscreenenter"",""2"",""9206""
","
","""event"",""trial"",""time""
""focus"",""0"",""0""
","""event"",""trial"",""time""
""fullscreenenter"",""2"",""9206""
","
",,null,run_exp/static/audio/clip_24_q5_correct.m4a,null,<p> That’s correct. The alien tells you nothing about how much treasure is on the planet.</p>,,,,,,,,,,,,,,,,,,,,,,,
quiz_incorrect,56,327266,0.0-22.0-0.0,"""event"",""trial"",""time""
""focus"",""0"",""0""
""fullscreenenter"",""2"",""9206""
","
","""event"",""trial"",""time""
""focus"",""0"",""0""
","""event"",""trial"",""time""
""fullscreenenter"",""2"",""9206""
","
",,null,run_exp/static/audio/clip_27_incorrect_quiz.m4a,null,,,,,,,,,,,,,,,,,,,,,,,,
quiz_incorrect_continue,57,329459,0.0-22.0-1.0,"""event"",""trial"",""time""
""focus"",""0"",""0""
""fullscreenenter"",""2"",""9206""
","
","""event"",""trial"",""time""
""focus"",""0"",""0""
","""event"",""trial"",""time""
""fullscreenenter"",""2"",""9206""
","
",,2191,"<p>Oops, you missed some questions.</p><p>Now that you’ve heard the correct answers. Try the quiz again!</p>",,,,,,,0,,,,,,,,,,,,,,,,,,
quiz_q_1_ask,58,331554,0.0-22.0-2.0,"""event"",""trial"",""time""
""focus"",""0"",""0""
""fullscreenenter"",""2"",""9206""
","
","""event"",""trial"",""time""
""focus"",""0"",""0""
","""event"",""trial"",""time""
""fullscreenenter"",""2"",""9206""
","
",,2093,run_exp/static/audio/clip_11_q1_ask.m4a,,,,,,,2,,,,,,,,,,,,,,,,,,
quiz_q_1_fb_correct,59,335380,0.0-23.0-0.0,"""event"",""trial"",""time""
""focus"",""0"",""0""
""fullscreenenter"",""2"",""9206""
","
","""event"",""trial"",""time""
""focus"",""0"",""0""
","""event"",""trial"",""time""
""fullscreenenter"",""2"",""9206""
","
",,null,run_exp/static/audio/clip_12_q1_correct.m4a,null,<p>That’s correct. You win extra money by collecting more gems.</p>,,,,,,,,,,,,,,,,,,,,,,,
quiz_q_2_ask,60,336458,0.0-23.0-1.0,"""event"",""trial"",""time""
""focus"",""0"",""0""
""fullscreenenter"",""2"",""9206""
","
","""event"",""trial"",""time""
""focus"",""0"",""0""
","""event"",""trial"",""time""
""fullscreenenter"",""2"",""9206""
","
",,1077,run_exp/static/audio/clip_14_q2_ask.m4a,,,,,,,1,,,,,,,,,,,,,,,,,,
quiz_q_2_fb_correct,61,340445,0.0-24.0-0.0,"""event"",""trial"",""time""
""focus"",""0"",""0""
""fullscreenenter"",""2"",""9206""
","
","""event"",""trial"",""time""
""focus"",""0"",""0""
","""event"",""trial"",""time""
""fullscreenenter"",""2"",""9206""
","
",,null,run_exp/static/audio/clip_15_q2_correct.m4a,null,<p>That’s correct. The experiment is 20 minutes no matter what.</p>,,,,,,,,,,,,,,,,,,,,,,,
quiz_q_3_ask,62,341698,0.0-24.0-1.0,"""event"",""trial"",""time""
""focus"",""0"",""0""
""fullscreenenter"",""2"",""9206""
","
","""event"",""trial"",""time""
""focus"",""0"",""0""
","""event"",""trial"",""time""
""fullscreenenter"",""2"",""9206""
","
",,1253,run_exp/static/audio/clip_17_q3_ask.m4a,,,,,,,1,,,,,,,,,,,,,,,,,,
quiz_q_3_fb_correct,63,345653,0.0-25.0-0.0,"""event"",""trial"",""time""
""focus"",""0"",""0""
""fullscreenenter"",""2"",""9206""
","
","""event"",""trial"",""time""
""focus"",""0"",""0""
","""event"",""trial"",""time""
""fullscreenenter"",""2"",""9206""
","
",,null,run_exp/static/audio/clip_18_q3_correct.m4a,null,<p> That’s correct. You press the letter L to travel to a new planet.</p>,,,,,,,,,,,,,,,,,,,,,,,
quiz_q_4_ask,64,346346,0.0-25.0-1.0,"""event"",""trial"",""time""
""focus"",""0"",""0""
""fullscreenenter"",""2"",""9206""
","
","""event"",""trial"",""time""
""focus"",""0"",""0""
","""event"",""trial"",""time""
""fullscreenenter"",""2"",""9206""
","
",,693,run_exp/static/audio/clip_20_q4_ask.m4a,,,,,,,0,,,,,,,,,,,,,,,,,,
quiz_q_4_fb_correct,65,351635,0.0-26.0-0.0,"""event"",""trial"",""time""
""focus"",""0"",""0""
""fullscreenenter"",""2"",""9206""
","
","""event"",""trial"",""time""
""focus"",""0"",""0""
","""event"",""trial"",""time""
""fullscreenenter"",""2"",""9206""
","
",,null,run_exp/static/audio/clip_21_q4_correct.m4a,null,<p> That’s correct. The more you dig on a planet the fewer gems you’ll get with each dig. </p>,,,,,,,,,,,,,,,,,,,,,,,
quiz_q_5_ask,66,353211,0.0-26.0-1.0,"""event"",""trial"",""time""
""focus"",""0"",""0""
""fullscreenenter"",""2"",""9206""
","
","""event"",""trial"",""time""
""focus"",""0"",""0""
","""event"",""trial"",""time""
""fullscreenenter"",""2"",""9206""
","
",,1575,run_exp/static/audio/clip_23_q5_ask.m4a,,,,,,,1,,,,,,,,,,,,,,,,,,
quiz_q_5_fb_correct,67,358186,0.0-27.0-0.0,"""event"",""trial"",""time""
""focus"",""0"",""0""
""fullscreenenter"",""2"",""9206""
","
","""event"",""trial"",""time""
""focus"",""0"",""0""
","""event"",""trial"",""time""
""fullscreenenter"",""2"",""9206""
","
",,null,run_exp/static/audio/clip_24_q5_correct.m4a,null,<p> That’s correct. The alien tells you nothing about how much treasure is on the planet.</p>,,,,,,,,,,,,,,,,,,,,,,,
quiz_correct,68,361639,0.0-28.0-0.0,"""event"",""trial"",""time""
""focus"",""0"",""0""
""fullscreenenter"",""2"",""9206""
","
","""event"",""trial"",""time""
""focus"",""0"",""0""
","""event"",""trial"",""time""
""fullscreenenter"",""2"",""9206""
","
",,null,run_exp/static/audio/clip_26_correct_quiz.m4a,null,,,,,,,,,,,,,,,,,,,,,,,,
quiz_correct_continue,69,362698,0.0-28.0-1.0,"""event"",""trial"",""time""
""focus"",""0"",""0""
""fullscreenenter"",""2"",""9206""
","
","""event"",""trial"",""time""
""focus"",""0"",""0""
","""event"",""trial"",""time""
""fullscreenenter"",""2"",""9206""
","
",,1059,<p>Good job! You're now ready to move on to the real game!</p>,,,,,,,0,,,,,,,,,,,,,,,,,,
audio-keyboard-response,70,372789,0.0-28.0-2.0,"""event"",""trial"",""time""
""focus"",""0"",""0""
""fullscreenenter"",""2"",""9206""
","
","""event"",""trial"",""time""
""focus"",""0"",""0""
","""event"",""trial"",""time""
""fullscreenenter"",""2"",""9206""
","
",,null,run_exp/static/audio/clip_28_real_game.m4a,null,,,,,,,,,,,,,,,,,,,,,,,,
instruc_begin_exp_contine,71,373978,0.0-28.0-3.0,"""event"",""trial"",""time""
""focus"",""0"",""0""
""fullscreenenter"",""2"",""9206""
","
","""event"",""trial"",""time""
""focus"",""0"",""0""
","""event"",""trial"",""time""
""fullscreenenter"",""2"",""9206""
","
",,1187,"<p>Now that you know how  to dig for space treasure and travel to new planets,you can start exploring! </p><p>Do you want to go over the instructions again or get started with the real game?</p>",,,,,,,1,,,,,,1,,,,,,,,,,,,
alien_welcome,72,378995,0.0-29.0-0.0,"""event"",""trial"",""time""
""focus"",""0"",""0""
""fullscreenenter"",""2"",""9206""
","
","""event"",""trial"",""time""
""focus"",""0"",""0""
","""event"",""trial"",""time""
""fullscreenenter"",""2"",""9206""
","
",,null,run_exp/static/images/task_images/aliens/old_aliens/planet/alien_planet-52.jpg,null,,,,,,,,,,,,,52,"52,72,12,54,15,58,55,61,4,1,45,6,34,38,74,60,42,18,51,36,50,56,53,39,80,29,67,79,37,10,2,24,40",,,,,,,,,,
land,73,379497,0.0-29.0-1.0,"""event"",""trial"",""time""
""focus"",""0"",""0""
""fullscreenenter"",""2"",""9206""
","
","""event"",""trial"",""time""
""focus"",""0"",""0""
","""event"",""trial"",""time""
""fullscreenenter"",""2"",""9206""
","
",,null,run_exp/static/images/task_images/land.jpg,null,,,,,,,97,,,1,,,,,,,,,,,,,,
dig,74,381544,0.0-29.0-2.0,"""event"",""trial"",""time""
""focus"",""0"",""0""
""fullscreenenter"",""2"",""9206""
","
","""event"",""trial"",""time""
""focus"",""0"",""0""
","""event"",""trial"",""time""
""fullscreenenter"",""2"",""9206""
","
",,,,,,,,,,,,"[{""stimulus"":""run_exp/static/images/task_images/dig.jpg"",""time"":1},{""stimulus"":""run_exp/static/images/task_images/land.jpg"",""time"":681},{""stimulus"":""run_exp/static/images/task_images/dig.jpg"",""time"":1359}]",[],1,,,,,,,,,,,,,,
harvest,75,382551,0.0-29.0-3.0,"""event"",""trial"",""time""
""focus"",""0"",""0""
""fullscreenenter"",""2"",""9206""
","
","""event"",""trial"",""time""
""focus"",""0"",""0""
","""event"",""trial"",""time""
""fullscreenenter"",""2"",""9206""
","
",,null,run_exp/static/images/task_images/gems/97.jpg,null,,,,,,,17,,,1,,,,,97,0.177900596,0.175257732,,,,,,,
decision,76,383284,0.0-29.0-4.0,"""event"",""trial"",""time""
""focus"",""0"",""0""
""fullscreenenter"",""2"",""9206""
","
","""event"",""trial"",""time""
""focus"",""0"",""0""
","""event"",""trial"",""time""
""fullscreenenter"",""2"",""9206""
","
",,731,run_exp/static/images/task_images/land.jpg,65,,,,,,,17,,,1,,,,,,,,9304,1,0,FALSE,,,
dig,77,385593,0.0-30.0-0.0,"""event"",""trial"",""time""
""focus"",""0"",""0""
""fullscreenenter"",""2"",""9206""
","
","""event"",""trial"",""time""
""focus"",""0"",""0""
","""event"",""trial"",""time""
""fullscreenenter"",""2"",""9206""
","
",,,,,,,,,,,,"[{""stimulus"":""run_exp/static/images/task_images/dig.jpg"",""time"":1},{""stimulus"":""run_exp/static/images/task_images/land.jpg"",""time"":770},{""stimulus"":""run_exp/static/images/task_images/dig.jpg"",""time"":1525}]",[],1,,,,,,,,,,,,,,
harvest,78,386602,0.0-30.0-1.0,"""event"",""trial"",""time""
""focus"",""0"",""0""
""fullscreenenter"",""2"",""9206""
","
","""event"",""trial"",""time""
""focus"",""0"",""0""
","""event"",""trial"",""time""
""fullscreenenter"",""2"",""9206""
","
",,null,run_exp/static/images/task_images/gems/17.jpg,null,,,,,,,3,,,1,,,,,17,0.178792884,0.176470588,,,,,,,
decision,79,387316,0.0-30.0-2.0,"""event"",""trial"",""time""
""focus"",""0"",""0""
""fullscreenenter"",""2"",""9206""
","
","""event"",""trial"",""time""
""focus"",""0"",""0""
","""event"",""trial"",""time""
""fullscreenenter"",""2"",""9206""
","
",,714,run_exp/static/images/task_images/land.jpg,65,,,,,,,3,,,1,,,,,,,,13336,1,1,FALSE,,,
dig,80,389643,0.0-31.0-0.0,"""event"",""trial"",""time""
""focus"",""0"",""0""
""fullscreenenter"",""2"",""9206""
","
","""event"",""trial"",""time""
""focus"",""0"",""0""
","""event"",""trial"",""time""
""fullscreenenter"",""2"",""9206""
","
",,,,,,,,,,,,"[{""stimulus"":""run_exp/static/images/task_images/dig.jpg"",""time"":0},{""stimulus"":""run_exp/static/images/task_images/land.jpg"",""time"":771},{""stimulus"":""run_exp/static/images/task_images/dig.jpg"",""time"":1541}]",[],1,,,,,,,,,,,,,,
harvest,81,390658,0.0-31.0-1.0,"""event"",""trial"",""time""
""focus"",""0"",""0""
""fullscreenenter"",""2"",""9206""
","
","""event"",""trial"",""time""
""focus"",""0"",""0""
","""event"",""trial"",""time""
""fullscreenenter"",""2"",""9206""
","
",,null,run_exp/static/images/task_images/gems/3.jpg,null,,,,,,,1,,,1,,,,,3,0.21400112,0.333333333,,,,,,,
decision,82,392453,0.0-31.0-2.0,"""event"",""trial"",""time""
""focus"",""0"",""0""
""fullscreenenter"",""2"",""9206""
","
","""event"",""trial"",""time""
""focus"",""0"",""0""
","""event"",""trial"",""time""
""fullscreenenter"",""2"",""9206""
","
",,1792,run_exp/static/images/task_images/land.jpg,76,,,,,,,1,,,1,,,,,,,,18473,1,2,TRUE,,,
travel,83,400762,0.0-32.0-0.0,"""event"",""trial"",""time""
""focus"",""0"",""0""
""fullscreenenter"",""2"",""9206""
","
","""event"",""trial"",""time""
""focus"",""0"",""0""
","""event"",""trial"",""time""
""fullscreenenter"",""2"",""9206""
","
",,,,,,,,,,,,"[{""stimulus"":""run_exp/static/images/task_images/rocket-01.jpg"",""time"":0},{""stimulus"":""run_exp/static/images/task_images/rocket-02.jpg"",""time"":915},{""stimulus"":""run_exp/static/images/task_images/rocket-03.jpg"",""time"":1841},{""stimulus"":""run_exp/static/images/task_images/rocket-04.jpg"",""time"":2760},{""stimulus"":""run_exp/static/images/task_images/rocket-05.jpg"",""time"":3673},{""stimulus"":""run_exp/static/images/task_images/rocket-06.jpg"",""time"":4600},{""stimulus"":""run_exp/static/images/task_images/rocket-07.jpg"",""time"":5520},{""stimulus"":""run_exp/static/images/task_images/rocket-08.jpg"",""time"":6443},{""stimulus"":""run_exp/static/images/task_images/rocket-09.jpg"",""time"":7370}]",[],1,,,,,,,,,,,,,,
alien_welcome,84,405774,0.0-32.0-1.0,"""event"",""trial"",""time""
""focus"",""0"",""0""
""fullscreenenter"",""2"",""9206""
","
","""event"",""trial"",""time""
""focus"",""0"",""0""
","""event"",""trial"",""time""
""fullscreenenter"",""2"",""9206""
","
",,null,run_exp/static/images/task_images/aliens/old_aliens/planet/alien_planet-72.jpg,null,,,,,,,,,,,,,72,"52,72,12,54,15,58,55,61,4,1,45,6,34,38,74,60,42,18,51,36,50,56,53,39,80,29,67,79,37,10,2,24,40",,,,,,,,,,
land,85,406284,0.0-32.0-2.0,"""event"",""trial"",""time""
""focus"",""0"",""0""
""fullscreenenter"",""2"",""9206""
","
","""event"",""trial"",""time""
""focus"",""0"",""0""
","""event"",""trial"",""time""
""fullscreenenter"",""2"",""9206""
","
",,null,run_exp/static/images/task_images/land.jpg,null,,,,,,,107,,,2,,,,,,,,,,,,,,
dig,86,408314,0.0-32.0-3.0,"""event"",""trial"",""time""
""focus"",""0"",""0""
""fullscreenenter"",""2"",""9206""
","
","""event"",""trial"",""time""
""focus"",""0"",""0""
","""event"",""trial"",""time""
""fullscreenenter"",""2"",""9206""
","
",,,,,,,,,,,,"[{""stimulus"":""run_exp/static/images/task_images/dig.jpg"",""time"":0},{""stimulus"":""run_exp/static/images/task_images/land.jpg"",""time"":670},{""stimulus"":""run_exp/static/images/task_images/dig.jpg"",""time"":1348}]",[],2,,,,,,,,,,,,,,
harvest,87,409326,0.0-32.0-4.0,"""event"",""trial"",""time""
""focus"",""0"",""0""
""fullscreenenter"",""2"",""9206""
","
","""event"",""trial"",""time""
""focus"",""0"",""0""
","""event"",""trial"",""time""
""fullscreenenter"",""2"",""9206""
","
",,null,run_exp/static/images/task_images/gems/107.jpg,null,,,,,,,19,,,2,,,,,107,0.181399364,0.177570093,,,,,,,
decision,88,409891,0.0-32.0-5.0,"""event"",""trial"",""time""
""focus"",""0"",""0""
""fullscreenenter"",""2"",""9206""
","
","""event"",""trial"",""time""
""focus"",""0"",""0""
","""event"",""trial"",""time""
""fullscreenenter"",""2"",""9206""
","
",,564,run_exp/static/images/task_images/land.jpg,65,,,,,,,19,,,2,,,,,,,,35911,1,0,FALSE,,,
dig,89,412357,0.0-33.0-0.0,"""event"",""trial"",""time""
""focus"",""0"",""0""
""fullscreenenter"",""2"",""9206""
","
","""event"",""trial"",""time""
""focus"",""0"",""0""
","""event"",""trial"",""time""
""fullscreenenter"",""2"",""9206""
","
",,,,,,,,,,,,"[{""stimulus"":""run_exp/static/images/task_images/dig.jpg"",""time"":0},{""stimulus"":""run_exp/static/images/task_images/land.jpg"",""time"":816},{""stimulus"":""run_exp/static/images/task_images/dig.jpg"",""time"":1636}]",[],2,,,,,,,,,,,,,,
harvest,90,413366,0.0-33.0-1.0,"""event"",""trial"",""time""
""focus"",""0"",""0""
""fullscreenenter"",""2"",""9206""
","
","""event"",""trial"",""time""
""focus"",""0"",""0""
","""event"",""trial"",""time""
""fullscreenenter"",""2"",""9206""
","
",,null,run_exp/static/images/task_images/gems/19.jpg,null,,,,,,,5,,,2,,,,,19,0.243232014,0.263157895,,,,,,,
decision,91,413892,0.0-33.0-2.0,"""event"",""trial"",""time""
""focus"",""0"",""0""
""fullscreenenter"",""2"",""9206""
","
","""event"",""trial"",""time""
""focus"",""0"",""0""
","""event"",""trial"",""time""
""fullscreenenter"",""2"",""9206""
","
",,524,run_exp/static/images/task_images/land.jpg,65,,,,,,,5,,,2,,,,,,,,39912,1,1,FALSE,,,
dig,92,416400,0.0-34.0-0.0,"""event"",""trial"",""time""
""focus"",""0"",""0""
""fullscreenenter"",""2"",""9206""
","
","""event"",""trial"",""time""
""focus"",""0"",""0""
","""event"",""trial"",""time""
""fullscreenenter"",""2"",""9206""
","
",,,,,,,,,,,,"[{""stimulus"":""run_exp/static/images/task_images/dig.jpg"",""time"":0},{""stimulus"":""run_exp/static/images/task_images/land.jpg"",""time"":834},{""stimulus"":""run_exp/static/images/task_images/dig.jpg"",""time"":1661}]",[],2,,,,,,,,,,,,,,
harvest,93,417410,0.0-34.0-1.0,"""event"",""trial"",""time""
""focus"",""0"",""0""
""fullscreenenter"",""2"",""9206""
","
","""event"",""trial"",""time""
""focus"",""0"",""0""
","""event"",""trial"",""time""
""fullscreenenter"",""2"",""9206""
","
",,null,run_exp/static/images/task_images/gems/5.jpg,null,,,,,,,1,,,2,,,,,5,0.155743414,0.2,,,,,,,
decision,94,417796,0.0-34.0-2.0,"""event"",""trial"",""time""
""focus"",""0"",""0""
""fullscreenenter"",""2"",""9206""
","
","""event"",""trial"",""time""
""focus"",""0"",""0""
","""event"",""trial"",""time""
""fullscreenenter"",""2"",""9206""
","
",,385,run_exp/static/images/task_images/land.jpg,65,,,,,,,1,,,2,,,,,,,,43816,1,2,FALSE,,,
dig,95,420449,0.0-35.0-0.0,"""event"",""trial"",""time""
""focus"",""0"",""0""
""fullscreenenter"",""2"",""9206""
","
","""event"",""trial"",""time""
""focus"",""0"",""0""
","""event"",""trial"",""time""
""fullscreenenter"",""2"",""9206""
","
",,,,,,,,,,,,"[{""stimulus"":""run_exp/static/images/task_images/dig.jpg"",""time"":0},{""stimulus"":""run_exp/static/images/task_images/land.jpg"",""time"":884},{""stimulus"":""run_exp/static/images/task_images/dig.jpg"",""time"":1757}]",[],2,,,,,,,,,,,,,,
harvest,96,421458,0.0-35.0-1.0,"""event"",""trial"",""time""
""focus"",""0"",""0""
""fullscreenenter"",""2"",""9206""
","
","""event"",""trial"",""time""
""focus"",""0"",""0""
","""event"",""trial"",""time""
""fullscreenenter"",""2"",""9206""
","
",,null,run_exp/static/images/task_images/gems/1.jpg,null,,,,,,,0,,,2,,,,,1,0.252826247,0,,,,,,,
decision,97,421957,0.0-35.0-2.0,"""event"",""trial"",""time""
""focus"",""0"",""0""
""fullscreenenter"",""2"",""9206""
","
","""event"",""trial"",""time""
""focus"",""0"",""0""
","""event"",""trial"",""time""
""fullscreenenter"",""2"",""9206""
","
",,498,run_exp/static/images/task_images/land.jpg,65,,,,,,,0,,,2,,,,,,,,47977,1,3,FALSE,,,
dig,98,424492,0.0-36.0-0.0,"""event"",""trial"",""time""
""focus"",""0"",""0""
""fullscreenenter"",""2"",""9206""
","
","""event"",""trial"",""time""
""focus"",""0"",""0""
","""event"",""trial"",""time""
""fullscreenenter"",""2"",""9206""
","
",,,,,,,,,,,,"[{""stimulus"":""run_exp/static/images/task_images/dig.jpg"",""time"":0},{""stimulus"":""run_exp/static/images/task_images/land.jpg"",""time"":848},{""stimulus"":""run_exp/static/images/task_images/dig.jpg"",""time"":1683}]",[],2,,,,,,,,,,,,,,
harvest,99,425496,0.0-36.0-1.0,"""event"",""trial"",""time""
""focus"",""0"",""0""
""fullscreenenter"",""2"",""9206""
","
","""event"",""trial"",""time""
""focus"",""0"",""0""
","""event"",""trial"",""time""
""fullscreenenter"",""2"",""9206""
","
",,null,run_exp/static/images/task_images/gems/0.jpg,null,,,,,,,0,,,2,,,,,0,0.146095091,NaN,,,,,,,
decision,100,426244,0.0-36.0-2.0,"""event"",""trial"",""time""
""focus"",""0"",""0""
""fullscreenenter"",""2"",""9206""
","
","""event"",""trial"",""time""
""focus"",""0"",""0""
","""event"",""trial"",""time""
""fullscreenenter"",""2"",""9206""
","
",,748,run_exp/static/images/task_images/land.jpg,76,,,,,,,0,,,2,,,,,,,,52265,1,4,TRUE,,,
travel,101,435572,0.0-37.0-0.0,"""event"",""trial"",""time""
""focus"",""0"",""0""
""fullscreenenter"",""2"",""9206""
","
","""event"",""trial"",""time""
""focus"",""0"",""0""
","""event"",""trial"",""time""
""fullscreenenter"",""2"",""9206""
","
",,,,,,,,,,,,"[{""stimulus"":""run_exp/static/images/task_images/rocket-01.jpg"",""time"":0},{""stimulus"":""run_exp/static/images/task_images/rocket-02.jpg"",""time"":1030},{""stimulus"":""run_exp/static/images/task_images/rocket-03.jpg"",""time"":2059},{""stimulus"":""run_exp/static/images/task_images/rocket-04.jpg"",""time"":3100},{""stimulus"":""run_exp/static/images/task_images/rocket-05.jpg"",""time"":4138},{""stimulus"":""run_exp/static/images/task_images/rocket-06.jpg"",""time"":5174},{""stimulus"":""run_exp/static/images/task_images/rocket-07.jpg"",""time"":6206},{""stimulus"":""run_exp/static/images/task_images/rocket-08.jpg"",""time"":7234},{""stimulus"":""run_exp/static/images/task_images/rocket-09.jpg"",""time"":8276}]",[],2,,,,,,,,,,,,,,
alien_welcome,102,440589,0.0-37.0-1.0,"""event"",""trial"",""time""
""focus"",""0"",""0""
""fullscreenenter"",""2"",""9206""
","
","""event"",""trial"",""time""
""focus"",""0"",""0""
","""event"",""trial"",""time""
""fullscreenenter"",""2"",""9206""
","
",,null,run_exp/static/images/task_images/aliens/old_aliens/planet/alien_planet-12.jpg,null,,,,,,,,,,,,,12,"52,72,12,54,15,58,55,61,4,1,45,6,34,38,74,60,42,18,51,36,50,56,53,39,80,29,67,79,37,10,2,24,40",,,,,,,,,,
land,103,441092,0.0-37.0-2.0,"""event"",""trial"",""time""
""focus"",""0"",""0""
""fullscreenenter"",""2"",""9206""
","
","""event"",""trial"",""time""
""focus"",""0"",""0""
","""event"",""trial"",""time""
""fullscreenenter"",""2"",""9206""
","
",,null,run_exp/static/images/task_images/land.jpg,null,,,,,,,100,,,3,,,,,,,,,,,,,,
dig,104,443143,0.0-37.0-3.0,"""event"",""trial"",""time""
""focus"",""0"",""0""
""fullscreenenter"",""2"",""9206""
","
","""event"",""trial"",""time""
""focus"",""0"",""0""
","""event"",""trial"",""time""
""fullscreenenter"",""2"",""9206""
","
",,,,,,,,,,,,"[{""stimulus"":""run_exp/static/images/task_images/dig.jpg"",""time"":0},{""stimulus"":""run_exp/static/images/task_images/land.jpg"",""time"":683},{""stimulus"":""run_exp/static/images/task_images/dig.jpg"",""time"":1362}]",[],3,,,,,,,,,,,,,,
harvest,105,444157,0.0-37.0-4.0,"""event"",""trial"",""time""
""focus"",""0"",""0""
""fullscreenenter"",""2"",""9206""
","
","""event"",""trial"",""time""
""focus"",""0"",""0""
","""event"",""trial"",""time""
""fullscreenenter"",""2"",""9206""
","
",,null,run_exp/static/images/task_images/gems/100.jpg,null,,,,,,,56,,,3,,,,,100,0.55923929,0.56,,,,,,,
decision,106,444167,0.0-37.0-5.0,"""event"",""trial"",""time""
""focus"",""0"",""0""
""fullscreenenter"",""2"",""9206""
","
","""event"",""trial"",""time""
""focus"",""0"",""0""
","""event"",""trial"",""time""
""fullscreenenter"",""2"",""9206""
","
",,8,run_exp/static/images/task_images/land.jpg,65,,,,,,,56,,,3,,,,,,,,70187,1,0,FALSE,,,
dig,107,447194,0.0-38.0-0.0,"""event"",""trial"",""time""
""focus"",""0"",""0""
""fullscreenenter"",""2"",""9206""
","
","""event"",""trial"",""time""
""focus"",""0"",""0""
","""event"",""trial"",""time""
""fullscreenenter"",""2"",""9206""
","
",,,,,,,,,,,,"[{""stimulus"":""run_exp/static/images/task_images/dig.jpg"",""time"":2},{""stimulus"":""run_exp/static/images/task_images/land.jpg"",""time"":1001},{""stimulus"":""run_exp/static/images/task_images/dig.jpg"",""time"":2010}]",[],3,,,,,,,,,,,,,,
harvest,108,448198,0.0-38.0-1.0,"""event"",""trial"",""time""
""focus"",""0"",""0""
""fullscreenenter"",""2"",""9206""
","
","""event"",""trial"",""time""
""focus"",""0"",""0""
","""event"",""trial"",""time""
""fullscreenenter"",""2"",""9206""
","
",,null,run_exp/static/images/task_images/gems/56.jpg,null,,,,,,,30,,,3,,,,,56,0.528089596,0.535714286,,,,,,,
decision,109,448588,0.0-38.0-2.0,"""event"",""trial"",""time""
""focus"",""0"",""0""
""fullscreenenter"",""2"",""9206""
","
","""event"",""trial"",""time""
""focus"",""0"",""0""
","""event"",""trial"",""time""
""fullscreenenter"",""2"",""9206""
","
",,387,run_exp/static/images/task_images/land.jpg,65,,,,,,,30,,,3,,,,,,,,74608,1,1,FALSE,,,
dig,110,451238,0.0-39.0-0.0,"""event"",""trial"",""time""
""focus"",""0"",""0""
""fullscreenenter"",""2"",""9206""
","
","""event"",""trial"",""time""
""focus"",""0"",""0""
","""event"",""trial"",""time""
""fullscreenenter"",""2"",""9206""
","
",,,,,,,,,,,,"[{""stimulus"":""run_exp/static/images/task_images/dig.jpg"",""time"":1},{""stimulus"":""run_exp/static/images/task_images/land.jpg"",""time"":882},{""stimulus"":""run_exp/static/images/task_images/dig.jpg"",""time"":1764}]",[],3,,,,,,,,,,,,,,
harvest,111,452250,0.0-39.0-1.0,"""event"",""trial"",""time""
""focus"",""0"",""0""
""fullscreenenter"",""2"",""9206""
","
","""event"",""trial"",""time""
""focus"",""0"",""0""
","""event"",""trial"",""time""
""fullscreenenter"",""2"",""9206""
","
",,null,run_exp/static/images/task_images/gems/30.jpg,null,,,,,,,14,,,3,,,,,30,0.462429334,0.466666667,,,,,,,
decision,112,452637,0.0-39.0-2.0,"""event"",""trial"",""time""
""focus"",""0"",""0""
""fullscreenenter"",""2"",""9206""
","
","""event"",""trial"",""time""
""focus"",""0"",""0""
","""event"",""trial"",""time""
""fullscreenenter"",""2"",""9206""
","
",,385,run_exp/static/images/task_images/land.jpg,65,,,,,,,14,,,3,,,,,,,,78657,1,2,FALSE,,,
dig,113,455299,0.0-40.0-0.0,"""event"",""trial"",""time""
""focus"",""0"",""0""
""fullscreenenter"",""2"",""9206""
","
","""event"",""trial"",""time""
""focus"",""0"",""0""
","""event"",""trial"",""time""
""fullscreenenter"",""2"",""9206""
","
",,,,,,,,,,,,"[{""stimulus"":""run_exp/static/images/task_images/dig.jpg"",""time"":0},{""stimulus"":""run_exp/static/images/task_images/land.jpg"",""time"":886},{""stimulus"":""run_exp/static/images/task_images/dig.jpg"",""time"":1765}]",[],3,,,,,,,,,,,,,,
harvest,114,456305,0.0-40.0-1.0,"""event"",""trial"",""time""
""focus"",""0"",""0""
""fullscreenenter"",""2"",""9206""
","
","""event"",""trial"",""time""
""focus"",""0"",""0""
","""event"",""trial"",""time""
""fullscreenenter"",""2"",""9206""
","
",,null,run_exp/static/images/task_images/gems/14.jpg,null,,,,,,,7,,,3,,,,,14,0.503705442,0.5,,,,,,,
decision,115,456699,0.0-40.0-2.0,"""event"",""trial"",""time""
""focus"",""0"",""0""
""fullscreenenter"",""2"",""9206""
","
","""event"",""trial"",""time""
""focus"",""0"",""0""
","""event"",""trial"",""time""
""fullscreenenter"",""2"",""9206""
","
",,393,run_exp/static/images/task_images/land.jpg,65,,,,,,,7,,,3,,,,,,,,82719,1,3,FALSE,,,
dig,116,459336,0.0-41.0-0.0,"""event"",""trial"",""time""
""focus"",""0"",""0""
""fullscreenenter"",""2"",""9206""
","
","""event"",""trial"",""time""
""focus"",""0"",""0""
","""event"",""trial"",""time""
""fullscreenenter"",""2"",""9206""
","
",,,,,,,,,,,,"[{""stimulus"":""run_exp/static/images/task_images/dig.jpg"",""time"":0},{""stimulus"":""run_exp/static/images/task_images/land.jpg"",""time"":884},{""stimulus"":""run_exp/static/images/task_images/dig.jpg"",""time"":1754}]",[],3,,,,,,,,,,,,,,
harvest,117,460349,0.0-41.0-1.0,"""event"",""trial"",""time""
""focus"",""0"",""0""
""fullscreenenter"",""2"",""9206""
","
","""event"",""trial"",""time""
""focus"",""0"",""0""
","""event"",""trial"",""time""
""fullscreenenter"",""2"",""9206""
","
",,null,run_exp/static/images/task_images/gems/7.jpg,null,,,,,,,4,,,3,,,,,7,0.585893641,0.571428571,,,,,,,
decision,118,461868,0.0-41.0-2.0,"""event"",""trial"",""time""
""focus"",""0"",""0""
""fullscreenenter"",""2"",""9206""
","
","""event"",""trial"",""time""
""focus"",""0"",""0""
","""event"",""trial"",""time""
""fullscreenenter"",""2"",""9206""
","
",,1518,run_exp/static/images/task_images/land.jpg,76,,,,,,,4,,,3,,,,,,,,87888,1,4,TRUE,,,
travel,119,470413,0.0-42.0-0.0,"""event"",""trial"",""time""
""focus"",""0"",""0""
""fullscreenenter"",""2"",""9206""
","
","""event"",""trial"",""time""
""focus"",""0"",""0""
","""event"",""trial"",""time""
""fullscreenenter"",""2"",""9206""
","
",,,,,,,,,,,,"[{""stimulus"":""run_exp/static/images/task_images/rocket-01.jpg"",""time"":0},{""stimulus"":""run_exp/static/images/task_images/rocket-02.jpg"",""time"":944},{""stimulus"":""run_exp/static/images/task_images/rocket-03.jpg"",""time"":1892},{""stimulus"":""run_exp/static/images/task_images/rocket-04.jpg"",""time"":2844},{""stimulus"":""run_exp/static/images/task_images/rocket-05.jpg"",""time"":3792},{""stimulus"":""run_exp/static/images/task_images/rocket-06.jpg"",""time"":4741},{""stimulus"":""run_exp/static/images/task_images/rocket-07.jpg"",""time"":5686},{""stimulus"":""run_exp/static/images/task_images/rocket-08.jpg"",""time"":6632},{""stimulus"":""run_exp/static/images/task_images/rocket-09.jpg"",""time"":7583}]",[],3,,,,,,,,,,,,,,
alien_welcome,120,475419,0.0-42.0-1.0,"""event"",""trial"",""time""
""focus"",""0"",""0""
""fullscreenenter"",""2"",""9206""
","
","""event"",""trial"",""time""
""focus"",""0"",""0""
","""event"",""trial"",""time""
""fullscreenenter"",""2"",""9206""
","
",,null,run_exp/static/images/task_images/aliens/old_aliens/planet/alien_planet-54.jpg,null,,,,,,,,,,,,,54,"52,72,12,54,15,58,55,61,4,1,45,6,34,38,74,60,42,18,51,36,50,56,53,39,80,29,67,79,37,10,2,24,40",,,,,,,,,,
land,121,475922,0.0-42.0-2.0,"""event"",""trial"",""time""
""focus"",""0"",""0""
""fullscreenenter"",""2"",""9206""
","
","""event"",""trial"",""time""
""focus"",""0"",""0""
","""event"",""trial"",""time""
""fullscreenenter"",""2"",""9206""
","
",,null,run_exp/static/images/task_images/land.jpg,null,,,,,,,106,,,4,,,,,,,,,,,,,,
dig,122,477961,0.0-42.0-3.0,"""event"",""trial"",""time""
""focus"",""0"",""0""
""fullscreenenter"",""2"",""9206""
","
","""event"",""trial"",""time""
""focus"",""0"",""0""
","""event"",""trial"",""time""
""fullscreenenter"",""2"",""9206""
","
",,,,,,,,,,,,"[{""stimulus"":""run_exp/static/images/task_images/dig.jpg"",""time"":0},{""stimulus"":""run_exp/static/images/task_images/land.jpg"",""time"":669},{""stimulus"":""run_exp/static/images/task_images/dig.jpg"",""time"":1348}]",[],4,,,,,,,,,,,,,,
harvest,123,478967,0.0-42.0-4.0,"""event"",""trial"",""time""
""focus"",""0"",""0""
""fullscreenenter"",""2"",""9206""
","
","""event"",""trial"",""time""
""focus"",""0"",""0""
","""event"",""trial"",""time""
""fullscreenenter"",""2"",""9206""
","
",,null,run_exp/static/images/task_images/gems/106.jpg,null,,,,,,,59,,,4,,,,,106,0.560245255,0.556603774,,,,,,,
decision,124,479412,0.0-42.0-5.0,"""event"",""trial"",""time""
""focus"",""0"",""0""
""fullscreenenter"",""2"",""9206""
","
","""event"",""trial"",""time""
""focus"",""0"",""0""
","""event"",""trial"",""time""
""fullscreenenter"",""2"",""9206""
","
",,444,run_exp/static/images/task_images/land.jpg,65,,,,,,,59,,,4,,,,,,,,105433,1,0,FALSE,,,
dig,125,482011,0.0-43.0-0.0,"""event"",""trial"",""time""
""focus"",""0"",""0""
""fullscreenenter"",""2"",""9206""
","
","""event"",""trial"",""time""
""focus"",""0"",""0""
","""event"",""trial"",""time""
""fullscreenenter"",""2"",""9206""
","
",,,,,,,,,,,,"[{""stimulus"":""run_exp/static/images/task_images/dig.jpg"",""time"":0},{""stimulus"":""run_exp/static/images/task_images/land.jpg"",""time"":863},{""stimulus"":""run_exp/static/images/task_images/dig.jpg"",""time"":1729}]",[],4,,,,,,,,,,,,,,
harvest,126,483023,0.0-43.0-1.0,"""event"",""trial"",""time""
""focus"",""0"",""0""
""fullscreenenter"",""2"",""9206""
","
","""event"",""trial"",""time""
""focus"",""0"",""0""
","""event"",""trial"",""time""
""fullscreenenter"",""2"",""9206""
","
",,null,run_exp/static/images/task_images/gems/59.jpg,null,,,,,,,32,,,4,,,,,59,0.542517603,0.542372881,,,,,,,
decision,127,483077,0.0-43.0-2.0,"""event"",""trial"",""time""
""focus"",""0"",""0""
""fullscreenenter"",""2"",""9206""
","
","""event"",""trial"",""time""
""focus"",""0"",""0""
","""event"",""trial"",""time""
""fullscreenenter"",""2"",""9206""
","
",,53,run_exp/static/images/task_images/land.jpg,65,,,,,,,32,,,4,,,,,,,,109097,1,1,FALSE,,,
dig,128,486056,0.0-44.0-0.0,"""event"",""trial"",""time""
""focus"",""0"",""0""
""fullscreenenter"",""2"",""9206""
","
","""event"",""trial"",""time""
""focus"",""0"",""0""
","""event"",""trial"",""time""
""fullscreenenter"",""2"",""9206""
","
",,,,,,,,,,,,"[{""stimulus"":""run_exp/static/images/task_images/dig.jpg"",""time"":0},{""stimulus"":""run_exp/static/images/task_images/land.jpg"",""time"":994},{""stimulus"":""run_exp/static/images/task_images/dig.jpg"",""time"":1976}]",[],4,,,,,,,,,,,,,,
harvest,129,487062,0.0-44.0-1.0,"""event"",""trial"",""time""
""focus"",""0"",""0""
""fullscreenenter"",""2"",""9206""
","
","""event"",""trial"",""time""
""focus"",""0"",""0""
","""event"",""trial"",""time""
""fullscreenenter"",""2"",""9206""
","
",,null,run_exp/static/images/task_images/gems/32.jpg,null,,,,,,,13,,,4,,,,,32,0.417361804,0.40625,,,,,,,
decision,130,487155,0.0-44.0-2.0,"""event"",""trial"",""time""
""focus"",""0"",""0""
""fullscreenenter"",""2"",""9206""
","
","""event"",""trial"",""time""
""focus"",""0"",""0""
","""event"",""trial"",""time""
""fullscreenenter"",""2"",""9206""
","
",,92,run_exp/static/images/task_images/land.jpg,65,,,,,,,13,,,4,,,,,,,,113175,1,2,FALSE,,,
dig,131,490094,0.0-45.0-0.0,"""event"",""trial"",""time""
""focus"",""0"",""0""
""fullscreenenter"",""2"",""9206""
","
","""event"",""trial"",""time""
""focus"",""0"",""0""
","""event"",""trial"",""time""
""fullscreenenter"",""2"",""9206""
","
",,,,,,,,,,,,"[{""stimulus"":""run_exp/static/images/task_images/dig.jpg"",""time"":0},{""stimulus"":""run_exp/static/images/task_images/land.jpg"",""time"":979},{""stimulus"":""run_exp/static/images/task_images/dig.jpg"",""time"":1951}]",[],4,,,,,,,,,,,,,,
harvest,132,491103,0.0-45.0-1.0,"""event"",""trial"",""time""
""focus"",""0"",""0""
""fullscreenenter"",""2"",""9206""
","
","""event"",""trial"",""time""
""focus"",""0"",""0""
","""event"",""trial"",""time""
""fullscreenenter"",""2"",""9206""
","
",,null,run_exp/static/images/task_images/gems/13.jpg,null,,,,,,,8,,,4,,,,,13,0.613414165,0.615384615,,,,,,,
decision,133,491443,0.0-45.0-2.0,"""event"",""trial"",""time""
""focus"",""0"",""0""
""fullscreenenter"",""2"",""9206""
","
","""event"",""trial"",""time""
""focus"",""0"",""0""
","""event"",""trial"",""time""
""fullscreenenter"",""2"",""9206""
","
",,339,run_exp/static/images/task_images/land.jpg,65,,,,,,,8,,,4,,,,,,,,117464,1,3,FALSE,,,
dig,134,494140,0.0-46.0-0.0,"""event"",""trial"",""time""
""focus"",""0"",""0""
""fullscreenenter"",""2"",""9206""
","
","""event"",""trial"",""time""
""focus"",""0"",""0""
","""event"",""trial"",""time""
""fullscreenenter"",""2"",""9206""
","
",,,,,,,,,,,,"[{""stimulus"":""run_exp/static/images/task_images/dig.jpg"",""time"":1},{""stimulus"":""run_exp/static/images/task_images/land.jpg"",""time"":891},{""stimulus"":""run_exp/static/images/task_images/dig.jpg"",""time"":1786}]",[],4,,,,,,,,,,,,,,
harvest,135,495146,0.0-46.0-1.0,"""event"",""trial"",""time""
""focus"",""0"",""0""
""fullscreenenter"",""2"",""9206""
","
","""event"",""trial"",""time""
""focus"",""0"",""0""
","""event"",""trial"",""time""
""fullscreenenter"",""2"",""9206""
","
",,null,run_exp/static/images/task_images/gems/8.jpg,null,,,,,,,5,,,4,,,,,8,0.591963866,0.625,,,,,,,
decision,136,497428,0.0-46.0-2.0,"""event"",""trial"",""time""
""focus"",""0"",""0""
""fullscreenenter"",""2"",""9206""
","
","""event"",""trial"",""time""
""focus"",""0"",""0""
","""event"",""trial"",""time""
""fullscreenenter"",""2"",""9206""
","
",,2281,run_exp/static/images/task_images/land.jpg,76,,,,,,,5,,,4,,,,,,,,123448,1,4,TRUE,,,
travel,137,505241,0.0-47.0-0.0,"""event"",""trial"",""time""
""focus"",""0"",""0""
""fullscreenenter"",""2"",""9206""
","
","""event"",""trial"",""time""
""focus"",""0"",""0""
","""event"",""trial"",""time""
""fullscreenenter"",""2"",""9206""
","
",,,,,,,,,,,,"[{""stimulus"":""run_exp/static/images/task_images/rocket-01.jpg"",""time"":0},{""stimulus"":""run_exp/static/images/task_images/rocket-02.jpg"",""time"":867},{""stimulus"":""run_exp/static/images/task_images/rocket-03.jpg"",""time"":1734},{""stimulus"":""run_exp/static/images/task_images/rocket-04.jpg"",""time"":2602},{""stimulus"":""run_exp/static/images/task_images/rocket-05.jpg"",""time"":3471},{""stimulus"":""run_exp/static/images/task_images/rocket-06.jpg"",""time"":4332},{""stimulus"":""run_exp/static/images/task_images/rocket-07.jpg"",""time"":5202},{""stimulus"":""run_exp/static/images/task_images/rocket-08.jpg"",""time"":6067},{""stimulus"":""run_exp/static/images/task_images/rocket-09.jpg"",""time"":6931}]",[],4,,,,,,,,,,,,,,
alien_welcome,138,510254,0.0-47.0-1.0,"""event"",""trial"",""time""
""focus"",""0"",""0""
""fullscreenenter"",""2"",""9206""
","
","""event"",""trial"",""time""
""focus"",""0"",""0""
","""event"",""trial"",""time""
""fullscreenenter"",""2"",""9206""
","
",,null,run_exp/static/images/task_images/aliens/old_aliens/planet/alien_planet-15.jpg,null,,,,,,,,,,,,,15,"52,72,12,54,15,58,55,61,4,1,45,6,34,38,74,60,42,18,51,36,50,56,53,39,80,29,67,79,37,10,2,24,40",,,,,,,,,,
land,139,510758,0.0-47.0-2.0,"""event"",""trial"",""time""
""focus"",""0"",""0""
""fullscreenenter"",""2"",""9206""
","
","""event"",""trial"",""time""
""focus"",""0"",""0""
","""event"",""trial"",""time""
""fullscreenenter"",""2"",""9206""
","
",,null,run_exp/static/images/task_images/land.jpg,null,,,,,,,107,,,5,,,,,,,,,,,,,,
dig,140,512792,0.0-47.0-3.0,"""event"",""trial"",""time""
""focus"",""0"",""0""
""fullscreenenter"",""2"",""9206""
","
","""event"",""trial"",""time""
""focus"",""0"",""0""
","""event"",""trial"",""time""
""fullscreenenter"",""2"",""9206""
","
",,,,,,,,,,,,"[{""stimulus"":""run_exp/static/images/task_images/dig.jpg"",""time"":0},{""stimulus"":""run_exp/static/images/task_images/land.jpg"",""time"":672},{""stimulus"":""run_exp/static/images/task_images/dig.jpg"",""time"":1355}]",[],5,,,,,,,,,,,,,,
harvest,141,513800,0.0-47.0-4.0,"""event"",""trial"",""time""
""focus"",""0"",""0""
""fullscreenenter"",""2"",""9206""
","
","""event"",""trial"",""time""
""focus"",""0"",""0""
","""event"",""trial"",""time""
""fullscreenenter"",""2"",""9206""
","
",,null,run_exp/static/images/task_images/gems/107.jpg,null,,,,,,,63,,,5,,,,,107,0.591589084,0.588785047,,,,,,,
decision,142,513867,0.0-47.0-5.0,"""event"",""trial"",""time""
""focus"",""0"",""0""
""fullscreenenter"",""2"",""9206""
","
","""event"",""trial"",""time""
""focus"",""0"",""0""
","""event"",""trial"",""time""
""fullscreenenter"",""2"",""9206""
","
",,66,run_exp/static/images/task_images/land.jpg,65,,,,,,,63,,,5,,,,,,,,139887,1,0,FALSE,,,
dig,143,516822,0.0-48.0-0.0,"""event"",""trial"",""time""
""focus"",""0"",""0""
""fullscreenenter"",""2"",""9206""
","
","""event"",""trial"",""time""
""focus"",""0"",""0""
","""event"",""trial"",""time""
""fullscreenenter"",""2"",""9206""
","
",,,,,,,,,,,,"[{""stimulus"":""run_exp/static/images/task_images/dig.jpg"",""time"":0},{""stimulus"":""run_exp/static/images/task_images/land.jpg"",""time"":980},{""stimulus"":""run_exp/static/images/task_images/dig.jpg"",""time"":1963}]",[],5,,,,,,,,,,,,,,
harvest,144,517827,0.0-48.0-1.0,"""event"",""trial"",""time""
""focus"",""0"",""0""
""fullscreenenter"",""2"",""9206""
","
","""event"",""trial"",""time""
""focus"",""0"",""0""
","""event"",""trial"",""time""
""fullscreenenter"",""2"",""9206""
","
",,null,run_exp/static/images/task_images/gems/63.jpg,null,,,,,,,29,,,5,,,,,63,0.457957567,0.46031746,,,,,,,
decision,145,518443,0.0-48.0-2.0,"""event"",""trial"",""time""
""focus"",""0"",""0""
""fullscreenenter"",""2"",""9206""
","
","""event"",""trial"",""time""
""focus"",""0"",""0""
","""event"",""trial"",""time""
""fullscreenenter"",""2"",""9206""
","
",,616,run_exp/static/images/task_images/land.jpg,65,,,,,,,29,,,5,,,,,,,,144463,1,1,FALSE,,,
dig,146,520864,0.0-49.0-0.0,"""event"",""trial"",""time""
""focus"",""0"",""0""
""fullscreenenter"",""2"",""9206""
","
","""event"",""trial"",""time""
""focus"",""0"",""0""
","""event"",""trial"",""time""
""fullscreenenter"",""2"",""9206""
","
",,,,,,,,,,,,"[{""stimulus"":""run_exp/static/images/task_images/dig.jpg"",""time"":0},{""stimulus"":""run_exp/static/images/task_images/land.jpg"",""time"":805},{""stimulus"":""run_exp/static/images/task_images/dig.jpg"",""time"":1613}]",[],5,,,,,,,,,,,,,,
harvest,147,521868,0.0-49.0-1.0,"""event"",""trial"",""time""
""focus"",""0"",""0""
""fullscreenenter"",""2"",""9206""
","
","""event"",""trial"",""time""
""focus"",""0"",""0""
","""event"",""trial"",""time""
""fullscreenenter"",""2"",""9206""
","
",,null,run_exp/static/images/task_images/gems/29.jpg,null,,,,,,,15,,,5,,,,,29,0.501854892,0.517241379,,,,,,,
decision,148,522323,0.0-49.0-2.0,"""event"",""trial"",""time""
""focus"",""0"",""0""
""fullscreenenter"",""2"",""9206""
","
","""event"",""trial"",""time""
""focus"",""0"",""0""
","""event"",""trial"",""time""
""fullscreenenter"",""2"",""9206""
","
",,453,run_exp/static/images/task_images/land.jpg,65,,,,,,,15,,,5,,,,,,,,148343,1,2,FALSE,,,
dig,149,524904,0.0-50.0-0.0,"""event"",""trial"",""time""
""focus"",""0"",""0""
""fullscreenenter"",""2"",""9206""
","
","""event"",""trial"",""time""
""focus"",""0"",""0""
","""event"",""trial"",""time""
""fullscreenenter"",""2"",""9206""
","
",,,,,,,,,,,,"[{""stimulus"":""run_exp/static/images/task_images/dig.jpg"",""time"":1},{""stimulus"":""run_exp/static/images/task_images/land.jpg"",""time"":865},{""stimulus"":""run_exp/static/images/task_images/dig.jpg"",""time"":1725}]",[],5,,,,,,,,,,,,,,
harvest,150,525914,0.0-50.0-1.0,"""event"",""trial"",""time""
""focus"",""0"",""0""
""fullscreenenter"",""2"",""9206""
","
","""event"",""trial"",""time""
""focus"",""0"",""0""
","""event"",""trial"",""time""
""fullscreenenter"",""2"",""9206""
","
",,null,run_exp/static/images/task_images/gems/15.jpg,null,,,,,,,7,,,5,,,,,15,0.453117576,0.466666667,,,,,,,
decision,151,526427,0.0-50.0-2.0,"""event"",""trial"",""time""
""focus"",""0"",""0""
""fullscreenenter"",""2"",""9206""
","
","""event"",""trial"",""time""
""focus"",""0"",""0""
","""event"",""trial"",""time""
""fullscreenenter"",""2"",""9206""
","
",,512,run_exp/static/images/task_images/land.jpg,65,,,,,,,7,,,5,,,,,,,,152447,1,3,FALSE,,,
dig,152,528950,0.0-51.0-0.0,"""event"",""trial"",""time""
""focus"",""0"",""0""
""fullscreenenter"",""2"",""9206""
","
","""event"",""trial"",""time""
""focus"",""0"",""0""
","""event"",""trial"",""time""
""fullscreenenter"",""2"",""9206""
","
",,,,,,,,,,,,"[{""stimulus"":""run_exp/static/images/task_images/dig.jpg"",""time"":1},{""stimulus"":""run_exp/static/images/task_images/land.jpg"",""time"":841},{""stimulus"":""run_exp/static/images/task_images/dig.jpg"",""time"":1675}]",[],5,,,,,,,,,,,,,,
harvest,153,529953,0.0-51.0-1.0,"""event"",""trial"",""time""
""focus"",""0"",""0""
""fullscreenenter"",""2"",""9206""
","
","""event"",""trial"",""time""
""focus"",""0"",""0""
","""event"",""trial"",""time""
""fullscreenenter"",""2"",""9206""
","
",,null,run_exp/static/images/task_images/gems/7.jpg,null,,,,,,,3,,,5,,,,,7,0.45566569,0.428571429,,,,,,,
decision,154,530732,0.0-51.0-2.0,"""event"",""trial"",""time""
""focus"",""0"",""0""
""fullscreenenter"",""2"",""9206""
","
","""event"",""trial"",""time""
""focus"",""0"",""0""
","""event"",""trial"",""time""
""fullscreenenter"",""2"",""9206""
","
",,777,run_exp/static/images/task_images/land.jpg,76,,,,,,,3,,,5,,,,,,,,156752,1,4,TRUE,,,
travel,155,540044,0.0-52.0-0.0,"""event"",""trial"",""time""
""focus"",""0"",""0""
""fullscreenenter"",""2"",""9206""
","
","""event"",""trial"",""time""
""focus"",""0"",""0""
","""event"",""trial"",""time""
""fullscreenenter"",""2"",""9206""
","
",,,,,,,,,,,,"[{""stimulus"":""run_exp/static/images/task_images/rocket-01.jpg"",""time"":1},{""stimulus"":""run_exp/static/images/task_images/rocket-02.jpg"",""time"":1040},{""stimulus"":""run_exp/static/images/task_images/rocket-03.jpg"",""time"":2078},{""stimulus"":""run_exp/static/images/task_images/rocket-04.jpg"",""time"":3108},{""stimulus"":""run_exp/static/images/task_images/rocket-05.jpg"",""time"":4142},{""stimulus"":""run_exp/static/images/task_images/rocket-06.jpg"",""time"":5181},{""stimulus"":""run_exp/static/images/task_images/rocket-07.jpg"",""time"":6209},{""stimulus"":""run_exp/static/images/task_images/rocket-08.jpg"",""time"":7237},{""stimulus"":""run_exp/static/images/task_images/rocket-09.jpg"",""time"":8263}]",[],5,,,,,,,,,,,,,,
alien_welcome,156,545050,0.0-52.0-1.0,"""event"",""trial"",""time""
""focus"",""0"",""0""
""fullscreenenter"",""2"",""9206""
","
","""event"",""trial"",""time""
""focus"",""0"",""0""
","""event"",""trial"",""time""
""fullscreenenter"",""2"",""9206""
","
",,null,run_exp/static/images/task_images/aliens/old_aliens/planet/alien_planet-58.jpg,null,,,,,,,,,,,,,58,"52,72,12,54,15,58,55,61,4,1,45,6,34,38,74,60,42,18,51,36,50,56,53,39,80,29,67,79,37,10,2,24,40",,,,,,,,,,
land,157,545551,0.0-52.0-2.0,"""event"",""trial"",""time""
""focus"",""0"",""0""
""fullscreenenter"",""2"",""9206""
","
","""event"",""trial"",""time""
""focus"",""0"",""0""
","""event"",""trial"",""time""
""fullscreenenter"",""2"",""9206""
","
",,null,run_exp/static/images/task_images/land.jpg,null,,,,,,,94,,,6,,,,,,,,,,,,,,
dig,158,547588,0.0-52.0-3.0,"""event"",""trial"",""time""
""focus"",""0"",""0""
""fullscreenenter"",""2"",""9206""
","
","""event"",""trial"",""time""
""focus"",""0"",""0""
","""event"",""trial"",""time""
""fullscreenenter"",""2"",""9206""
","
",,,,,,,,,,,,"[{""stimulus"":""run_exp/static/images/task_images/dig.jpg"",""time"":0},{""stimulus"":""run_exp/static/images/task_images/land.jpg"",""time"":670},{""stimulus"":""run_exp/static/images/task_images/dig.jpg"",""time"":1350}]",[],6,,,,,,,,,,,,,,
harvest,159,548600,0.0-52.0-4.0,"""event"",""trial"",""time""
""focus"",""0"",""0""
""fullscreenenter"",""2"",""9206""
","
","""event"",""trial"",""time""
""focus"",""0"",""0""
","""event"",""trial"",""time""
""fullscreenenter"",""2"",""9206""
","
",,null,run_exp/static/images/task_images/gems/94.jpg,null,,,,,,,83,,,6,,,,,94,0.881196652,0.882978723,,,,,,,
decision,160,549923,0.0-52.0-5.0,"""event"",""trial"",""time""
""focus"",""0"",""0""
""fullscreenenter"",""2"",""9206""
","
","""event"",""trial"",""time""
""focus"",""0"",""0""
","""event"",""trial"",""time""
""fullscreenenter"",""2"",""9206""
","
",,1322,run_exp/static/images/task_images/land.jpg,65,,,,,,,83,,,6,,,,,,,,175944,1,0,FALSE,,,
dig,161,551636,0.0-53.0-0.0,"""event"",""trial"",""time""
""focus"",""0"",""0""
""fullscreenenter"",""2"",""9206""
","
","""event"",""trial"",""time""
""focus"",""0"",""0""
","""event"",""trial"",""time""
""fullscreenenter"",""2"",""9206""
","
",,,,,,,,,,,,"[{""stimulus"":""run_exp/static/images/task_images/dig.jpg"",""time"":0},{""stimulus"":""run_exp/static/images/task_images/land.jpg"",""time"":570},{""stimulus"":""run_exp/static/images/task_images/dig.jpg"",""time"":1131}]",[],6,,,,,,,,,,,,,,
harvest,162,552652,0.0-53.0-1.0,"""event"",""trial"",""time""
""focus"",""0"",""0""
""fullscreenenter"",""2"",""9206""
","
","""event"",""trial"",""time""
""focus"",""0"",""0""
","""event"",""trial"",""time""
""fullscreenenter"",""2"",""9206""
","
",,null,run_exp/static/images/task_images/gems/83.jpg,null,,,,,,,71,,,6,,,,,83,0.855043977,0.855421687,,,,,,,
decision,163,553253,0.0-53.0-2.0,"""event"",""trial"",""time""
""focus"",""0"",""0""
""fullscreenenter"",""2"",""9206""
","
","""event"",""trial"",""time""
""focus"",""0"",""0""
","""event"",""trial"",""time""
""fullscreenenter"",""2"",""9206""
","
",,599,run_exp/static/images/task_images/land.jpg,65,,,,,,,71,,,6,,,,,,,,179273,1,1,FALSE,,,
dig,164,555687,0.0-54.0-0.0,"""event"",""trial"",""time""
""focus"",""0"",""0""
""fullscreenenter"",""2"",""9206""
","
","""event"",""trial"",""time""
""focus"",""0"",""0""
","""event"",""trial"",""time""
""fullscreenenter"",""2"",""9206""
","
",,,,,,,,,,,,"[{""stimulus"":""run_exp/static/images/task_images/dig.jpg"",""time"":1},{""stimulus"":""run_exp/static/images/task_images/land.jpg"",""time"":817},{""stimulus"":""run_exp/static/images/task_images/dig.jpg"",""time"":1620}]",[],6,,,,,,,,,,,,,,
harvest,165,556691,0.0-54.0-1.0,"""event"",""trial"",""time""
""focus"",""0"",""0""
""fullscreenenter"",""2"",""9206""
","
","""event"",""trial"",""time""
""focus"",""0"",""0""
","""event"",""trial"",""time""
""fullscreenenter"",""2"",""9206""
","
",,null,run_exp/static/images/task_images/gems/71.jpg,null,,,,,,,50,,,6,,,,,71,0.708213565,0.704225352,,,,,,,
decision,166,557172,0.0-54.0-2.0,"""event"",""trial"",""time""
""focus"",""0"",""0""
""fullscreenenter"",""2"",""9206""
","
","""event"",""trial"",""time""
""focus"",""0"",""0""
","""event"",""trial"",""time""
""fullscreenenter"",""2"",""9206""
","
",,480,run_exp/static/images/task_images/land.jpg,65,,,,,,,50,,,6,,,,,,,,183192,1,2,FALSE,,,
dig,167,559721,0.0-55.0-0.0,"""event"",""trial"",""time""
""focus"",""0"",""0""
""fullscreenenter"",""2"",""9206""
","
","""event"",""trial"",""time""
""focus"",""0"",""0""
","""event"",""trial"",""time""
""fullscreenenter"",""2"",""9206""
","
",,,,,,,,,,,,"[{""stimulus"":""run_exp/static/images/task_images/dig.jpg"",""time"":0},{""stimulus"":""run_exp/static/images/task_images/land.jpg"",""time"":842},{""stimulus"":""run_exp/static/images/task_images/dig.jpg"",""time"":1692}]",[],6,,,,,,,,,,,,,,
harvest,168,560732,0.0-55.0-1.0,"""event"",""trial"",""time""
""focus"",""0"",""0""
""fullscreenenter"",""2"",""9206""
","
","""event"",""trial"",""time""
""focus"",""0"",""0""
","""event"",""trial"",""time""
""fullscreenenter"",""2"",""9206""
","
",,null,run_exp/static/images/task_images/gems/50.jpg,null,,,,,,,40,,,6,,,,,50,0.799808631,0.8,,,,,,,
decision,169,561211,0.0-55.0-2.0,"""event"",""trial"",""time""
""focus"",""0"",""0""
""fullscreenenter"",""2"",""9206""
","
","""event"",""trial"",""time""
""focus"",""0"",""0""
","""event"",""trial"",""time""
""fullscreenenter"",""2"",""9206""
","
",,479,run_exp/static/images/task_images/land.jpg,65,,,,,,,40,,,6,,,,,,,,187231,1,3,FALSE,,,
dig,170,563769,0.0-56.0-0.0,"""event"",""trial"",""time""
""focus"",""0"",""0""
""fullscreenenter"",""2"",""9206""
","
","""event"",""trial"",""time""
""focus"",""0"",""0""
","""event"",""trial"",""time""
""fullscreenenter"",""2"",""9206""
","
",,,,,,,,,,,,"[{""stimulus"":""run_exp/static/images/task_images/dig.jpg"",""time"":0},{""stimulus"":""run_exp/static/images/task_images/land.jpg"",""time"":847},{""stimulus"":""run_exp/static/images/task_images/dig.jpg"",""time"":1696}]",[],6,,,,,,,,,,,,,,
harvest,171,564784,0.0-56.0-1.0,"""event"",""trial"",""time""
""focus"",""0"",""0""
""fullscreenenter"",""2"",""9206""
","
","""event"",""trial"",""time""
""focus"",""0"",""0""
","""event"",""trial"",""time""
""fullscreenenter"",""2"",""9206""
","
",,null,run_exp/static/images/task_images/gems/40.jpg,null,,,,,,,32,,,6,,,,,40,0.78959869,0.8,,,,,,,
decision,172,565243,0.0-56.0-2.0,"""event"",""trial"",""time""
""focus"",""0"",""0""
""fullscreenenter"",""2"",""9206""
","
","""event"",""trial"",""time""
""focus"",""0"",""0""
","""event"",""trial"",""time""
""fullscreenenter"",""2"",""9206""
","
",,458,run_exp/static/images/task_images/land.jpg,65,,,,,,,32,,,6,,,,,,,,191263,1,4,FALSE,,,
dig,173,567824,0.0-57.0-0.0,"""event"",""trial"",""time""
""focus"",""0"",""0""
""fullscreenenter"",""2"",""9206""
","
","""event"",""trial"",""time""
""focus"",""0"",""0""
","""event"",""trial"",""time""
""fullscreenenter"",""2"",""9206""
","
",,,,,,,,,,,,"[{""stimulus"":""run_exp/static/images/task_images/dig.jpg"",""time"":0},{""stimulus"":""run_exp/static/images/task_images/land.jpg"",""time"":861},{""stimulus"":""run_exp/static/images/task_images/dig.jpg"",""time"":1714}]",[],6,,,,,,,,,,,,,,
harvest,174,568841,0.0-57.0-1.0,"""event"",""trial"",""time""
""focus"",""0"",""0""
""fullscreenenter"",""2"",""9206""
","
","""event"",""trial"",""time""
""focus"",""0"",""0""
","""event"",""trial"",""time""
""fullscreenenter"",""2"",""9206""
","
",,null,run_exp/static/images/task_images/gems/32.jpg,null,,,,,,,27,,,6,,,,,32,0.830449709,0.84375,,,,,,,
decision,175,569690,0.0-57.0-2.0,"""event"",""trial"",""time""
""focus"",""0"",""0""
""fullscreenenter"",""2"",""9206""
","
","""event"",""trial"",""time""
""focus"",""0"",""0""
","""event"",""trial"",""time""
""fullscreenenter"",""2"",""9206""
","
",,848,run_exp/static/images/task_images/land.jpg,65,,,,,,,27,,,6,,,,,,,,195710,1,5,FALSE,,,
dig,176,571877,0.0-58.0-0.0,"""event"",""trial"",""time""
""focus"",""0"",""0""
""fullscreenenter"",""2"",""9206""
","
","""event"",""trial"",""time""
""focus"",""0"",""0""
","""event"",""trial"",""time""
""fullscreenenter"",""2"",""9206""
","
",,,,,,,,,,,,"[{""stimulus"":""run_exp/static/images/task_images/dig.jpg"",""time"":0},{""stimulus"":""run_exp/static/images/task_images/land.jpg"",""time"":732},{""stimulus"":""run_exp/static/images/task_images/dig.jpg"",""time"":1455}]",[],6,,,,,,,,,,,,,,
harvest,177,572880,0.0-58.0-1.0,"""event"",""trial"",""time""
""focus"",""0"",""0""
""fullscreenenter"",""2"",""9206""
","
","""event"",""trial"",""time""
""focus"",""0"",""0""
","""event"",""trial"",""time""
""fullscreenenter"",""2"",""9206""
","
",,null,run_exp/static/images/task_images/gems/27.jpg,null,,,,,,,20,,,6,,,,,27,0.734166668,0.740740741,,,,,,,
decision,178,573500,0.0-58.0-2.0,"""event"",""trial"",""time""
""focus"",""0"",""0""
""fullscreenenter"",""2"",""9206""
","
","""event"",""trial"",""time""
""focus"",""0"",""0""
","""event"",""trial"",""time""
""fullscreenenter"",""2"",""9206""
","
",,619,run_exp/static/images/task_images/land.jpg,65,,,,,,,20,,,6,,,,,,,,199520,1,6,FALSE,,,
dig,179,575923,0.0-59.0-0.0,"""event"",""trial"",""time""
""focus"",""0"",""0""
""fullscreenenter"",""2"",""9206""
","
","""event"",""trial"",""time""
""focus"",""0"",""0""
","""event"",""trial"",""time""
""fullscreenenter"",""2"",""9206""
","
",,,,,,,,,,,,"[{""stimulus"":""run_exp/static/images/task_images/dig.jpg"",""time"":1},{""stimulus"":""run_exp/static/images/task_images/land.jpg"",""time"":805},{""stimulus"":""run_exp/static/images/task_images/dig.jpg"",""time"":1607}]",[],6,,,,,,,,,,,,,,
harvest,180,576937,0.0-59.0-1.0,"""event"",""trial"",""time""
""focus"",""0"",""0""
""fullscreenenter"",""2"",""9206""
","
","""event"",""trial"",""time""
""focus"",""0"",""0""
","""event"",""trial"",""time""
""fullscreenenter"",""2"",""9206""
","
",,null,run_exp/static/images/task_images/gems/20.jpg,null,,,,,,,16,,,6,,,,,20,0.780438616,0.8,,,,,,,
decision,181,577651,0.0-59.0-2.0,"""event"",""trial"",""time""
""focus"",""0"",""0""
""fullscreenenter"",""2"",""9206""
","
","""event"",""trial"",""time""
""focus"",""0"",""0""
","""event"",""trial"",""time""
""fullscreenenter"",""2"",""9206""
","
",,713,run_exp/static/images/task_images/land.jpg,65,,,,,,,16,,,6,,,,,,,,203671,1,7,FALSE,,,
dig,182,579979,0.0-60.0-0.0,"""event"",""trial"",""time""
""focus"",""0"",""0""
""fullscreenenter"",""2"",""9206""
","
","""event"",""trial"",""time""
""focus"",""0"",""0""
","""event"",""trial"",""time""
""fullscreenenter"",""2"",""9206""
","
",,,,,,,,,,,,"[{""stimulus"":""run_exp/static/images/task_images/dig.jpg"",""time"":0},{""stimulus"":""run_exp/static/images/task_images/land.jpg"",""time"":775},{""stimulus"":""run_exp/static/images/task_images/dig.jpg"",""time"":1545}]",[],6,,,,,,,,,,,,,,
harvest,183,580981,0.0-60.0-1.0,"""event"",""trial"",""time""
""focus"",""0"",""0""
""fullscreenenter"",""2"",""9206""
","
","""event"",""trial"",""time""
""focus"",""0"",""0""
","""event"",""trial"",""time""
""fullscreenenter"",""2"",""9206""
","
",,null,run_exp/static/images/task_images/gems/16.jpg,null,,,,,,,14,,,6,,,,,16,0.867784667,0.875,,,,,,,
decision,184,582179,0.0-60.0-2.0,"""event"",""trial"",""time""
""focus"",""0"",""0""
""fullscreenenter"",""2"",""9206""
","
","""event"",""trial"",""time""
""focus"",""0"",""0""
","""event"",""trial"",""time""
""fullscreenenter"",""2"",""9206""
","
",,1197,run_exp/static/images/task_images/land.jpg,65,,,,,,,14,,,6,,,,,,,,208199,1,8,FALSE,,,
dig,185,584019,0.0-61.0-0.0,"""event"",""trial"",""time""
""focus"",""0"",""0""
""fullscreenenter"",""2"",""9206""
","
","""event"",""trial"",""time""
""focus"",""0"",""0""
","""event"",""trial"",""time""
""fullscreenenter"",""2"",""9206""
","
",,,,,,,,,,,,"[{""stimulus"":""run_exp/static/images/task_images/dig.jpg"",""time"":0},{""stimulus"":""run_exp/static/images/task_images/land.jpg"",""time"":608},{""stimulus"":""run_exp/static/images/task_images/dig.jpg"",""time"":1221}]",[],6,,,,,,,,,,,,,,
harvest,186,585026,0.0-61.0-1.0,"""event"",""trial"",""time""
""focus"",""0"",""0""
""fullscreenenter"",""2"",""9206""
","
","""event"",""trial"",""time""
""focus"",""0"",""0""
","""event"",""trial"",""time""
""fullscreenenter"",""2"",""9206""
","
",,null,run_exp/static/images/task_images/gems/14.jpg,null,,,,,,,11,,,6,,,,,14,0.785772558,0.785714286,,,,,,,
decision,187,585682,0.0-61.0-2.0,"""event"",""trial"",""time""
""focus"",""0"",""0""
""fullscreenenter"",""2"",""9206""
","
","""event"",""trial"",""time""
""focus"",""0"",""0""
","""event"",""trial"",""time""
""fullscreenenter"",""2"",""9206""
","
",,656,run_exp/static/images/task_images/land.jpg,65,,,,,,,11,,,6,,,,,,,,211702,1,9,FALSE,,,
dig,188,588051,0.0-62.0-0.0,"""event"",""trial"",""time""
""focus"",""0"",""0""
""fullscreenenter"",""2"",""9206""
","
","""event"",""trial"",""time""
""focus"",""0"",""0""
","""event"",""trial"",""time""
""fullscreenenter"",""2"",""9206""
","
",,,,,,,,,,,,"[{""stimulus"":""run_exp/static/images/task_images/dig.jpg"",""time"":0},{""stimulus"":""run_exp/static/images/task_images/land.jpg"",""time"":782},{""stimulus"":""run_exp/static/images/task_images/dig.jpg"",""time"":1573}]",[],6,,,,,,,,,,,,,,
harvest,189,589064,0.0-62.0-1.0,"""event"",""trial"",""time""
""focus"",""0"",""0""
""fullscreenenter"",""2"",""9206""
","
","""event"",""trial"",""time""
""focus"",""0"",""0""
","""event"",""trial"",""time""
""fullscreenenter"",""2"",""9206""
","
",,null,run_exp/static/images/task_images/gems/11.jpg,null,,,,,,,9,,,6,,,,,11,0.861567072,0.818181818,,,,,,,
decision,190,589539,0.0-62.0-2.0,"""event"",""trial"",""time""
""focus"",""0"",""0""
""fullscreenenter"",""2"",""9206""
","
","""event"",""trial"",""time""
""focus"",""0"",""0""
","""event"",""trial"",""time""
""fullscreenenter"",""2"",""9206""
","
",,474,run_exp/static/images/task_images/land.jpg,65,,,,,,,9,,,6,,,,,,,,215559,1,10,FALSE,,,
dig,191,592090,0.0-63.0-0.0,"""event"",""trial"",""time""
""focus"",""0"",""0""
""fullscreenenter"",""2"",""9206""
","
","""event"",""trial"",""time""
""focus"",""0"",""0""
","""event"",""trial"",""time""
""fullscreenenter"",""2"",""9206""
","
",,,,,,,,,,,,"[{""stimulus"":""run_exp/static/images/task_images/dig.jpg"",""time"":1},{""stimulus"":""run_exp/static/images/task_images/land.jpg"",""time"":852},{""stimulus"":""run_exp/static/images/task_images/dig.jpg"",""time"":1696}]",[],6,,,,,,,,,,,,,,
harvest,192,593099,0.0-63.0-1.0,"""event"",""trial"",""time""
""focus"",""0"",""0""
""fullscreenenter"",""2"",""9206""
","
","""event"",""trial"",""time""
""focus"",""0"",""0""
","""event"",""trial"",""time""
""fullscreenenter"",""2"",""9206""
","
",,null,run_exp/static/images/task_images/gems/9.jpg,null,,,,,,,8,,,6,,,,,9,0.878527061,0.888888889,,,,,,,
decision,193,593220,0.0-63.0-2.0,"""event"",""trial"",""time""
""focus"",""0"",""0""
""fullscreenenter"",""2"",""9206""
","
","""event"",""trial"",""time""
""focus"",""0"",""0""
","""event"",""trial"",""time""
""fullscreenenter"",""2"",""9206""
","
",,120,run_exp/static/images/task_images/land.jpg,65,,,,,,,8,,,6,,,,,,,,219240,1,11,FALSE,,,
dig,194,596127,0.0-64.0-0.0,"""event"",""trial"",""time""
""focus"",""0"",""0""
""fullscreenenter"",""2"",""9206""
","
","""event"",""trial"",""time""
""focus"",""0"",""0""
","""event"",""trial"",""time""
""fullscreenenter"",""2"",""9206""
","
",,,,,,,,,,,,"[{""stimulus"":""run_exp/static/images/task_images/dig.jpg"",""time"":0},{""stimulus"":""run_exp/static/images/task_images/land.jpg"",""time"":969},{""stimulus"":""run_exp/static/images/task_images/dig.jpg"",""time"":1932}]",[],6,,,,,,,,,,,,,,
harvest,195,597140,0.0-64.0-1.0,"""event"",""trial"",""time""
""focus"",""0"",""0""
""fullscreenenter"",""2"",""9206""
","
","""event"",""trial"",""time""
""focus"",""0"",""0""
","""event"",""trial"",""time""
""fullscreenenter"",""2"",""9206""
","
",,null,run_exp/static/images/task_images/gems/8.jpg,null,,,,,,,6,,,6,,,,,8,0.805155938,0.75,,,,,,,
decision,196,598619,0.0-64.0-2.0,"""event"",""trial"",""time""
""focus"",""0"",""0""
""fullscreenenter"",""2"",""9206""
","
","""event"",""trial"",""time""
""focus"",""0"",""0""
","""event"",""trial"",""time""
""fullscreenenter"",""2"",""9206""
","
",,1478,run_exp/static/images/task_images/land.jpg,65,,,,,,,6,,,6,,,,,,,,224639,1,12,FALSE,,,
dig,197,600180,0.0-65.0-0.0,"""event"",""trial"",""time""
""focus"",""0"",""0""
""fullscreenenter"",""2"",""9206""
","
","""event"",""trial"",""time""
""focus"",""0"",""0""
","""event"",""trial"",""time""
""fullscreenenter"",""2"",""9206""
","
",,,,,,,,,,,,"[{""stimulus"":""run_exp/static/images/task_images/dig.jpg"",""time"":0},{""stimulus"":""run_exp/static/images/task_images/land.jpg"",""time"":522},{""stimulus"":""run_exp/static/images/task_images/dig.jpg"",""time"":1037}]",[],6,,,,,,,,,,,,,,
harvest,198,601187,0.0-65.0-1.0,"""event"",""trial"",""time""
""focus"",""0"",""0""
""fullscreenenter"",""2"",""9206""
","
","""event"",""trial"",""time""
""focus"",""0"",""0""
","""event"",""trial"",""time""
""fullscreenenter"",""2"",""9206""
","
",,null,run_exp/static/images/task_images/gems/6.jpg,null,,,,,,,5,,,6,,,,,6,0.846894585,0.833333333,,,,,,,
decision,199,601299,0.0-65.0-2.0,"""event"",""trial"",""time""
""focus"",""0"",""0""
""fullscreenenter"",""2"",""9206""
","
","""event"",""trial"",""time""
""focus"",""0"",""0""
","""event"",""trial"",""time""
""fullscreenenter"",""2"",""9206""
","
",,112,run_exp/static/images/task_images/land.jpg,65,,,,,,,5,,,6,,,,,,,,227319,1,13,FALSE,,,
dig,200,604236,0.0-66.0-0.0,"""event"",""trial"",""time""
""focus"",""0"",""0""
""fullscreenenter"",""2"",""9206""
","
","""event"",""trial"",""time""
""focus"",""0"",""0""
","""event"",""trial"",""time""
""fullscreenenter"",""2"",""9206""
","
",,,,,,,,,,,,"[{""stimulus"":""run_exp/static/images/task_images/dig.jpg"",""time"":1},{""stimulus"":""run_exp/static/images/task_images/land.jpg"",""time"":976},{""stimulus"":""run_exp/static/images/task_images/dig.jpg"",""time"":1952}]",[],6,,,,,,,,,,,,,,
harvest,201,605243,0.0-66.0-1.0,"""event"",""trial"",""time""
""focus"",""0"",""0""
""fullscreenenter"",""2"",""9206""
","
","""event"",""trial"",""time""
""focus"",""0"",""0""
","""event"",""trial"",""time""
""fullscreenenter"",""2"",""9206""
","
",,null,run_exp/static/images/task_images/gems/5.jpg,null,,,,,,,4,,,6,,,,,5,0.824939653,0.8,,,,,,,
decision,202,605836,0.0-66.0-2.0,"""event"",""trial"",""time""
""focus"",""0"",""0""
""fullscreenenter"",""2"",""9206""
","
","""event"",""trial"",""time""
""focus"",""0"",""0""
","""event"",""trial"",""time""
""fullscreenenter"",""2"",""9206""
","
",,591,run_exp/static/images/task_images/land.jpg,65,,,,,,,4,,,6,,,,,,,,231857,1,14,FALSE,,,
dig,203,608283,0.0-67.0-0.0,"""event"",""trial"",""time""
""focus"",""0"",""0""
""fullscreenenter"",""2"",""9206""
","
","""event"",""trial"",""time""
""focus"",""0"",""0""
","""event"",""trial"",""time""
""fullscreenenter"",""2"",""9206""
","
",,,,,,,,,,,,"[{""stimulus"":""run_exp/static/images/task_images/dig.jpg"",""time"":0},{""stimulus"":""run_exp/static/images/task_images/land.jpg"",""time"":817},{""stimulus"":""run_exp/static/images/task_images/dig.jpg"",""time"":1625}]",[],6,,,,,,,,,,,,,,
harvest,204,609291,0.0-67.0-1.0,"""event"",""trial"",""time""
""focus"",""0"",""0""
""fullscreenenter"",""2"",""9206""
","
","""event"",""trial"",""time""
""focus"",""0"",""0""
","""event"",""trial"",""time""
""fullscreenenter"",""2"",""9206""
","
",,null,run_exp/static/images/task_images/gems/4.jpg,null,,,,,,,3,,,6,,,,,4,0.872698762,0.75,,,,,,,
decision,205,609987,0.0-67.0-2.0,"""event"",""trial"",""time""
""focus"",""0"",""0""
""fullscreenenter"",""2"",""9206""
","
","""event"",""trial"",""time""
""focus"",""0"",""0""
","""event"",""trial"",""time""
""fullscreenenter"",""2"",""9206""
","
",,695,run_exp/static/images/task_images/land.jpg,65,,,,,,,3,,,6,,,,,,,,236007,1,15,FALSE,,,
dig,206,612326,0.0-68.0-0.0,"""event"",""trial"",""time""
""focus"",""0"",""0""
""fullscreenenter"",""2"",""9206""
","
","""event"",""trial"",""time""
""focus"",""0"",""0""
","""event"",""trial"",""time""
""fullscreenenter"",""2"",""9206""
","
",,,,,,,,,,,,"[{""stimulus"":""run_exp/static/images/task_images/dig.jpg"",""time"":0},{""stimulus"":""run_exp/static/images/task_images/land.jpg"",""time"":774},{""stimulus"":""run_exp/static/images/task_images/dig.jpg"",""time"":1551}]",[],6,,,,,,,,,,,,,,
harvest,207,613328,0.0-68.0-1.0,"""event"",""trial"",""time""
""focus"",""0"",""0""
""fullscreenenter"",""2"",""9206""
","
","""event"",""trial"",""time""
""focus"",""0"",""0""
","""event"",""trial"",""time""
""fullscreenenter"",""2"",""9206""
","
",,null,run_exp/static/images/task_images/gems/3.jpg,null,,,,,,,3,,,6,,,,,3,0.838070383,1,,,,,,,
decision,208,614035,0.0-68.0-2.0,"""event"",""trial"",""time""
""focus"",""0"",""0""
""fullscreenenter"",""2"",""9206""
","
","""event"",""trial"",""time""
""focus"",""0"",""0""
","""event"",""trial"",""time""
""fullscreenenter"",""2"",""9206""
","
",,707,run_exp/static/images/task_images/land.jpg,65,,,,,,,3,,,6,,,,,,,,240056,1,16,FALSE,,,
dig,209,616372,0.0-69.0-0.0,"""event"",""trial"",""time""
""focus"",""0"",""0""
""fullscreenenter"",""2"",""9206""
","
","""event"",""trial"",""time""
""focus"",""0"",""0""
","""event"",""trial"",""time""
""fullscreenenter"",""2"",""9206""
","
",,,,,,,,,,,,"[{""stimulus"":""run_exp/static/images/task_images/dig.jpg"",""time"":0},{""stimulus"":""run_exp/static/images/task_images/land.jpg"",""time"":778},{""stimulus"":""run_exp/static/images/task_images/dig.jpg"",""time"":1552}]",[],6,,,,,,,,,,,,,,
harvest,210,617384,0.0-69.0-1.0,"""event"",""trial"",""time""
""focus"",""0"",""0""
""fullscreenenter"",""2"",""9206""
","
","""event"",""trial"",""time""
""focus"",""0"",""0""
","""event"",""trial"",""time""
""fullscreenenter"",""2"",""9206""
","
",,null,run_exp/static/images/task_images/gems/3.jpg,null,,,,,,,2,,,6,,,,,3,0.813026658,0.666666667,,,,,,,
decision,211,618043,0.0-69.0-2.0,"""event"",""trial"",""time""
""focus"",""0"",""0""
""fullscreenenter"",""2"",""9206""
","
","""event"",""trial"",""time""
""focus"",""0"",""0""
","""event"",""trial"",""time""
""fullscreenenter"",""2"",""9206""
","
",,658,run_exp/static/images/task_images/land.jpg,65,,,,,,,2,,,6,,,,,,,,244064,1,17,FALSE,,,
dig,212,620419,0.0-70.0-0.0,"""event"",""trial"",""time""
""focus"",""0"",""0""
""fullscreenenter"",""2"",""9206""
","
","""event"",""trial"",""time""
""focus"",""0"",""0""
","""event"",""trial"",""time""
""fullscreenenter"",""2"",""9206""
","
",,,,,,,,,,,,"[{""stimulus"":""run_exp/static/images/task_images/dig.jpg"",""time"":0},{""stimulus"":""run_exp/static/images/task_images/land.jpg"",""time"":790},{""stimulus"":""run_exp/static/images/task_images/dig.jpg"",""time"":1581}]",[],6,,,,,,,,,,,,,,
harvest,213,621431,0.0-70.0-1.0,"""event"",""trial"",""time""
""focus"",""0"",""0""
""fullscreenenter"",""2"",""9206""
","
","""event"",""trial"",""time""
""focus"",""0"",""0""
","""event"",""trial"",""time""
""fullscreenenter"",""2"",""9206""
","
",,null,run_exp/static/images/task_images/gems/2.jpg,null,,,,,,,2,,,6,,,,,2,0.879685674,1,,,,,,,
decision,214,622004,0.0-70.0-2.0,"""event"",""trial"",""time""
""focus"",""0"",""0""
""fullscreenenter"",""2"",""9206""
","
","""event"",""trial"",""time""
""focus"",""0"",""0""
","""event"",""trial"",""time""
""fullscreenenter"",""2"",""9206""
","
",,572,run_exp/static/images/task_images/land.jpg,65,,,,,,,2,,,6,,,,,,,,248024,1,18,FALSE,,,
dig,215,624479,0.0-71.0-0.0,"""event"",""trial"",""time""
""focus"",""0"",""0""
""fullscreenenter"",""2"",""9206""
","
","""event"",""trial"",""time""
""focus"",""0"",""0""
","""event"",""trial"",""time""
""fullscreenenter"",""2"",""9206""
","
",,,,,,,,,,,,"[{""stimulus"":""run_exp/static/images/task_images/dig.jpg"",""time"":0},{""stimulus"":""run_exp/static/images/task_images/land.jpg"",""time"":825},{""stimulus"":""run_exp/static/images/task_images/dig.jpg"",""time"":1636}]",[],6,,,,,,,,,,,,,,
harvest,216,625494,0.0-71.0-1.0,"""event"",""trial"",""time""
""focus"",""0"",""0""
""fullscreenenter"",""2"",""9206""
","
","""event"",""trial"",""time""
""focus"",""0"",""0""
","""event"",""trial"",""time""
""fullscreenenter"",""2"",""9206""
","
",,null,run_exp/static/images/task_images/gems/2.jpg,null,,,,,,,2,,,6,,,,,2,0.825735597,1,,,,,,,
decision,217,625940,0.0-71.0-2.0,"""event"",""trial"",""time""
""focus"",""0"",""0""
""fullscreenenter"",""2"",""9206""
","
","""event"",""trial"",""time""
""focus"",""0"",""0""
","""event"",""trial"",""time""
""fullscreenenter"",""2"",""9206""
","
",,444,run_exp/static/images/task_images/land.jpg,65,,,,,,,0,,,6,,,,,,,,251960,1,19,FALSE,,,
dig,218,628535,0.0-72.0-0.0,"""event"",""trial"",""time""
""focus"",""0"",""0""
""fullscreenenter"",""2"",""9206""
","
","""event"",""trial"",""time""
""focus"",""0"",""0""
","""event"",""trial"",""time""
""fullscreenenter"",""2"",""9206""
","
",,,,,,,,,,,,"[{""stimulus"":""run_exp/static/images/task_images/dig.jpg"",""time"":1},{""stimulus"":""run_exp/static/images/task_images/land.jpg"",""time"":858},{""stimulus"":""run_exp/static/images/task_images/dig.jpg"",""time"":1724}]",[],6,,,,,,,,,,,,,,
harvest,219,629543,0.0-72.0-1.0,"""event"",""trial"",""time""
""focus"",""0"",""0""
""fullscreenenter"",""2"",""9206""
","
","""event"",""trial"",""time""
""focus"",""0"",""0""
","""event"",""trial"",""time""
""fullscreenenter"",""2"",""9206""
","
",,null,run_exp/static/images/task_images/gems/0.jpg,null,,,,,,,0,,,6,,,,,0,0.783841271,NaN,,,,,,,
decision,220,630732,0.0-72.0-2.0,"""event"",""trial"",""time""
""focus"",""0"",""0""
""fullscreenenter"",""2"",""9206""
","
","""event"",""trial"",""time""
""focus"",""0"",""0""
","""event"",""trial"",""time""
""fullscreenenter"",""2"",""9206""
","
",,1187,run_exp/static/images/task_images/land.jpg,76,,,,,,,0,,,6,,,,,,,,256752,1,20,TRUE,,,
travel,221,639640,0.0-73.0-0.0,"""event"",""trial"",""time""
""focus"",""0"",""0""
