trial_type,trial_index,time_elapsed,internal_node_id,interactions,blur_events,focus_events,fullscreenenter_events,fullscreenexit_events,success,rt,stimulus,key_press,prompt,subject_id,participant_id,age,gender,button_pressed,next_reward,animation_sequence,responses,planet,curr_prac_trial,n_prac_rounds,alien,aliens,reward_received,decay_rate_actual,decay_rate_exp,time_in_block,block_num,prt,last_trial_on_planet,button_html,bonus,num_failures
pavlovia,0,7,0.0-0.0,"""event"",""trial"",""time""
""fullscreenenter"",""1"",""32613""
","
","
","""event"",""trial"",""time""
""fullscreenenter"",""1"",""32613""
","
",,,,,,,,,,,,,,,,,,,,,,,,,,,,
fullscreen,1,33601,0.0-1.0,"""event"",""trial"",""time""
""fullscreenenter"",""1"",""32613""
","
","
","""event"",""trial"",""time""
""fullscreenenter"",""1"",""32613""
","
",TRUE,,,,,,,,,,,,,,,,,,,,,,,,,,,
instruc_welcome,2,43599,0.0-2.0,"""event"",""trial"",""time""
""fullscreenenter"",""1"",""32613""
","
","
","""event"",""trial"",""time""
""fullscreenenter"",""1"",""32613""
","
",,null,run_exp/static/audio/clip_1_welcome.m4a,null,"<p>Howdy! In this experiment, you’ll be an explorer traveling through space to collect space treasure.</p><p>Your mission is to collect as much treasure as possible.</p><br><br><p><img src='run_exp/static/images/task_images/opening_img-01.jpg' height='300' width='auto'></p>",9276,4041,18.72,Male,,,,,,,,,,,,,,,,,,,
audio-keyboard-response,3,60201,0.0-3.0,"""event"",""trial"",""time""
""fullscreenenter"",""1"",""32613""
","
","
","""event"",""trial"",""time""
""fullscreenenter"",""1"",""32613""
","
",,null,run_exp/static/audio/clip_2_move.m4a,null,,,,,,,,,,,,,,,,,,,,,,,,
welcome_dec,4,63884,0.0-4.0,"""event"",""trial"",""time""
""fullscreenenter"",""1"",""32613""
","
","
","""event"",""trial"",""time""
""fullscreenenter"",""1"",""32613""
","
",,3677.7,"<p>Howdy! In this experiment, you’ll be an explorer traveling through space to collect space treasure.</p><p>Your mission is to collect as much treasure as possible.</p><br><br><p><img src='run_exp/static/images/task_images/opening_img-01.jpg' height='300' width='auto'></p>",,,,,,,1,,,,,,,,,,,,,,,,,,
html-keyboard-response,5,65284,0.0-5.0,"""event"",""trial"",""time""
""fullscreenenter"",""1"",""32613""
","
","
","""event"",""trial"",""time""
""fullscreenenter"",""1"",""32613""
","
",,1397.2,"<p>Howdy! In this experiment, you’ll be an explorer traveling through space to collect space treasure.</p><p>Your mission is to collect as much treasure as possible.</p><br><br><p><img src='run_exp/static/images/task_images/opening_img-01.jpg' height='300' width='auto'></p><button class=""jspsych-html-btn-unchosen""><img src=""run_exp/static/images/task_images/planet-01.jpg"" height=""50""></button><button class=""jspsych-html-btn-chosen""><img src=""run_exp/static/images/task_images/planet-02.jpg"" height=""50""></button><p><b>[press the space bar to lock in your answer]<b><br></p>",32,,,,,,,,,,,,,,,,,,,,,,,,
instruc_goal,6,75380,0.0-6.0-0.0,"""event"",""trial"",""time""
""fullscreenenter"",""1"",""32613""
","
","
","""event"",""trial"",""time""
""fullscreenenter"",""1"",""32613""
","
",,null,run_exp/static/audio/clip_3_goal.m4a,null,"<p> As a space explorer, you’ll visit different planets to dig for space treasure, these pink gems.</p> <p> The more treasure you dig up, the more bonus money you’ll win! </p><br><br><p><img src='run_exp/static/images/task_images/pink_gem.jpg' height='300' width='auto'></p>",,,,,,,,,,,,,,,,,,,,,,,
instruc_goal,7,76555,0.0-6.0-1.0,"""event"",""trial"",""time""
""fullscreenenter"",""1"",""32613""
","
","
","""event"",""trial"",""time""
""fullscreenenter"",""1"",""32613""
","
",,1168.9,"<p> As a space explorer, you’ll visit different planets to dig for space treasure, these pink gems.</p> <p> The more treasure you dig up, the more bonus money you’ll win! </p><br><br><p><img src='run_exp/static/images/task_images/pink_gem.jpg' height='300' width='auto'></p>",,,,,,,1,,,,,,,,,,,,,,,,,,
html-keyboard-response,8,76926,0.0-6.0-2.0,"""event"",""trial"",""time""
""fullscreenenter"",""1"",""32613""
","
","
","""event"",""trial"",""time""
""fullscreenenter"",""1"",""32613""
","
",,368.5,"<p> As a space explorer, you’ll visit different planets to dig for space treasure, these pink gems.</p> <p> The more treasure you dig up, the more bonus money you’ll win! </p><br><br><p><img src='run_exp/static/images/task_images/pink_gem.jpg' height='300' width='auto'></p><button class=""jspsych-html-btn-unchosen""><img src=""run_exp/static/images/task_images/planet-01.jpg"" height=""50""></button><button class=""jspsych-html-btn-chosen""><img src=""run_exp/static/images/task_images/planet-02.jpg"" height=""50""></button><p><b>[press the space bar to lock in your answer]<b><br></p>",32,,,,,,,,,,,,,,,,,,,,,,,,
instruc_dig,9,92960,0.0-7.0-0.0,"""event"",""trial"",""time""
""fullscreenenter"",""1"",""32613""
","
","
","""event"",""trial"",""time""
""fullscreenenter"",""1"",""32613""
","
",,null,run_exp/static/audio/clip_4_dig.m4a,null,,,,,,,100,,,,,,,,,,,,,,,,,
instruc_dig_try,10,93140,0.0-7.0-1.0,"""event"",""trial"",""time""
""fullscreenenter"",""1"",""32613""
","
","
","""event"",""trial"",""time""
""fullscreenenter"",""1"",""32613""
","
",,176.4,"<p> When you’ve arrived at a new planet, you will dig once. </p> <p>Then, you get to decide if you want to stay on the planet and dig again or travel to a new planet and dig there.</p> <p> To stay and dig, press the letter <strong>‘A’</strong> on your keyboard. Try pressing it now! </p><p><img src='run_exp/static/images/task_images/land.jpg'  height='700' width='auto'></p>",65,"<p> When you’ve arrived at a new planet, you will dig once. </p> <p>Then, you get to decide if you want to stay on the planet and dig again or travel to a new planet and dig there.</p> <p> To stay and dig, press the letter <strong>‘A’</strong> on your keyboard. Try pressing it now! </p><p><img src='run_exp/static/images/task_images/land.jpg'  height='700' width='auto'></p>",,,,,,100,,,,,,,,,,,,,,,,,
dig_prac,11,95184,0.0-7.0-2.0,"""event"",""trial"",""time""
""fullscreenenter"",""1"",""32613""
","
","
","""event"",""trial"",""time""
""fullscreenenter"",""1"",""32613""
","
",,,,,,,,,,,,"[{""stimulus"":""run_exp/static/images/task_images/dig.jpg"",""time"":0.29999999701976776},{""stimulus"":""run_exp/static/images/task_images/land.jpg"",""time"":669.1000000014901},{""stimulus"":""run_exp/static/images/task_images/dig.jpg"",""time"":1346.2000000029802}]",[],,,,,,,,,,,,,,,
instruc_travel,12,131461,0.0-7.0-3.0,"""event"",""trial"",""time""
""fullscreenenter"",""1"",""32613""
","
","
","""event"",""trial"",""time""
""fullscreenenter"",""1"",""32613""
","
",,null,run_exp/static/audio/clip_5_travel.m4a,null,"<p>Every time you dig up gems, there are less gems on the planet, so the more you dig on a planet the fewer gems you’ll get with each dig.</p><p>When gems are running low, you may want to travel to a new planet. </p> <p>  Planets are very far apart in this galaxy, so it will take some time to travel between them. </p> <br><p>There are lots and lots of planets for you to visit, so you won’t be able to return to any planets you’ve seen before. </p><br><p>To leave this planet and travel to a new one, press the letter <strong>‘L’</strong> on your keyboard. Try pressing it now! </p><p><img src='run_exp/static/images/task_images/rocket-01.jpg'  height='600' width='auto'></p>",,,,,,,,,,,,,,,,,,,,,,,
instruc_travel_try,13,131585,0.0-7.0-4.0,"""event"",""trial"",""time""
""fullscreenenter"",""1"",""32613""
","
","
","""event"",""trial"",""time""
""fullscreenenter"",""1"",""32613""
","
",,119.3,"<p>Every time you dig up gems, there are less gems on the planet, so the more you dig on a planet the fewer gems you’ll get with each dig.</p><p>When gems are running low, you may want to travel to a new planet. </p> <p>  Planets are very far apart in this galaxy, so it will take some time to travel between them. </p> <br><p>There are lots and lots of planets for you to visit, so you won’t be able to return to any planets you’ve seen before. </p><br><p>To leave this planet and travel to a new one, press the letter <strong>‘L’</strong> on your keyboard. Try pressing it now! </p><p><img src='run_exp/static/images/task_images/rocket-01.jpg'  height='600' width='auto'></p>",76,"<p>Every time you dig up gems, there are less gems on the planet, so the more you dig on a planet the fewer gems you’ll get with each dig.</p><p>When gems are running low, you may want to travel to a new planet. </p> <p>  Planets are very far apart in this galaxy, so it will take some time to travel between them. </p> <br><p>There are lots and lots of planets for you to visit, so you won’t be able to return to any planets you’ve seen before. </p><br><p>To leave this planet and travel to a new one, press the letter <strong>‘L’</strong> on your keyboard. Try pressing it now! </p><p><img src='run_exp/static/images/task_images/rocket-01.jpg'  height='600' width='auto'></p>",,,,,,,,,,,,,,,,,,,,,,,
travel_prac,14,141590,0.0-7.0-5.0,"""event"",""trial"",""time""
""fullscreenenter"",""1"",""32613""
","
","
","""event"",""trial"",""time""
""fullscreenenter"",""1"",""32613""
","
",,,,,,,,,,,,"[{""stimulus"":""run_exp/static/images/task_images/rocket-01.jpg"",""time"":0.5},{""stimulus"":""run_exp/static/images/task_images/rocket-02.jpg"",""time"":1113.3000000044703},{""stimulus"":""run_exp/static/images/task_images/rocket-03.jpg"",""time"":2224.89999999851},{""stimulus"":""run_exp/static/images/task_images/rocket-04.jpg"",""time"":3335.3000000044703},{""stimulus"":""run_exp/static/images/task_images/rocket-05.jpg"",""time"":4447},{""stimulus"":""run_exp/static/images/task_images/rocket-06.jpg"",""time"":5558.89999999851},{""stimulus"":""run_exp/static/images/task_images/rocket-07.jpg"",""time"":6669.20000000298},{""stimulus"":""run_exp/static/images/task_images/rocket-08.jpg"",""time"":7780.10000000149},{""stimulus"":""run_exp/static/images/task_images/rocket-09.jpg"",""time"":8890.89999999851}]",[],0,,,,,,,,,,,,,,
instruc_alien_greet,15,168789,0.0-7.0-6.0,"""event"",""trial"",""time""
""fullscreenenter"",""1"",""32613""
","
","
","""event"",""trial"",""time""
""fullscreenenter"",""1"",""32613""
","
",,null,run_exp/static/audio/clip_6_alien.m4a,null,"<p>When you arrive at a new planet, the alien who owns the treasure mine on that planet will greet you!</p><p>The better an alien takes care of their mine the easier it is to dig for gems. Some aliens take better care of their mine than others. So, you won’t get exactly the same amount of gems on each planet.</p><p>What the alien looks like does not tell you anything about how many gems there are on the planet.</p><br><p><img src=""run_exp/static/images/task_images/aliens/instructions_aliens/planet/alien_planet-1.jpg""  height=""600"" width=""auto""></p>",,,,,,,,,,,,,,,,,,,,,,,
instruc_alien_greet,16,171014,0.0-7.0-7.0,"""event"",""trial"",""time""
""fullscreenenter"",""1"",""32613""
","
","
","""event"",""trial"",""time""
""fullscreenenter"",""1"",""32613""
","
",,2221.1,"<p>When you arrive at a new planet, the alien who owns the treasure mine on that planet will greet you!</p><p>The better an alien takes care of their mine the easier it is to dig for gems. Some aliens take better care of their mine than others. So, you won’t get exactly the same amount of gems on each planet.</p><p>What the alien looks like does not tell you anything about how many gems there are on the planet.</p><br><p><img src=""run_exp/static/images/task_images/aliens/instructions_aliens/planet/alien_planet-1.jpg""  height=""600"" width=""auto""></p>",,,,,,,1,,,,,,,,,,,,,,,,,,
html-keyboard-response,17,171131,0.0-7.0-8.0,"""event"",""trial"",""time""
""fullscreenenter"",""1"",""32613""
","
","
","""event"",""trial"",""time""
""fullscreenenter"",""1"",""32613""
","
",,113.8,"<p>When you arrive at a new planet, the alien who owns the treasure mine on that planet will greet you!</p><p>The better an alien takes care of their mine the easier it is to dig for gems. Some aliens take better care of their mine than others. So, you won’t get exactly the same amount of gems on each planet.</p><p>What the alien looks like does not tell you anything about how many gems there are on the planet.</p><br><p><img src=""run_exp/static/images/task_images/aliens/instructions_aliens/planet/alien_planet-1.jpg""  height=""600"" width=""auto""></p><button class=""jspsych-html-btn-unchosen""><img src=""run_exp/static/images/task_images/planet-01.jpg"" height=""50""></button><button class=""jspsych-html-btn-chosen""><img src=""run_exp/static/images/task_images/planet-02.jpg"" height=""50""></button><p><b>[press the space bar to lock in your answer]<b><br></p>",32,,,,,,,,,,,,,,,,,,,,,,,,
time_out,18,182231,0.0-8.0-0.0,"""event"",""trial"",""time""
""fullscreenenter"",""1"",""32613""
","
","
","""event"",""trial"",""time""
""fullscreenenter"",""1"",""32613""
","
",,null,run_exp/static/audio/clip_7_timeout.m4a,null,"<p>If you don't make your choice fast enough, you’ll have to wait a few seconds before you can make another one.</p><p>You can’t dig for more gems or travel to new planets. You just have to sit and wait.</p><br><p><img src='run_exp/static/images/task_images/time_out.jpg'  height='600' width='auto'></p>",,,,,,,,,,,,,,,,,,,,,,,
time_out,19,187029,0.0-8.0-1.0,"""event"",""trial"",""time""
""fullscreenenter"",""1"",""32613""
","
","
","""event"",""trial"",""time""
""fullscreenenter"",""1"",""32613""
","
",,4794,"<p>If you don't make your choice fast enough, you’ll have to wait a few seconds before you can make another one.</p><p>You can’t dig for more gems or travel to new planets. You just have to sit and wait.</p><br><p><img src='run_exp/static/images/task_images/time_out.jpg'  height='600' width='auto'></p>",,,,,,,1,,,,,,,,,,,,,,,,,,
html-keyboard-response,20,187159,0.0-8.0-2.0,"""event"",""trial"",""time""
""fullscreenenter"",""1"",""32613""
","
","
","""event"",""trial"",""time""
""fullscreenenter"",""1"",""32613""
","
",,127.8,"<p>If you don't make your choice fast enough, you’ll have to wait a few seconds before you can make another one.</p><p>You can’t dig for more gems or travel to new planets. You just have to sit and wait.</p><br><p><img src='run_exp/static/images/task_images/time_out.jpg'  height='600' width='auto'></p><button class=""jspsych-html-btn-unchosen""><img src=""run_exp/static/images/task_images/planet-01.jpg"" height=""50""></button><button class=""jspsych-html-btn-chosen""><img src=""run_exp/static/images/task_images/planet-02.jpg"" height=""50""></button><p><b>[press the space bar to lock in your answer]<b><br></p>",32,,,,,,,,,,,,,,,,,,,,,,,,
instruc_break,21,202851,0.0-9.0-0.0,"""event"",""trial"",""time""
""fullscreenenter"",""1"",""32613""
","
","
","""event"",""trial"",""time""
""fullscreenenter"",""1"",""32613""
","
",,null,run_exp/static/audio/clip_8_break.m4a,null,"<p> After digging and traveling for a while, you’ll be able to take a break at home base. </p><p>The game will last 20 minutes no matter what.</p><p>You will visit home base every 5 minutes, so, you will visit home base three times during the game.</p><br><p><img src='run_exp/static/images/task_images/home_base.jpg' height='600' width='auto'></p>",,,,,,,,,,,,,,,,,,,,,,,
instruc_break,22,204296,0.0-9.0-1.0,"""event"",""trial"",""time""
""fullscreenenter"",""1"",""32613""
","
","
","""event"",""trial"",""time""
""fullscreenenter"",""1"",""32613""
","
",,1441.2,"<p> After digging and traveling for a while, you’ll be able to take a break at home base. </p><p>The game will last 20 minutes no matter what.</p><p>You will visit home base every 5 minutes, so, you will visit home base three times during the game.</p><br><p><img src='run_exp/static/images/task_images/home_base.jpg' height='600' width='auto'></p>",,,,,,,1,,,,,,,,,,,,,,,,,,
html-keyboard-response,23,204429,0.0-9.0-2.0,"""event"",""trial"",""time""
""fullscreenenter"",""1"",""32613""
","
","
","""event"",""trial"",""time""
""fullscreenenter"",""1"",""32613""
","
",,130.8,"<p> After digging and traveling for a while, you’ll be able to take a break at home base. </p><p>The game will last 20 minutes no matter what.</p><p>You will visit home base every 5 minutes, so, you will visit home base three times during the game.</p><br><p><img src='run_exp/static/images/task_images/home_base.jpg' height='600' width='auto'></p><button class=""jspsych-html-btn-unchosen""><img src=""run_exp/static/images/task_images/planet-01.jpg"" height=""50""></button><button class=""jspsych-html-btn-chosen""><img src=""run_exp/static/images/task_images/planet-02.jpg"" height=""50""></button><p><b>[press the space bar to lock in your answer]<b><br></p>",32,,,,,,,,,,,,,,,,,,,,,,,,
instruc_prac_game,24,214589,0.0-10.0-0.0,"""event"",""trial"",""time""
""fullscreenenter"",""1"",""32613""
","
","
","""event"",""trial"",""time""
""fullscreenenter"",""1"",""32613""
","
",,null,run_exp/static/audio/clip_9_practice.m4a,null,"<p> Are you ready to play a practice game? </p> <p>In this practice game, you'll be digging up barrels of gems. But, in the real game, you'll be digging up the gems themselves. </p>",,,,,,,,,,,,,,,,,,,,,,,
html-button-response,25,216806,0.0-10.0-1.0,"""event"",""trial"",""time""
""fullscreenenter"",""1"",""32613""
","
","
","""event"",""trial"",""time""
""fullscreenenter"",""1"",""32613""
","
",,2216.4,"<p> Are you ready to play a practice game? </p> <p>In this practice game, you'll be digging up barrels of gems. But, in the real game, you'll be digging up the gems themselves. </p>",,,,,,,0,,,,,,,,,,,,,,,,,,
alien_welcome_prac,26,221812,0.0-11.0-0.0,"""event"",""trial"",""time""
""fullscreenenter"",""1"",""32613""
","
","
","""event"",""trial"",""time""
""fullscreenenter"",""1"",""32613""
","
",,null,run_exp/static/images/task_images/aliens/practice_aliens/planet/alien_planet-5.jpg,null,,,,,,,,,,,,,,,,,,,,,,,,
land_prac,27,222315,0.0-11.0-1.0,"""event"",""trial"",""time""
""fullscreenenter"",""1"",""32613""
","
","
","""event"",""trial"",""time""
""fullscreenenter"",""1"",""32613""
","
",,null,run_exp/static/images/task_images/land.jpg,null,,,,,,,106,,,0,,,,,,,,,,,,,,
dig_prac,28,224319,0.0-11.0-2.0,"""event"",""trial"",""time""
""fullscreenenter"",""1"",""32613""
","
","
","""event"",""trial"",""time""
""fullscreenenter"",""1"",""32613""
","
",,,,,,,,,,,,"[{""stimulus"":""run_exp/static/images/task_images/dig.jpg"",""time"":0.29999999701976776},{""stimulus"":""run_exp/static/images/task_images/land.jpg"",""time"":668.3999999985099},{""stimulus"":""run_exp/static/images/task_images/dig.jpg"",""time"":1335.7999999970198}]",[],,,,,,,,,,,,,,,
harvest_prac,29,225320,0.0-11.0-3.0,"""event"",""trial"",""time""
""fullscreenenter"",""1"",""32613""
","
","
","""event"",""trial"",""time""
""fullscreenenter"",""1"",""32613""
","
",,null,run_exp/static/images/task_images/barrel_text.jpg,null,,,,,,,,,,,,,,,,,,,,,,,,
decision_prac,30,225646,0.0-11.0-4.0,"""event"",""trial"",""time""
""fullscreenenter"",""1"",""32613""
","
","
","""event"",""trial"",""time""
""fullscreenenter"",""1"",""32613""
","
",,324.1,run_exp/static/images/task_images/land.jpg,65,,,,,,,,,,,1,,,,,,,,,,,,,
dig_prac,31,227650,0.0-12.0-0.0,"""event"",""trial"",""time""
""fullscreenenter"",""1"",""32613""
","
","
","""event"",""trial"",""time""
""fullscreenenter"",""1"",""32613""
","
",,,,,,,,,,,,"[{""stimulus"":""run_exp/static/images/task_images/dig.jpg"",""time"":0.09999999403953552},{""stimulus"":""run_exp/static/images/task_images/land.jpg"",""time"":667.7999999970198},{""stimulus"":""run_exp/static/images/task_images/dig.jpg"",""time"":1335.5999999940395}]",[],,,,,,,,,,,,,,,
harvest_prac,32,228652,0.0-12.0-1.0,"""event"",""trial"",""time""
""fullscreenenter"",""1"",""32613""
","
","
","""event"",""trial"",""time""
""fullscreenenter"",""1"",""32613""
","
",,null,run_exp/static/images/task_images/barrel_text.jpg,null,,,,,,,,,,,,,,,,,,,,,,,,
decision_prac,33,228751,0.0-12.0-2.0,"""event"",""trial"",""time""
""fullscreenenter"",""1"",""32613""
","
","
","""event"",""trial"",""time""
""fullscreenenter"",""1"",""32613""
","
",,96.4,run_exp/static/images/task_images/land.jpg,76,,,,,,,,,,,2,,,,,,,,,,,,,
travel,34,238656,0.0-13.0-0.0,"""event"",""trial"",""time""
""fullscreenenter"",""1"",""32613""
","
","
","""event"",""trial"",""time""
""fullscreenenter"",""1"",""32613""
","
",,,,,,,,,,,,"[{""stimulus"":""run_exp/static/images/task_images/rocket-01.jpg"",""time"":0.29999999701976776},{""stimulus"":""run_exp/static/images/task_images/rocket-02.jpg"",""time"":1101.5999999940395},{""stimulus"":""run_exp/static/images/task_images/rocket-03.jpg"",""time"":2202.7999999970198},{""stimulus"":""run_exp/static/images/task_images/rocket-04.jpg"",""time"":3302.6999999955297},{""stimulus"":""run_exp/static/images/task_images/rocket-05.jpg"",""time"":4402.0999999940395},{""stimulus"":""run_exp/static/images/task_images/rocket-06.jpg"",""time"":5502.19999999553},{""stimulus"":""run_exp/static/images/task_images/rocket-07.jpg"",""time"":6601.89999999851},{""stimulus"":""run_exp/static/images/task_images/rocket-08.jpg"",""time"":7703.19999999553},{""stimulus"":""run_exp/static/images/task_images/rocket-09.jpg"",""time"":8801.5}]",[],0,,,,,,,,,,,,,,
alien_welcome_prac,35,243659,0.0-13.0-1.0,"""event"",""trial"",""time""
""fullscreenenter"",""1"",""32613""
","
","
","""event"",""trial"",""time""
""fullscreenenter"",""1"",""32613""
","
",,null,run_exp/static/images/task_images/aliens/practice_aliens/planet/alien_planet-4.jpg,null,,,,,,,,,,,,,,,,,,,,,,,,
land_prac,36,244162,0.0-13.0-2.0,"""event"",""trial"",""time""
""fullscreenenter"",""1"",""32613""
","
","
","""event"",""trial"",""time""
""fullscreenenter"",""1"",""32613""
","
",,null,run_exp/static/images/task_images/land.jpg,null,,,,,,,100,,,0,,,,,,,,,,,,,,
dig_prac,37,246168,0.0-13.0-3.0,"""event"",""trial"",""time""
""fullscreenenter"",""1"",""32613""
","
","
","""event"",""trial"",""time""
""fullscreenenter"",""1"",""32613""
","
",,,,,,,,,,,,"[{""stimulus"":""run_exp/static/images/task_images/dig.jpg"",""time"":0.4000000059604645},{""stimulus"":""run_exp/static/images/task_images/land.jpg"",""time"":670},{""stimulus"":""run_exp/static/images/task_images/dig.jpg"",""time"":1337.1000000014901}]",[],,,,,,,,,,,,,,,
harvest_prac,38,247172,0.0-13.0-4.0,"""event"",""trial"",""time""
""fullscreenenter"",""1"",""32613""
","
","
","""event"",""trial"",""time""
""fullscreenenter"",""1"",""32613""
","
",,null,run_exp/static/images/task_images/barrel_text.jpg,null,,,,,,,,,,,,,,,,,,,,,,,,
decision_prac,39,247239,0.0-13.0-5.0,"""event"",""trial"",""time""
""fullscreenenter"",""1"",""32613""
","
","
","""event"",""trial"",""time""
""fullscreenenter"",""1"",""32613""
","
",,65,run_exp/static/images/task_images/land.jpg,65,,,,,,,,,,,3,,,,,,,,,,,,,
dig_prac,40,249249,0.0-14.0-0.0,"""event"",""trial"",""time""
""fullscreenenter"",""1"",""32613""
","
","
","""event"",""trial"",""time""
""fullscreenenter"",""1"",""32613""
","
",,,,,,,,,,,,"[{""stimulus"":""run_exp/static/images/task_images/dig.jpg"",""time"":0.3999999985098839},{""stimulus"":""run_exp/static/images/task_images/land.jpg"",""time"":669.3999999985099},{""stimulus"":""run_exp/static/images/task_images/dig.jpg"",""time"":1337.5}]",[],,,,,,,,,,,,,,,
harvest_prac,41,250253,0.0-14.0-1.0,"""event"",""trial"",""time""
""fullscreenenter"",""1"",""32613""
","
","
","""event"",""trial"",""time""
""fullscreenenter"",""1"",""32613""
","
",,null,run_exp/static/images/task_images/barrel_text.jpg,null,,,,,,,,,,,,,,,,,,,,,,,,
decision_prac,42,250417,0.0-14.0-2.0,"""event"",""trial"",""time""
""fullscreenenter"",""1"",""32613""
","
","
","""event"",""trial"",""time""
""fullscreenenter"",""1"",""32613""
","
",,161.4,run_exp/static/images/task_images/land.jpg,65,,,,,,,,,,,4,,,,,,,,,,,,,
dig_prac,43,252430,0.0-15.0-0.0,"""event"",""trial"",""time""
""fullscreenenter"",""1"",""32613""
","
","
","""event"",""trial"",""time""
""fullscreenenter"",""1"",""32613""
","
",,,,,,,,,,,,"[{""stimulus"":""run_exp/static/images/task_images/dig.jpg"",""time"":0.3999999985098839},{""stimulus"":""run_exp/static/images/task_images/land.jpg"",""time"":682.2999999970198},{""stimulus"":""run_exp/static/images/task_images/dig.jpg"",""time"":1337.2999999970198}]",[],,,,,,,,,,,,,,,
harvest_prac,44,253433,0.0-15.0-1.0,"""event"",""trial"",""time""
""fullscreenenter"",""1"",""32613""
","
","
","""event"",""trial"",""time""
""fullscreenenter"",""1"",""32613""
","
",,null,run_exp/static/images/task_images/barrel_text.jpg,null,,,,,,,,,,,,,,,,,,,,,,,,
decision_prac,45,253519,0.0-15.0-2.0,"""event"",""trial"",""time""
""fullscreenenter"",""1"",""32613""
","
","
","""event"",""trial"",""time""
""fullscreenenter"",""1"",""32613""
","
",,84.7,run_exp/static/images/task_images/land.jpg,65,,,,,,,,,,,,1,,,,,,,,,,,,
quiz_instruc,46,307906,0.0-16.0-0.0,"""event"",""trial"",""time""
""fullscreenenter"",""1"",""32613""
","
","
","""event"",""trial"",""time""
""fullscreenenter"",""1"",""32613""
","
",,54379.8,run_exp/static/audio/clip_10_quiz.m4a,,,,,,,0,,,,,,,,,,,,,,,,,,
instruc_repeat,47,350920,0.0-16.0-1.0,"""event"",""trial"",""time""
""fullscreenenter"",""1"",""32613""
","
","
","""event"",""trial"",""time""
""fullscreenenter"",""1"",""32613""
","
",,null,"<p> Are you ready to play a practice game? </p> <p>In this practice game, you'll be digging up barrels of gems. But, in the real game, you'll be digging up the gems themselves. </p>",null,"<p>In this game, your goal is to collect as many gems as you can. That’s how you will win bonus money. </p> <p>The entire game will last 20 minutes no matter how many gems you collect or how many planets you visit. </p><p>To stay on a planet and dig again, press the letter A on your keyboard. To leave for a new planet, press the letter L.</p><p>The more you dig on a planet, the fewer gems you’ll get with each dig which is why you might consider leaving for a new planet. </p><p>When you arrive at a new planet, you’ll be greeted by an alien. What the alien looks like does not tell you anything about how much treasure is on the planet. </p>",,,,,,,,,,,,,,,,,,,,,,,
instruc_repeat_continue,48,370452,0.0-16.0-2.0,"""event"",""trial"",""time""
""fullscreenenter"",""1"",""32613""
","
","
","""event"",""trial"",""time""
""fullscreenenter"",""1"",""32613""
","
",,19528.7,"<p> Are you ready to play a practice game? </p> <p>In this practice game, you'll be digging up barrels of gems. But, in the real game, you'll be digging up the gems themselves. </p>",,,,,,,0,,,,,,,,,,,,,,,,,,
quiz_q_1_ask,49,374461,0.0-16.0-3.0,"""event"",""trial"",""time""
""fullscreenenter"",""1"",""32613""
","
","
","""event"",""trial"",""time""
""fullscreenenter"",""1"",""32613""
","
",,4005.3,run_exp/static/audio/clip_11_q1_ask.m4a,,,,,,,2,,,,,,,,,,,,,,,,,,
quiz_q_1_fb_correct,50,378331,0.0-17.0-0.0,"""event"",""trial"",""time""
""fullscreenenter"",""1"",""32613""
","
","
","""event"",""trial"",""time""
""fullscreenenter"",""1"",""32613""
","
",,null,run_exp/static/audio/clip_12_q1_correct.m4a,null,<p>That’s correct. You win extra money by collecting more gems.</p>,,,,,,,,,,,,,,,,,,,,,,,
quiz_q_2_ask,51,383582,0.0-17.0-1.0,"""event"",""trial"",""time""
""fullscreenenter"",""1"",""32613""
","
","
","""event"",""trial"",""time""
""fullscreenenter"",""1"",""32613""
","
",,5248.6,run_exp/static/audio/clip_14_q2_ask.m4a,,,,,,,1,,,,,,,,,,,,,,,,,,
quiz_q_2_fb_correct,52,387588,0.0-18.0-0.0,"""event"",""trial"",""time""
""fullscreenenter"",""1"",""32613""
","
","
","""event"",""trial"",""time""
""fullscreenenter"",""1"",""32613""
","
",,null,run_exp/static/audio/clip_15_q2_correct.m4a,null,<p>That’s correct. The experiment is 20 minutes no matter what.</p>,,,,,,,,,,,,,,,,,,,,,,,
quiz_q_3_ask,53,391446,0.0-18.0-1.0,"""event"",""trial"",""time""
""fullscreenenter"",""1"",""32613""
","
","
","""event"",""trial"",""time""
""fullscreenenter"",""1"",""32613""
","
",,3856.3,run_exp/static/audio/clip_17_q3_ask.m4a,,,,,,,1,,,,,,,,,,,,,,,,,,
quiz_q_3_fb_correct,54,395451,0.0-19.0-0.0,"""event"",""trial"",""time""
""fullscreenenter"",""1"",""32613""
","
","
","""event"",""trial"",""time""
""fullscreenenter"",""1"",""32613""
","
",,null,run_exp/static/audio/clip_18_q3_correct.m4a,null,<p> That’s correct. You press the letter L to travel to a new planet.</p>,,,,,,,,,,,,,,,,,,,,,,,
quiz_q_4_ask,55,399358,0.0-19.0-1.0,"""event"",""trial"",""time""
""fullscreenenter"",""1"",""32613""
","
","
","""event"",""trial"",""time""
""fullscreenenter"",""1"",""32613""
","
",,3903.6,run_exp/static/audio/clip_20_q4_ask.m4a,,,,,,,0,,,,,,,,,,,,,,,,,,
quiz_q_4_fb_correct,56,404710,0.0-20.0-0.0,"""event"",""trial"",""time""
""fullscreenenter"",""1"",""32613""
","
","
","""event"",""trial"",""time""
""fullscreenenter"",""1"",""32613""
","
",,null,run_exp/static/audio/clip_21_q4_correct.m4a,null,<p> That’s correct. The more you dig on a planet the fewer gems you’ll get with each dig. </p>,,,,,,,,,,,,,,,,,,,,,,,
quiz_q_5_ask,57,410900,0.0-20.0-1.0,"""event"",""trial"",""time""
""fullscreenenter"",""1"",""32613""
","
","
","""event"",""trial"",""time""
""fullscreenenter"",""1"",""32613""
","
",,6184.7,run_exp/static/audio/clip_23_q5_ask.m4a,,,,,,,1,,,,,,,,,,,,,,,,,,
quiz_q_5_fb_correct,58,415931,0.0-21.0-0.0,"""event"",""trial"",""time""
""fullscreenenter"",""1"",""32613""
","
","
","""event"",""trial"",""time""
""fullscreenenter"",""1"",""32613""
","
",,null,run_exp/static/audio/clip_24_q5_correct.m4a,null,<p> That’s correct. The alien tells you nothing about how much treasure is on the planet.</p>,,,,,,,,,,,,,,,,,,,,,,,
quiz_correct,59,419411,0.0-22.0-0.0,"""event"",""trial"",""time""
""fullscreenenter"",""1"",""32613""
","
","
","""event"",""trial"",""time""
""fullscreenenter"",""1"",""32613""
","
",,null,run_exp/static/audio/clip_26_correct_quiz.m4a,null,,,,,,,,,,,,,,,,,,,,,,,,
quiz_correct_continue,60,422249,0.0-22.0-1.0,"""event"",""trial"",""time""
""fullscreenenter"",""1"",""32613""
","
","
","""event"",""trial"",""time""
""fullscreenenter"",""1"",""32613""
","
",,2835.7,<p>Good job! You're now ready to move on to the real game!</p>,,,,,,,0,,,,,,,,,,,,,,,,,,
audio-keyboard-response,61,432392,0.0-22.0-2.0,"""event"",""trial"",""time""
""fullscreenenter"",""1"",""32613""
","
","
","""event"",""trial"",""time""
""fullscreenenter"",""1"",""32613""
","
",,null,run_exp/static/audio/clip_28_real_game.m4a,null,,,,,,,,,,,,,,,,,,,,,,,,
instruc_begin_exp_contine,62,476492,0.0-22.0-3.0,"""event"",""trial"",""time""
""fullscreenenter"",""1"",""32613""
","
","
","""event"",""trial"",""time""
""fullscreenenter"",""1"",""32613""
","
",,44098,"<p>Now that you know how  to dig for space treasure and travel to new planets,you can start exploring! </p><p>Do you want to go over the instructions again or get started with the real game?</p>",,,,,,,1,,,,,,1,,,,,,,,,,,,
alien_welcome,63,481496,0.0-23.0-0.0,"""event"",""trial"",""time""
""fullscreenenter"",""1"",""32613""
","
","
","""event"",""trial"",""time""
""fullscreenenter"",""1"",""32613""
","
",,null,run_exp/static/images/task_images/aliens/old_aliens/planet/alien_planet-61.jpg,null,,,,,,,,,,,,,61,"61,37,21,6,16,36,34,28,41,25,63,12,49,62,44,24,15,4,27,8,70,33,40,71,9,1,69,65,10,52,75,30,42,68,13,58,39,56,79,54,57",,,,,,,,,,
land,64,482000,0.0-23.0-1.0,"""event"",""trial"",""time""
""fullscreenenter"",""1"",""32613""
","
","
","""event"",""trial"",""time""
""fullscreenenter"",""1"",""32613""
","
",,null,run_exp/static/images/task_images/land.jpg,null,,,,,,,102,,,1,,,,,,,,,,,,,,
dig,65,484004,0.0-23.0-2.0,"""event"",""trial"",""time""
""fullscreenenter"",""1"",""32613""
","
","
","""event"",""trial"",""time""
""fullscreenenter"",""1"",""32613""
","
",,,,,,,,,,,,"[{""stimulus"":""run_exp/static/images/task_images/dig.jpg"",""time"":0.19999999552965164},{""stimulus"":""run_exp/static/images/task_images/land.jpg"",""time"":668.7999999970198},{""stimulus"":""run_exp/static/images/task_images/dig.jpg"",""time"":1335.7999999970198}]",[],1,,,,,,,,,,,,,,
harvest,66,485007,0.0-23.0-3.0,"""event"",""trial"",""time""
""fullscreenenter"",""1"",""32613""
","
","
","""event"",""trial"",""time""
""fullscreenenter"",""1"",""32613""
","
",,null,run_exp/static/images/task_images/gems/102.jpg,null,,,,,,,20,,,1,,,,,102,0.198721736,0.196078431,,,,,,,
decision,67,485460,0.0-23.0-4.0,"""event"",""trial"",""time""
""fullscreenenter"",""1"",""32613""
","
","
","""event"",""trial"",""time""
""fullscreenenter"",""1"",""32613""
","
",,450.1,run_exp/static/images/task_images/land.jpg,65,,,,,,,20,,,1,,,,,,,,8967,1,0,FALSE,,,
dig,68,488018,0.0-24.0-0.0,"""event"",""trial"",""time""
""fullscreenenter"",""1"",""32613""
","
","
","""event"",""trial"",""time""
""fullscreenenter"",""1"",""32613""
","
",,,,,,,,,,,,"[{""stimulus"":""run_exp/static/images/task_images/dig.jpg"",""time"":0.3999999985098839},{""stimulus"":""run_exp/static/images/task_images/land.jpg"",""time"":851.6999999955297},{""stimulus"":""run_exp/static/images/task_images/dig.jpg"",""time"":1700}]",[],1,,,,,,,,,,,,,,
harvest,69,489021,0.0-24.0-1.0,"""event"",""trial"",""time""
""fullscreenenter"",""1"",""32613""
","
","
","""event"",""trial"",""time""
""fullscreenenter"",""1"",""32613""
","
",,null,run_exp/static/images/task_images/gems/20.jpg,null,,,,,,,5,,,1,,,,,20,0.230650199,0.25,,,,,,,
decision,70,489029,0.0-24.0-2.0,"""event"",""trial"",""time""
""fullscreenenter"",""1"",""32613""
","
","
","""event"",""trial"",""time""
""fullscreenenter"",""1"",""32613""
","
",,4.100000001,run_exp/static/images/task_images/land.jpg,65,,,,,,,5,,,1,,,,,,,,12535,1,1,FALSE,,,
dig,71,492043,0.0-25.0-0.0,"""event"",""trial"",""time""
""fullscreenenter"",""1"",""32613""
","
","
","""event"",""trial"",""time""
""fullscreenenter"",""1"",""32613""
","
",,,,,,,,,,,,"[{""stimulus"":""run_exp/static/images/task_images/dig.jpg"",""time"":0.4000000059604645},{""stimulus"":""run_exp/static/images/task_images/land.jpg"",""time"":999.9000000059605},{""stimulus"":""run_exp/static/images/task_images/dig.jpg"",""time"":1998.1000000014901}]",[],1,,,,,,,,,,,,,,
harvest,72,493046,0.0-25.0-1.0,"""event"",""trial"",""time""
""fullscreenenter"",""1"",""32613""
","
","
","""event"",""trial"",""time""
""fullscreenenter"",""1"",""32613""
","
",,null,run_exp/static/images/task_images/gems/5.jpg,null,,,,,,,1,,,1,,,,,5,0.183312499,0.2,,,,,,,
decision,73,493243,0.0-25.0-2.0,"""event"",""trial"",""time""
""fullscreenenter"",""1"",""32613""
","
","
","""event"",""trial"",""time""
""fullscreenenter"",""1"",""32613""
","
",,193.1,run_exp/static/images/task_images/land.jpg,65,,,,,,,1,,,1,,,,,,,,16750,1,2,FALSE,,,
dig,74,496058,0.0-26.0-0.0,"""event"",""trial"",""time""
""fullscreenenter"",""1"",""32613""
","
","
","""event"",""trial"",""time""
""fullscreenenter"",""1"",""32613""
","
",,,,,,,,,,,,"[{""stimulus"":""run_exp/static/images/task_images/dig.jpg"",""time"":0.7000000029802322},{""stimulus"":""run_exp/static/images/task_images/land.jpg"",""time"":937.1000000014901},{""stimulus"":""run_exp/static/images/task_images/dig.jpg"",""time"":1873.3999999985099}]",[],1,,,,,,,,,,,,,,
harvest,75,497061,0.0-26.0-1.0,"""event"",""trial"",""time""
""fullscreenenter"",""1"",""32613""
","
","
","""event"",""trial"",""time""
""fullscreenenter"",""1"",""32613""
","
",,null,run_exp/static/images/task_images/gems/1.jpg,null,,,,,,,0,,,1,,,,,1,0.214569812,0,,,,,,,
decision,76,497178,0.0-26.0-2.0,"""event"",""trial"",""time""
""fullscreenenter"",""1"",""32613""
","
","
","""event"",""trial"",""time""
""fullscreenenter"",""1"",""32613""
","
",,113,run_exp/static/images/task_images/land.jpg,65,,,,,,,0,,,1,,,,,,,,20684,1,3,FALSE,,,
dig,77,500073,0.0-27.0-0.0,"""event"",""trial"",""time""
""fullscreenenter"",""1"",""32613""
","
","
","""event"",""trial"",""time""
""fullscreenenter"",""1"",""32613""
","
",,,,,,,,,,,,"[{""stimulus"":""run_exp/static/images/task_images/dig.jpg"",""time"":0.5},{""stimulus"":""run_exp/static/images/task_images/land.jpg"",""time"":963.8000000044703},{""stimulus"":""run_exp/static/images/task_images/dig.jpg"",""time"":1925.9000000059605}]",[],1,,,,,,,,,,,,,,
harvest,78,501076,0.0-27.0-1.0,"""event"",""trial"",""time""
""fullscreenenter"",""1"",""32613""
","
","
","""event"",""trial"",""time""
""fullscreenenter"",""1"",""32613""
","
",,null,run_exp/static/images/task_images/gems/0.jpg,null,,,,,,,0,,,1,,,,,0,0.184197624,NaN,,,,,,,
decision,79,501281,0.0-27.0-2.0,"""event"",""trial"",""time""
""fullscreenenter"",""1"",""32613""
","
","
","""event"",""trial"",""time""
""fullscreenenter"",""1"",""32613""
","
",,200.9,run_exp/static/images/task_images/land.jpg,76,,,,,,,0,,,1,,,,,,,,24787,1,4,TRUE,,,
travel,80,511082,0.0-28.0-0.0,"""event"",""trial"",""time""
""fullscreenenter"",""1"",""32613""
","
","
","""event"",""trial"",""time""
""fullscreenenter"",""1"",""32613""
","
",,,,,,,,,,,,"[{""stimulus"":""run_exp/static/images/task_images/rocket-01.jpg"",""time"":0.3999999985098839},{""stimulus"":""run_exp/static/images/task_images/rocket-02.jpg"",""time"":1089.7999999970198},{""stimulus"":""run_exp/static/images/task_images/rocket-03.jpg"",""time"":2178.6999999955297},{""stimulus"":""run_exp/static/images/task_images/rocket-04.jpg"",""time"":3265.39999999851},{""stimulus"":""run_exp/static/images/task_images/rocket-05.jpg"",""time"":4355},{""stimulus"":""run_exp/static/images/task_images/rocket-06.jpg"",""time"":5442.5},{""stimulus"":""run_exp/static/images/task_images/rocket-07.jpg"",""time"":6529.39999999851},{""stimulus"":""run_exp/static/images/task_images/rocket-08.jpg"",""time"":7618.19999999553},{""stimulus"":""run_exp/static/images/task_images/rocket-09.jpg"",""time"":8707.10000000149}]",[],1,,,,,,,,,,,,,,
alien_welcome,81,516086,0.0-28.0-1.0,"""event"",""trial"",""time""
""fullscreenenter"",""1"",""32613""
","
","
","""event"",""trial"",""time""
""fullscreenenter"",""1"",""32613""
","
",,null,run_exp/static/images/task_images/aliens/old_aliens/planet/alien_planet-37.jpg,null,,,,,,,,,,,,,37,"61,37,21,6,16,36,34,28,41,25,63,12,49,62,44,24,15,4,27,8,70,33,40,71,9,1,69,65,10,52,75,30,42,68,13,58,39,56,79,54,57",,,,,,,,,,
land,82,516589,0.0-28.0-2.0,"""event"",""trial"",""time""
""fullscreenenter"",""1"",""32613""
","
","
","""event"",""trial"",""time""
""fullscreenenter"",""1"",""32613""
","
",,null,run_exp/static/images/task_images/land.jpg,null,,,,,,,96,,,2,,,,,,,,,,,,,,
dig,83,518596,0.0-28.0-3.0,"""event"",""trial"",""time""
""fullscreenenter"",""1"",""32613""
","
","
","""event"",""trial"",""time""
""fullscreenenter"",""1"",""32613""
","
",,,,,,,,,,,,"[{""stimulus"":""run_exp/static/images/task_images/dig.jpg"",""time"":0.5},{""stimulus"":""run_exp/static/images/task_images/land.jpg"",""time"":669.5},{""stimulus"":""run_exp/static/images/task_images/dig.jpg"",""time"":1337.2000000029802}]",[],2,,,,,,,,,,,,,,
harvest,84,519598,0.0-28.0-4.0,"""event"",""trial"",""time""
""fullscreenenter"",""1"",""32613""
","
","
","""event"",""trial"",""time""
""fullscreenenter"",""1"",""32613""
","
",,null,run_exp/static/images/task_images/gems/96.jpg,null,,,,,,,7,,,2,,,,,96,0.069565184,0.072916667,,,,,,,
decision,85,519980,0.0-28.0-5.0,"""event"",""trial"",""time""
""fullscreenenter"",""1"",""32613""
","
","
","""event"",""trial"",""time""
""fullscreenenter"",""1"",""32613""
","
",,377.3,run_exp/static/images/task_images/land.jpg,65,,,,,,,7,,,2,,,,,,,,43486,1,0,FALSE,,,
dig,86,522610,0.0-29.0-0.0,"""event"",""trial"",""time""
""fullscreenenter"",""1"",""32613""
","
","
","""event"",""trial"",""time""
""fullscreenenter"",""1"",""32613""
","
",,,,,,,,,,,,"[{""stimulus"":""run_exp/static/images/task_images/dig.jpg"",""time"":0.30000000447034836},{""stimulus"":""run_exp/static/images/task_images/land.jpg"",""time"":876.1000000014901},{""stimulus"":""run_exp/static/images/task_images/dig.jpg"",""time"":1750.5}]",[],2,,,,,,,,,,,,,,
harvest,87,523612,0.0-29.0-1.0,"""event"",""trial"",""time""
""fullscreenenter"",""1"",""32613""
","
","
","""event"",""trial"",""time""
""fullscreenenter"",""1"",""32613""
","
",,null,run_exp/static/images/task_images/gems/7.jpg,null,,,,,,,1,,,2,,,,,7,0.144715275,0.142857143,,,,,,,
decision,88,523723,0.0-29.0-2.0,"""event"",""trial"",""time""
""fullscreenenter"",""1"",""32613""
","
","
","""event"",""trial"",""time""
""fullscreenenter"",""1"",""32613""
","
",,107.1,run_exp/static/images/task_images/land.jpg,76,,,,,,,1,,,2,,,,,,,,47229,1,1,TRUE,,,
travel,89,533617,0.0-30.0-0.0,"""event"",""trial"",""time""
""fullscreenenter"",""1"",""32613""
","
","
","""event"",""trial"",""time""
""fullscreenenter"",""1"",""32613""
","
",,,,,,,,,,,,"[{""stimulus"":""run_exp/static/images/task_images/rocket-01.jpg"",""time"":0.20000000298023224},{""stimulus"":""run_exp/static/images/task_images/rocket-02.jpg"",""time"":1101},{""stimulus"":""run_exp/static/images/task_images/rocket-03.jpg"",""time"":2199.8000000044703},{""stimulus"":""run_exp/static/images/task_images/rocket-04.jpg"",""time"":3298.60000000149},{""stimulus"":""run_exp/static/images/task_images/rocket-05.jpg"",""time"":4397.60000000149},{""stimulus"":""run_exp/static/images/task_images/rocket-06.jpg"",""time"":5497.10000000149},{""stimulus"":""run_exp/static/images/task_images/rocket-07.jpg"",""time"":6596.89999999851},{""stimulus"":""run_exp/static/images/task_images/rocket-08.jpg"",""time"":7695.60000000149},{""stimulus"":""run_exp/static/images/task_images/rocket-09.jpg"",""time"":8794.30000000447}]",[],2,,,,,,,,,,,,,,
alien_welcome,90,538621,0.0-30.0-1.0,"""event"",""trial"",""time""
""fullscreenenter"",""1"",""32613""
","
","
","""event"",""trial"",""time""
""fullscreenenter"",""1"",""32613""
","
",,null,run_exp/static/images/task_images/aliens/old_aliens/planet/alien_planet-21.jpg,null,,,,,,,,,,,,,21,"61,37,21,6,16,36,34,28,41,25,63,12,49,62,44,24,15,4,27,8,70,33,40,71,9,1,69,65,10,52,75,30,42,68,13,58,39,56,79,54,57",,,,,,,,,,
land,91,539122,0.0-30.0-2.0,"""event"",""trial"",""time""
""fullscreenenter"",""1"",""32613""
","
","
","""event"",""trial"",""time""
""fullscreenenter"",""1"",""32613""
","
",,null,run_exp/static/images/task_images/land.jpg,null,,,,,,,103,,,3,,,,,,,,,,,,,,
dig,92,541126,0.0-30.0-3.0,"""event"",""trial"",""time""
""fullscreenenter"",""1"",""32613""
","
","
","""event"",""trial"",""time""
""fullscreenenter"",""1"",""32613""
","
",,,,,,,,,,,,"[{""stimulus"":""run_exp/static/images/task_images/dig.jpg"",""time"":0.20000000298023224},{""stimulus"":""run_exp/static/images/task_images/land.jpg"",""time"":669.2000000029802},{""stimulus"":""run_exp/static/images/task_images/dig.jpg"",""time"":1336.3000000044703}]",[],3,,,,,,,,,,,,,,
harvest,93,542129,0.0-30.0-4.0,"""event"",""trial"",""time""
""fullscreenenter"",""1"",""32613""
","
","
","""event"",""trial"",""time""
""fullscreenenter"",""1"",""32613""
","
",,null,run_exp/static/images/task_images/gems/103.jpg,null,,,,,,,54,,,3,,,,,103,0.528723163,0.524271845,,,,,,,
decision,94,542226,0.0-30.0-5.0,"""event"",""trial"",""time""
""fullscreenenter"",""1"",""32613""
","
","
","""event"",""trial"",""time""
""fullscreenenter"",""1"",""32613""
","
",,92.5,run_exp/static/images/task_images/land.jpg,65,,,,,,,54,,,3,,,,,,,,65732,1,0,FALSE,,,
dig,95,545142,0.0-31.0-0.0,"""event"",""trial"",""time""
""fullscreenenter"",""1"",""32613""
","
","
","""event"",""trial"",""time""
""fullscreenenter"",""1"",""32613""
","
",,,,,,,,,,,,"[{""stimulus"":""run_exp/static/images/task_images/dig.jpg"",""time"":0.3999999985098839},{""stimulus"":""run_exp/static/images/task_images/land.jpg"",""time"":970.7999999970198},{""stimulus"":""run_exp/static/images/task_images/dig.jpg"",""time"":1940.6999999955297}]",[],3,,,,,,,,,,,,,,
harvest,96,546145,0.0-31.0-1.0,"""event"",""trial"",""time""
""fullscreenenter"",""1"",""32613""
","
","
","""event"",""trial"",""time""
""fullscreenenter"",""1"",""32613""
","
",,null,run_exp/static/images/task_images/gems/54.jpg,null,,,,,,,31,,,3,,,,,54,0.582083007,0.574074074,,,,,,,
decision,97,547180,0.0-31.0-2.0,"""event"",""trial"",""time""
""fullscreenenter"",""1"",""32613""
","
","
","""event"",""trial"",""time""
""fullscreenenter"",""1"",""32613""
","
",,1031.1,run_exp/static/images/task_images/land.jpg,65,,,,,,,31,,,3,,,,,,,,70686,1,1,FALSE,,,
dig,98,549152,0.0-32.0-0.0,"""event"",""trial"",""time""
""fullscreenenter"",""1"",""32613""
","
","
","""event"",""trial"",""time""
""fullscreenenter"",""1"",""32613""
","
",,,,,,,,,,,,"[{""stimulus"":""run_exp/static/images/task_images/dig.jpg"",""time"":0.19999999552965164},{""stimulus"":""run_exp/static/images/task_images/land.jpg"",""time"":659.6000000014901},{""stimulus"":""run_exp/static/images/task_images/dig.jpg"",""time"":1314.3999999985099}]",[],3,,,,,,,,,,,,,,
harvest,99,550154,0.0-32.0-1.0,"""event"",""trial"",""time""
""fullscreenenter"",""1"",""32613""
","
","
","""event"",""trial"",""time""
""fullscreenenter"",""1"",""32613""
","
",,null,run_exp/static/images/task_images/gems/31.jpg,null,,,,,,,14,,,3,,,,,31,0.465913187,0.451612903,,,,,,,
decision,100,550407,0.0-32.0-2.0,"""event"",""trial"",""time""
""fullscreenenter"",""1"",""32613""
","
","
","""event"",""trial"",""time""
""fullscreenenter"",""1"",""32613""
","
",,249,run_exp/static/images/task_images/land.jpg,76,,,,,,,14,,,3,,,,,,,,73913,1,2,TRUE,,,
travel,101,560162,0.0-33.0-0.0,"""event"",""trial"",""time""
""fullscreenenter"",""1"",""32613""
","
","
","""event"",""trial"",""time""
""fullscreenenter"",""1"",""32613""
","
",,,,,,,,,,,,"[{""stimulus"":""run_exp/static/images/task_images/rocket-01.jpg"",""time"":0.19999999552965164},{""stimulus"":""run_exp/static/images/task_images/rocket-02.jpg"",""time"":1084.8999999985099},{""stimulus"":""run_exp/static/images/task_images/rocket-03.jpg"",""time"":2168.39999999851},{""stimulus"":""run_exp/static/images/task_images/rocket-04.jpg"",""time"":3251.2999999970198},{""stimulus"":""run_exp/static/images/task_images/rocket-05.jpg"",""time"":4334.29999999702},{""stimulus"":""run_exp/static/images/task_images/rocket-06.jpg"",""time"":5417},{""stimulus"":""run_exp/static/images/task_images/rocket-07.jpg"",""time"":6500.39999999851},{""stimulus"":""run_exp/static/images/task_images/rocket-08.jpg"",""time"":7582.79999999702},{""stimulus"":""run_exp/static/images/task_images/rocket-09.jpg"",""time"":8665.79999999702}]",[],3,,,,,,,,,,,,,,
alien_welcome,102,565166,0.0-33.0-1.0,"""event"",""trial"",""time""
""fullscreenenter"",""1"",""32613""
","
","
","""event"",""trial"",""time""
""fullscreenenter"",""1"",""32613""
","
",,null,run_exp/static/images/task_images/aliens/old_aliens/planet/alien_planet-6.jpg,null,,,,,,,,,,,,,6,"61,37,21,6,16,36,34,28,41,25,63,12,49,62,44,24,15,4,27,8,70,33,40,71,9,1,69,65,10,52,75,30,42,68,13,58,39,56,79,54,57",,,,,,,,,,
land,103,565670,0.0-33.0-2.0,"""event"",""trial"",""time""
""fullscreenenter"",""1"",""32613""
","
","
","""event"",""trial"",""time""
""fullscreenenter"",""1"",""32613""
","
",,null,run_exp/static/images/task_images/land.jpg,null,,,,,,,97,,,4,,,,,,,,,,,,,,
dig,104,567675,0.0-33.0-3.0,"""event"",""trial"",""time""
""fullscreenenter"",""1"",""32613""
","
","
","""event"",""trial"",""time""
""fullscreenenter"",""1"",""32613""
","
",,,,,,,,,,,,"[{""stimulus"":""run_exp/static/images/task_images/dig.jpg"",""time"":0.6000000014901161},{""stimulus"":""run_exp/static/images/task_images/land.jpg"",""time"":669.6000000014901},{""stimulus"":""run_exp/static/images/task_images/dig.jpg"",""time"":1337.1999999955297}]",[],4,,,,,,,,,,,,,,
harvest,105,568679,0.0-33.0-4.0,"""event"",""trial"",""time""
""fullscreenenter"",""1"",""32613""
","
","
","""event"",""trial"",""time""
""fullscreenenter"",""1"",""32613""
","
",,null,run_exp/static/images/task_images/gems/97.jpg,null,,,,,,,43,,,4,,,,,97,0.443930573,0.443298969,,,,,,,
decision,106,570390,0.0-33.0-5.0,"""event"",""trial"",""time""
""fullscreenenter"",""1"",""32613""
","
","
","""event"",""trial"",""time""
""fullscreenenter"",""1"",""32613""
","
",,1709.2,run_exp/static/images/task_images/land.jpg,65,,,,,,,43,,,4,,,,,,,,93896,1,0,FALSE,,,
dig,107,571685,0.0-34.0-0.0,"""event"",""trial"",""time""
""fullscreenenter"",""1"",""32613""
","
","
","""event"",""trial"",""time""
""fullscreenenter"",""1"",""32613""
","
",,,,,,,,,,,,"[{""stimulus"":""run_exp/static/images/task_images/dig.jpg"",""time"":0.19999999552965164},{""stimulus"":""run_exp/static/images/task_images/land.jpg"",""time"":432.69999999552965},{""stimulus"":""run_exp/static/images/task_images/dig.jpg"",""time"":861.5}]",[],4,,,,,,,,,,,,,,
harvest,108,572691,0.0-34.0-1.0,"""event"",""trial"",""time""
""fullscreenenter"",""1"",""32613""
","
","
","""event"",""trial"",""time""
""fullscreenenter"",""1"",""32613""
","
",,null,run_exp/static/images/task_images/gems/43.jpg,null,,,,,,,25,,,4,,,,,43,0.580982156,0.581395349,,,,,,,
decision,109,572849,0.0-34.0-2.0,"""event"",""trial"",""time""
""fullscreenenter"",""1"",""32613""
","
","
","""event"",""trial"",""time""
""fullscreenenter"",""1"",""32613""
","
",,153.6,run_exp/static/images/task_images/land.jpg,65,,,,,,,25,,,4,,,,,,,,96355,1,1,FALSE,,,
dig,110,575703,0.0-35.0-0.0,"""event"",""trial"",""time""
""fullscreenenter"",""1"",""32613""
","
","
","""event"",""trial"",""time""
""fullscreenenter"",""1"",""32613""
","
",,,,,,,,,,,,"[{""stimulus"":""run_exp/static/images/task_images/dig.jpg"",""time"":0.29999999701976776},{""stimulus"":""run_exp/static/images/task_images/land.jpg"",""time"":949.5},{""stimulus"":""run_exp/static/images/task_images/dig.jpg"",""time"":1898.3999999985099}]",[],4,,,,,,,,,,,,,,
harvest,111,576707,0.0-35.0-1.0,"""event"",""trial"",""time""
""fullscreenenter"",""1"",""32613""
","
","
","""event"",""trial"",""time""
""fullscreenenter"",""1"",""32613""
","
",,null,run_exp/static/images/task_images/gems/25.jpg,null,,,,,,,16,,,4,,,,,25,0.622033409,0.64,,,,,,,
decision,112,576730,0.0-35.0-2.0,"""event"",""trial"",""time""
""fullscreenenter"",""1"",""32613""
","
","
","""event"",""trial"",""time""
""fullscreenenter"",""1"",""32613""
","
",,19.6,run_exp/static/images/task_images/land.jpg,76,,,,,,,16,,,4,,,,,,,,100236,1,2,TRUE,,,
travel,113,586706,0.0-36.0-0.0,"""event"",""trial"",""time""
""fullscreenenter"",""1"",""32613""
","
","
","""event"",""trial"",""time""
""fullscreenenter"",""1"",""32613""
","
",,,,,,,,,,,,"[{""stimulus"":""run_exp/static/images/task_images/rocket-01.jpg"",""time"":0.19999999552965164},{""stimulus"":""run_exp/static/images/task_images/rocket-02.jpg"",""time"":1109.3999999985099},{""stimulus"":""run_exp/static/images/task_images/rocket-03.jpg"",""time"":2217.1999999955297},{""stimulus"":""run_exp/static/images/task_images/rocket-04.jpg"",""time"":3329.89999999851},{""stimulus"":""run_exp/static/images/task_images/rocket-05.jpg"",""time"":4433.79999999702},{""stimulus"":""run_exp/static/images/task_images/rocket-06.jpg"",""time"":5542.5},{""stimulus"":""run_exp/static/images/task_images/rocket-07.jpg"",""time"":6650.60000000149},{""stimulus"":""run_exp/static/images/task_images/rocket-08.jpg"",""time"":7757.10000000149},{""stimulus"":""run_exp/static/images/task_images/rocket-09.jpg"",""time"":8864.79999999702}]",[],4,,,,,,,,,,,,,,
alien_welcome,114,591709,0.0-36.0-1.0,"""event"",""trial"",""time""
""fullscreenenter"",""1"",""32613""
","
","
","""event"",""trial"",""time""
""fullscreenenter"",""1"",""32613""
","
",,null,run_exp/static/images/task_images/aliens/old_aliens/planet/alien_planet-16.jpg,null,,,,,,,,,,,,,16,"61,37,21,6,16,36,34,28,41,25,63,12,49,62,44,24,15,4,27,8,70,33,40,71,9,1,69,65,10,52,75,30,42,68,13,58,39,56,79,54,57",,,,,,,,,,
land,115,592213,0.0-36.0-2.0,"""event"",""trial"",""time""
""fullscreenenter"",""1"",""32613""
","
","
","""event"",""trial"",""time""
""fullscreenenter"",""1"",""32613""
","
",,null,run_exp/static/images/task_images/land.jpg,null,,,,,,,94,,,5,,,,,,,,,,,,,,
dig,116,594219,0.0-36.0-3.0,"""event"",""trial"",""time""
""fullscreenenter"",""1"",""32613""
","
","
","""event"",""trial"",""time""
""fullscreenenter"",""1"",""32613""
","
",,,,,,,,,,,,"[{""stimulus"":""run_exp/static/images/task_images/dig.jpg"",""time"":0.3999999985098839},{""stimulus"":""run_exp/static/images/task_images/land.jpg"",""time"":669.2999999970198},{""stimulus"":""run_exp/static/images/task_images/dig.jpg"",""time"":1336.3999999985099}]",[],5,,,,,,,,,,,,,,
harvest,117,595224,0.0-36.0-4.0,"""event"",""trial"",""time""
""fullscreenenter"",""1"",""32613""
","
","
","""event"",""trial"",""time""
""fullscreenenter"",""1"",""32613""
","
",,null,run_exp/static/images/task_images/gems/94.jpg,null,,,,,,,45,,,5,,,,,94,0.479992682,0.478723404,,,,,,,
decision,118,595331,0.0-36.0-5.0,"""event"",""trial"",""time""
""fullscreenenter"",""1"",""32613""
","
","
","""event"",""trial"",""time""
""fullscreenenter"",""1"",""32613""
","
",,104.3,run_exp/static/images/task_images/land.jpg,65,,,,,,,45,,,5,,,,,,,,118837,1,0,FALSE,,,
dig,119,598231,0.0-37.0-0.0,"""event"",""trial"",""time""
""fullscreenenter"",""1"",""32613""
","
","
","""event"",""trial"",""time""
""fullscreenenter"",""1"",""32613""
","
",,,,,,,,,,,,"[{""stimulus"":""run_exp/static/images/task_images/dig.jpg"",""time"":0.20000000298023224},{""stimulus"":""run_exp/static/images/task_images/land.jpg"",""time"":967.2999999970198},{""stimulus"":""run_exp/static/images/task_images/dig.jpg"",""time"":1931.7000000029802}]",[],5,,,,,,,,,,,,,,
harvest,120,599234,0.0-37.0-1.0,"""event"",""trial"",""time""
""fullscreenenter"",""1"",""32613""
","
","
","""event"",""trial"",""time""
""fullscreenenter"",""1"",""32613""
","
",,null,run_exp/static/images/task_images/gems/45.jpg,null,,,,,,,21,,,5,,,,,45,0.4623906,0.466666667,,,,,,,
decision,121,599563,0.0-37.0-2.0,"""event"",""trial"",""time""
""fullscreenenter"",""1"",""32613""
","
","
","""event"",""trial"",""time""
""fullscreenenter"",""1"",""32613""
","
",,327.2,run_exp/static/images/task_images/land.jpg,65,,,,,,,21,,,5,,,,,,,,123070,1,1,FALSE,,,
dig,122,602248,0.0-38.0-0.0,"""event"",""trial"",""time""
""fullscreenenter"",""1"",""32613""
","
","
","""event"",""trial"",""time""
""fullscreenenter"",""1"",""32613""
","
",,,,,,,,,,,,"[{""stimulus"":""run_exp/static/images/task_images/dig.jpg"",""time"":0.29999999701976776},{""stimulus"":""run_exp/static/images/task_images/land.jpg"",""time"":892},{""stimulus"":""run_exp/static/images/task_images/dig.jpg"",""time"":1781.6000000014901}]",[],5,,,,,,,,,,,,,,
harvest,123,603251,0.0-38.0-1.0,"""event"",""trial"",""time""
""fullscreenenter"",""1"",""32613""
","
","
","""event"",""trial"",""time""
""fullscreenenter"",""1"",""32613""
","
",,null,run_exp/static/images/task_images/gems/21.jpg,null,,,,,,,11,,,5,,,,,21,0.503283975,0.523809524,,,,,,,
decision,124,603421,0.0-38.0-2.0,"""event"",""trial"",""time""
""fullscreenenter"",""1"",""32613""
","
","
","""event"",""trial"",""time""
""fullscreenenter"",""1"",""32613""
","
",,166.7,run_exp/static/images/task_images/land.jpg,76,,,,,,,11,,,5,,,,,,,,126927,1,2,TRUE,,,
travel,125,613254,0.0-39.0-0.0,"""event"",""trial"",""time""
""fullscreenenter"",""1"",""32613""
","
","
","""event"",""trial"",""time""
""fullscreenenter"",""1"",""32613""
","
",,,,,,,,,,,,"[{""stimulus"":""run_exp/static/images/task_images/rocket-01.jpg"",""time"":0.10000000149011612},{""stimulus"":""run_exp/static/images/task_images/rocket-02.jpg"",""time"":1094},{""stimulus"":""run_exp/static/images/task_images/rocket-03.jpg"",""time"":2185.5},{""stimulus"":""run_exp/static/images/task_images/rocket-04.jpg"",""time"":3277.2000000029802},{""stimulus"":""run_exp/static/images/task_images/rocket-05.jpg"",""time"":4369.79999999702},{""stimulus"":""run_exp/static/images/task_images/rocket-06.jpg"",""time"":5460.70000000298},{""stimulus"":""run_exp/static/images/task_images/rocket-07.jpg"",""time"":6553.79999999702},{""stimulus"":""run_exp/static/images/task_images/rocket-08.jpg"",""time"":7645.79999999702},{""stimulus"":""run_exp/static/images/task_images/rocket-09.jpg"",""time"":8738.39999999851}]",[],5,,,,,,,,,,,,,,
alien_welcome,126,618265,0.0-39.0-1.0,"""event"",""trial"",""time""
""fullscreenenter"",""1"",""32613""
","
","
","""event"",""trial"",""time""
""fullscreenenter"",""1"",""32613""
","
",,null,run_exp/static/images/task_images/aliens/old_aliens/planet/alien_planet-36.jpg,null,,,,,,,,,,,,,36,"61,37,21,6,16,36,34,28,41,25,63,12,49,62,44,24,15,4,27,8,70,33,40,71,9,1,69,65,10,52,75,30,42,68,13,58,39,56,79,54,57",,,,,,,,,,
land,127,618769,0.0-39.0-2.0,"""event"",""trial"",""time""
""fullscreenenter"",""1"",""32613""
","
","
","""event"",""trial"",""time""
""fullscreenenter"",""1"",""32613""
","
",,null,run_exp/static/images/task_images/land.jpg,null,,,,,,,89,,,6,,,,,,,,,,,,,,
dig,128,620775,0.0-39.0-3.0,"""event"",""trial"",""time""
""fullscreenenter"",""1"",""32613""
","
","
","""event"",""trial"",""time""
""fullscreenenter"",""1"",""32613""
","
",,,,,,,,,,,,"[{""stimulus"":""run_exp/static/images/task_images/dig.jpg"",""time"":0.6000000014901161},{""stimulus"":""run_exp/static/images/task_images/land.jpg"",""time"":669.7000000029802},{""stimulus"":""run_exp/static/images/task_images/dig.jpg"",""time"":1336.7000000029802}]",[],6,,,,,,,,,,,,,,
harvest,129,621777,0.0-39.0-4.0,"""event"",""trial"",""time""
""fullscreenenter"",""1"",""32613""
","
","
","""event"",""trial"",""time""
""fullscreenenter"",""1"",""32613""
","
",,null,run_exp/static/images/task_images/gems/89.jpg,null,,,,,,,72,,,6,,,,,89,0.811602743,0.808988764,,,,,,,
decision,130,622491,0.0-39.0-5.0,"""event"",""trial"",""time""
""fullscreenenter"",""1"",""32613""
","
","
","""event"",""trial"",""time""
""fullscreenenter"",""1"",""32613""
","
",,710.1,run_exp/static/images/task_images/land.jpg,65,,,,,,,72,,,6,,,,,,,,145997,1,0,FALSE,,,
dig,131,624788,0.0-40.0-0.0,"""event"",""trial"",""time""
""fullscreenenter"",""1"",""32613""
","
","
","""event"",""trial"",""time""
""fullscreenenter"",""1"",""32613""
","
",,,,,,,,,,,,"[{""stimulus"":""run_exp/static/images/task_images/dig.jpg"",""time"":0.30000000447034836},{""stimulus"":""run_exp/static/images/task_images/land.jpg"",""time"":764.4000000059605},{""stimulus"":""run_exp/static/images/task_images/dig.jpg"",""time"":1527.7000000029802}]",[],6,,,,,,,,,,,,,,
harvest,132,625791,0.0-40.0-1.0,"""event"",""trial"",""time""
""fullscreenenter"",""1"",""32613""
","
","
","""event"",""trial"",""time""
""fullscreenenter"",""1"",""32613""
","
",,null,run_exp/static/images/task_images/gems/72.jpg,null,,,,,,,49,,,6,,,,,72,0.677706138,0.680555556,,,,,,,
decision,133,625974,0.0-40.0-2.0,"""event"",""trial"",""time""
""fullscreenenter"",""1"",""32613""
","
","
","""event"",""trial"",""time""
""fullscreenenter"",""1"",""32613""
","
",,178.8,run_exp/static/images/task_images/land.jpg,65,,,,,,,49,,,6,,,,,,,,149480,1,1,FALSE,,,
dig,134,628798,0.0-41.0-0.0,"""event"",""trial"",""time""
""fullscreenenter"",""1"",""32613""
","
","
","""event"",""trial"",""time""
""fullscreenenter"",""1"",""32613""
","
",,,,,,,,,,,,"[{""stimulus"":""run_exp/static/images/task_images/dig.jpg"",""time"":0.10000000149011612},{""stimulus"":""run_exp/static/images/task_images/land.jpg"",""time"":942.2000000029802},{""stimulus"":""run_exp/static/images/task_images/dig.jpg"",""time"":1880.8999999985099}]",[],6,,,,,,,,,,,,,,
harvest,135,629800,0.0-41.0-1.0,"""event"",""trial"",""time""
""fullscreenenter"",""1"",""32613""
","
","
","""event"",""trial"",""time""
""fullscreenenter"",""1"",""32613""
","
",,null,run_exp/static/images/task_images/gems/49.jpg,null,,,,,,,37,,,6,,,,,49,0.748832853,0.755102041,,,,,,,
decision,136,630042,0.0-41.0-2.0,"""event"",""trial"",""time""
""fullscreenenter"",""1"",""32613""
","
","
","""event"",""trial"",""time""
""fullscreenenter"",""1"",""32613""
","
",,238.4,run_exp/static/images/task_images/land.jpg,65,,,,,,,37,,,6,,,,,,,,153549,1,2,FALSE,,,
dig,137,632812,0.0-42.0-0.0,"""event"",""trial"",""time""
""fullscreenenter"",""1"",""32613""
","
","
","""event"",""trial"",""time""
""fullscreenenter"",""1"",""32613""
","
",,,,,,,,,,,,"[{""stimulus"":""run_exp/static/images/task_images/dig.jpg"",""time"":0.3999999985098839},{""stimulus"":""run_exp/static/images/task_images/land.jpg"",""time"":923.1000000014901},{""stimulus"":""run_exp/static/images/task_images/dig.jpg"",""time"":1842.6000000014901}]",[],6,,,,,,,,,,,,,,
harvest,138,633815,0.0-42.0-1.0,"""event"",""trial"",""time""
""fullscreenenter"",""1"",""32613""
","
","
","""event"",""trial"",""time""
""fullscreenenter"",""1"",""32613""
","
",,null,run_exp/static/images/task_images/gems/37.jpg,null,,,,,,,27,,,6,,,,,37,0.717010139,0.72972973,,,,,,,
decision,139,634157,0.0-42.0-2.0,"""event"",""trial"",""time""
""fullscreenenter"",""1"",""32613""
","
","
","""event"",""trial"",""time""
""fullscreenenter"",""1"",""32613""
","
",,337,run_exp/static/images/task_images/land.jpg,65,,,,,,,27,,,6,,,,,,,,157663,1,3,FALSE,,,
dig,140,636827,0.0-43.0-0.0,"""event"",""trial"",""time""
""fullscreenenter"",""1"",""32613""
","
","
","""event"",""trial"",""time""
""fullscreenenter"",""1"",""32613""
","
",,,,,,,,,,,,"[{""stimulus"":""run_exp/static/images/task_images/dig.jpg"",""time"":0.5},{""stimulus"":""run_exp/static/images/task_images/land.jpg"",""time"":890.5},{""stimulus"":""run_exp/static/images/task_images/dig.jpg"",""time"":1776.1000000014901}]",[],6,,,,,,,,,,,,,,
harvest,141,637830,0.0-43.0-1.0,"""event"",""trial"",""time""
""fullscreenenter"",""1"",""32613""
","
","
","""event"",""trial"",""time""
""fullscreenenter"",""1"",""32613""
","
",,null,run_exp/static/images/task_images/gems/27.jpg,null,,,,,,,23,,,6,,,,,27,0.845467919,0.851851852,,,,,,,
decision,142,638020,0.0-43.0-2.0,"""event"",""trial"",""time""
""fullscreenenter"",""1"",""32613""
","
","
","""event"",""trial"",""time""
""fullscreenenter"",""1"",""32613""
","
",,187.2,run_exp/static/images/task_images/land.jpg,65,,,,,,,23,,,6,,,,,,,,161526,1,4,FALSE,,,
dig,143,640839,0.0-44.0-0.0,"""event"",""trial"",""time""
""fullscreenenter"",""1"",""32613""
","
","
","""event"",""trial"",""time""
""fullscreenenter"",""1"",""32613""
","
",,,,,,,,,,,,"[{""stimulus"":""run_exp/static/images/task_images/dig.jpg"",""time"":0.29999999701976776},{""stimulus"":""run_exp/static/images/task_images/land.jpg"",""time"":938.7999999970198},{""stimulus"":""run_exp/static/images/task_images/dig.jpg"",""time"":1875.7999999970198}]",[],6,,,,,,,,,,,,,,
harvest,144,641841,0.0-44.0-1.0,"""event"",""trial"",""time""
""fullscreenenter"",""1"",""32613""
","
","
","""event"",""trial"",""time""
""fullscreenenter"",""1"",""32613""
","
",,null,run_exp/static/images/task_images/gems/23.jpg,null,,,,,,,18,,,6,,,,,23,0.776689908,0.782608696,,,,,,,
decision,145,641890,0.0-44.0-2.0,"""event"",""trial"",""time""
""fullscreenenter"",""1"",""32613""
","
","
","""event"",""trial"",""time""
""fullscreenenter"",""1"",""32613""
","
",,44.3,run_exp/static/images/task_images/land.jpg,76,,,,,,,18,,,6,,,,,,,,165396,1,5,TRUE,,,
travel,146,651853,0.0-45.0-0.0,"""event"",""trial"",""time""
""fullscreenenter"",""1"",""32613""
","
","
","""event"",""trial"",""time""
""fullscreenenter"",""1"",""32613""
","
",,,,,,,,,,,,"[{""stimulus"":""run_exp/static/images/task_images/rocket-01.jpg"",""time"":0.5999999940395355},{""stimulus"":""run_exp/static/images/task_images/rocket-02.jpg"",""time"":1108},{""stimulus"":""run_exp/static/images/task_images/rocket-03.jpg"",""time"":2213.7999999970198},{""stimulus"":""run_exp/static/images/task_images/rocket-04.jpg"",""time"":3319.89999999851},{""stimulus"":""run_exp/static/images/task_images/rocket-05.jpg"",""time"":4425.69999999553},{""stimulus"":""run_exp/static/images/task_images/rocket-06.jpg"",""time"":5532.19999999553},{""stimulus"":""run_exp/static/images/task_images/rocket-07.jpg"",""time"":6645},{""stimulus"":""run_exp/static/images/task_images/rocket-08.jpg"",""time"":7743.5999999940395},{""stimulus"":""run_exp/static/images/task_images/rocket-09.jpg"",""time"":8851.09999999404}]",[],6,,,,,,,,,,,,,,
alien_welcome,147,656857,0.0-45.0-1.0,"""event"",""trial"",""time""
""fullscreenenter"",""1"",""32613""
","
","
","""event"",""trial"",""time""
""fullscreenenter"",""1"",""32613""
","
",,null,run_exp/static/images/task_images/aliens/old_aliens/planet/alien_planet-34.jpg,null,,,,,,,,,,,,,34,"61,37,21,6,16,36,34,28,41,25,63,12,49,62,44,24,15,4,27,8,70,33,40,71,9,1,69,65,10,52,75,30,42,68,13,58,39,56,79,54,57",,,,,,,,,,
land,148,657361,0.0-45.0-2.0,"""event"",""trial"",""time""
""fullscreenenter"",""1"",""32613""
","
","
","""event"",""trial"",""time""
""fullscreenenter"",""1"",""32613""
","
",,null,run_exp/static/images/task_images/land.jpg,null,,,,,,,100,,,7,,,,,,,,,,,,,,
dig,149,659367,0.0-45.0-3.0,"""event"",""trial"",""time""
""fullscreenenter"",""1"",""32613""
","
","
","""event"",""trial"",""time""
""fullscreenenter"",""1"",""32613""
","
",,,,,,,,,,,,"[{""stimulus"":""run_exp/static/images/task_images/dig.jpg"",""time"":0.3999999985098839},{""stimulus"":""run_exp/static/images/task_images/land.jpg"",""time"":669.1000000014901},{""stimulus"":""run_exp/static/images/task_images/dig.jpg"",""time"":1335.8999999985099}]",[],7,,,,,,,,,,,,,,
harvest,150,660369,0.0-45.0-4.0,"""event"",""trial"",""time""
""fullscreenenter"",""1"",""32613""
","
","
","""event"",""trial"",""time""
""fullscreenenter"",""1"",""32613""
","
",,null,run_exp/static/images/task_images/gems/100.jpg,null,,,,,,,75,,,7,,,,,100,0.753700457,0.75,,,,,,,
decision,151,660801,0.0-45.0-5.0,"""event"",""trial"",""time""
""fullscreenenter"",""1"",""32613""
","
","
","""event"",""trial"",""time""
""fullscreenenter"",""1"",""32613""
","
",,427.9,run_exp/static/images/task_images/land.jpg,65,,,,,,,75,,,7,,,,,,,,184307,1,0,FALSE,,,
dig,152,663377,0.0-46.0-0.0,"""event"",""trial"",""time""
""fullscreenenter"",""1"",""32613""
","
","
","""event"",""trial"",""time""
""fullscreenenter"",""1"",""32613""
","
",,,,,,,,,,,,"[{""stimulus"":""run_exp/static/images/task_images/dig.jpg"",""time"":0.30000000447034836},{""stimulus"":""run_exp/static/images/task_images/land.jpg"",""time"":858.7000000029802},{""stimulus"":""run_exp/static/images/task_images/dig.jpg"",""time"":1715.3000000044703}]",[],7,,,,,,,,,,,,,,
harvest,153,664380,0.0-46.0-1.0,"""event"",""trial"",""time""
""fullscreenenter"",""1"",""32613""
","
","
","""event"",""trial"",""time""
""fullscreenenter"",""1"",""32613""
","
",,null,run_exp/static/images/task_images/gems/75.jpg,null,,,,,,,48,,,7,,,,,75,0.640958615,0.64,,,,,,,
decision,154,664705,0.0-46.0-2.0,"""event"",""trial"",""time""
""fullscreenenter"",""1"",""32613""
","
","
","""event"",""trial"",""time""
""fullscreenenter"",""1"",""32613""
","
",,320.6,run_exp/static/images/task_images/land.jpg,65,,,,,,,48,,,7,,,,,,,,188211,1,1,FALSE,,,
dig,155,667392,0.0-47.0-0.0,"""event"",""trial"",""time""
""fullscreenenter"",""1"",""32613""
","
","
","""event"",""trial"",""time""
""fullscreenenter"",""1"",""32613""
","
",,,,,,,,,,,,"[{""stimulus"":""run_exp/static/images/task_images/dig.jpg"",""time"":0.29999999701976776},{""stimulus"":""run_exp/static/images/task_images/land.jpg"",""time"":894},{""stimulus"":""run_exp/static/images/task_images/dig.jpg"",""time"":1788}]",[],7,,,,,,,,,,,,,,
harvest,156,668395,0.0-47.0-1.0,"""event"",""trial"",""time""
""fullscreenenter"",""1"",""32613""
","
","
","""event"",""trial"",""time""
""fullscreenenter"",""1"",""32613""
","
",,null,run_exp/static/images/task_images/gems/48.jpg,null,,,,,,,42,,,7,,,,,48,0.867414722,0.875,,,,,,,
decision,157,668621,0.0-47.0-2.0,"""event"",""trial"",""time""
""fullscreenenter"",""1"",""32613""
","
","
","""event"",""trial"",""time""
""fullscreenenter"",""1"",""32613""
","
",,221.9,run_exp/static/images/task_images/land.jpg,65,,,,,,,42,,,7,,,,,,,,192127,1,2,FALSE,,,
dig,158,671408,0.0-48.0-0.0,"""event"",""trial"",""time""
""fullscreenenter"",""1"",""32613""
","
","
","""event"",""trial"",""time""
""fullscreenenter"",""1"",""32613""
","
",,,,,,,,,,,,"[{""stimulus"":""run_exp/static/images/task_images/dig.jpg"",""time"":0.3999999985098839},{""stimulus"":""run_exp/static/images/task_images/land.jpg"",""time"":928.1000000014901},{""stimulus"":""run_exp/static/images/task_images/dig.jpg"",""time"":1854.6999999955297}]",[],7,,,,,,,,,,,,,,
harvest,159,672411,0.0-48.0-1.0,"""event"",""trial"",""time""
""fullscreenenter"",""1"",""32613""
","
","
","""event"",""trial"",""time""
""fullscreenenter"",""1"",""32613""
","
",,null,run_exp/static/images/task_images/gems/42.jpg,null,,,,,,,37,,,7,,,,,42,0.882297612,0.880952381,,,,,,,
decision,160,672428,0.0-48.0-2.0,"""event"",""trial"",""time""
""fullscreenenter"",""1"",""32613""
","
","
","""event"",""trial"",""time""
""fullscreenenter"",""1"",""32613""
","
",,12.6,run_exp/static/images/task_images/land.jpg,76,,,,,,,37,,,7,,,,,,,,195934,1,3,TRUE,,,
travel,161,682414,0.0-49.0-0.0,"""event"",""trial"",""time""
""fullscreenenter"",""1"",""32613""
","
","
","""event"",""trial"",""time""
""fullscreenenter"",""1"",""32613""
","
",,,,,,,,,,,,"[{""stimulus"":""run_exp/static/images/task_images/rocket-01.jpg"",""time"":0.20000000298023224},{""stimulus"":""run_exp/static/images/task_images/rocket-02.jpg"",""time"":1111.3000000044703},{""stimulus"":""run_exp/static/images/task_images/rocket-03.jpg"",""time"":2220.89999999851},{""stimulus"":""run_exp/static/images/task_images/rocket-04.jpg"",""time"":3329.39999999851},{""stimulus"":""run_exp/static/images/task_images/rocket-05.jpg"",""time"":4438.89999999851},{""stimulus"":""run_exp/static/images/task_images/rocket-06.jpg"",""time"":5546.20000000298},{""stimulus"":""run_exp/static/images/task_images/rocket-07.jpg"",""time"":6659.10000000149},{""stimulus"":""run_exp/static/images/task_images/rocket-08.jpg"",""time"":7765.60000000149},{""stimulus"":""run_exp/static/images/task_images/rocket-09.jpg"",""time"":8874.89999999851}]",[],7,,,,,,,,,,,,,,
alien_welcome,162,687418,0.0-49.0-1.0,"""event"",""trial"",""time""
""fullscreenenter"",""1"",""32613""
","
","
","""event"",""trial"",""time""
""fullscreenenter"",""1"",""32613""
","
",,null,run_exp/static/images/task_images/aliens/old_aliens/planet/alien_planet-28.jpg,null,,,,,,,,,,,,,28,"61,37,21,6,16,36,34,28,41,25,63,12,49,62,44,24,15,4,27,8,70,33,40,71,9,1,69,65,10,52,75,30,42,68,13,58,39,56,79,54,57",,,,,,,,,,
land,163,687921,0.0-49.0-2.0,"""event"",""trial"",""time""
""fullscreenenter"",""1"",""32613""
","
","
","""event"",""trial"",""time""
""fullscreenenter"",""1"",""32613""
","
",,null,run_exp/static/images/task_images/land.jpg,null,,,,,,,99,,,8,,,,,,,,,,,,,,
dig,164,689925,0.0-49.0-3.0,"""event"",""trial"",""time""
""fullscreenenter"",""1"",""32613""
","
","
","""event"",""trial"",""time""
""fullscreenenter"",""1"",""32613""
","
",,,,,,,,,,,,"[{""stimulus"":""run_exp/static/images/task_images/dig.jpg"",""time"":0.20000000298023224},{""stimulus"":""run_exp/static/images/task_images/land.jpg"",""time"":667.8999999985099},{""stimulus"":""run_exp/static/images/task_images/dig.jpg"",""time"":1335.5}]",[],8,,,,,,,,,,,,,,
harvest,165,690926,0.0-49.0-4.0,"""event"",""trial"",""time""
""fullscreenenter"",""1"",""32613""
","
","
","""event"",""trial"",""time""
""fullscreenenter"",""1"",""32613""
","
",,null,run_exp/static/images/task_images/gems/99.jpg,null,,,,,,,85,,,8,,,,,99,0.860359058,0.858585859,,,,,,,
decision,166,691157,0.0-49.0-5.0,"""event"",""trial"",""time""
""fullscreenenter"",""1"",""32613""
","
","
","""event"",""trial"",""time""
""fullscreenenter"",""1"",""32613""
","
",,229.2,run_exp/static/images/task_images/land.jpg,65,,,,,,,85,,,8,,,,,,,,214664,1,0,FALSE,,,
dig,167,693936,0.0-50.0-0.0,"""event"",""trial"",""time""
""fullscreenenter"",""1"",""32613""
","
","
","""event"",""trial"",""time""
""fullscreenenter"",""1"",""32613""
","
",,,,,,,,,,,,"[{""stimulus"":""run_exp/static/images/task_images/dig.jpg"",""time"":0.3999999985098839},{""stimulus"":""run_exp/static/images/task_images/land.jpg"",""time"":924.5},{""stimulus"":""run_exp/static/images/task_images/dig.jpg"",""time"":1848.1999999955297}]",[],8,,,,,,,,,,,,,,
harvest,168,694938,0.0-50.0-1.0,"""event"",""trial"",""time""
""fullscreenenter"",""1"",""32613""
","
","
","""event"",""trial"",""time""
""fullscreenenter"",""1"",""32613""
","
",,null,run_exp/static/images/task_images/gems/85.jpg,null,,,,,,,62,,,8,,,,,85,0.729478228,0.729411765,,,,,,,
decision,169,695017,0.0-50.0-2.0,"""event"",""trial"",""time""
""fullscreenenter"",""1"",""32613""
","
","
","""event"",""trial"",""time""
""fullscreenenter"",""1"",""32613""
","
",,74.6,run_exp/static/images/task_images/land.jpg,65,,,,,,,62,,,8,,,,,,,,218523,1,1,FALSE,,,
dig,170,697952,0.0-51.0-0.0,"""event"",""trial"",""time""
""fullscreenenter"",""1"",""32613""
","
","
","""event"",""trial"",""time""
""fullscreenenter"",""1"",""32613""
","
",,,,,,,,,,,,"[{""stimulus"":""run_exp/static/images/task_images/dig.jpg"",""time"":0.5},{""stimulus"":""run_exp/static/images/task_images/land.jpg"",""time"":977.1000000014901},{""stimulus"":""run_exp/static/images/task_images/dig.jpg"",""time"":1953.1000000014901}]",[],8,,,,,,,,,,,,,,
harvest,171,698956,0.0-51.0-1.0,"""event"",""trial"",""time""
""fullscreenenter"",""1"",""32613""
","
","
","""event"",""trial"",""time""
""fullscreenenter"",""1"",""32613""
","
",,null,run_exp/static/images/task_images/gems/62.jpg,null,,,,,,,51,,,8,,,,,62,0.817004475,0.822580645,,,,,,,
decision,172,699509,0.0-51.0-2.0,"""event"",""trial"",""time""
""fullscreenenter"",""1"",""32613""
","
","
","""event"",""trial"",""time""
""fullscreenenter"",""1"",""32613""
","
",,550.5,run_exp/static/images/task_images/land.jpg,65,,,,,,,51,,,8,,,,,,,,223015,1,2,FALSE,,,
dig,173,701963,0.0-52.0-0.0,"""event"",""trial"",""time""
""fullscreenenter"",""1"",""32613""
","
","
","""event"",""trial"",""time""
""fullscreenenter"",""1"",""32613""
","
",,,,,,,,,,,,"[{""stimulus"":""run_exp/static/images/task_images/dig.jpg"",""time"":0.20000000298023224},{""stimulus"":""run_exp/static/images/task_images/land.jpg"",""time"":818.7000000029802},{""stimulus"":""run_exp/static/images/task_images/dig.jpg"",""time"":1634.1000000014901}]",[],8,,,,,,,,,,,,,,
harvest,174,702967,0.0-52.0-1.0,"""event"",""trial"",""time""
""fullscreenenter"",""1"",""32613""
","
","
","""event"",""trial"",""time""
""fullscreenenter"",""1"",""32613""
","
",,null,run_exp/static/images/task_images/gems/51.jpg,null,,,,,,,41,,,8,,,,,51,0.803250129,0.803921569,,,,,,,
decision,175,703190,0.0-52.0-2.0,"""event"",""trial"",""time""
""fullscreenenter"",""1"",""32613""
","
","
","""event"",""trial"",""time""
""fullscreenenter"",""1"",""32613""
","
",,219.6,run_exp/static/images/task_images/land.jpg,65,,,,,,,41,,,8,,,,,,,,226696,1,3,FALSE,,,
dig,176,705973,0.0-53.0-0.0,"""event"",""trial"",""time""
""fullscreenenter"",""1"",""32613""
","
","
","""event"",""trial"",""time""
""fullscreenenter"",""1"",""32613""
","
",,,,,,,,,,,,"[{""stimulus"":""run_exp/static/images/task_images/dig.jpg"",""time"":0.29999999701976776},{""stimulus"":""run_exp/static/images/task_images/land.jpg"",""time"":927.1000000014901},{""stimulus"":""run_exp/static/images/task_images/dig.jpg"",""time"":1854.6000000014901}]",[],8,,,,,,,,,,,,,,
harvest,177,706975,0.0-53.0-1.0,"""event"",""trial"",""time""
""fullscreenenter"",""1"",""32613""
","
","
","""event"",""trial"",""time""
""fullscreenenter"",""1"",""32613""
","
",,null,run_exp/static/images/task_images/gems/41.jpg,null,,,,,,,30,,,8,,,,,41,0.725170285,0.731707317,,,,,,,
decision,178,707719,0.0-53.0-2.0,"""event"",""trial"",""time""
""fullscreenenter"",""1"",""32613""
","
","
","""event"",""trial"",""time""
""fullscreenenter"",""1"",""32613""
","
",,742,run_exp/static/images/task_images/land.jpg,65,,,,,,,30,,,8,,,,,,,,231225,1,4,FALSE,,,
dig,179,709979,0.0-54.0-0.0,"""event"",""trial"",""time""
""fullscreenenter"",""1"",""32613""
","
","
","""event"",""trial"",""time""
""fullscreenenter"",""1"",""32613""
","
",,,,,,,,,,,,"[{""stimulus"":""run_exp/static/images/task_images/dig.jpg"",""time"":0.10000000149011612},{""stimulus"":""run_exp/static/images/task_images/land.jpg"",""time"":759.1000000014901},{""stimulus"":""run_exp/static/images/task_images/dig.jpg"",""time"":1506.1999999955297}]",[],8,,,,,,,,,,,,,,
harvest,180,710981,0.0-54.0-1.0,"""event"",""trial"",""time""
""fullscreenenter"",""1"",""32613""
","
","
","""event"",""trial"",""time""
""fullscreenenter"",""1"",""32613""
","
",,null,run_exp/static/images/task_images/gems/30.jpg,null,,,,,,,23,,,8,,,,,30,0.763205823,0.766666667,,,,,,,
decision,181,711003,0.0-54.0-2.0,"""event"",""trial"",""time""
""fullscreenenter"",""1"",""32613""
","
","
","""event"",""trial"",""time""
""fullscreenenter"",""1"",""32613""
","
",,17,run_exp/static/images/task_images/land.jpg,65,,,,,,,23,,,8,,,,,,,,234509,1,5,FALSE,,,
dig,182,713992,0.0-55.0-0.0,"""event"",""trial"",""time""
""fullscreenenter"",""1"",""32613""
","
","
","""event"",""trial"",""time""
""fullscreenenter"",""1"",""32613""
","
",,,,,,,,,,,,"[{""stimulus"":""run_exp/static/images/task_images/dig.jpg"",""time"":0.30000000447034836},{""stimulus"":""run_exp/static/images/task_images/land.jpg"",""time"":996.8000000044703},{""stimulus"":""run_exp/static/images/task_images/dig.jpg"",""time"":1989.8000000044703}]",[],8,,,,,,,,,,,,,,
harvest,183,714995,0.0-55.0-1.0,"""event"",""trial"",""time""
""fullscreenenter"",""1"",""32613""
","
","
","""event"",""trial"",""time""
""fullscreenenter"",""1"",""32613""
","
",,null,run_exp/static/images/task_images/gems/23.jpg,null,,,,,,,17,,,8,,,,,23,0.729538474,0.739130435,,,,,,,
decision,184,715932,0.0-55.0-2.0,"""event"",""trial"",""time""
""fullscreenenter"",""1"",""32613""
","
","
","""event"",""trial"",""time""
""fullscreenenter"",""1"",""32613""
","
",,932.8,run_exp/static/images/task_images/land.jpg,76,,,,,,,17,,,8,,,,,,,,239438,1,6,TRUE,,,
travel,185,725004,0.0-56.0-0.0,"""event"",""trial"",""time""
""fullscreenenter"",""1"",""32613""
","
","
","""event"",""trial"",""time""
""fullscreenenter"",""1"",""32613""
","
",,,,,,,,,,,,"[{""stimulus"":""run_exp/static/images/task_images/rocket-01.jpg"",""time"":0.3999999985098839},{""stimulus"":""run_exp/static/images/task_images/rocket-02.jpg"",""time"":1010.1000000014901},{""stimulus"":""run_exp/static/images/task_images/rocket-03.jpg"",""time"":2016},{""stimulus"":""run_exp/static/images/task_images/rocket-04.jpg"",""time"":3023},{""stimulus"":""run_exp/static/images/task_images/rocket-05.jpg"",""time"":4030.1999999955297},{""stimulus"":""run_exp/static/images/task_images/rocket-06.jpg"",""time"":5038.79999999702},{""stimulus"":""run_exp/static/images/task_images/rocket-07.jpg"",""time"":6044.10000000149},{""stimulus"":""run_exp/static/images/task_images/rocket-08.jpg"",""time"":7051},{""stimulus"":""run_exp/static/images/task_images/rocket-09.jpg"",""time"":8069.69999999553}]",[],8,,,,,,,,,,,,,,
alien_welcome,186,730008,0.0-56.0-1.0,"""event"",""trial"",""time""
""fullscreenenter"",""1"",""32613""
","
","
","""event"",""trial"",""time""
""fullscreenenter"",""1"",""32613""
","
",,null,run_exp/static/images/task_images/aliens/old_aliens/planet/alien_planet-41.jpg,null,,,,,,,,,,,,,41,"61,37,21,6,16,36,34,28,41,25,63,12,49,62,44,24,15,4,27,8,70,33,40,71,9,1,69,65,10,52,75,30,42,68,13,58,39,56,79,54,57",,,,,,,,,,
land,187,730514,0.0-56.0-2.0,"""event"",""trial"",""time""
""fullscreenenter"",""1"",""32613""
","
","
","""event"",""trial"",""time""
""fullscreenenter"",""1"",""32613""
","
",,null,run_exp/static/images/task_images/land.jpg,null,,,,,,,104,,,9,,,,,,,,,,,,,,
dig,188,732519,0.0-56.0-3.0,"""event"",""trial"",""time""
""fullscreenenter"",""1"",""32613""
","
","
","""event"",""trial"",""time""
""fullscreenenter"",""1"",""32613""
","
",,,,,,,,,,,,"[{""stimulus"":""run_exp/static/images/task_images/dig.jpg"",""time"":0.3999999985098839},{""stimulus"":""run_exp/static/images/task_images/land.jpg"",""time"":669.6999999955297},{""stimulus"":""run_exp/static/images/task_images/dig.jpg"",""time"":1336.3999999985099}]",[],9,,,,,,,,,,,,,,
harvest,189,733536,0.0-56.0-4.0,"""event"",""trial"",""time""
""fullscreenenter"",""1"",""32613""
","
","
","""event"",""trial"",""time""
""fullscreenenter"",""1"",""32613""
","
",,null,run_exp/static/images/task_images/gems/104.jpg,null,,,,,,,25,,,9,,,,,104,0.240290748,0.240384615,,,,,,,
decision,190,734628,0.0-56.0-5.0,"""event"",""trial"",""time""
""fullscreenenter"",""1"",""32613""
","
","
","""event"",""trial"",""time""
""fullscreenenter"",""1"",""32613""
","
",,1088.3,run_exp/static/images/task_images/land.jpg,65,,,,,,,25,,,9,,,,,,,,258134,1,0,FALSE,,,
dig,191,736548,0.0-57.0-0.0,"""event"",""trial"",""time""
""fullscreenenter"",""1"",""32613""
","
","
","""event"",""trial"",""time""
""fullscreenenter"",""1"",""32613""
","
",,,,,,,,,,,,"[{""stimulus"":""run_exp/static/images/task_images/dig.jpg"",""time"":0.4000000059604645},{""stimulus"":""run_exp/static/images/task_images/land.jpg"",""time"":639},{""stimulus"":""run_exp/static/images/task_images/dig.jpg"",""time"":1276.2000000029802}]",[],9,,,,,,,,,,,,,,
harvest,192,737552,0.0-57.0-1.0,"""event"",""trial"",""time""
""fullscreenenter"",""1"",""32613""
","
","
","""event"",""trial"",""time""
""fullscreenenter"",""1"",""32613""
","
",,null,run_exp/static/images/task_images/gems/25.jpg,null,,,,,,,6,,,9,,,,,25,0.23864086,0.24,,,,,,,
decision,193,739284,0.0-57.0-2.0,"""event"",""trial"",""time""
""fullscreenenter"",""1"",""32613""
","
","
","""event"",""trial"",""time""
""fullscreenenter"",""1"",""32613""
","
",,1727.8,run_exp/static/images/task_images/land.jpg,65,,,,,,,6,,,9,,,,,,,,262790,1,1,FALSE,,,
dig,194,740565,0.0-58.0-0.0,"""event"",""trial"",""time""
""fullscreenenter"",""1"",""32613""
","
","
","""event"",""trial"",""time""
""fullscreenenter"",""1"",""32613""
","
",,,,,,,,,,,,"[{""stimulus"":""run_exp/static/images/task_images/dig.jpg"",""time"":0.3999999985098839},{""stimulus"":""run_exp/static/images/task_images/land.jpg"",""time"":426.3999999985099},{""stimulus"":""run_exp/static/images/task_images/dig.jpg"",""time"":849.7999999970198}]",[],9,,,,,,,,,,,,,,
harvest,195,741568,0.0-58.0-1.0,"""event"",""trial"",""time""
""fullscreenenter"",""1"",""32613""
","
","
","""event"",""trial"",""time""
""fullscreenenter"",""1"",""32613""
","
",,null,run_exp/static/images/task_images/gems/6.jpg,null,,,,,,,1,,,9,,,,,6,0.154139924,0.166666667,,,,,,,
decision,196,741791,0.0-58.0-2.0,"""event"",""trial"",""time""
""fullscreenenter"",""1"",""32613""
","
","
","""event"",""trial"",""time""
""fullscreenenter"",""1"",""32613""
","
",,218.9,run_exp/static/images/task_images/land.jpg,76,,,,,,,1,,,9,,,,,,,,265298,1,2,TRUE,,,
travel,197,751573,0.0-59.0-0.0,"""event"",""trial"",""time""
""fullscreenenter"",""1"",""32613""
","
","
","""event"",""trial"",""time""
""fullscreenenter"",""1"",""32613""
","
",,,,,,,,,,,,"[{""stimulus"":""run_exp/static/images/task_images/rocket-01.jpg"",""time"":0.3999999985098839},{""stimulus"":""run_exp/static/images/task_images/rocket-02.jpg"",""time"":1088},{""stimulus"":""run_exp/static/images/task_images/rocket-03.jpg"",""time"":2173.5},{""stimulus"":""run_exp/static/images/task_images/rocket-04.jpg"",""time"":3261.10000000149},{""stimulus"":""run_exp/static/images/task_images/rocket-05.jpg"",""time"":4346.5},{""stimulus"":""run_exp/static/images/task_images/rocket-06.jpg"",""time"":5431.89999999851},{""stimulus"":""run_exp/static/images/task_images/rocket-07.jpg"",""time"":6518.60000000149},{""stimulus"":""run_exp/static/images/task_images/rocket-08.jpg"",""time"":7604.5},{""stimulus"":""run_exp/static/images/task_images/rocket-09.jpg"",""time"":8696.10000000149}]",[],9,,,,,,,,,,,,,,
alien_welcome,198,756577,0.0-59.0-1.0,"""event"",""trial"",""time""
""fullscreenenter"",""1"",""32613""
","
","
","""event"",""trial"",""time""
""fullscreenenter"",""1"",""32613""
","
",,null,run_exp/static/images/task_images/aliens/old_aliens/planet/alien_planet-25.jpg,null,,,,,,,,,,,,,25,"61,37,21,6,16,36,34,28,41,25,63,12,49,62,44,24,15,4,27,8,70,33,40,71,9,1,69,65,10,52,75,30,42,68,13,58,39,56,79,54,57",,,,,,,,,,
land,199,757080,0.0-59.0-2.0,"""event"",""trial"",""time""
""fullscreenenter"",""1"",""32613""
","
","
","""event"",""trial"",""time""
""fullscreenenter"",""1"",""32613""
","
",,null,run_exp/static/images/task_images/land.jpg,null,,,,,,,91,,,10,,,,,,,,,,,,,,
dig,200,759085,0.0-59.0-3.0,"""event"",""trial"",""time""
""fullscreenenter"",""1"",""32613""
","
","
","""event"",""trial"",""time""
""fullscreenenter"",""1"",""32613""
","
",,,,,,,,,,,,"[{""stimulus"":""run_exp/static/images/task_images/dig.jpg"",""time"":0.5},{""stimulus"":""run_exp/static/images/task_images/land.jpg"",""time"":670.1999999955297},{""stimulus"":""run_exp/static/images/task_images/dig.jpg"",""time"":1336.3999999985099}]",[],10,,,,,,,,,,,,,,
harvest,201,760087,0.0-59.0-4.0,"""event"",""trial"",""time""
""fullscreenenter"",""1"",""32613""
","
","
","""event"",""trial"",""time""
""fullscreenenter"",""1"",""32613""
","
",,null,run_exp/static/images/task_images/gems/91.jpg,null,,,,,,,12,,,10,,,,,91,0.126667644,0.131868132,,,,,,,
decision,202,760316,0.0-59.0-5.0,"""event"",""trial"",""time""
""fullscreenenter"",""1"",""32613""
","
","
","""event"",""trial"",""time""
""fullscreenenter"",""1"",""32613""
","
",,226.7,run_exp/static/images/task_images/land.jpg,65,,,,,,,12,,,10,,,,,,,,283822,1,0,FALSE,,,
dig,203,763093,0.0-60.0-0.0,"""event"",""trial"",""time""
""fullscreenenter"",""1"",""32613""
","
","
","""event"",""trial"",""time""
""fullscreenenter"",""1"",""32613""
","
",,,,,,,,,,,,"[{""stimulus"":""run_exp/static/images/task_images/dig.jpg"",""time"":0.20000000298023224},{""stimulus"":""run_exp/static/images/task_images/land.jpg"",""time"":925.5},{""stimulus"":""run_exp/static/images/task_images/dig.jpg"",""time"":1850.1000000014901}]",[],10,,,,,,,,,,,,,,
harvest,204,764097,0.0-60.0-1.0,"""event"",""trial"",""time""
""fullscreenenter"",""1"",""32613""
","
","
","""event"",""trial"",""time""
""fullscreenenter"",""1"",""32613""
","
",,null,run_exp/static/images/task_images/gems/12.jpg,null,,,,,,,2,,,10,,,,,12,0.195319635,0.166666667,,,,,,,
decision,205,764134,0.0-60.0-2.0,"""event"",""trial"",""time""
""fullscreenenter"",""1"",""32613""
","
","
","""event"",""trial"",""time""
""fullscreenenter"",""1"",""32613""
","
",,36.3,run_exp/static/images/task_images/land.jpg,65,,,,,,,2,,,10,,,,,,,,287640,1,1,FALSE,,,
dig,206,767098,0.0-61.0-0.0,"""event"",""trial"",""time""
""fullscreenenter"",""1"",""32613""
","
","
","""event"",""trial"",""time""
""fullscreenenter"",""1"",""32613""
","
",,,,,,,,,,,,"[{""stimulus"":""run_exp/static/images/task_images/dig.jpg"",""time"":0.09999999403953552},{""stimulus"":""run_exp/static/images/task_images/land.jpg"",""time"":988.0999999940395},{""stimulus"":""run_exp/static/images/task_images/dig.jpg"",""time"":1975.7999999970198}]",[],10,,,,,,,,,,,,,,
harvest,207,768101,0.0-61.0-1.0,"""event"",""trial"",""time""
""fullscreenenter"",""1"",""32613""
","
","
","""event"",""trial"",""time""
""fullscreenenter"",""1"",""32613""
","
",,null,run_exp/static/images/task_images/gems/2.jpg,null,,,,,,,0,,,10,,,,,2,0.196250335,0,,,,,,,
decision,208,769374,0.0-61.0-2.0,"""event"",""trial"",""time""
""fullscreenenter"",""1"",""32613""
","
","
","""event"",""trial"",""time""
""fullscreenenter"",""1"",""32613""
","
",,1268.9,run_exp/static/images/task_images/land.jpg,76,,,,,,,0,,,10,,,,,,,,292880,1,2,TRUE,,,
travel,209,778112,0.0-62.0-0.0,"""event"",""trial"",""time""
""fullscreenenter"",""1"",""32613""
","
","
","""event"",""trial"",""time""
""fullscreenenter"",""1"",""32613""
","
",,,,,,,,,,,,"[{""stimulus"":""run_exp/static/images/task_images/rocket-01.jpg"",""time"":0.3999999985098839},{""stimulus"":""run_exp/static/images/task_images/rocket-02.jpg"",""time"":983.5999999940395},{""stimulus"":""run_exp/static/images/task_images/rocket-03.jpg"",""time"":1941.5999999940395},{""stimulus"":""run_exp/static/images/task_images/rocket-04.jpg"",""time"":2912.39999999851},{""stimulus"":""run_exp/static/images/task_images/rocket-05.jpg"",""time"":3882.1999999955297},{""stimulus"":""run_exp/static/images/task_images/rocket-06.jpg"",""time"":4851.69999999553},{""stimulus"":""run_exp/static/images/task_images/rocket-07.jpg"",""time"":5821.5999999940395},{""stimulus"":""run_exp/static/images/task_images/rocket-08.jpg"",""time"":6793.19999999553},{""stimulus"":""run_exp/static/images/task_images/rocket-09.jpg"",""time"":7762.5}]",[],10,,,,,,,,,,,,,,
alien_welcome,210,783116,0.0-62.0-1.0,"""event"",""trial"",""time""
""fullscreenenter"",""1"",""32613""
","
","
","""event"",""trial"",""time""
""fullscreenenter"",""1"",""32613""
","
",,null,run_exp/static/images/task_images/aliens/old_aliens/planet/alien_planet-63.jpg,null,,,,,,,,,,,,,63,"61,37,21,6,16,36,34,28,41,25,63,12,49,62,44,24,15,4,27,8,70,33,40,71,9,1,69,65,10,52,75,30,42,68,13,58,39,56,79,54,57",,,,,,,,,,
land,211,783620,0.0-62.0-2.0,"""event"",""trial"",""time""
""fullscreenenter"",""1"",""32613""
","
","
","""event"",""trial"",""time""
""fullscreenenter"",""1"",""32613""
","
",,null,run_exp/static/images/task_images/land.jpg,null,,,,,,,96,,,11,,,,,,,,,,,,,,
dig,212,785627,0.0-62.0-3.0,"""event"",""trial"",""time""
""fullscreenenter"",""1"",""32613""
","
","
","""event"",""trial"",""time""
""fullscreenenter"",""1"",""32613""
","
",,,,,,,,,,,,"[{""stimulus"":""run_exp/static/images/task_images/dig.jpg"",""time"":0.5},{""stimulus"":""run_exp/static/images/task_images/land.jpg"",""time"":669.3999999985099},{""stimulus"":""run_exp/static/images/task_images/dig.jpg"",""time"":1336.7999999970198}]",[],11,,,,,,,,,,,,,,
harvest,213,786631,0.0-62.0-4.0,"""event"",""trial"",""time""
""fullscreenenter"",""1"",""32613""
","
","
","""event"",""trial"",""time""
""fullscreenenter"",""1"",""32613""
","
",,null,run_exp/static/images/task_images/gems/96.jpg,null,,,,,,,16,,,11,,,,,96,0.168770732,0.166666667,,,,,,,
decision,214,787546,0.0-62.0-5.0,"""event"",""trial"",""time""
""fullscreenenter"",""1"",""32613""
","
","
","""event"",""trial"",""time""
""fullscreenenter"",""1"",""32613""
","
",,911.3,run_exp/static/images/task_images/land.jpg,65,,,,,,,16,,,11,,,,,,,,311053,1,0,TRUE,,,
end_of_block_continue,215,796382,0.0-63.0-0.0,"""event"",""trial"",""time""
""fullscreenenter"",""1"",""32613""
","
","
","""event"",""trial"",""time""
""fullscreenenter"",""1"",""32613""
","
",,8828.1,run_exp/static/audio/clip_32_block_end.m4a,,,,,,,0,,,,,,,,,,,,,,,,,,
alien_welcome,216,801392,0.0-64.0-0.0,"""event"",""trial"",""time""
""fullscreenenter"",""1"",""32613""
","
","
","""event"",""trial"",""time""
""fullscreenenter"",""1"",""32613""
","
",,null,run_exp/static/images/task_images/aliens/old_aliens/planet/alien_planet-12.jpg,null,,,,,,,,,,,,,12,"61,37,21,6,16,36,34,28,41,25,63,12,49,62,44,24,15,4,27,8,70,33,40,71,9,1,69,65,10,52,75,30,42,68,13,58,39,56,79,54,57",,,,,,,,,,
land,217,801895,0.0-64.0-1.0,"""event"",""trial"",""time""
""fullscreenenter"",""1"",""32613""
","
","
","""event"",""trial"",""time""
""fullscreenenter"",""1"",""32613""
","
",,null,run_exp/static/images/task_images/land.jpg,null,,,,,,,109,,,12,,,,,,,,,,,,,,
dig,218,803901,0.0-64.0-2.0,"""event"",""trial"",""time""
""fullscreenenter"",""1"",""32613""
","
","
","""event"",""trial"",""time""
""fullscreenenter"",""1"",""32613""
","
",,,,,,,,,,,,"[{""stimulus"":""run_exp/static/images/task_images/dig.jpg"",""time"":0.6000000014901161},{""stimulus"":""run_exp/static/images/task_images/land.jpg"",""time"":669.2000000029802},{""stimulus"":""run_exp/static/images/task_images/dig.jpg"",""time"":1336.3999999985099}]",[],12,,,,,,,,,,,,,,
harvest,219,804904,0.0-64.0-3.0,"""event"",""trial"",""time""
""fullscreenenter"",""1"",""32613""
","
","
","""event"",""trial"",""time""
""fullscreenenter"",""1"",""32613""
","
",,null,run_exp/static/images/task_images/gems/109.jpg,null,,,,,,,17,,,12,,,,,109,0.158370578,0.155963303,,,,,,,
decision,220,805086,0.0-64.0-4.0,"""event"",""trial"",""time""
""fullscreenenter"",""1"",""32613""
","
","
","""event"",""trial"",""time""
""fullscreenenter"",""1"",""32613""
","
",,178.2,run_exp/static/images/task_images/land.jpg,65,,,,,,,17,,,12,,,,,,,,8697,2,0,FALSE,,,
dig,221,807914,0.0-65.0-0.0,"""event"",""trial"",""time""
""fullscreenenter"",""1"",""32613""
","
","
","""event"",""trial"",""time""
""fullscreenenter"",""1"",""32613""
","
",,,,,,,,,,,,"[{""stimulus"":""run_exp/static/images/task_images/dig.jpg"",""time"":0.3999999985098839},{""stimulus"":""run_exp/static/images/task_images/land.jpg"",""time"":942.1000000014901},{""stimulus"":""run_exp/static/images/task_images/dig.jpg"",""time"":1882.6000000014901}]",[],12,,,,,,,,,,,,,,
harvest,222,808916,0.0-65.0-1.0,"""event"",""trial"",""time""
""fullscreenenter"",""1"",""32613""
","
","
","""event"",""trial"",""time""
""fullscreenenter"",""1"",""32613""
","
",,null,run_exp/static/images/task_images/gems/17.jpg,null,,,,,,,5,,,12,,,,,17,0.268649782,0.294117647,,,,,,,
decision,223,809082,0.0-65.0-2.0,"""event"",""trial"",""time""
""fullscreenenter"",""1"",""32613""
","
","
","""event"",""trial"",""time""
""fullscreenenter"",""1"",""32613""
","
",,161.5,run_exp/static/images/task_images/land.jpg,65,,,,,,,5,,,12,,,,,,,,12693,2,1,FALSE,,,
dig,224,811928,0.0-66.0-0.0,"""event"",""trial"",""time""
""fullscreenenter"",""1"",""32613""
","
","
","""event"",""trial"",""time""
""fullscreenenter"",""1"",""32613""
","
",,,,,,,,,,,,"[{""stimulus"":""run_exp/static/images/task_images/dig.jpg"",""time"":0.3999999985098839},{""stimulus"":""run_exp/static/images/task_images/land.jpg"",""time"":948.6999999955297},{""stimulus"":""run_exp/static/images/task_images/dig.jpg"",""time"":1894.0999999940395}]",[],12,,,,,,,,,,,,,,
harvest,225,812933,0.0-66.0-1.0,"""event"",""trial"",""time""
""fullscreenenter"",""1"",""32613""
","
","
","""event"",""trial"",""time""
""fullscreenenter"",""1"",""32613""
","
",,null,run_exp/static/images/task_images/gems/5.jpg,null,,,,,,,1,,,12,,,,,5,0.271109542,0.2,,,,,,,
decision,226,812978,0.0-66.0-2.0,"""event"",""trial"",""time""
""fullscreenenter"",""1"",""32613""
","
","
","""event"",""trial"",""time""
""fullscreenenter"",""1"",""32613""
","
",,41,run_exp/static/images/task_images/land.jpg,65,,,,,,,1,,,12,,,,,,,,16589,2,2,FALSE,,,
dig,227,815942,0.0-67.0-0.0,"""event"",""trial"",""time""
""fullscreenenter"",""1"",""32613""
","
","
","""event"",""trial"",""time""
""fullscreenenter"",""1"",""32613""
","
",,,,,,,,,,,,"[{""stimulus"":""run_exp/static/images/task_images/dig.jpg"",""time"":0.30000000447034836},{""stimulus"":""run_exp/static/images/task_images/land.jpg"",""time"":988.2000000029802},{""stimulus"":""run_exp/static/images/task_images/dig.jpg"",""time"":1973.3000000044703}]",[],12,,,,,,,,,,,,,,
harvest,228,816946,0.0-67.0-1.0,"""event"",""trial"",""time""
""fullscreenenter"",""1"",""32613""
","
","
","""event"",""trial"",""time""
""fullscreenenter"",""1"",""32613""
","
",,null,run_exp/static/images/task_images/gems/1.jpg,null,,,,,,,0,,,12,,,,,1,0.204607193,0,,,,,,,
decision,229,817312,0.0-67.0-2.0,"""event"",""trial"",""time""
""fullscreenenter"",""1"",""32613""
","
","
","""event"",""trial"",""time""
""fullscreenenter"",""1"",""32613""
","
",,361.5,run_exp/static/images/task_images/land.jpg,65,,,,,,,0,,,12,,,,,,,,20923,2,3,FALSE,,,
dig,230,819958,0.0-68.0-0.0,"""event"",""trial"",""time""
""fullscreenenter"",""1"",""32613""
","
","
","""event"",""trial"",""time""
""fullscreenenter"",""1"",""32613""
","
",,,,,,,,,,,,"[{""stimulus"":""run_exp/static/images/task_images/dig.jpg"",""time"":0.29999999701976776},{""stimulus"":""run_exp/static/images/task_images/land.jpg"",""time"":881},{""stimulus"":""run_exp/static/images/task_images/dig.jpg"",""time"":1760.6999999955297}]",[],12,,,,,,,,,,,,,,
harvest,231,820961,0.0-68.0-1.0,"""event"",""trial"",""time""
""fullscreenenter"",""1"",""32613""
","
","
","""event"",""trial"",""time""
""fullscreenenter"",""1"",""32613""
","
",,null,run_exp/static/images/task_images/gems/0.jpg,null,,,,,,,0,,,12,,,,,0,0.125613236,NaN,,,,,,,
decision,232,821255,0.0-68.0-2.0,"""event"",""trial"",""time""
""fullscreenenter"",""1"",""32613""
","
","
","""event"",""trial"",""time""
""fullscreenenter"",""1"",""32613""
","
",,289.9,run_exp/static/images/task_images/land.jpg,76,,,,,,,0,,,12,,,,,,,,24867,2,4,TRUE,,,
travel,233,830968,0.0-69.0-0.0,"""event"",""trial"",""time""
""fullscreenenter"",""1"",""32613""
","
","
","""event"",""trial"",""time""
""fullscreenenter"",""1"",""32613""
","
",,,,,,,,,,,,"[{""stimulus"":""run_exp/static/images/task_images/rocket-01.jpg"",""time"":0.4000000059604645},{""stimulus"":""run_exp/static/images/task_images/rocket-02.jpg"",""time"":1080.4000000059605},{""stimulus"":""run_exp/static/images/task_images/rocket-03.jpg"",""time"":2158.2000000029802},{""stimulus"":""run_exp/static/images/task_images/rocket-04.jpg"",""time"":3236.3000000044703},{""stimulus"":""run_exp/static/images/task_images/rocket-05.jpg"",""time"":4313.60000000149},{""stimulus"":""run_exp/static/images/task_images/rocket-06.jpg"",""time"":5392.20000000298},{""stimulus"":""run_exp/static/images/task_images/rocket-07.jpg"",""time"":6470.4000000059605},{""stimulus"":""run_exp/static/images/task_images/rocket-08.jpg"",""time"":7547.9000000059605},{""stimulus"":""run_exp/static/images/task_images/rocket-09.jpg"",""time"":8626.40000000596}]",[],12,,,,,,,,,,,,,,
alien_welcome,234,835972,0.0-69.0-1.0,"""event"",""trial"",""time""
""fullscreenenter"",""1"",""32613""
","
","
","""event"",""trial"",""time""
""fullscreenenter"",""1"",""32613""
","
",,null,run_exp/static/images/task_images/aliens/old_aliens/planet/alien_planet-49.jpg,null,,,,,,,,,,,,,49,"61,37,21,6,16,36,34,28,41,25,63,12,49,62,44,24,15,4,27,8,70,33,40,71,9,1,69,65,10,52,75,30,42,68,13,58,39,56,79,54,57",,,,,,,,,,
land,235,836476,0.0-69.0-2.0,"""event"",""trial"",""time""
""fullscreenenter"",""1"",""32613""
","
","
","""event"",""trial"",""time""
""fullscreenenter"",""1"",""32613""
","
",,null,run_exp/static/images/task_images/land.jpg,null,,,,,,,105,,,13,,,,,,,,,,,,,,
dig,236,838482,0.0-69.0-3.0,"""event"",""trial"",""time""
""fullscreenenter"",""1"",""32613""
","
","
","""event"",""trial"",""time""
""fullscreenenter"",""1"",""32613""
","
",,,,,,,,,,,,"[{""stimulus"":""run_exp/static/images/task_images/dig.jpg"",""time"":0.5},{""stimulus"":""run_exp/static/images/task_images/land.jpg"",""time"":669.7000000029802},{""stimulus"":""run_exp/static/images/task_images/dig.jpg"",""time"":1336.5}]",[],13,,,,,,,,,,,,,,
harvest,237,839484,0.0-69.0-4.0,"""event"",""trial"",""time""
""fullscreenenter"",""1"",""32613""
","
","
","""event"",""trial"",""time""
""fullscreenenter"",""1"",""32613""
","
",,null,run_exp/static/images/task_images/gems/105.jpg,null,,,,,,,16,,,13,,,,,105,0.152493947,0.152380952,,,,,,,
decision,238,839534,0.0-69.0-5.0,"""event"",""trial"",""time""
""fullscreenenter"",""1"",""32613""
","
","
","""event"",""trial"",""time""
""fullscreenenter"",""1"",""32613""
","
",,46.09999999,run_exp/static/images/task_images/land.jpg,65,,,,,,,16,,,13,,,,,,,,43145,2,0,FALSE,,,
dig,239,842489,0.0-70.0-0.0,"""event"",""trial"",""time""
""fullscreenenter"",""1"",""32613""
","
","
","""event"",""trial"",""time""
""fullscreenenter"",""1"",""32613""
","
",,,,,,,,,,,,"[{""stimulus"":""run_exp/static/images/task_images/dig.jpg"",""time"":0.10000000149011612},{""stimulus"":""run_exp/static/images/task_images/land.jpg"",""time"":987},{""stimulus"":""run_exp/static/images/task_images/dig.jpg"",""time"":1970.5}]",[],13,,,,,,,,,,,,,,
harvest,240,843494,0.0-70.0-1.0,"""event"",""trial"",""time""
""fullscreenenter"",""1"",""32613""
","
","
","""event"",""trial"",""time""
""fullscreenenter"",""1"",""32613""
","
",,null,run_exp/static/images/task_images/gems/16.jpg,null,,,,,,,5,,,13,,,,,16,0.313047922,0.3125,,,,,,,
decision,241,844259,0.0-70.0-2.0,"""event"",""trial"",""time""
""fullscreenenter"",""1"",""32613""
","
","
","""event"",""trial"",""time""
""fullscreenenter"",""1"",""32613""
","
",,761.2,run_exp/static/images/task_images/land.jpg,76,,,,,,,5,,,13,,,,,,,,47870,2,1,TRUE,,,
travel,242,853497,0.0-71.0-0.0,"""event"",""trial"",""time""
""fullscreenenter"",""1"",""32613""
","
","
","""event"",""trial"",""time""
""fullscreenenter"",""1"",""32613""
","
