trial_type,trial_index,time_elapsed,internal_node_id,interactions,blur_events,focus_events,fullscreenenter_events,fullscreenexit_events,success,rt,stimulus,key_press,prompt,subject_id,participant_id,age,gender,button_pressed,next_reward,animation_sequence,responses,planet,curr_prac_trial,n_prac_rounds,alien,aliens,reward_received,decay_rate_actual,decay_rate_exp,time_in_block,block_num,prt,last_trial_on_planet,button_html,bonus,num_failures
pavlovia,0,7,0.0-0.0,"""event"",""trial"",""time""
""fullscreenenter"",""1"",""13642""
","
","
","""event"",""trial"",""time""
""fullscreenenter"",""1"",""13642""
","
",,,,,,,,,,,,,,,,,,,,,,,,,,,,
fullscreen,1,14614,0.0-1.0,"""event"",""trial"",""time""
""fullscreenenter"",""1"",""13642""
""blur"",""2"",""19769""
","""event"",""trial"",""time""
""blur"",""2"",""19769""
","
","""event"",""trial"",""time""
""fullscreenenter"",""1"",""13642""
","
",TRUE,,,,,,,,,,,,,,,,,,,,,,,,,,,
instruc_welcome,2,24396,0.0-2.0,"""event"",""trial"",""time""
""fullscreenenter"",""1"",""13642""
""blur"",""2"",""19769""
","""event"",""trial"",""time""
""blur"",""2"",""19769""
","
","""event"",""trial"",""time""
""fullscreenenter"",""1"",""13642""
","
",,null,run_exp/static/audio/clip_1_welcome.m4a,null,"<p>Howdy! In this experiment, you’ll be an explorer traveling through space to collect space treasure.</p><p>Your mission is to collect as much treasure as possible.</p><br><br><p><img src='run_exp/static/images/task_images/opening_img-01.jpg' height='300' width='auto'></p>",12527,4772,19.21,Male,,,,,,,,,,,,,,,,,,,
audio-keyboard-response,3,40976,0.0-3.0,"""event"",""trial"",""time""
""fullscreenenter"",""1"",""13642""
""blur"",""2"",""19769""
""focus"",""4"",""45412""
","""event"",""trial"",""time""
""blur"",""2"",""19769""
","""event"",""trial"",""time""
""focus"",""4"",""45412""
","""event"",""trial"",""time""
""fullscreenenter"",""1"",""13642""
","
",,null,run_exp/static/audio/clip_2_move.m4a,null,,,,,,,,,,,,,,,,,,,,,,,,
welcome_dec,4,45515,0.0-4.0,"""event"",""trial"",""time""
""fullscreenenter"",""1"",""13642""
""blur"",""2"",""19769""
""focus"",""4"",""45412""
","""event"",""trial"",""time""
""blur"",""2"",""19769""
","""event"",""trial"",""time""
""focus"",""4"",""45412""
","""event"",""trial"",""time""
""fullscreenenter"",""1"",""13642""
","
",,4536.6,"<p>Howdy! In this experiment, you’ll be an explorer traveling through space to collect space treasure.</p><p>Your mission is to collect as much treasure as possible.</p><br><br><p><img src='run_exp/static/images/task_images/opening_img-01.jpg' height='300' width='auto'></p>",,,,,,,0,,,,,,,,,,,,,,,,,,
html-keyboard-response,5,49744,0.0-5.0,"""event"",""trial"",""time""
""fullscreenenter"",""1"",""13642""
""blur"",""2"",""19769""
""focus"",""4"",""45412""
","""event"",""trial"",""time""
""blur"",""2"",""19769""
","""event"",""trial"",""time""
""focus"",""4"",""45412""
","""event"",""trial"",""time""
""fullscreenenter"",""1"",""13642""
","
",,4226.6,"<p>Howdy! In this experiment, you’ll be an explorer traveling through space to collect space treasure.</p><p>Your mission is to collect as much treasure as possible.</p><br><br><p><img src='run_exp/static/images/task_images/opening_img-01.jpg' height='300' width='auto'></p><button class=""jspsych-html-btn-chosen""><img src=""run_exp/static/images/task_images/planet-01.jpg"" height=""50""></button><button class=""jspsych-html-btn-unchosen""><img src=""run_exp/static/images/task_images/planet-02.jpg"" height=""50""></button><p><b>[press the space bar to lock in your answer]<b><br></p>",32,,,,,,,,,,,,,,,,,,,,,,,,
instruc_welcome,6,59496,0.0-6.0-0.0,"""event"",""trial"",""time""
""fullscreenenter"",""1"",""13642""
""blur"",""2"",""19769""
""focus"",""4"",""45412""
","""event"",""trial"",""time""
""blur"",""2"",""19769""
","""event"",""trial"",""time""
""focus"",""4"",""45412""
","""event"",""trial"",""time""
""fullscreenenter"",""1"",""13642""
","
",,null,run_exp/static/audio/clip_1_welcome.m4a,null,"<p>Howdy! In this experiment, you’ll be an explorer traveling through space to collect space treasure.</p><p>Your mission is to collect as much treasure as possible.</p><br><br><p><img src='run_exp/static/images/task_images/opening_img-01.jpg' height='300' width='auto'></p>",12527,4772,19.21,Male,,,,,,,,,,,,,,,,,,,
audio-keyboard-response,7,76077,0.0-6.0-1.0,"""event"",""trial"",""time""
""fullscreenenter"",""1"",""13642""
""blur"",""2"",""19769""
""focus"",""4"",""45412""
","""event"",""trial"",""time""
""blur"",""2"",""19769""
","""event"",""trial"",""time""
""focus"",""4"",""45412""
","""event"",""trial"",""time""
""fullscreenenter"",""1"",""13642""
","
",,null,run_exp/static/audio/clip_2_move.m4a,null,,,,,,,,,,,,,,,,,,,,,,,,
welcome_dec,8,76835,0.0-6.0-2.0,"""event"",""trial"",""time""
""fullscreenenter"",""1"",""13642""
""blur"",""2"",""19769""
""focus"",""4"",""45412""
","""event"",""trial"",""time""
""blur"",""2"",""19769""
","""event"",""trial"",""time""
""focus"",""4"",""45412""
","""event"",""trial"",""time""
""fullscreenenter"",""1"",""13642""
","
",,756.8,"<p>Howdy! In this experiment, you’ll be an explorer traveling through space to collect space treasure.</p><p>Your mission is to collect as much treasure as possible.</p><br><br><p><img src='run_exp/static/images/task_images/opening_img-01.jpg' height='300' width='auto'></p>",,,,,,,1,,,,,,,,,,,,,,,,,,
html-keyboard-response,9,77024,0.0-6.0-3.0,"""event"",""trial"",""time""
""fullscreenenter"",""1"",""13642""
""blur"",""2"",""19769""
""focus"",""4"",""45412""
","""event"",""trial"",""time""
""blur"",""2"",""19769""
","""event"",""trial"",""time""
""focus"",""4"",""45412""
","""event"",""trial"",""time""
""fullscreenenter"",""1"",""13642""
","
",,188.3,"<p>Howdy! In this experiment, you’ll be an explorer traveling through space to collect space treasure.</p><p>Your mission is to collect as much treasure as possible.</p><br><br><p><img src='run_exp/static/images/task_images/opening_img-01.jpg' height='300' width='auto'></p><button class=""jspsych-html-btn-unchosen""><img src=""run_exp/static/images/task_images/planet-01.jpg"" height=""50""></button><button class=""jspsych-html-btn-chosen""><img src=""run_exp/static/images/task_images/planet-02.jpg"" height=""50""></button><p><b>[press the space bar to lock in your answer]<b><br></p>",32,,,,,,,,,,,,,,,,,,,,,,,,
instruc_goal,10,87097,0.0-7.0-0.0,"""event"",""trial"",""time""
""fullscreenenter"",""1"",""13642""
""blur"",""2"",""19769""
""focus"",""4"",""45412""
","""event"",""trial"",""time""
""blur"",""2"",""19769""
","""event"",""trial"",""time""
""focus"",""4"",""45412""
","""event"",""trial"",""time""
""fullscreenenter"",""1"",""13642""
","
",,null,run_exp/static/audio/clip_3_goal.m4a,null,"<p> As a space explorer, you’ll visit different planets to dig for space treasure, these pink gems.</p> <p> The more treasure you dig up, the more bonus money you’ll win! </p><br><br><p><img src='run_exp/static/images/task_images/pink_gem.jpg' height='300' width='auto'></p>",,,,,,,,,,,,,,,,,,,,,,,
instruc_goal,11,88472,0.0-7.0-1.0,"""event"",""trial"",""time""
""fullscreenenter"",""1"",""13642""
""blur"",""2"",""19769""
""focus"",""4"",""45412""
","""event"",""trial"",""time""
""blur"",""2"",""19769""
","""event"",""trial"",""time""
""focus"",""4"",""45412""
","""event"",""trial"",""time""
""fullscreenenter"",""1"",""13642""
","
",,1372.4,"<p> As a space explorer, you’ll visit different planets to dig for space treasure, these pink gems.</p> <p> The more treasure you dig up, the more bonus money you’ll win! </p><br><br><p><img src='run_exp/static/images/task_images/pink_gem.jpg' height='300' width='auto'></p>",,,,,,,1,,,,,,,,,,,,,,,,,,
html-keyboard-response,12,90031,0.0-7.0-2.0,"""event"",""trial"",""time""
""fullscreenenter"",""1"",""13642""
""blur"",""2"",""19769""
""focus"",""4"",""45412""
","""event"",""trial"",""time""
""blur"",""2"",""19769""
","""event"",""trial"",""time""
""focus"",""4"",""45412""
","""event"",""trial"",""time""
""fullscreenenter"",""1"",""13642""
","
",,1558.1,"<p> As a space explorer, you’ll visit different planets to dig for space treasure, these pink gems.</p> <p> The more treasure you dig up, the more bonus money you’ll win! </p><br><br><p><img src='run_exp/static/images/task_images/pink_gem.jpg' height='300' width='auto'></p><button class=""jspsych-html-btn-unchosen""><img src=""run_exp/static/images/task_images/planet-01.jpg"" height=""50""></button><button class=""jspsych-html-btn-chosen""><img src=""run_exp/static/images/task_images/planet-02.jpg"" height=""50""></button><p><b>[press the space bar to lock in your answer]<b><br></p>",32,,,,,,,,,,,,,,,,,,,,,,,,
instruc_dig,13,106037,0.0-8.0-0.0,"""event"",""trial"",""time""
""fullscreenenter"",""1"",""13642""
""blur"",""2"",""19769""
""focus"",""4"",""45412""
","""event"",""trial"",""time""
""blur"",""2"",""19769""
","""event"",""trial"",""time""
""focus"",""4"",""45412""
","""event"",""trial"",""time""
""fullscreenenter"",""1"",""13642""
","
",,null,run_exp/static/audio/clip_4_dig.m4a,null,,,,,,,100,,,,,,,,,,,,,,,,,
instruc_dig_try,14,107104,0.0-8.0-1.0,"""event"",""trial"",""time""
""fullscreenenter"",""1"",""13642""
""blur"",""2"",""19769""
""focus"",""4"",""45412""
","""event"",""trial"",""time""
""blur"",""2"",""19769""
","""event"",""trial"",""time""
""focus"",""4"",""45412""
","""event"",""trial"",""time""
""fullscreenenter"",""1"",""13642""
","
",,1065.4,"<p> When you’ve arrived at a new planet, you will dig once. </p> <p>Then, you get to decide if you want to stay on the planet and dig again or travel to a new planet and dig there.</p> <p> To stay and dig, press the letter <strong>‘A’</strong> on your keyboard. Try pressing it now! </p><p><img src='run_exp/static/images/task_images/land.jpg'  height='700' width='auto'></p>",65,"<p> When you’ve arrived at a new planet, you will dig once. </p> <p>Then, you get to decide if you want to stay on the planet and dig again or travel to a new planet and dig there.</p> <p> To stay and dig, press the letter <strong>‘A’</strong> on your keyboard. Try pressing it now! </p><p><img src='run_exp/static/images/task_images/land.jpg'  height='700' width='auto'></p>",,,,,,100,,,,,,,,,,,,,,,,,
dig_prac,15,109111,0.0-8.0-2.0,"""event"",""trial"",""time""
""fullscreenenter"",""1"",""13642""
""blur"",""2"",""19769""
""focus"",""4"",""45412""
","""event"",""trial"",""time""
""blur"",""2"",""19769""
","""event"",""trial"",""time""
""focus"",""4"",""45412""
","""event"",""trial"",""time""
""fullscreenenter"",""1"",""13642""
","
",,,,,,,,,,,,"[{""stimulus"":""run_exp/static/images/task_images/dig.jpg"",""time"":0.30000001192092896},{""stimulus"":""run_exp/static/images/task_images/land.jpg"",""time"":680.6000000238419},{""stimulus"":""run_exp/static/images/task_images/dig.jpg"",""time"":1348.2000000476837}]",[],,,,,,,,,,,,,,,
instruc_travel,16,145358,0.0-8.0-3.0,"""event"",""trial"",""time""
""fullscreenenter"",""1"",""13642""
""blur"",""2"",""19769""
""focus"",""4"",""45412""
","""event"",""trial"",""time""
""blur"",""2"",""19769""
","""event"",""trial"",""time""
""focus"",""4"",""45412""
","""event"",""trial"",""time""
""fullscreenenter"",""1"",""13642""
","
",,null,run_exp/static/audio/clip_5_travel.m4a,null,"<p>Every time you dig up gems, there are less gems on the planet, so the more you dig on a planet the fewer gems you’ll get with each dig.</p><p>When gems are running low, you may want to travel to a new planet. </p> <p>  Planets are very far apart in this galaxy, so it will take some time to travel between them. </p> <br><p>There are lots and lots of planets for you to visit, so you won’t be able to return to any planets you’ve seen before. </p><br><p>To leave this planet and travel to a new one, press the letter <strong>‘L’</strong> on your keyboard. Try pressing it now! </p><p><img src='run_exp/static/images/task_images/rocket-01.jpg'  height='600' width='auto'></p>",,,,,,,,,,,,,,,,,,,,,,,
instruc_travel_try,17,145713,0.0-8.0-4.0,"""event"",""trial"",""time""
""fullscreenenter"",""1"",""13642""
""blur"",""2"",""19769""
""focus"",""4"",""45412""
","""event"",""trial"",""time""
""blur"",""2"",""19769""
","""event"",""trial"",""time""
""focus"",""4"",""45412""
","""event"",""trial"",""time""
""fullscreenenter"",""1"",""13642""
","
",,351.6,"<p>Every time you dig up gems, there are less gems on the planet, so the more you dig on a planet the fewer gems you’ll get with each dig.</p><p>When gems are running low, you may want to travel to a new planet. </p> <p>  Planets are very far apart in this galaxy, so it will take some time to travel between them. </p> <br><p>There are lots and lots of planets for you to visit, so you won’t be able to return to any planets you’ve seen before. </p><br><p>To leave this planet and travel to a new one, press the letter <strong>‘L’</strong> on your keyboard. Try pressing it now! </p><p><img src='run_exp/static/images/task_images/rocket-01.jpg'  height='600' width='auto'></p>",76,"<p>Every time you dig up gems, there are less gems on the planet, so the more you dig on a planet the fewer gems you’ll get with each dig.</p><p>When gems are running low, you may want to travel to a new planet. </p> <p>  Planets are very far apart in this galaxy, so it will take some time to travel between them. </p> <br><p>There are lots and lots of planets for you to visit, so you won’t be able to return to any planets you’ve seen before. </p><br><p>To leave this planet and travel to a new one, press the letter <strong>‘L’</strong> on your keyboard. Try pressing it now! </p><p><img src='run_exp/static/images/task_images/rocket-01.jpg'  height='600' width='auto'></p>",,,,,,,,,,,,,,,,,,,,,,,
travel_prac,18,155725,0.0-8.0-5.0,"""event"",""trial"",""time""
""fullscreenenter"",""1"",""13642""
""blur"",""2"",""19769""
""focus"",""4"",""45412""
","""event"",""trial"",""time""
""blur"",""2"",""19769""
","""event"",""trial"",""time""
""focus"",""4"",""45412""
","""event"",""trial"",""time""
""fullscreenenter"",""1"",""13642""
","
",,,,,,,,,,,,"[{""stimulus"":""run_exp/static/images/task_images/rocket-01.jpg"",""time"":0.19999998807907104},{""stimulus"":""run_exp/static/images/task_images/rocket-02.jpg"",""time"":1111.8999999761581},{""stimulus"":""run_exp/static/images/task_images/rocket-03.jpg"",""time"":2223.800000011921},{""stimulus"":""run_exp/static/images/task_images/rocket-04.jpg"",""time"":3340.399999976158},{""stimulus"":""run_exp/static/images/task_images/rocket-05.jpg"",""time"":4458.599999964237},{""stimulus"":""run_exp/static/images/task_images/rocket-06.jpg"",""time"":5557.899999976158},{""stimulus"":""run_exp/static/images/task_images/rocket-07.jpg"",""time"":6666.599999964237},{""stimulus"":""run_exp/static/images/task_images/rocket-08.jpg"",""time"":7778.099999964237},{""stimulus"":""run_exp/static/images/task_images/rocket-09.jpg"",""time"":8902.399999976158}]",[],0,,,,,,,,,,,,,,
instruc_alien_greet,19,182907,0.0-8.0-6.0,"""event"",""trial"",""time""
""fullscreenenter"",""1"",""13642""
""blur"",""2"",""19769""
""focus"",""4"",""45412""
","""event"",""trial"",""time""
""blur"",""2"",""19769""
","""event"",""trial"",""time""
""focus"",""4"",""45412""
","""event"",""trial"",""time""
""fullscreenenter"",""1"",""13642""
","
",,null,run_exp/static/audio/clip_6_alien.m4a,null,"<p>When you arrive at a new planet, the alien who owns the treasure mine on that planet will greet you!</p><p>The better an alien takes care of their mine the easier it is to dig for gems. Some aliens take better care of their mine than others. So, you won’t get exactly the same amount of gems on each planet.</p><p>What the alien looks like does not tell you anything about how many gems there are on the planet.</p><br><p><img src=""run_exp/static/images/task_images/aliens/instructions_aliens/planet/alien_planet-1.jpg""  height=""600"" width=""auto""></p>",,,,,,,,,,,,,,,,,,,,,,,
instruc_alien_greet,20,186035,0.0-8.0-7.0,"""event"",""trial"",""time""
""fullscreenenter"",""1"",""13642""
""blur"",""2"",""19769""
""focus"",""4"",""45412""
","""event"",""trial"",""time""
""blur"",""2"",""19769""
","""event"",""trial"",""time""
""focus"",""4"",""45412""
","""event"",""trial"",""time""
""fullscreenenter"",""1"",""13642""
","
",,3126.2,"<p>When you arrive at a new planet, the alien who owns the treasure mine on that planet will greet you!</p><p>The better an alien takes care of their mine the easier it is to dig for gems. Some aliens take better care of their mine than others. So, you won’t get exactly the same amount of gems on each planet.</p><p>What the alien looks like does not tell you anything about how many gems there are on the planet.</p><br><p><img src=""run_exp/static/images/task_images/aliens/instructions_aliens/planet/alien_planet-1.jpg""  height=""600"" width=""auto""></p>",,,,,,,1,,,,,,,,,,,,,,,,,,
html-keyboard-response,21,186682,0.0-8.0-8.0,"""event"",""trial"",""time""
""fullscreenenter"",""1"",""13642""
""blur"",""2"",""19769""
""focus"",""4"",""45412""
","""event"",""trial"",""time""
""blur"",""2"",""19769""
","""event"",""trial"",""time""
""focus"",""4"",""45412""
","""event"",""trial"",""time""
""fullscreenenter"",""1"",""13642""
","
",,645.5,"<p>When you arrive at a new planet, the alien who owns the treasure mine on that planet will greet you!</p><p>The better an alien takes care of their mine the easier it is to dig for gems. Some aliens take better care of their mine than others. So, you won’t get exactly the same amount of gems on each planet.</p><p>What the alien looks like does not tell you anything about how many gems there are on the planet.</p><br><p><img src=""run_exp/static/images/task_images/aliens/instructions_aliens/planet/alien_planet-1.jpg""  height=""600"" width=""auto""></p><button class=""jspsych-html-btn-unchosen""><img src=""run_exp/static/images/task_images/planet-01.jpg"" height=""50""></button><button class=""jspsych-html-btn-chosen""><img src=""run_exp/static/images/task_images/planet-02.jpg"" height=""50""></button><p><b>[press the space bar to lock in your answer]<b><br></p>",32,,,,,,,,,,,,,,,,,,,,,,,,
time_out,22,197768,0.0-9.0-0.0,"""event"",""trial"",""time""
""fullscreenenter"",""1"",""13642""
""blur"",""2"",""19769""
""focus"",""4"",""45412""
","""event"",""trial"",""time""
""blur"",""2"",""19769""
","""event"",""trial"",""time""
""focus"",""4"",""45412""
","""event"",""trial"",""time""
""fullscreenenter"",""1"",""13642""
","
",,null,run_exp/static/audio/clip_7_timeout.m4a,null,"<p>If you don't make your choice fast enough, you’ll have to wait a few seconds before you can make another one.</p><p>You can’t dig for more gems or travel to new planets. You just have to sit and wait.</p><br><p><img src='run_exp/static/images/task_images/time_out.jpg'  height='600' width='auto'></p>",,,,,,,,,,,,,,,,,,,,,,,
time_out,23,198848,0.0-9.0-1.0,"""event"",""trial"",""time""
""fullscreenenter"",""1"",""13642""
""blur"",""2"",""19769""
""focus"",""4"",""45412""
","""event"",""trial"",""time""
""blur"",""2"",""19769""
","""event"",""trial"",""time""
""focus"",""4"",""45412""
","""event"",""trial"",""time""
""fullscreenenter"",""1"",""13642""
","
",,1078.9,"<p>If you don't make your choice fast enough, you’ll have to wait a few seconds before you can make another one.</p><p>You can’t dig for more gems or travel to new planets. You just have to sit and wait.</p><br><p><img src='run_exp/static/images/task_images/time_out.jpg'  height='600' width='auto'></p>",,,,,,,1,,,,,,,,,,,,,,,,,,
html-keyboard-response,24,199497,0.0-9.0-2.0,"""event"",""trial"",""time""
""fullscreenenter"",""1"",""13642""
""blur"",""2"",""19769""
""focus"",""4"",""45412""
","""event"",""trial"",""time""
""blur"",""2"",""19769""
","""event"",""trial"",""time""
""focus"",""4"",""45412""
","""event"",""trial"",""time""
""fullscreenenter"",""1"",""13642""
","
",,648.5,"<p>If you don't make your choice fast enough, you’ll have to wait a few seconds before you can make another one.</p><p>You can’t dig for more gems or travel to new planets. You just have to sit and wait.</p><br><p><img src='run_exp/static/images/task_images/time_out.jpg'  height='600' width='auto'></p><button class=""jspsych-html-btn-unchosen""><img src=""run_exp/static/images/task_images/planet-01.jpg"" height=""50""></button><button class=""jspsych-html-btn-chosen""><img src=""run_exp/static/images/task_images/planet-02.jpg"" height=""50""></button><p><b>[press the space bar to lock in your answer]<b><br></p>",32,,,,,,,,,,,,,,,,,,,,,,,,
instruc_break,25,215168,0.0-10.0-0.0,"""event"",""trial"",""time""
""fullscreenenter"",""1"",""13642""
""blur"",""2"",""19769""
""focus"",""4"",""45412""
","""event"",""trial"",""time""
""blur"",""2"",""19769""
","""event"",""trial"",""time""
""focus"",""4"",""45412""
","""event"",""trial"",""time""
""fullscreenenter"",""1"",""13642""
","
",,null,run_exp/static/audio/clip_8_break.m4a,null,"<p> After digging and traveling for a while, you’ll be able to take a break at home base. </p><p>The game will last 20 minutes no matter what.</p><p>You will visit home base every 5 minutes, so, you will visit home base three times during the game.</p><br><p><img src='run_exp/static/images/task_images/home_base.jpg' height='600' width='auto'></p>",,,,,,,,,,,,,,,,,,,,,,,
instruc_break,26,216191,0.0-10.0-1.0,"""event"",""trial"",""time""
""fullscreenenter"",""1"",""13642""
""blur"",""2"",""19769""
""focus"",""4"",""45412""
","""event"",""trial"",""time""
""blur"",""2"",""19769""
","""event"",""trial"",""time""
""focus"",""4"",""45412""
","""event"",""trial"",""time""
""fullscreenenter"",""1"",""13642""
","
",,1020.7,"<p> After digging and traveling for a while, you’ll be able to take a break at home base. </p><p>The game will last 20 minutes no matter what.</p><p>You will visit home base every 5 minutes, so, you will visit home base three times during the game.</p><br><p><img src='run_exp/static/images/task_images/home_base.jpg' height='600' width='auto'></p>",,,,,,,1,,,,,,,,,,,,,,,,,,
html-keyboard-response,27,216842,0.0-10.0-2.0,"""event"",""trial"",""time""
""fullscreenenter"",""1"",""13642""
""blur"",""2"",""19769""
""focus"",""4"",""45412""
","""event"",""trial"",""time""
""blur"",""2"",""19769""
","""event"",""trial"",""time""
""focus"",""4"",""45412""
","""event"",""trial"",""time""
""fullscreenenter"",""1"",""13642""
","
",,650.3,"<p> After digging and traveling for a while, you’ll be able to take a break at home base. </p><p>The game will last 20 minutes no matter what.</p><p>You will visit home base every 5 minutes, so, you will visit home base three times during the game.</p><br><p><img src='run_exp/static/images/task_images/home_base.jpg' height='600' width='auto'></p><button class=""jspsych-html-btn-unchosen""><img src=""run_exp/static/images/task_images/planet-01.jpg"" height=""50""></button><button class=""jspsych-html-btn-chosen""><img src=""run_exp/static/images/task_images/planet-02.jpg"" height=""50""></button><p><b>[press the space bar to lock in your answer]<b><br></p>",32,,,,,,,,,,,,,,,,,,,,,,,,
instruc_prac_game,28,226968,0.0-11.0-0.0,"""event"",""trial"",""time""
""fullscreenenter"",""1"",""13642""
""blur"",""2"",""19769""
""focus"",""4"",""45412""
","""event"",""trial"",""time""
""blur"",""2"",""19769""
","""event"",""trial"",""time""
""focus"",""4"",""45412""
","""event"",""trial"",""time""
""fullscreenenter"",""1"",""13642""
","
",,null,run_exp/static/audio/clip_9_practice.m4a,null,"<p> Are you ready to play a practice game? </p> <p>In this practice game, you'll be digging up barrels of gems. But, in the real game, you'll be digging up the gems themselves. </p>",,,,,,,,,,,,,,,,,,,,,,,
html-button-response,29,228715,0.0-11.0-1.0,"""event"",""trial"",""time""
""fullscreenenter"",""1"",""13642""
""blur"",""2"",""19769""
""focus"",""4"",""45412""
","""event"",""trial"",""time""
""blur"",""2"",""19769""
","""event"",""trial"",""time""
""focus"",""4"",""45412""
","""event"",""trial"",""time""
""fullscreenenter"",""1"",""13642""
","
",,1745.4,"<p> Are you ready to play a practice game? </p> <p>In this practice game, you'll be digging up barrels of gems. But, in the real game, you'll be digging up the gems themselves. </p>",,,,,,,0,,,,,,,,,,,,,,,,,,
alien_welcome_prac,30,233723,0.0-12.0-0.0,"""event"",""trial"",""time""
""fullscreenenter"",""1"",""13642""
""blur"",""2"",""19769""
""focus"",""4"",""45412""
","""event"",""trial"",""time""
""blur"",""2"",""19769""
","""event"",""trial"",""time""
""focus"",""4"",""45412""
","""event"",""trial"",""time""
""fullscreenenter"",""1"",""13642""
","
",,null,run_exp/static/images/task_images/aliens/practice_aliens/planet/alien_planet-5.jpg,null,,,,,,,,,,,,,,,,,,,,,,,,
land_prac,31,234230,0.0-12.0-1.0,"""event"",""trial"",""time""
""fullscreenenter"",""1"",""13642""
""blur"",""2"",""19769""
""focus"",""4"",""45412""
","""event"",""trial"",""time""
""blur"",""2"",""19769""
","""event"",""trial"",""time""
""focus"",""4"",""45412""
","""event"",""trial"",""time""
""fullscreenenter"",""1"",""13642""
","
",,null,run_exp/static/images/task_images/land.jpg,null,,,,,,,104,,,0,,,,,,,,,,,,,,
dig_prac,32,236244,0.0-12.0-2.0,"""event"",""trial"",""time""
""fullscreenenter"",""1"",""13642""
""blur"",""2"",""19769""
""focus"",""4"",""45412""
","""event"",""trial"",""time""
""blur"",""2"",""19769""
","""event"",""trial"",""time""
""focus"",""4"",""45412""
","""event"",""trial"",""time""
""fullscreenenter"",""1"",""13642""
","
",,,,,,,,,,,,"[{""stimulus"":""run_exp/static/images/task_images/dig.jpg"",""time"":0.19999998807907104},{""stimulus"":""run_exp/static/images/task_images/land.jpg"",""time"":681.5999999642372},{""stimulus"":""run_exp/static/images/task_images/dig.jpg"",""time"":1335.5}]",[],,,,,,,,,,,,,,,
harvest_prac,33,237253,0.0-12.0-3.0,"""event"",""trial"",""time""
""fullscreenenter"",""1"",""13642""
""blur"",""2"",""19769""
""focus"",""4"",""45412""
","""event"",""trial"",""time""
""blur"",""2"",""19769""
","""event"",""trial"",""time""
""focus"",""4"",""45412""
","""event"",""trial"",""time""
""fullscreenenter"",""1"",""13642""
","
",,null,run_exp/static/images/task_images/barrel_text.jpg,null,,,,,,,,,,,,,,,,,,,,,,,,
decision_prac,34,237746,0.0-12.0-4.0,"""event"",""trial"",""time""
""fullscreenenter"",""1"",""13642""
""blur"",""2"",""19769""
""focus"",""4"",""45412""
","""event"",""trial"",""time""
""blur"",""2"",""19769""
","""event"",""trial"",""time""
""focus"",""4"",""45412""
","""event"",""trial"",""time""
""fullscreenenter"",""1"",""13642""
","
",,491.1,run_exp/static/images/task_images/land.jpg,65,,,,,,,,,,,1,,,,,,,,,,,,,
dig_prac,35,239761,0.0-13.0-0.0,"""event"",""trial"",""time""
""fullscreenenter"",""1"",""13642""
""blur"",""2"",""19769""
""focus"",""4"",""45412""
","""event"",""trial"",""time""
""blur"",""2"",""19769""
","""event"",""trial"",""time""
""focus"",""4"",""45412""
","""event"",""trial"",""time""
""fullscreenenter"",""1"",""13642""
","
",,,,,,,,,,,,"[{""stimulus"":""run_exp/static/images/task_images/dig.jpg"",""time"":0.30000001192092896},{""stimulus"":""run_exp/static/images/task_images/land.jpg"",""time"":680.4000000357628},{""stimulus"":""run_exp/static/images/task_images/dig.jpg"",""time"":1349.199999988079}]",[],,,,,,,,,,,,,,,
harvest_prac,36,240777,0.0-13.0-1.0,"""event"",""trial"",""time""
""fullscreenenter"",""1"",""13642""
""blur"",""2"",""19769""
""focus"",""4"",""45412""
","""event"",""trial"",""time""
""blur"",""2"",""19769""
","""event"",""trial"",""time""
""focus"",""4"",""45412""
","""event"",""trial"",""time""
""fullscreenenter"",""1"",""13642""
","
",,null,run_exp/static/images/task_images/barrel_text.jpg,null,,,,,,,,,,,,,,,,,,,,,,,,
decision_prac,37,241129,0.0-13.0-2.0,"""event"",""trial"",""time""
""fullscreenenter"",""1"",""13642""
""blur"",""2"",""19769""
""focus"",""4"",""45412""
","""event"",""trial"",""time""
""blur"",""2"",""19769""
","""event"",""trial"",""time""
""focus"",""4"",""45412""
","""event"",""trial"",""time""
""fullscreenenter"",""1"",""13642""
","
",,351.8,run_exp/static/images/task_images/land.jpg,65,,,,,,,,,,,2,,,,,,,,,,,,,
dig_prac,38,243139,0.0-14.0-0.0,"""event"",""trial"",""time""
""fullscreenenter"",""1"",""13642""
""blur"",""2"",""19769""
""focus"",""4"",""45412""
","""event"",""trial"",""time""
""blur"",""2"",""19769""
","""event"",""trial"",""time""
""focus"",""4"",""45412""
","""event"",""trial"",""time""
""fullscreenenter"",""1"",""13642""
","
",,,,,,,,,,,,"[{""stimulus"":""run_exp/static/images/task_images/dig.jpg"",""time"":0.10000002384185791},{""stimulus"":""run_exp/static/images/task_images/land.jpg"",""time"":669.1000000238419},{""stimulus"":""run_exp/static/images/task_images/dig.jpg"",""time"":1341.9000000357628}]",[],,,,,,,,,,,,,,,
harvest_prac,39,244151,0.0-14.0-1.0,"""event"",""trial"",""time""
""fullscreenenter"",""1"",""13642""
""blur"",""2"",""19769""
""focus"",""4"",""45412""
","""event"",""trial"",""time""
""blur"",""2"",""19769""
","""event"",""trial"",""time""
""focus"",""4"",""45412""
","""event"",""trial"",""time""
""fullscreenenter"",""1"",""13642""
","
",,null,run_exp/static/images/task_images/barrel_text.jpg,null,,,,,,,,,,,,,,,,,,,,,,,,
decision_prac,40,244290,0.0-14.0-2.0,"""event"",""trial"",""time""
""fullscreenenter"",""1"",""13642""
""blur"",""2"",""19769""
""focus"",""4"",""45412""
","""event"",""trial"",""time""
""blur"",""2"",""19769""
","""event"",""trial"",""time""
""focus"",""4"",""45412""
","""event"",""trial"",""time""
""fullscreenenter"",""1"",""13642""
","
",,138.3,run_exp/static/images/task_images/land.jpg,65,,,,,,,,,,,3,,,,,,,,,,,,,
dig_prac,41,246310,0.0-15.0-0.0,"""event"",""trial"",""time""
""fullscreenenter"",""1"",""13642""
""blur"",""2"",""19769""
""focus"",""4"",""45412""
","""event"",""trial"",""time""
""blur"",""2"",""19769""
","""event"",""trial"",""time""
""focus"",""4"",""45412""
","""event"",""trial"",""time""
""fullscreenenter"",""1"",""13642""
","
",,,,,,,,,,,,"[{""stimulus"":""run_exp/static/images/task_images/dig.jpg"",""time"":0.30000001192092896},{""stimulus"":""run_exp/static/images/task_images/land.jpg"",""time"":681},{""stimulus"":""run_exp/static/images/task_images/dig.jpg"",""time"":1347.300000011921}]",[],,,,,,,,,,,,,,,
harvest_prac,42,247318,0.0-15.0-1.0,"""event"",""trial"",""time""
""fullscreenenter"",""1"",""13642""
""blur"",""2"",""19769""
""focus"",""4"",""45412""
","""event"",""trial"",""time""
""blur"",""2"",""19769""
","""event"",""trial"",""time""
""focus"",""4"",""45412""
","""event"",""trial"",""time""
""fullscreenenter"",""1"",""13642""
","
",,null,run_exp/static/images/task_images/barrel_text.jpg,null,,,,,,,,,,,,,,,,,,,,,,,,
decision_prac,43,247778,0.0-15.0-2.0,"""event"",""trial"",""time""
""fullscreenenter"",""1"",""13642""
""blur"",""2"",""19769""
""focus"",""4"",""45412""
","""event"",""trial"",""time""
""blur"",""2"",""19769""
","""event"",""trial"",""time""
""focus"",""4"",""45412""
","""event"",""trial"",""time""
""fullscreenenter"",""1"",""13642""
","
",,459.5,run_exp/static/images/task_images/land.jpg,65,,,,,,,,,,,4,,,,,,,,,,,,,
dig_prac,44,249791,0.0-16.0-0.0,"""event"",""trial"",""time""
""fullscreenenter"",""1"",""13642""
""blur"",""2"",""19769""
""focus"",""4"",""45412""
","""event"",""trial"",""time""
""blur"",""2"",""19769""
","""event"",""trial"",""time""
""focus"",""4"",""45412""
","""event"",""trial"",""time""
""fullscreenenter"",""1"",""13642""
","
",,,,,,,,,,,,"[{""stimulus"":""run_exp/static/images/task_images/dig.jpg"",""time"":0.20000004768371582},{""stimulus"":""run_exp/static/images/task_images/land.jpg"",""time"":671.7000000476837},{""stimulus"":""run_exp/static/images/task_images/dig.jpg"",""time"":1339.9000000357628}]",[],,,,,,,,,,,,,,,
harvest_prac,45,250804,0.0-16.0-1.0,"""event"",""trial"",""time""
""fullscreenenter"",""1"",""13642""
""blur"",""2"",""19769""
""focus"",""4"",""45412""
","""event"",""trial"",""time""
""blur"",""2"",""19769""
","""event"",""trial"",""time""
""focus"",""4"",""45412""
","""event"",""trial"",""time""
""fullscreenenter"",""1"",""13642""
","
",,null,run_exp/static/images/task_images/barrel_text.jpg,null,,,,,,,,,,,,,,,,,,,,,,,,
decision_prac,46,250826,0.0-16.0-2.0,"""event"",""trial"",""time""
""fullscreenenter"",""1"",""13642""
""blur"",""2"",""19769""
""focus"",""4"",""45412""
","""event"",""trial"",""time""
""blur"",""2"",""19769""
","""event"",""trial"",""time""
""focus"",""4"",""45412""
","""event"",""trial"",""time""
""fullscreenenter"",""1"",""13642""
","
",,21.39999998,run_exp/static/images/task_images/land.jpg,65,,,,,,,,,,,,1,,,,,,,,,,,,
quiz_instruc,47,257744,0.0-17.0-0.0,"""event"",""trial"",""time""
""fullscreenenter"",""1"",""13642""
""blur"",""2"",""19769""
""focus"",""4"",""45412""
""blur"",""48"",""270821""
","""event"",""trial"",""time""
""blur"",""2"",""19769""
""blur"",""48"",""270821""
","""event"",""trial"",""time""
""focus"",""4"",""45412""
","""event"",""trial"",""time""
""fullscreenenter"",""1"",""13642""
","
",,6915.4,run_exp/static/audio/clip_10_quiz.m4a,,,,,,,0,,,,,,,,,,,,,,,,,,
instruc_repeat,48,300499,0.0-17.0-1.0,"""event"",""trial"",""time""
""fullscreenenter"",""1"",""13642""
""blur"",""2"",""19769""
""focus"",""4"",""45412""
""blur"",""48"",""270821""
""focus"",""49"",""303888""
","""event"",""trial"",""time""
""blur"",""2"",""19769""
""blur"",""48"",""270821""
","""event"",""trial"",""time""
""focus"",""4"",""45412""
""focus"",""49"",""303888""
","""event"",""trial"",""time""
""fullscreenenter"",""1"",""13642""
","
",,null,"<p> Are you ready to play a practice game? </p> <p>In this practice game, you'll be digging up barrels of gems. But, in the real game, you'll be digging up the gems themselves. </p>",null,"<p>In this game, your goal is to collect as many gems as you can. That’s how you will win bonus money. </p> <p>The entire game will last 20 minutes no matter how many gems you collect or how many planets you visit. </p><p>To stay on a planet and dig again, press the letter A on your keyboard. To leave for a new planet, press the letter L.</p><p>The more you dig on a planet, the fewer gems you’ll get with each dig which is why you might consider leaving for a new planet. </p><p>When you arrive at a new planet, you’ll be greeted by an alien. What the alien looks like does not tell you anything about how much treasure is on the planet. </p>",,,,,,,,,,,,,,,,,,,,,,,
instruc_repeat_continue,49,304155,0.0-17.0-2.0,"""event"",""trial"",""time""
""fullscreenenter"",""1"",""13642""
""blur"",""2"",""19769""
""focus"",""4"",""45412""
""blur"",""48"",""270821""
""focus"",""49"",""303888""
","""event"",""trial"",""time""
""blur"",""2"",""19769""
""blur"",""48"",""270821""
","""event"",""trial"",""time""
""focus"",""4"",""45412""
""focus"",""49"",""303888""
","""event"",""trial"",""time""
""fullscreenenter"",""1"",""13642""
","
",,3655.7,"<p> Are you ready to play a practice game? </p> <p>In this practice game, you'll be digging up barrels of gems. But, in the real game, you'll be digging up the gems themselves. </p>",,,,,,,0,,,,,,,,,,,,,,,,,,
quiz_q_1_ask,50,306873,0.0-17.0-3.0,"""event"",""trial"",""time""
""fullscreenenter"",""1"",""13642""
""blur"",""2"",""19769""
""focus"",""4"",""45412""
""blur"",""48"",""270821""
""focus"",""49"",""303888""
","""event"",""trial"",""time""
""blur"",""2"",""19769""
""blur"",""48"",""270821""
","""event"",""trial"",""time""
""focus"",""4"",""45412""
""focus"",""49"",""303888""
","""event"",""trial"",""time""
""fullscreenenter"",""1"",""13642""
","
",,2715.9,run_exp/static/audio/clip_11_q1_ask.m4a,,,,,,,2,,,,,,,,,,,,,,,,,,
quiz_q_1_fb_correct,51,310718,0.0-18.0-0.0,"""event"",""trial"",""time""
""fullscreenenter"",""1"",""13642""
""blur"",""2"",""19769""
""focus"",""4"",""45412""
""blur"",""48"",""270821""
""focus"",""49"",""303888""
","""event"",""trial"",""time""
""blur"",""2"",""19769""
""blur"",""48"",""270821""
","""event"",""trial"",""time""
""focus"",""4"",""45412""
""focus"",""49"",""303888""
","""event"",""trial"",""time""
""fullscreenenter"",""1"",""13642""
","
",,null,run_exp/static/audio/clip_12_q1_correct.m4a,null,<p>That’s correct. You win extra money by collecting more gems.</p>,,,,,,,,,,,,,,,,,,,,,,,
quiz_q_2_ask,52,313052,0.0-18.0-1.0,"""event"",""trial"",""time""
""fullscreenenter"",""1"",""13642""
""blur"",""2"",""19769""
""focus"",""4"",""45412""
""blur"",""48"",""270821""
""focus"",""49"",""303888""
","""event"",""trial"",""time""
""blur"",""2"",""19769""
""blur"",""48"",""270821""
","""event"",""trial"",""time""
""focus"",""4"",""45412""
""focus"",""49"",""303888""
","""event"",""trial"",""time""
""fullscreenenter"",""1"",""13642""
","
",,2331.3,run_exp/static/audio/clip_14_q2_ask.m4a,,,,,,,1,,,,,,,,,,,,,,,,,,
quiz_q_2_fb_correct,53,317058,0.0-19.0-0.0,"""event"",""trial"",""time""
""fullscreenenter"",""1"",""13642""
""blur"",""2"",""19769""
""focus"",""4"",""45412""
""blur"",""48"",""270821""
""focus"",""49"",""303888""
","""event"",""trial"",""time""
""blur"",""2"",""19769""
""blur"",""48"",""270821""
","""event"",""trial"",""time""
""focus"",""4"",""45412""
""focus"",""49"",""303888""
","""event"",""trial"",""time""
""fullscreenenter"",""1"",""13642""
","
",,null,run_exp/static/audio/clip_15_q2_correct.m4a,null,<p>That’s correct. The experiment is 20 minutes no matter what.</p>,,,,,,,,,,,,,,,,,,,,,,,
quiz_q_3_ask,54,319910,0.0-19.0-1.0,"""event"",""trial"",""time""
""fullscreenenter"",""1"",""13642""
""blur"",""2"",""19769""
""focus"",""4"",""45412""
""blur"",""48"",""270821""
""focus"",""49"",""303888""
","""event"",""trial"",""time""
""blur"",""2"",""19769""
""blur"",""48"",""270821""
","""event"",""trial"",""time""
""focus"",""4"",""45412""
""focus"",""49"",""303888""
","""event"",""trial"",""time""
""fullscreenenter"",""1"",""13642""
","
",,2850.1,run_exp/static/audio/clip_17_q3_ask.m4a,,,,,,,1,,,,,,,,,,,,,,,,,,
quiz_q_3_fb_correct,55,323899,0.0-20.0-0.0,"""event"",""trial"",""time""
""fullscreenenter"",""1"",""13642""
""blur"",""2"",""19769""
""focus"",""4"",""45412""
""blur"",""48"",""270821""
""focus"",""49"",""303888""
","""event"",""trial"",""time""
""blur"",""2"",""19769""
""blur"",""48"",""270821""
","""event"",""trial"",""time""
""focus"",""4"",""45412""
""focus"",""49"",""303888""
","""event"",""trial"",""time""
""fullscreenenter"",""1"",""13642""
","
",,null,run_exp/static/audio/clip_18_q3_correct.m4a,null,<p> That’s correct. You press the letter L to travel to a new planet.</p>,,,,,,,,,,,,,,,,,,,,,,,
quiz_q_4_ask,56,327059,0.0-20.0-1.0,"""event"",""trial"",""time""
""fullscreenenter"",""1"",""13642""
""blur"",""2"",""19769""
""focus"",""4"",""45412""
""blur"",""48"",""270821""
""focus"",""49"",""303888""
","""event"",""trial"",""time""
""blur"",""2"",""19769""
""blur"",""48"",""270821""
","""event"",""trial"",""time""
""focus"",""4"",""45412""
""focus"",""49"",""303888""
","""event"",""trial"",""time""
""fullscreenenter"",""1"",""13642""
","
",,3159,run_exp/static/audio/clip_20_q4_ask.m4a,,,,,,,0,,,,,,,,,,,,,,,,,,
quiz_q_4_fb_correct,57,332378,0.0-21.0-0.0,"""event"",""trial"",""time""
""fullscreenenter"",""1"",""13642""
""blur"",""2"",""19769""
""focus"",""4"",""45412""
""blur"",""48"",""270821""
""focus"",""49"",""303888""
","""event"",""trial"",""time""
""blur"",""2"",""19769""
""blur"",""48"",""270821""
","""event"",""trial"",""time""
""focus"",""4"",""45412""
""focus"",""49"",""303888""
","""event"",""trial"",""time""
""fullscreenenter"",""1"",""13642""
","
",,null,run_exp/static/audio/clip_21_q4_correct.m4a,null,<p> That’s correct. The more you dig on a planet the fewer gems you’ll get with each dig. </p>,,,,,,,,,,,,,,,,,,,,,,,
quiz_q_5_ask,58,337091,0.0-21.0-1.0,"""event"",""trial"",""time""
""fullscreenenter"",""1"",""13642""
""blur"",""2"",""19769""
""focus"",""4"",""45412""
""blur"",""48"",""270821""
""focus"",""49"",""303888""
""blur"",""59"",""341609""
","""event"",""trial"",""time""
""blur"",""2"",""19769""
""blur"",""48"",""270821""
""blur"",""59"",""341609""
","""event"",""trial"",""time""
""focus"",""4"",""45412""
""focus"",""49"",""303888""
","""event"",""trial"",""time""
""fullscreenenter"",""1"",""13642""
","
",,4710.7,run_exp/static/audio/clip_23_q5_ask.m4a,,,,,,,1,,,,,,,,,,,,,,,,,,
quiz_q_5_fb_correct,59,342098,0.0-22.0-0.0,"""event"",""trial"",""time""
""fullscreenenter"",""1"",""13642""
""blur"",""2"",""19769""
""focus"",""4"",""45412""
""blur"",""48"",""270821""
""focus"",""49"",""303888""
""blur"",""59"",""341609""
","""event"",""trial"",""time""
""blur"",""2"",""19769""
""blur"",""48"",""270821""
""blur"",""59"",""341609""
","""event"",""trial"",""time""
""focus"",""4"",""45412""
""focus"",""49"",""303888""
","""event"",""trial"",""time""
""fullscreenenter"",""1"",""13642""
","
",,null,run_exp/static/audio/clip_24_q5_correct.m4a,null,<p> That’s correct. The alien tells you nothing about how much treasure is on the planet.</p>,,,,,,,,,,,,,,,,,,,,,,,
quiz_correct,60,345558,0.0-23.0-0.0,"""event"",""trial"",""time""
""fullscreenenter"",""1"",""13642""
""blur"",""2"",""19769""
""focus"",""4"",""45412""
""blur"",""48"",""270821""
""focus"",""49"",""303888""
""blur"",""59"",""341609""
""focus"",""61"",""348742""
","""event"",""trial"",""time""
""blur"",""2"",""19769""
""blur"",""48"",""270821""
""blur"",""59"",""341609""
","""event"",""trial"",""time""
""focus"",""4"",""45412""
""focus"",""49"",""303888""
""focus"",""61"",""348742""
","""event"",""trial"",""time""
""fullscreenenter"",""1"",""13642""
","
",,null,run_exp/static/audio/clip_26_correct_quiz.m4a,null,,,,,,,,,,,,,,,,,,,,,,,,
quiz_correct_continue,61,349113,0.0-23.0-1.0,"""event"",""trial"",""time""
""fullscreenenter"",""1"",""13642""
""blur"",""2"",""19769""
""focus"",""4"",""45412""
""blur"",""48"",""270821""
""focus"",""49"",""303888""
""blur"",""59"",""341609""
""focus"",""61"",""348742""
","""event"",""trial"",""time""
""blur"",""2"",""19769""
""blur"",""48"",""270821""
""blur"",""59"",""341609""
","""event"",""trial"",""time""
""focus"",""4"",""45412""
""focus"",""49"",""303888""
""focus"",""61"",""348742""
","""event"",""trial"",""time""
""fullscreenenter"",""1"",""13642""
","
",,3552.7,<p>Good job! You're now ready to move on to the real game!</p>,,,,,,,0,,,,,,,,,,,,,,,,,,
audio-keyboard-response,62,359239,0.0-23.0-2.0,"""event"",""trial"",""time""
""fullscreenenter"",""1"",""13642""
""blur"",""2"",""19769""
""focus"",""4"",""45412""
""blur"",""48"",""270821""
""focus"",""49"",""303888""
""blur"",""59"",""341609""
""focus"",""61"",""348742""
","""event"",""trial"",""time""
""blur"",""2"",""19769""
""blur"",""48"",""270821""
""blur"",""59"",""341609""
","""event"",""trial"",""time""
""focus"",""4"",""45412""
""focus"",""49"",""303888""
""focus"",""61"",""348742""
","""event"",""trial"",""time""
""fullscreenenter"",""1"",""13642""
","
",,null,run_exp/static/audio/clip_28_real_game.m4a,null,,,,,,,,,,,,,,,,,,,,,,,,
instruc_begin_exp_contine,63,360571,0.0-23.0-3.0,"""event"",""trial"",""time""
""fullscreenenter"",""1"",""13642""
""blur"",""2"",""19769""
""focus"",""4"",""45412""
""blur"",""48"",""270821""
""focus"",""49"",""303888""
""blur"",""59"",""341609""
""focus"",""61"",""348742""
","""event"",""trial"",""time""
""blur"",""2"",""19769""
""blur"",""48"",""270821""
""blur"",""59"",""341609""
","""event"",""trial"",""time""
""focus"",""4"",""45412""
""focus"",""49"",""303888""
""focus"",""61"",""348742""
","""event"",""trial"",""time""
""fullscreenenter"",""1"",""13642""
","
",,1331.7,"<p>Now that you know how  to dig for space treasure and travel to new planets,you can start exploring! </p><p>Do you want to go over the instructions again or get started with the real game?</p>",,,,,,,1,,,,,,1,,,,,,,,,,,,
alien_welcome,64,365577,0.0-24.0-0.0,"""event"",""trial"",""time""
""fullscreenenter"",""1"",""13642""
""blur"",""2"",""19769""
""focus"",""4"",""45412""
""blur"",""48"",""270821""
""focus"",""49"",""303888""
""blur"",""59"",""341609""
""focus"",""61"",""348742""
","""event"",""trial"",""time""
""blur"",""2"",""19769""
""blur"",""48"",""270821""
""blur"",""59"",""341609""
","""event"",""trial"",""time""
""focus"",""4"",""45412""
""focus"",""49"",""303888""
""focus"",""61"",""348742""
","""event"",""trial"",""time""
""fullscreenenter"",""1"",""13642""
","
",,null,run_exp/static/images/task_images/aliens/old_aliens/planet/alien_planet-41.jpg,null,,,,,,,,,,,,,41,"41,68,5,52,67,40,54,45,32,19,56,57,1,7,33,73,35,51,38,11,78,79,62,53,49,16,61,65,46,34,30,25,4,43,9,76,60,69",,,,,,,,,,
land,65,366090,0.0-24.0-1.0,"""event"",""trial"",""time""
""fullscreenenter"",""1"",""13642""
""blur"",""2"",""19769""
""focus"",""4"",""45412""
""blur"",""48"",""270821""
""focus"",""49"",""303888""
""blur"",""59"",""341609""
""focus"",""61"",""348742""
","""event"",""trial"",""time""
""blur"",""2"",""19769""
""blur"",""48"",""270821""
""blur"",""59"",""341609""
","""event"",""trial"",""time""
""focus"",""4"",""45412""
""focus"",""49"",""303888""
""focus"",""61"",""348742""
","""event"",""trial"",""time""
""fullscreenenter"",""1"",""13642""
","
",,null,run_exp/static/images/task_images/land.jpg,null,,,,,,,93,,,1,,,,,,,,,,,,,,
dig,66,368100,0.0-24.0-2.0,"""event"",""trial"",""time""
""fullscreenenter"",""1"",""13642""
""blur"",""2"",""19769""
""focus"",""4"",""45412""
""blur"",""48"",""270821""
""focus"",""49"",""303888""
""blur"",""59"",""341609""
""focus"",""61"",""348742""
","""event"",""trial"",""time""
""blur"",""2"",""19769""
""blur"",""48"",""270821""
""blur"",""59"",""341609""
","""event"",""trial"",""time""
""focus"",""4"",""45412""
""focus"",""49"",""303888""
""focus"",""61"",""348742""
","""event"",""trial"",""time""
""fullscreenenter"",""1"",""13642""
","
",,,,,,,,,,,,"[{""stimulus"":""run_exp/static/images/task_images/dig.jpg"",""time"":0.5},{""stimulus"":""run_exp/static/images/task_images/land.jpg"",""time"":682.1999999880791},{""stimulus"":""run_exp/static/images/task_images/dig.jpg"",""time"":1337.699999988079}]",[],1,,,,,,,,,,,,,,
harvest,67,369115,0.0-24.0-3.0,"""event"",""trial"",""time""
""fullscreenenter"",""1"",""13642""
""blur"",""2"",""19769""
""focus"",""4"",""45412""
""blur"",""48"",""270821""
""focus"",""49"",""303888""
""blur"",""59"",""341609""
""focus"",""61"",""348742""
","""event"",""trial"",""time""
""blur"",""2"",""19769""
""blur"",""48"",""270821""
""blur"",""59"",""341609""
","""event"",""trial"",""time""
""focus"",""4"",""45412""
""focus"",""49"",""303888""
""focus"",""61"",""348742""
","""event"",""trial"",""time""
""fullscreenenter"",""1"",""13642""
","
",,null,run_exp/static/images/task_images/gems/93.jpg,null,,,,,,,27,,,1,,,,,93,0.291285766,0.290322581,,,,,,,
decision,68,369394,0.0-24.0-4.0,"""event"",""trial"",""time""
""fullscreenenter"",""1"",""13642""
""blur"",""2"",""19769""
""focus"",""4"",""45412""
""blur"",""48"",""270821""
""focus"",""49"",""303888""
""blur"",""59"",""341609""
""focus"",""61"",""348742""
","""event"",""trial"",""time""
""blur"",""2"",""19769""
""blur"",""48"",""270821""
""blur"",""59"",""341609""
","""event"",""trial"",""time""
""focus"",""4"",""45412""
""focus"",""49"",""303888""
""focus"",""61"",""348742""
","""event"",""trial"",""time""
""fullscreenenter"",""1"",""13642""
","
",,278.4,run_exp/static/images/task_images/land.jpg,65,,,,,,,27,,,1,,,,,,,,8823,1,0,FALSE,,,
dig,69,372122,0.0-25.0-0.0,"""event"",""trial"",""time""
""fullscreenenter"",""1"",""13642""
""blur"",""2"",""19769""
""focus"",""4"",""45412""
""blur"",""48"",""270821""
""focus"",""49"",""303888""
""blur"",""59"",""341609""
""focus"",""61"",""348742""
","""event"",""trial"",""time""
""blur"",""2"",""19769""
""blur"",""48"",""270821""
""blur"",""59"",""341609""
","""event"",""trial"",""time""
""focus"",""4"",""45412""
""focus"",""49"",""303888""
""focus"",""61"",""348742""
","""event"",""trial"",""time""
""fullscreenenter"",""1"",""13642""
","
",,,,,,,,,,,,"[{""stimulus"":""run_exp/static/images/task_images/dig.jpg"",""time"":0.19999998807907104},{""stimulus"":""run_exp/static/images/task_images/land.jpg"",""time"":920.1999999880791},{""stimulus"":""run_exp/static/images/task_images/dig.jpg"",""time"":1823}]",[],1,,,,,,,,,,,,,,
harvest,70,373133,0.0-25.0-1.0,"""event"",""trial"",""time""
""fullscreenenter"",""1"",""13642""
""blur"",""2"",""19769""
""focus"",""4"",""45412""
""blur"",""48"",""270821""
""focus"",""49"",""303888""
""blur"",""59"",""341609""
""focus"",""61"",""348742""
","""event"",""trial"",""time""
""blur"",""2"",""19769""
""blur"",""48"",""270821""
""blur"",""59"",""341609""
","""event"",""trial"",""time""
""focus"",""4"",""45412""
""focus"",""49"",""303888""
""focus"",""61"",""348742""
","""event"",""trial"",""time""
""fullscreenenter"",""1"",""13642""
","
",,null,run_exp/static/images/task_images/gems/27.jpg,null,,,,,,,5,,,1,,,,,27,0.1962475,0.185185185,,,,,,,
decision,71,373187,0.0-25.0-2.0,"""event"",""trial"",""time""
""fullscreenenter"",""1"",""13642""
""blur"",""2"",""19769""
""focus"",""4"",""45412""
""blur"",""48"",""270821""
""focus"",""49"",""303888""
""blur"",""59"",""341609""
""focus"",""61"",""348742""
","""event"",""trial"",""time""
""blur"",""2"",""19769""
""blur"",""48"",""270821""
""blur"",""59"",""341609""
","""event"",""trial"",""time""
""focus"",""4"",""45412""
""focus"",""49"",""303888""
""focus"",""61"",""348742""
","""event"",""trial"",""time""
""fullscreenenter"",""1"",""13642""
","
",,52.60000002,run_exp/static/images/task_images/land.jpg,65,,,,,,,5,,,1,,,,,,,,12615,1,1,FALSE,,,
dig,72,376144,0.0-26.0-0.0,"""event"",""trial"",""time""
""fullscreenenter"",""1"",""13642""
""blur"",""2"",""19769""
""focus"",""4"",""45412""
""blur"",""48"",""270821""
""focus"",""49"",""303888""
""blur"",""59"",""341609""
""focus"",""61"",""348742""
","""event"",""trial"",""time""
""blur"",""2"",""19769""
""blur"",""48"",""270821""
""blur"",""59"",""341609""
","""event"",""trial"",""time""
""focus"",""4"",""45412""
""focus"",""49"",""303888""
""focus"",""61"",""348742""
","""event"",""trial"",""time""
""fullscreenenter"",""1"",""13642""
","
",,,,,,,,,,,,"[{""stimulus"":""run_exp/static/images/task_images/dig.jpg"",""time"":0.10000002384185791},{""stimulus"":""run_exp/static/images/task_images/land.jpg"",""time"":987.2000000476837},{""stimulus"":""run_exp/static/images/task_images/dig.jpg"",""time"":1968.2000000476837}]",[],1,,,,,,,,,,,,,,
harvest,73,377147,0.0-26.0-1.0,"""event"",""trial"",""time""
""fullscreenenter"",""1"",""13642""
""blur"",""2"",""19769""
""focus"",""4"",""45412""
""blur"",""48"",""270821""
""focus"",""49"",""303888""
""blur"",""59"",""341609""
""focus"",""61"",""348742""
","""event"",""trial"",""time""
""blur"",""2"",""19769""
""blur"",""48"",""270821""
""blur"",""59"",""341609""
","""event"",""trial"",""time""
""focus"",""4"",""45412""
""focus"",""49"",""303888""
""focus"",""61"",""348742""
","""event"",""trial"",""time""
""fullscreenenter"",""1"",""13642""
","
",,null,run_exp/static/images/task_images/gems/5.jpg,null,,,,,,,1,,,1,,,,,5,0.184445818,0.2,,,,,,,
decision,74,378394,0.0-26.0-2.0,"""event"",""trial"",""time""
""fullscreenenter"",""1"",""13642""
""blur"",""2"",""19769""
""focus"",""4"",""45412""
""blur"",""48"",""270821""
""focus"",""49"",""303888""
""blur"",""59"",""341609""
""focus"",""61"",""348742""
","""event"",""trial"",""time""
""blur"",""2"",""19769""
""blur"",""48"",""270821""
""blur"",""59"",""341609""
","""event"",""trial"",""time""
""focus"",""4"",""45412""
""focus"",""49"",""303888""
""focus"",""61"",""348742""
","""event"",""trial"",""time""
""fullscreenenter"",""1"",""13642""
","
",,1245.8,run_exp/static/images/task_images/land.jpg,76,,,,,,,1,,,1,,,,,,,,17822,1,2,TRUE,,,
travel,75,387153,0.0-27.0-0.0,"""event"",""trial"",""time""
""fullscreenenter"",""1"",""13642""
""blur"",""2"",""19769""
""focus"",""4"",""45412""
""blur"",""48"",""270821""
""focus"",""49"",""303888""
""blur"",""59"",""341609""
""focus"",""61"",""348742""
","""event"",""trial"",""time""
""blur"",""2"",""19769""
""blur"",""48"",""270821""
""blur"",""59"",""341609""
","""event"",""trial"",""time""
""focus"",""4"",""45412""
""focus"",""49"",""303888""
""focus"",""61"",""348742""
","""event"",""trial"",""time""
""fullscreenenter"",""1"",""13642""
","
",,,,,,,,,,,,"[{""stimulus"":""run_exp/static/images/task_images/rocket-01.jpg"",""time"":0.30000001192092896},{""stimulus"":""run_exp/static/images/task_images/rocket-02.jpg"",""time"":973.5},{""stimulus"":""run_exp/static/images/task_images/rocket-03.jpg"",""time"":1955.6000000238419},{""stimulus"":""run_exp/static/images/task_images/rocket-04.jpg"",""time"":2921.699999988079},{""stimulus"":""run_exp/static/images/task_images/rocket-05.jpg"",""time"":3904.199999988079},{""stimulus"":""run_exp/static/images/task_images/rocket-06.jpg"",""time"":4871.899999976158},{""stimulus"":""run_exp/static/images/task_images/rocket-07.jpg"",""time"":5833.300000011921},{""stimulus"":""run_exp/static/images/task_images/rocket-08.jpg"",""time"":6820},{""stimulus"":""run_exp/static/images/task_images/rocket-09.jpg"",""time"":7790}]",[],1,,,,,,,,,,,,,,
alien_welcome,76,392164,0.0-27.0-1.0,"""event"",""trial"",""time""
""fullscreenenter"",""1"",""13642""
""blur"",""2"",""19769""
""focus"",""4"",""45412""
""blur"",""48"",""270821""
""focus"",""49"",""303888""
""blur"",""59"",""341609""
""focus"",""61"",""348742""
","""event"",""trial"",""time""
""blur"",""2"",""19769""
""blur"",""48"",""270821""
""blur"",""59"",""341609""
","""event"",""trial"",""time""
""focus"",""4"",""45412""
""focus"",""49"",""303888""
""focus"",""61"",""348742""
","""event"",""trial"",""time""
""fullscreenenter"",""1"",""13642""
","
",,null,run_exp/static/images/task_images/aliens/old_aliens/planet/alien_planet-68.jpg,null,,,,,,,,,,,,,68,"41,68,5,52,67,40,54,45,32,19,56,57,1,7,33,73,35,51,38,11,78,79,62,53,49,16,61,65,46,34,30,25,4,43,9,76,60,69",,,,,,,,,,
land,77,392677,0.0-27.0-2.0,"""event"",""trial"",""time""
""fullscreenenter"",""1"",""13642""
""blur"",""2"",""19769""
""focus"",""4"",""45412""
""blur"",""48"",""270821""
""focus"",""49"",""303888""
""blur"",""59"",""341609""
""focus"",""61"",""348742""
","""event"",""trial"",""time""
""blur"",""2"",""19769""
""blur"",""48"",""270821""
""blur"",""59"",""341609""
","""event"",""trial"",""time""
""focus"",""4"",""45412""
""focus"",""49"",""303888""
""focus"",""61"",""348742""
","""event"",""trial"",""time""
""fullscreenenter"",""1"",""13642""
","
",,null,run_exp/static/images/task_images/land.jpg,null,,,,,,,103,,,2,,,,,,,,,,,,,,
dig,78,394685,0.0-27.0-3.0,"""event"",""trial"",""time""
""fullscreenenter"",""1"",""13642""
""blur"",""2"",""19769""
""focus"",""4"",""45412""
""blur"",""48"",""270821""
""focus"",""49"",""303888""
""blur"",""59"",""341609""
""focus"",""61"",""348742""
","""event"",""trial"",""time""
""blur"",""2"",""19769""
""blur"",""48"",""270821""
""blur"",""59"",""341609""
","""event"",""trial"",""time""
""focus"",""4"",""45412""
""focus"",""49"",""303888""
""focus"",""61"",""348742""
","""event"",""trial"",""time""
""fullscreenenter"",""1"",""13642""
","
",,,,,,,,,,,,"[{""stimulus"":""run_exp/static/images/task_images/dig.jpg"",""time"":0.5},{""stimulus"":""run_exp/static/images/task_images/land.jpg"",""time"":681.6000000238419},{""stimulus"":""run_exp/static/images/task_images/dig.jpg"",""time"":1338.300000011921}]",[],2,,,,,,,,,,,,,,
harvest,79,395701,0.0-27.0-4.0,"""event"",""trial"",""time""
""fullscreenenter"",""1"",""13642""
""blur"",""2"",""19769""
""focus"",""4"",""45412""
""blur"",""48"",""270821""
""focus"",""49"",""303888""
""blur"",""59"",""341609""
""focus"",""61"",""348742""
","""event"",""trial"",""time""
""blur"",""2"",""19769""
""blur"",""48"",""270821""
""blur"",""59"",""341609""
","""event"",""trial"",""time""
""focus"",""4"",""45412""
""focus"",""49"",""303888""
""focus"",""61"",""348742""
","""event"",""trial"",""time""
""fullscreenenter"",""1"",""13642""
","
",,null,run_exp/static/images/task_images/gems/103.jpg,null,,,,,,,29,,,2,,,,,103,0.281905007,0.281553398,,,,,,,
decision,80,395719,0.0-27.0-5.0,"""event"",""trial"",""time""
""fullscreenenter"",""1"",""13642""
""blur"",""2"",""19769""
""focus"",""4"",""45412""
""blur"",""48"",""270821""
""focus"",""49"",""303888""
""blur"",""59"",""341609""
""focus"",""61"",""348742""
","""event"",""trial"",""time""
""blur"",""2"",""19769""
""blur"",""48"",""270821""
""blur"",""59"",""341609""
","""event"",""trial"",""time""
""focus"",""4"",""45412""
""focus"",""49"",""303888""
""focus"",""61"",""348742""
","""event"",""trial"",""time""
""fullscreenenter"",""1"",""13642""
","
",,15.80000001,run_exp/static/images/task_images/land.jpg,65,,,,,,,29,,,2,,,,,,,,35147,1,0,FALSE,,,
dig,81,398713,0.0-28.0-0.0,"""event"",""trial"",""time""
""fullscreenenter"",""1"",""13642""
""blur"",""2"",""19769""
""focus"",""4"",""45412""
""blur"",""48"",""270821""
""focus"",""49"",""303888""
""blur"",""59"",""341609""
""focus"",""61"",""348742""
","""event"",""trial"",""time""
""blur"",""2"",""19769""
""blur"",""48"",""270821""
""blur"",""59"",""341609""
","""event"",""trial"",""time""
""focus"",""4"",""45412""
""focus"",""49"",""303888""
""focus"",""61"",""348742""
","""event"",""trial"",""time""
""fullscreenenter"",""1"",""13642""
","
",,,,,,,,,,,,"[{""stimulus"":""run_exp/static/images/task_images/dig.jpg"",""time"":0.2999999523162842},{""stimulus"":""run_exp/static/images/task_images/land.jpg"",""time"":999.5999999642372},{""stimulus"":""run_exp/static/images/task_images/dig.jpg"",""time"":1995.699999988079}]",[],2,,,,,,,,,,,,,,
harvest,82,399726,0.0-28.0-1.0,"""event"",""trial"",""time""
""fullscreenenter"",""1"",""13642""
""blur"",""2"",""19769""
""focus"",""4"",""45412""
""blur"",""48"",""270821""
""focus"",""49"",""303888""
""blur"",""59"",""341609""
""focus"",""61"",""348742""
","""event"",""trial"",""time""
""blur"",""2"",""19769""
""blur"",""48"",""270821""
""blur"",""59"",""341609""
","""event"",""trial"",""time""
""focus"",""4"",""45412""
""focus"",""49"",""303888""
""focus"",""61"",""348742""
","""event"",""trial"",""time""
""fullscreenenter"",""1"",""13642""
","
",,null,run_exp/static/images/task_images/gems/29.jpg,null,,,,,,,5,,,2,,,,,29,0.163035396,0.172413793,,,,,,,
decision,83,400369,0.0-28.0-2.0,"""event"",""trial"",""time""
""fullscreenenter"",""1"",""13642""
""blur"",""2"",""19769""
""focus"",""4"",""45412""
""blur"",""48"",""270821""
""focus"",""49"",""303888""
""blur"",""59"",""341609""
""focus"",""61"",""348742""
","""event"",""trial"",""time""
""blur"",""2"",""19769""
""blur"",""48"",""270821""
""blur"",""59"",""341609""
","""event"",""trial"",""time""
""focus"",""4"",""45412""
""focus"",""49"",""303888""
""focus"",""61"",""348742""
","""event"",""trial"",""time""
""fullscreenenter"",""1"",""13642""
","
",,640.5,run_exp/static/images/task_images/land.jpg,65,,,,,,,5,,,2,,,,,,,,39797,1,1,FALSE,,,
dig,84,402738,0.0-29.0-0.0,"""event"",""trial"",""time""
""fullscreenenter"",""1"",""13642""
""blur"",""2"",""19769""
""focus"",""4"",""45412""
""blur"",""48"",""270821""
""focus"",""49"",""303888""
""blur"",""59"",""341609""
""focus"",""61"",""348742""
","""event"",""trial"",""time""
""blur"",""2"",""19769""
""blur"",""48"",""270821""
""blur"",""59"",""341609""
","""event"",""trial"",""time""
""focus"",""4"",""45412""
""focus"",""49"",""303888""
""focus"",""61"",""348742""
","""event"",""trial"",""time""
""fullscreenenter"",""1"",""13642""
","
",,,,,,,,,,,,"[{""stimulus"":""run_exp/static/images/task_images/dig.jpg"",""time"":0.19999998807907104},{""stimulus"":""run_exp/static/images/task_images/land.jpg"",""time"":786.8999999761581},{""stimulus"":""run_exp/static/images/task_images/dig.jpg"",""time"":1585.5}]",[],2,,,,,,,,,,,,,,
harvest,85,403756,0.0-29.0-1.0,"""event"",""trial"",""time""
""fullscreenenter"",""1"",""13642""
""blur"",""2"",""19769""
""focus"",""4"",""45412""
""blur"",""48"",""270821""
""focus"",""49"",""303888""
""blur"",""59"",""341609""
""focus"",""61"",""348742""
","""event"",""trial"",""time""
""blur"",""2"",""19769""
""blur"",""48"",""270821""
""blur"",""59"",""341609""
","""event"",""trial"",""time""
""focus"",""4"",""45412""
""focus"",""49"",""303888""
""focus"",""61"",""348742""
","""event"",""trial"",""time""
""fullscreenenter"",""1"",""13642""
","
",,null,run_exp/static/images/task_images/gems/5.jpg,null,,,,,,,1,,,2,,,,,5,0.143418355,0.2,,,,,,,
decision,86,404205,0.0-29.0-2.0,"""event"",""trial"",""time""
""fullscreenenter"",""1"",""13642""
""blur"",""2"",""19769""
""focus"",""4"",""45412""
""blur"",""48"",""270821""
""focus"",""49"",""303888""
""blur"",""59"",""341609""
""focus"",""61"",""348742""
","""event"",""trial"",""time""
""blur"",""2"",""19769""
""blur"",""48"",""270821""
""blur"",""59"",""341609""
","""event"",""trial"",""time""
""focus"",""4"",""45412""
""focus"",""49"",""303888""
""focus"",""61"",""348742""
","""event"",""trial"",""time""
""fullscreenenter"",""1"",""13642""
","
",,446.6,run_exp/static/images/task_images/land.jpg,76,,,,,,,1,,,2,,,,,,,,43633,1,2,TRUE,,,
travel,87,413773,0.0-30.0-0.0,"""event"",""trial"",""time""
""fullscreenenter"",""1"",""13642""
""blur"",""2"",""19769""
""focus"",""4"",""45412""
""blur"",""48"",""270821""
""focus"",""49"",""303888""
""blur"",""59"",""341609""
""focus"",""61"",""348742""
","""event"",""trial"",""time""
""blur"",""2"",""19769""
""blur"",""48"",""270821""
""blur"",""59"",""341609""
","""event"",""trial"",""time""
""focus"",""4"",""45412""
""focus"",""49"",""303888""
""focus"",""61"",""348742""
","""event"",""trial"",""time""
""fullscreenenter"",""1"",""13642""
","
",,,,,,,,,,,,"[{""stimulus"":""run_exp/static/images/task_images/rocket-01.jpg"",""time"":0.19999998807907104},{""stimulus"":""run_exp/static/images/task_images/rocket-02.jpg"",""time"":1073.699999988079},{""stimulus"":""run_exp/static/images/task_images/rocket-03.jpg"",""time"":2134.800000011921},{""stimulus"":""run_exp/static/images/task_images/rocket-04.jpg"",""time"":3187.899999976158},{""stimulus"":""run_exp/static/images/task_images/rocket-05.jpg"",""time"":4249.5},{""stimulus"":""run_exp/static/images/task_images/rocket-06.jpg"",""time"":5319.600000023842},{""stimulus"":""run_exp/static/images/task_images/rocket-07.jpg"",""time"":6379.199999988079},{""stimulus"":""run_exp/static/images/task_images/rocket-08.jpg"",""time"":7436.300000011921},{""stimulus"":""run_exp/static/images/task_images/rocket-09.jpg"",""time"":8490.5}]",[],2,,,,,,,,,,,,,,
alien_welcome,88,418789,0.0-30.0-1.0,"""event"",""trial"",""time""
""fullscreenenter"",""1"",""13642""
""blur"",""2"",""19769""
""focus"",""4"",""45412""
""blur"",""48"",""270821""
""focus"",""49"",""303888""
""blur"",""59"",""341609""
""focus"",""61"",""348742""
","""event"",""trial"",""time""
""blur"",""2"",""19769""
""blur"",""48"",""270821""
""blur"",""59"",""341609""
","""event"",""trial"",""time""
""focus"",""4"",""45412""
""focus"",""49"",""303888""
""focus"",""61"",""348742""
","""event"",""trial"",""time""
""fullscreenenter"",""1"",""13642""
","
",,null,run_exp/static/images/task_images/aliens/old_aliens/planet/alien_planet-5.jpg,null,,,,,,,,,,,,,5,"41,68,5,52,67,40,54,45,32,19,56,57,1,7,33,73,35,51,38,11,78,79,62,53,49,16,61,65,46,34,30,25,4,43,9,76,60,69",,,,,,,,,,
land,89,419301,0.0-30.0-2.0,"""event"",""trial"",""time""
""fullscreenenter"",""1"",""13642""
""blur"",""2"",""19769""
""focus"",""4"",""45412""
""blur"",""48"",""270821""
""focus"",""49"",""303888""
""blur"",""59"",""341609""
""focus"",""61"",""348742""
","""event"",""trial"",""time""
""blur"",""2"",""19769""
""blur"",""48"",""270821""
""blur"",""59"",""341609""
","""event"",""trial"",""time""
""focus"",""4"",""45412""
""focus"",""49"",""303888""
""focus"",""61"",""348742""
","""event"",""trial"",""time""
""fullscreenenter"",""1"",""13642""
","
",,null,run_exp/static/images/task_images/land.jpg,null,,,,,,,99,,,3,,,,,,,,,,,,,,
dig,90,421313,0.0-30.0-3.0,"""event"",""trial"",""time""
""fullscreenenter"",""1"",""13642""
""blur"",""2"",""19769""
""focus"",""4"",""45412""
""blur"",""48"",""270821""
""focus"",""49"",""303888""
""blur"",""59"",""341609""
""focus"",""61"",""348742""
","""event"",""trial"",""time""
""blur"",""2"",""19769""
""blur"",""48"",""270821""
""blur"",""59"",""341609""
","""event"",""trial"",""time""
""focus"",""4"",""45412""
""focus"",""49"",""303888""
""focus"",""61"",""348742""
","""event"",""trial"",""time""
""fullscreenenter"",""1"",""13642""
","
",,,,,,,,,,,,"[{""stimulus"":""run_exp/static/images/task_images/dig.jpg"",""time"":0.19999998807907104},{""stimulus"":""run_exp/static/images/task_images/land.jpg"",""time"":669.3000000119209},{""stimulus"":""run_exp/static/images/task_images/dig.jpg"",""time"":1340}]",[],3,,,,,,,,,,,,,,
harvest,91,422325,0.0-30.0-4.0,"""event"",""trial"",""time""
""fullscreenenter"",""1"",""13642""
""blur"",""2"",""19769""
""focus"",""4"",""45412""
""blur"",""48"",""270821""
""focus"",""49"",""303888""
""blur"",""59"",""341609""
""focus"",""61"",""348742""
","""event"",""trial"",""time""
""blur"",""2"",""19769""
""blur"",""48"",""270821""
""blur"",""59"",""341609""
","""event"",""trial"",""time""
""focus"",""4"",""45412""
""focus"",""49"",""303888""
""focus"",""61"",""348742""
","""event"",""trial"",""time""
""fullscreenenter"",""1"",""13642""
","
",,null,run_exp/static/images/task_images/gems/99.jpg,null,,,,,,,46,,,3,,,,,99,0.464343902,0.464646465,,,,,,,
decision,92,422622,0.0-30.0-5.0,"""event"",""trial"",""time""
""fullscreenenter"",""1"",""13642""
""blur"",""2"",""19769""
""focus"",""4"",""45412""
""blur"",""48"",""270821""
""focus"",""49"",""303888""
""blur"",""59"",""341609""
""focus"",""61"",""348742""
","""event"",""trial"",""time""
""blur"",""2"",""19769""
""blur"",""48"",""270821""
""blur"",""59"",""341609""
","""event"",""trial"",""time""
""focus"",""4"",""45412""
""focus"",""49"",""303888""
""focus"",""61"",""348742""
","""event"",""trial"",""time""
""fullscreenenter"",""1"",""13642""
","
",,294.6,run_exp/static/images/task_images/land.jpg,65,,,,,,,46,,,3,,,,,,,,62050,1,0,FALSE,,,
dig,93,425343,0.0-31.0-0.0,"""event"",""trial"",""time""
""fullscreenenter"",""1"",""13642""
""blur"",""2"",""19769""
""focus"",""4"",""45412""
""blur"",""48"",""270821""
""focus"",""49"",""303888""
""blur"",""59"",""341609""
""focus"",""61"",""348742""
","""event"",""trial"",""time""
""blur"",""2"",""19769""
""blur"",""48"",""270821""
""blur"",""59"",""341609""
","""event"",""trial"",""time""
""focus"",""4"",""45412""
""focus"",""49"",""303888""
""focus"",""61"",""348742""
","""event"",""trial"",""time""
""fullscreenenter"",""1"",""13642""
","
",,,,,,,,,,,,"[{""stimulus"":""run_exp/static/images/task_images/dig.jpg"",""time"":0.19999998807907104},{""stimulus"":""run_exp/static/images/task_images/land.jpg"",""time"":910.5},{""stimulus"":""run_exp/static/images/task_images/dig.jpg"",""time"":1816.7999999523163}]",[],3,,,,,,,,,,,,,,
harvest,94,426357,0.0-31.0-1.0,"""event"",""trial"",""time""
""fullscreenenter"",""1"",""13642""
""blur"",""2"",""19769""
""focus"",""4"",""45412""
""blur"",""48"",""270821""
""focus"",""49"",""303888""
""blur"",""59"",""341609""
""focus"",""61"",""348742""
","""event"",""trial"",""time""
""blur"",""2"",""19769""
""blur"",""48"",""270821""
""blur"",""59"",""341609""
","""event"",""trial"",""time""
""focus"",""4"",""45412""
""focus"",""49"",""303888""
""focus"",""61"",""348742""
","""event"",""trial"",""time""
""fullscreenenter"",""1"",""13642""
","
",,null,run_exp/static/images/task_images/gems/46.jpg,null,,,,,,,23,,,3,,,,,46,0.499261262,0.5,,,,,,,
decision,95,426535,0.0-31.0-2.0,"""event"",""trial"",""time""
""fullscreenenter"",""1"",""13642""
""blur"",""2"",""19769""
""focus"",""4"",""45412""
""blur"",""48"",""270821""
""focus"",""49"",""303888""
""blur"",""59"",""341609""
""focus"",""61"",""348742""
","""event"",""trial"",""time""
""blur"",""2"",""19769""
""blur"",""48"",""270821""
""blur"",""59"",""341609""
","""event"",""trial"",""time""
""focus"",""4"",""45412""
""focus"",""49"",""303888""
""focus"",""61"",""348742""
","""event"",""trial"",""time""
""fullscreenenter"",""1"",""13642""
","
",,175.2,run_exp/static/images/task_images/land.jpg,65,,,,,,,23,,,3,,,,,,,,65963,1,1,FALSE,,,
dig,96,429377,0.0-32.0-0.0,"""event"",""trial"",""time""
""fullscreenenter"",""1"",""13642""
""blur"",""2"",""19769""
""focus"",""4"",""45412""
""blur"",""48"",""270821""
""focus"",""49"",""303888""
""blur"",""59"",""341609""
""focus"",""61"",""348742""
","""event"",""trial"",""time""
""blur"",""2"",""19769""
""blur"",""48"",""270821""
""blur"",""59"",""341609""
","""event"",""trial"",""time""
""focus"",""4"",""45412""
""focus"",""49"",""303888""
""focus"",""61"",""348742""
","""event"",""trial"",""time""
""fullscreenenter"",""1"",""13642""
","
",,,,,,,,,,,,"[{""stimulus"":""run_exp/static/images/task_images/dig.jpg"",""time"":0.30000001192092896},{""stimulus"":""run_exp/static/images/task_images/land.jpg"",""time"":944},{""stimulus"":""run_exp/static/images/task_images/dig.jpg"",""time"":1895}]",[],3,,,,,,,,,,,,,,
harvest,97,430391,0.0-32.0-1.0,"""event"",""trial"",""time""
""fullscreenenter"",""1"",""13642""
""blur"",""2"",""19769""
""focus"",""4"",""45412""
""blur"",""48"",""270821""
""focus"",""49"",""303888""
""blur"",""59"",""341609""
""focus"",""61"",""348742""
","""event"",""trial"",""time""
""blur"",""2"",""19769""
""blur"",""48"",""270821""
""blur"",""59"",""341609""
","""event"",""trial"",""time""
""focus"",""4"",""45412""
""focus"",""49"",""303888""
""focus"",""61"",""348742""
","""event"",""trial"",""time""
""fullscreenenter"",""1"",""13642""
","
",,null,run_exp/static/images/task_images/gems/23.jpg,null,,,,,,,12,,,3,,,,,23,0.508733458,0.52173913,,,,,,,
decision,98,430895,0.0-32.0-2.0,"""event"",""trial"",""time""
""fullscreenenter"",""1"",""13642""
""blur"",""2"",""19769""
""focus"",""4"",""45412""
""blur"",""48"",""270821""
""focus"",""49"",""303888""
""blur"",""59"",""341609""
""focus"",""61"",""348742""
","""event"",""trial"",""time""
""blur"",""2"",""19769""
""blur"",""48"",""270821""
""blur"",""59"",""341609""
","""event"",""trial"",""time""
""focus"",""4"",""45412""
""focus"",""49"",""303888""
""focus"",""61"",""348742""
","""event"",""trial"",""time""
""fullscreenenter"",""1"",""13642""
","
",,502.7,run_exp/static/images/task_images/land.jpg,65,,,,,,,12,,,3,,,,,,,,70323,1,2,FALSE,,,
dig,99,433399,0.0-33.0-0.0,"""event"",""trial"",""time""
""fullscreenenter"",""1"",""13642""
""blur"",""2"",""19769""
""focus"",""4"",""45412""
""blur"",""48"",""270821""
""focus"",""49"",""303888""
""blur"",""59"",""341609""
""focus"",""61"",""348742""
","""event"",""trial"",""time""
""blur"",""2"",""19769""
""blur"",""48"",""270821""
""blur"",""59"",""341609""
","""event"",""trial"",""time""
""focus"",""4"",""45412""
""focus"",""49"",""303888""
""focus"",""61"",""348742""
","""event"",""trial"",""time""
""fullscreenenter"",""1"",""13642""
","
",,,,,,,,,,,,"[{""stimulus"":""run_exp/static/images/task_images/dig.jpg"",""time"":0.30000001192092896},{""stimulus"":""run_exp/static/images/task_images/land.jpg"",""time"":834},{""stimulus"":""run_exp/static/images/task_images/dig.jpg"",""time"":1675.8999999761581}]",[],3,,,,,,,,,,,,,,
harvest,100,434411,0.0-33.0-1.0,"""event"",""trial"",""time""
""fullscreenenter"",""1"",""13642""
""blur"",""2"",""19769""
""focus"",""4"",""45412""
""blur"",""48"",""270821""
""focus"",""49"",""303888""
""blur"",""59"",""341609""
""focus"",""61"",""348742""
","""event"",""trial"",""time""
""blur"",""2"",""19769""
""blur"",""48"",""270821""
""blur"",""59"",""341609""
","""event"",""trial"",""time""
""focus"",""4"",""45412""
""focus"",""49"",""303888""
""focus"",""61"",""348742""
","""event"",""trial"",""time""
""fullscreenenter"",""1"",""13642""
","
",,null,run_exp/static/images/task_images/gems/12.jpg,null,,,,,,,6,,,3,,,,,12,0.526530134,0.5,,,,,,,
decision,101,435021,0.0-33.0-2.0,"""event"",""trial"",""time""
""fullscreenenter"",""1"",""13642""
""blur"",""2"",""19769""
""focus"",""4"",""45412""
""blur"",""48"",""270821""
""focus"",""49"",""303888""
""blur"",""59"",""341609""
""focus"",""61"",""348742""
","""event"",""trial"",""time""
""blur"",""2"",""19769""
""blur"",""48"",""270821""
""blur"",""59"",""341609""
","""event"",""trial"",""time""
""focus"",""4"",""45412""
""focus"",""49"",""303888""
""focus"",""61"",""348742""
","""event"",""trial"",""time""
""fullscreenenter"",""1"",""13642""
","
",,608.4,run_exp/static/images/task_images/land.jpg,76,,,,,,,6,,,3,,,,,,,,74449,1,3,TRUE,,,
travel,102,444415,0.0-34.0-0.0,"""event"",""trial"",""time""
""fullscreenenter"",""1"",""13642""
""blur"",""2"",""19769""
""focus"",""4"",""45412""
""blur"",""48"",""270821""
""focus"",""49"",""303888""
""blur"",""59"",""341609""
""focus"",""61"",""348742""
","""event"",""trial"",""time""
""blur"",""2"",""19769""
""blur"",""48"",""270821""
""blur"",""59"",""341609""
","""event"",""trial"",""time""
""focus"",""4"",""45412""
""focus"",""49"",""303888""
""focus"",""61"",""348742""
","""event"",""trial"",""time""
""fullscreenenter"",""1"",""13642""
","
",,,,,,,,,,,,"[{""stimulus"":""run_exp/static/images/task_images/rocket-01.jpg"",""time"":0.19999998807907104},{""stimulus"":""run_exp/static/images/task_images/rocket-02.jpg"",""time"":1059.5999999642372},{""stimulus"":""run_exp/static/images/task_images/rocket-03.jpg"",""time"":2088.199999988079},{""stimulus"":""run_exp/static/images/task_images/rocket-04.jpg"",""time"":3131.899999976158},{""stimulus"":""run_exp/static/images/task_images/rocket-05.jpg"",""time"":4186.899999976158},{""stimulus"":""run_exp/static/images/task_images/rocket-06.jpg"",""time"":5231.5},{""stimulus"":""run_exp/static/images/task_images/rocket-07.jpg"",""time"":6261.399999976158},{""stimulus"":""run_exp/static/images/task_images/rocket-08.jpg"",""time"":7308.5},{""stimulus"":""run_exp/static/images/task_images/rocket-09.jpg"",""time"":8348.099999964237}]",[],3,,,,,,,,,,,,,,
alien_welcome,103,449424,0.0-34.0-1.0,"""event"",""trial"",""time""
""fullscreenenter"",""1"",""13642""
""blur"",""2"",""19769""
""focus"",""4"",""45412""
""blur"",""48"",""270821""
""focus"",""49"",""303888""
""blur"",""59"",""341609""
""focus"",""61"",""348742""
","""event"",""trial"",""time""
""blur"",""2"",""19769""
""blur"",""48"",""270821""
""blur"",""59"",""341609""
","""event"",""trial"",""time""
""focus"",""4"",""45412""
""focus"",""49"",""303888""
""focus"",""61"",""348742""
","""event"",""trial"",""time""
""fullscreenenter"",""1"",""13642""
","
",,null,run_exp/static/images/task_images/aliens/old_aliens/planet/alien_planet-52.jpg,null,,,,,,,,,,,,,52,"41,68,5,52,67,40,54,45,32,19,56,57,1,7,33,73,35,51,38,11,78,79,62,53,49,16,61,65,46,34,30,25,4,43,9,76,60,69",,,,,,,,,,
land,104,449940,0.0-34.0-2.0,"""event"",""trial"",""time""
""fullscreenenter"",""1"",""13642""
""blur"",""2"",""19769""
""focus"",""4"",""45412""
""blur"",""48"",""270821""
""focus"",""49"",""303888""
""blur"",""59"",""341609""
""focus"",""61"",""348742""
","""event"",""trial"",""time""
""blur"",""2"",""19769""
""blur"",""48"",""270821""
""blur"",""59"",""341609""
","""event"",""trial"",""time""
""focus"",""4"",""45412""
""focus"",""49"",""303888""
""focus"",""61"",""348742""
","""event"",""trial"",""time""
""fullscreenenter"",""1"",""13642""
","
",,null,run_exp/static/images/task_images/land.jpg,null,,,,,,,101,,,4,,,,,,,,,,,,,,
dig,105,451946,0.0-34.0-3.0,"""event"",""trial"",""time""
""fullscreenenter"",""1"",""13642""
""blur"",""2"",""19769""
""focus"",""4"",""45412""
""blur"",""48"",""270821""
""focus"",""49"",""303888""
""blur"",""59"",""341609""
""focus"",""61"",""348742""
","""event"",""trial"",""time""
""blur"",""2"",""19769""
""blur"",""48"",""270821""
""blur"",""59"",""341609""
","""event"",""trial"",""time""
""focus"",""4"",""45412""
""focus"",""49"",""303888""
""focus"",""61"",""348742""
","""event"",""trial"",""time""
""fullscreenenter"",""1"",""13642""
","
",,,,,,,,,,,,"[{""stimulus"":""run_exp/static/images/task_images/dig.jpg"",""time"":0.19999998807907104},{""stimulus"":""run_exp/static/images/task_images/land.jpg"",""time"":670.3999999761581},{""stimulus"":""run_exp/static/images/task_images/dig.jpg"",""time"":1338.5999999642372}]",[],4,,,,,,,,,,,,,,
harvest,106,452961,0.0-34.0-4.0,"""event"",""trial"",""time""
""fullscreenenter"",""1"",""13642""
""blur"",""2"",""19769""
""focus"",""4"",""45412""
""blur"",""48"",""270821""
""focus"",""49"",""303888""
""blur"",""59"",""341609""
""focus"",""61"",""348742""
","""event"",""trial"",""time""
""blur"",""2"",""19769""
""blur"",""48"",""270821""
""blur"",""59"",""341609""
","""event"",""trial"",""time""
""focus"",""4"",""45412""
""focus"",""49"",""303888""
""focus"",""61"",""348742""
","""event"",""trial"",""time""
""fullscreenenter"",""1"",""13642""
","
",,null,run_exp/static/images/task_images/gems/101.jpg,null,,,,,,,58,,,4,,,,,101,0.570771953,0.574257426,,,,,,,
decision,107,453024,0.0-34.0-5.0,"""event"",""trial"",""time""
""fullscreenenter"",""1"",""13642""
""blur"",""2"",""19769""
""focus"",""4"",""45412""
""blur"",""48"",""270821""
""focus"",""49"",""303888""
""blur"",""59"",""341609""
""focus"",""61"",""348742""
","""event"",""trial"",""time""
""blur"",""2"",""19769""
""blur"",""48"",""270821""
""blur"",""59"",""341609""
","""event"",""trial"",""time""
""focus"",""4"",""45412""
""focus"",""49"",""303888""
""focus"",""61"",""348742""
","""event"",""trial"",""time""
""fullscreenenter"",""1"",""13642""
","
",,61.10000002,run_exp/static/images/task_images/land.jpg,65,,,,,,,58,,,4,,,,,,,,92452,1,0,FALSE,,,
dig,108,455978,0.0-35.0-0.0,"""event"",""trial"",""time""
""fullscreenenter"",""1"",""13642""
""blur"",""2"",""19769""
""focus"",""4"",""45412""
""blur"",""48"",""270821""
""focus"",""49"",""303888""
""blur"",""59"",""341609""
""focus"",""61"",""348742""
","""event"",""trial"",""time""
""blur"",""2"",""19769""
""blur"",""48"",""270821""
""blur"",""59"",""341609""
","""event"",""trial"",""time""
""focus"",""4"",""45412""
""focus"",""49"",""303888""
""focus"",""61"",""348742""
","""event"",""trial"",""time""
""fullscreenenter"",""1"",""13642""
","
",,,,,,,,,,,,"[{""stimulus"":""run_exp/static/images/task_images/dig.jpg"",""time"":0.30000001192092896},{""stimulus"":""run_exp/static/images/task_images/land.jpg"",""time"":989.1999999880791},{""stimulus"":""run_exp/static/images/task_images/dig.jpg"",""time"":1972.3999999761581}]",[],4,,,,,,,,,,,,,,
harvest,109,456980,0.0-35.0-1.0,"""event"",""trial"",""time""
""fullscreenenter"",""1"",""13642""
""blur"",""2"",""19769""
""focus"",""4"",""45412""
""blur"",""48"",""270821""
""focus"",""49"",""303888""
""blur"",""59"",""341609""
""focus"",""61"",""348742""
","""event"",""trial"",""time""
""blur"",""2"",""19769""
""blur"",""48"",""270821""
""blur"",""59"",""341609""
","""event"",""trial"",""time""
""focus"",""4"",""45412""
""focus"",""49"",""303888""
""focus"",""61"",""348742""
","""event"",""trial"",""time""
""fullscreenenter"",""1"",""13642""
","
",,null,run_exp/static/images/task_images/gems/58.jpg,null,,,,,,,28,,,4,,,,,58,0.482806545,0.482758621,,,,,,,
decision,110,457068,0.0-35.0-2.0,"""event"",""trial"",""time""
""fullscreenenter"",""1"",""13642""
""blur"",""2"",""19769""
""focus"",""4"",""45412""
""blur"",""48"",""270821""
""focus"",""49"",""303888""
""blur"",""59"",""341609""
""focus"",""61"",""348742""
","""event"",""trial"",""time""
""blur"",""2"",""19769""
""blur"",""48"",""270821""
""blur"",""59"",""341609""
","""event"",""trial"",""time""
""focus"",""4"",""45412""
""focus"",""49"",""303888""
""focus"",""61"",""348742""
","""event"",""trial"",""time""
""fullscreenenter"",""1"",""13642""
","
",,87.39999998,run_exp/static/images/task_images/land.jpg,65,,,,,,,28,,,4,,,,,,,,96496,1,1,FALSE,,,
dig,111,459996,0.0-36.0-0.0,"""event"",""trial"",""time""
""fullscreenenter"",""1"",""13642""
""blur"",""2"",""19769""
""focus"",""4"",""45412""
""blur"",""48"",""270821""
""focus"",""49"",""303888""
""blur"",""59"",""341609""
""focus"",""61"",""348742""
","""event"",""trial"",""time""
""blur"",""2"",""19769""
""blur"",""48"",""270821""
""blur"",""59"",""341609""
","""event"",""trial"",""time""
""focus"",""4"",""45412""
""focus"",""49"",""303888""
""focus"",""61"",""348742""
","""event"",""trial"",""time""
""fullscreenenter"",""1"",""13642""
","
",,,,,,,,,,,,"[{""stimulus"":""run_exp/static/images/task_images/dig.jpg"",""time"":0.09999996423721313},{""stimulus"":""run_exp/static/images/task_images/land.jpg"",""time"":974.5},{""stimulus"":""run_exp/static/images/task_images/dig.jpg"",""time"":1946.199999988079}]",[],4,,,,,,,,,,,,,,
harvest,112,461006,0.0-36.0-1.0,"""event"",""trial"",""time""
""fullscreenenter"",""1"",""13642""
""blur"",""2"",""19769""
""focus"",""4"",""45412""
""blur"",""48"",""270821""
""focus"",""49"",""303888""
""blur"",""59"",""341609""
""focus"",""61"",""348742""
","""event"",""trial"",""time""
""blur"",""2"",""19769""
""blur"",""48"",""270821""
""blur"",""59"",""341609""
","""event"",""trial"",""time""
""focus"",""4"",""45412""
""focus"",""49"",""303888""
""focus"",""61"",""348742""
","""event"",""trial"",""time""
""fullscreenenter"",""1"",""13642""
","
",,null,run_exp/static/images/task_images/gems/28.jpg,null,,,,,,,13,,,4,,,,,28,0.479042455,0.464285714,,,,,,,
decision,113,461325,0.0-36.0-2.0,"""event"",""trial"",""time""
""fullscreenenter"",""1"",""13642""
""blur"",""2"",""19769""
""focus"",""4"",""45412""
""blur"",""48"",""270821""
""focus"",""49"",""303888""
""blur"",""59"",""341609""
""focus"",""61"",""348742""
","""event"",""trial"",""time""
""blur"",""2"",""19769""
""blur"",""48"",""270821""
""blur"",""59"",""341609""
","""event"",""trial"",""time""
""focus"",""4"",""45412""
""focus"",""49"",""303888""
""focus"",""61"",""348742""
","""event"",""trial"",""time""
""fullscreenenter"",""1"",""13642""
","
",,317.5,run_exp/static/images/task_images/land.jpg,65,,,,,,,13,,,4,,,,,,,,100753,1,2,FALSE,,,
dig,114,464021,0.0-37.0-0.0,"""event"",""trial"",""time""
""fullscreenenter"",""1"",""13642""
""blur"",""2"",""19769""
""focus"",""4"",""45412""
""blur"",""48"",""270821""
""focus"",""49"",""303888""
""blur"",""59"",""341609""
""focus"",""61"",""348742""
","""event"",""trial"",""time""
""blur"",""2"",""19769""
""blur"",""48"",""270821""
""blur"",""59"",""341609""
","""event"",""trial"",""time""
""focus"",""4"",""45412""
""focus"",""49"",""303888""
""focus"",""61"",""348742""
","""event"",""trial"",""time""
""fullscreenenter"",""1"",""13642""
","
",,,,,,,,,,,,"[{""stimulus"":""run_exp/static/images/task_images/dig.jpg"",""time"":0.19999998807907104},{""stimulus"":""run_exp/static/images/task_images/land.jpg"",""time"":906.5},{""stimulus"":""run_exp/static/images/task_images/dig.jpg"",""time"":1792}]",[],4,,,,,,,,,,,,,,
harvest,115,465032,0.0-37.0-1.0,"""event"",""trial"",""time""
""fullscreenenter"",""1"",""13642""
""blur"",""2"",""19769""
""focus"",""4"",""45412""
""blur"",""48"",""270821""
""focus"",""49"",""303888""
""blur"",""59"",""341609""
""focus"",""61"",""348742""
","""event"",""trial"",""time""
""blur"",""2"",""19769""
""blur"",""48"",""270821""
""blur"",""59"",""341609""
","""event"",""trial"",""time""
""focus"",""4"",""45412""
""focus"",""49"",""303888""
""focus"",""61"",""348742""
","""event"",""trial"",""time""
""fullscreenenter"",""1"",""13642""
","
",,null,run_exp/static/images/task_images/gems/13.jpg,null,,,,,,,8,,,4,,,,,13,0.582001901,0.615384615,,,,,,,
decision,116,465432,0.0-37.0-2.0,"""event"",""trial"",""time""
""fullscreenenter"",""1"",""13642""
""blur"",""2"",""19769""
""focus"",""4"",""45412""
""blur"",""48"",""270821""
""focus"",""49"",""303888""
""blur"",""59"",""341609""
""focus"",""61"",""348742""
","""event"",""trial"",""time""
""blur"",""2"",""19769""
""blur"",""48"",""270821""
""blur"",""59"",""341609""
","""event"",""trial"",""time""
""focus"",""4"",""45412""
""focus"",""49"",""303888""
""focus"",""61"",""348742""
","""event"",""trial"",""time""
""fullscreenenter"",""1"",""13642""
","
",,398.1,run_exp/static/images/task_images/land.jpg,76,,,,,,,8,,,4,,,,,,,,104860,1,3,TRUE,,,
travel,117,475044,0.0-38.0-0.0,"""event"",""trial"",""time""
""fullscreenenter"",""1"",""13642""
""blur"",""2"",""19769""
""focus"",""4"",""45412""
""blur"",""48"",""270821""
""focus"",""49"",""303888""
""blur"",""59"",""341609""
""focus"",""61"",""348742""
","""event"",""trial"",""time""
""blur"",""2"",""19769""
""blur"",""48"",""270821""
""blur"",""59"",""341609""
","""event"",""trial"",""time""
""focus"",""4"",""45412""
""focus"",""49"",""303888""
""focus"",""61"",""348742""
","""event"",""trial"",""time""
""fullscreenenter"",""1"",""13642""
","
",,,,,,,,,,,,"[{""stimulus"":""run_exp/static/images/task_images/rocket-01.jpg"",""time"":0.30000001192092896},{""stimulus"":""run_exp/static/images/task_images/rocket-02.jpg"",""time"":1077.1000000238419},{""stimulus"":""run_exp/static/images/task_images/rocket-03.jpg"",""time"":2138.199999988079},{""stimulus"":""run_exp/static/images/task_images/rocket-04.jpg"",""time"":3202.399999976158},{""stimulus"":""run_exp/static/images/task_images/rocket-05.jpg"",""time"":4268.300000011921},{""stimulus"":""run_exp/static/images/task_images/rocket-06.jpg"",""time"":5348.5},{""stimulus"":""run_exp/static/images/task_images/rocket-07.jpg"",""time"":6400.800000011921},{""stimulus"":""run_exp/static/images/task_images/rocket-08.jpg"",""time"":7476.600000023842},{""stimulus"":""run_exp/static/images/task_images/rocket-09.jpg"",""time"":8534.800000011921}]",[],4,,,,,,,,,,,,,,
alien_welcome,118,480051,0.0-38.0-1.0,"""event"",""trial"",""time""
""fullscreenenter"",""1"",""13642""
""blur"",""2"",""19769""
""focus"",""4"",""45412""
""blur"",""48"",""270821""
""focus"",""49"",""303888""
""blur"",""59"",""341609""
""focus"",""61"",""348742""
","""event"",""trial"",""time""
""blur"",""2"",""19769""
""blur"",""48"",""270821""
""blur"",""59"",""341609""
","""event"",""trial"",""time""
""focus"",""4"",""45412""
""focus"",""49"",""303888""
""focus"",""61"",""348742""
","""event"",""trial"",""time""
""fullscreenenter"",""1"",""13642""
","
",,null,run_exp/static/images/task_images/aliens/old_aliens/planet/alien_planet-67.jpg,null,,,,,,,,,,,,,67,"41,68,5,52,67,40,54,45,32,19,56,57,1,7,33,73,35,51,38,11,78,79,62,53,49,16,61,65,46,34,30,25,4,43,9,76,60,69",,,,,,,,,,
land,119,480566,0.0-38.0-2.0,"""event"",""trial"",""time""
""fullscreenenter"",""1"",""13642""
""blur"",""2"",""19769""
""focus"",""4"",""45412""
""blur"",""48"",""270821""
""focus"",""49"",""303888""
""blur"",""59"",""341609""
""focus"",""61"",""348742""
","""event"",""trial"",""time""
""blur"",""2"",""19769""
""blur"",""48"",""270821""
""blur"",""59"",""341609""
","""event"",""trial"",""time""
""focus"",""4"",""45412""
""focus"",""49"",""303888""
""focus"",""61"",""348742""
","""event"",""trial"",""time""
""fullscreenenter"",""1"",""13642""
","
",,null,run_exp/static/images/task_images/land.jpg,null,,,,,,,104,,,5,,,,,,,,,,,,,,
dig,120,482579,0.0-38.0-3.0,"""event"",""trial"",""time""
""fullscreenenter"",""1"",""13642""
""blur"",""2"",""19769""
""focus"",""4"",""45412""
""blur"",""48"",""270821""
""focus"",""49"",""303888""
""blur"",""59"",""341609""
""focus"",""61"",""348742""
","""event"",""trial"",""time""
""blur"",""2"",""19769""
""blur"",""48"",""270821""
""blur"",""59"",""341609""
","""event"",""trial"",""time""
""focus"",""4"",""45412""
""focus"",""49"",""303888""
""focus"",""61"",""348742""
","""event"",""trial"",""time""
""fullscreenenter"",""1"",""13642""
","
",,,,,,,,,,,,"[{""stimulus"":""run_exp/static/images/task_images/dig.jpg"",""time"":0.19999998807907104},{""stimulus"":""run_exp/static/images/task_images/land.jpg"",""time"":684},{""stimulus"":""run_exp/static/images/task_images/dig.jpg"",""time"":1336.3999999761581}]",[],5,,,,,,,,,,,,,,
harvest,121,483589,0.0-38.0-4.0,"""event"",""trial"",""time""
""fullscreenenter"",""1"",""13642""
""blur"",""2"",""19769""
""focus"",""4"",""45412""
""blur"",""48"",""270821""
""focus"",""49"",""303888""
""blur"",""59"",""341609""
""focus"",""61"",""348742""
","""event"",""trial"",""time""
""blur"",""2"",""19769""
""blur"",""48"",""270821""
""blur"",""59"",""341609""
","""event"",""trial"",""time""
""focus"",""4"",""45412""
""focus"",""49"",""303888""
""focus"",""61"",""348742""
","""event"",""trial"",""time""
""fullscreenenter"",""1"",""13642""
","
",,null,run_exp/static/images/task_images/gems/104.jpg,null,,,,,,,53,,,5,,,,,104,0.505269438,0.509615385,,,,,,,
decision,122,484383,0.0-38.0-5.0,"""event"",""trial"",""time""
""fullscreenenter"",""1"",""13642""
""blur"",""2"",""19769""
""focus"",""4"",""45412""
""blur"",""48"",""270821""
""focus"",""49"",""303888""
""blur"",""59"",""341609""
""focus"",""61"",""348742""
","""event"",""trial"",""time""
""blur"",""2"",""19769""
""blur"",""48"",""270821""
""blur"",""59"",""341609""
","""event"",""trial"",""time""
""focus"",""4"",""45412""
""focus"",""49"",""303888""
""focus"",""61"",""348742""
","""event"",""trial"",""time""
""fullscreenenter"",""1"",""13642""
","
",,791.6,run_exp/static/images/task_images/land.jpg,65,,,,,,,53,,,5,,,,,,,,123811,1,0,FALSE,,,
dig,123,486602,0.0-39.0-0.0,"""event"",""trial"",""time""
""fullscreenenter"",""1"",""13642""
""blur"",""2"",""19769""
""focus"",""4"",""45412""
""blur"",""48"",""270821""
""focus"",""49"",""303888""
""blur"",""59"",""341609""
""focus"",""61"",""348742""
","""event"",""trial"",""time""
""blur"",""2"",""19769""
""blur"",""48"",""270821""
""blur"",""59"",""341609""
","""event"",""trial"",""time""
""focus"",""4"",""45412""
""focus"",""49"",""303888""
""focus"",""61"",""348742""
","""event"",""trial"",""time""
""fullscreenenter"",""1"",""13642""
","
",,,,,,,,,,,,"[{""stimulus"":""run_exp/static/images/task_images/dig.jpg"",""time"":0.20000004768371582},{""stimulus"":""run_exp/static/images/task_images/land.jpg"",""time"":750.2000000476837},{""stimulus"":""run_exp/static/images/task_images/dig.jpg"",""time"":1483.2000000476837}]",[],5,,,,,,,,,,,,,,
harvest,124,487608,0.0-39.0-1.0,"""event"",""trial"",""time""
""fullscreenenter"",""1"",""13642""
""blur"",""2"",""19769""
""focus"",""4"",""45412""
""blur"",""48"",""270821""
""focus"",""49"",""303888""
""blur"",""59"",""341609""
""focus"",""61"",""348742""
","""event"",""trial"",""time""
""blur"",""2"",""19769""
""blur"",""48"",""270821""
""blur"",""59"",""341609""
","""event"",""trial"",""time""
""focus"",""4"",""45412""
""focus"",""49"",""303888""
""focus"",""61"",""348742""
","""event"",""trial"",""time""
""fullscreenenter"",""1"",""13642""
","
",,null,run_exp/static/images/task_images/gems/53.jpg,null,,,,,,,28,,,5,,,,,53,0.536592542,0.528301887,,,,,,,
decision,125,488151,0.0-39.0-2.0,"""event"",""trial"",""time""
""fullscreenenter"",""1"",""13642""
""blur"",""2"",""19769""
""focus"",""4"",""45412""
""blur"",""48"",""270821""
""focus"",""49"",""303888""
""blur"",""59"",""341609""
""focus"",""61"",""348742""
","""event"",""trial"",""time""
""blur"",""2"",""19769""
""blur"",""48"",""270821""
""blur"",""59"",""341609""
","""event"",""trial"",""time""
""focus"",""4"",""45412""
""focus"",""49"",""303888""
""focus"",""61"",""348742""
","""event"",""trial"",""time""
""fullscreenenter"",""1"",""13642""
","
",,541.5,run_exp/static/images/task_images/land.jpg,65,,,,,,,28,,,5,,,,,,,,127579,1,1,FALSE,,,
dig,126,490617,0.0-40.0-0.0,"""event"",""trial"",""time""
""fullscreenenter"",""1"",""13642""
""blur"",""2"",""19769""
""focus"",""4"",""45412""
""blur"",""48"",""270821""
""focus"",""49"",""303888""
""blur"",""59"",""341609""
""focus"",""61"",""348742""
","""event"",""trial"",""time""
""blur"",""2"",""19769""
""blur"",""48"",""270821""
""blur"",""59"",""341609""
","""event"",""trial"",""time""
""focus"",""4"",""45412""
""focus"",""49"",""303888""
""focus"",""61"",""348742""
","""event"",""trial"",""time""
""fullscreenenter"",""1"",""13642""
","
",,,,,,,,,,,,"[{""stimulus"":""run_exp/static/images/task_images/dig.jpg"",""time"":0.19999998807907104},{""stimulus"":""run_exp/static/images/task_images/land.jpg"",""time"":820.8000000119209},{""stimulus"":""run_exp/static/images/task_images/dig.jpg"",""time"":1652.199999988079}]",[],5,,,,,,,,,,,,,,
harvest,127,491620,0.0-40.0-1.0,"""event"",""trial"",""time""
""fullscreenenter"",""1"",""13642""
""blur"",""2"",""19769""
""focus"",""4"",""45412""
""blur"",""48"",""270821""
""focus"",""49"",""303888""
""blur"",""59"",""341609""
""focus"",""61"",""348742""
","""event"",""trial"",""time""
""blur"",""2"",""19769""
""blur"",""48"",""270821""
""blur"",""59"",""341609""
","""event"",""trial"",""time""
""focus"",""4"",""45412""
""focus"",""49"",""303888""
""focus"",""61"",""348742""
","""event"",""trial"",""time""
""fullscreenenter"",""1"",""13642""
","
",,null,run_exp/static/images/task_images/gems/28.jpg,null,,,,,,,14,,,5,,,,,28,0.49048863,0.5,,,,,,,
decision,128,491911,0.0-40.0-2.0,"""event"",""trial"",""time""
""fullscreenenter"",""1"",""13642""
""blur"",""2"",""19769""
""focus"",""4"",""45412""
""blur"",""48"",""270821""
""focus"",""49"",""303888""
""blur"",""59"",""341609""
""focus"",""61"",""348742""
","""event"",""trial"",""time""
""blur"",""2"",""19769""
""blur"",""48"",""270821""
""blur"",""59"",""341609""
","""event"",""trial"",""time""
""focus"",""4"",""45412""
""focus"",""49"",""303888""
""focus"",""61"",""348742""
","""event"",""trial"",""time""
""fullscreenenter"",""1"",""13642""
","
",,289,run_exp/static/images/task_images/land.jpg,65,,,,,,,14,,,5,,,,,,,,131339,1,2,FALSE,,,
dig,129,494633,0.0-41.0-0.0,"""event"",""trial"",""time""
""fullscreenenter"",""1"",""13642""
""blur"",""2"",""19769""
""focus"",""4"",""45412""
""blur"",""48"",""270821""
""focus"",""49"",""303888""
""blur"",""59"",""341609""
""focus"",""61"",""348742""
","""event"",""trial"",""time""
""blur"",""2"",""19769""
""blur"",""48"",""270821""
""blur"",""59"",""341609""
","""event"",""trial"",""time""
""focus"",""4"",""45412""
""focus"",""49"",""303888""
""focus"",""61"",""348742""
","""event"",""trial"",""time""
""fullscreenenter"",""1"",""13642""
","
",,,,,,,,,,,,"[{""stimulus"":""run_exp/static/images/task_images/dig.jpg"",""time"":0.10000002384185791},{""stimulus"":""run_exp/static/images/task_images/land.jpg"",""time"":903.9000000357628},{""stimulus"":""run_exp/static/images/task_images/dig.jpg"",""time"":1816.6000000238419}]",[],5,,,,,,,,,,,,,,
harvest,130,495647,0.0-41.0-1.0,"""event"",""trial"",""time""
""fullscreenenter"",""1"",""13642""
""blur"",""2"",""19769""
""focus"",""4"",""45412""
""blur"",""48"",""270821""
""focus"",""49"",""303888""
""blur"",""59"",""341609""
""focus"",""61"",""348742""
","""event"",""trial"",""time""
""blur"",""2"",""19769""
""blur"",""48"",""270821""
""blur"",""59"",""341609""
","""event"",""trial"",""time""
""focus"",""4"",""45412""
""focus"",""49"",""303888""
""focus"",""61"",""348742""
","""event"",""trial"",""time""
""fullscreenenter"",""1"",""13642""
","
",,null,run_exp/static/images/task_images/gems/14.jpg,null,,,,,,,6,,,5,,,,,14,0.445132992,0.428571429,,,,,,,
decision,131,495863,0.0-41.0-2.0,"""event"",""trial"",""time""
""fullscreenenter"",""1"",""13642""
""blur"",""2"",""19769""
""focus"",""4"",""45412""
""blur"",""48"",""270821""
""focus"",""49"",""303888""
""blur"",""59"",""341609""
""focus"",""61"",""348742""
","""event"",""trial"",""time""
""blur"",""2"",""19769""
""blur"",""48"",""270821""
""blur"",""59"",""341609""
","""event"",""trial"",""time""
""focus"",""4"",""45412""
""focus"",""49"",""303888""
""focus"",""61"",""348742""
","""event"",""trial"",""time""
""fullscreenenter"",""1"",""13642""
","
",,214.7,run_exp/static/images/task_images/land.jpg,76,,,,,,,6,,,5,,,,,,,,135292,1,3,TRUE,,,
travel,132,505662,0.0-42.0-0.0,"""event"",""trial"",""time""
""fullscreenenter"",""1"",""13642""
""blur"",""2"",""19769""
""focus"",""4"",""45412""
""blur"",""48"",""270821""
""focus"",""49"",""303888""
""blur"",""59"",""341609""
""focus"",""61"",""348742""
","""event"",""trial"",""time""
""blur"",""2"",""19769""
""blur"",""48"",""270821""
""blur"",""59"",""341609""
","""event"",""trial"",""time""
""focus"",""4"",""45412""
""focus"",""49"",""303888""
""focus"",""61"",""348742""
","""event"",""trial"",""time""
""fullscreenenter"",""1"",""13642""
","
",,,,,,,,,,,,"[{""stimulus"":""run_exp/static/images/task_images/rocket-01.jpg"",""time"":0.19999998807907104},{""stimulus"":""run_exp/static/images/task_images/rocket-02.jpg"",""time"":1089.5},{""stimulus"":""run_exp/static/images/task_images/rocket-03.jpg"",""time"":2185.699999988079},{""stimulus"":""run_exp/static/images/task_images/rocket-04.jpg"",""time"":3276.5},{""stimulus"":""run_exp/static/images/task_images/rocket-05.jpg"",""time"":4350.099999964237},{""stimulus"":""run_exp/static/images/task_images/rocket-06.jpg"",""time"":5446.599999964237},{""stimulus"":""run_exp/static/images/task_images/rocket-07.jpg"",""time"":6534.199999988079},{""stimulus"":""run_exp/static/images/task_images/rocket-08.jpg"",""time"":7623.399999976158},{""stimulus"":""run_exp/static/images/task_images/rocket-09.jpg"",""time"":8706.399999976158}]",[],5,,,,,,,,,,,,,,
alien_welcome,133,510667,0.0-42.0-1.0,"""event"",""trial"",""time""
""fullscreenenter"",""1"",""13642""
""blur"",""2"",""19769""
""focus"",""4"",""45412""
""blur"",""48"",""270821""
""focus"",""49"",""303888""
""blur"",""59"",""341609""
""focus"",""61"",""348742""
","""event"",""trial"",""time""
""blur"",""2"",""19769""
""blur"",""48"",""270821""
""blur"",""59"",""341609""
","""event"",""trial"",""time""
""focus"",""4"",""45412""
""focus"",""49"",""303888""
""focus"",""61"",""348742""
","""event"",""trial"",""time""
""fullscreenenter"",""1"",""13642""
","
",,null,run_exp/static/images/task_images/aliens/old_aliens/planet/alien_planet-40.jpg,null,,,,,,,,,,,,,40,"41,68,5,52,67,40,54,45,32,19,56,57,1,7,33,73,35,51,38,11,78,79,62,53,49,16,61,65,46,34,30,25,4,43,9,76,60,69",,,,,,,,,,
land,134,511182,0.0-42.0-2.0,"""event"",""trial"",""time""
""fullscreenenter"",""1"",""13642""
""blur"",""2"",""19769""
""focus"",""4"",""45412""
""blur"",""48"",""270821""
""focus"",""49"",""303888""
""blur"",""59"",""341609""
""focus"",""61"",""348742""
","""event"",""trial"",""time""
""blur"",""2"",""19769""
""blur"",""48"",""270821""
""blur"",""59"",""341609""
","""event"",""trial"",""time""
""focus"",""4"",""45412""
""focus"",""49"",""303888""
""focus"",""61"",""348742""
","""event"",""trial"",""time""
""fullscreenenter"",""1"",""13642""
","
",,null,run_exp/static/images/task_images/land.jpg,null,,,,,,,102,,,6,,,,,,,,,,,,,,
dig,135,513200,0.0-42.0-3.0,"""event"",""trial"",""time""
""fullscreenenter"",""1"",""13642""
""blur"",""2"",""19769""
""focus"",""4"",""45412""
""blur"",""48"",""270821""
""focus"",""49"",""303888""
""blur"",""59"",""341609""
""focus"",""61"",""348742""
","""event"",""trial"",""time""
""blur"",""2"",""19769""
""blur"",""48"",""270821""
""blur"",""59"",""341609""
","""event"",""trial"",""time""
""focus"",""4"",""45412""
""focus"",""49"",""303888""
""focus"",""61"",""348742""
","""event"",""trial"",""time""
""fullscreenenter"",""1"",""13642""
","
",,,,,,,,,,,,"[{""stimulus"":""run_exp/static/images/task_images/dig.jpg"",""time"":0.3999999761581421},{""stimulus"":""run_exp/static/images/task_images/land.jpg"",""time"":682.1999999880791},{""stimulus"":""run_exp/static/images/task_images/dig.jpg"",""time"":1347.2999999523163}]",[],6,,,,,,,,,,,,,,
harvest,136,514213,0.0-42.0-4.0,"""event"",""trial"",""time""
""fullscreenenter"",""1"",""13642""
""blur"",""2"",""19769""
""focus"",""4"",""45412""
""blur"",""48"",""270821""
""focus"",""49"",""303888""
""blur"",""59"",""341609""
""focus"",""61"",""348742""
","""event"",""trial"",""time""
""blur"",""2"",""19769""
""blur"",""48"",""270821""
""blur"",""59"",""341609""
","""event"",""trial"",""time""
""focus"",""4"",""45412""
""focus"",""49"",""303888""
""focus"",""61"",""348742""
","""event"",""trial"",""time""
""fullscreenenter"",""1"",""13642""
","
",,null,run_exp/static/images/task_images/gems/102.jpg,null,,,,,,,83,,,6,,,,,102,0.809143218,0.81372549,,,,,,,
decision,137,514656,0.0-42.0-5.0,"""event"",""trial"",""time""
""fullscreenenter"",""1"",""13642""
""blur"",""2"",""19769""
""focus"",""4"",""45412""
""blur"",""48"",""270821""
""focus"",""49"",""303888""
""blur"",""59"",""341609""
""focus"",""61"",""348742""
","""event"",""trial"",""time""
""blur"",""2"",""19769""
""blur"",""48"",""270821""
""blur"",""59"",""341609""
