"trial_type","trial_index","time_elapsed","internal_node_id","interactions","blur_events","focus_events","fullscreenenter_events","fullscreenexit_events","success"
"pavlovia","0","4","0.0-0.0","""event"",""trial"",""time""
""fullscreenenter"",""1"",""6915""
","
","
","""event"",""trial"",""time""
""fullscreenenter"",""1"",""6915""
","
",""
"fullscreen","1","7873","0.0-1.0","""event"",""trial"",""time""
""fullscreenenter"",""1"",""6915""
""fullscreenexit"",""2"",""34640""
""blur"",""2"",""45603""
""focus"",""2"",""45628""
""blur"",""2"",""108617""
","""event"",""trial"",""time""
""blur"",""2"",""45603""
""blur"",""2"",""108617""
","""event"",""trial"",""time""
""focus"",""2"",""45628""
","""event"",""trial"",""time""
""fullscreenenter"",""1"",""6915""
","""event"",""trial"",""time""
""fullscreenexit"",""2"",""34640""
","true"
