"trial_type","trial_index","time_elapsed","internal_node_id","interactions","blur_events","focus_events","fullscreenenter_events","fullscreenexit_events","success"
"pavlovia","0","2","0.0-0.0","""event"",""trial"",""time""
""fullscreenenter"",""1"",""62314""
","
","
","""event"",""trial"",""time""
""fullscreenenter"",""1"",""62314""
","
",""
"fullscreen","1","63268","0.0-1.0","""event"",""trial"",""time""
""fullscreenenter"",""1"",""62314""
""fullscreenexit"",""2"",""103953""
""blur"",""2"",""110246""
""focus"",""2"",""110271""
","""event"",""trial"",""time""
""blur"",""2"",""110246""
","""event"",""trial"",""time""
""focus"",""2"",""110271""
","""event"",""trial"",""time""
""fullscreenenter"",""1"",""62314""
","""event"",""trial"",""time""
""fullscreenexit"",""2"",""103953""
","true"
