trial_type,trial_index,time_elapsed,internal_node_id,success,rt,stimulus,key_press,prompt,subject_id,age,gender,button_pressed,next_reward,animation_sequence,responses,planet,curr_prac_trial,n_prac_rounds,alien,aliens,reward_received,decay_rate_actual,decay_rate_exp,time_in_block,block_num,prt,last_trial_on_planet,button_html,bonus,num_failures
pavlovia,0,8,0.0-0.0,,,,,,,,,,,,,,,,,,,,,,,,,,,
fullscreen,1,30860,0.0-1.0,TRUE,,,,,,,,,,,,,,,,,,,,,,,,,,
instruc_welcome,2,40954,0.0-2.0,,null,run_exp/static/audio/clip_1_welcome.m4a,null,"<p>Howdy! In this experiment, you’ll be an explorer traveling through space to collect space treasure.</p><p>Your mission is to collect as much treasure as possible.</p><br><br><p><img src='run_exp/static/images/task_images/opening_img-01.jpg' height='300' width='auto'></p>",qg0xa3LZw5abJIK_1Y3uCvx5VSxv8Zo_MLRP_aeHez6dKSskUVzU,16.88,female,,,,,,,,,,,,,,,,,,,
audio-keyboard-response,3,57986,0.0-3.0,,null,run_exp/static/audio/clip_2_move.m4a,null,,,,,,,,,,,,,,,,,,,,,,,
welcome_dec,4,61593,0.0-4.0,,3590.3,"<p>Howdy! In this experiment, you’ll be an explorer traveling through space to collect space treasure.</p><p>Your mission is to collect as much treasure as possible.</p><br><br><p><img src='run_exp/static/images/task_images/opening_img-01.jpg' height='300' width='auto'></p>",,,,,,1,,,,,,,,,,,,,,,,,,
html-keyboard-response,5,76928,0.0-5.0,,15330.5,"<p>Howdy! In this experiment, you’ll be an explorer traveling through space to collect space treasure.</p><p>Your mission is to collect as much treasure as possible.</p><br><br><p><img src='run_exp/static/images/task_images/opening_img-01.jpg' height='300' width='auto'></p><button class=""jspsych-html-btn-unchosen""><img src=""run_exp/static/images/task_images/planet-01.jpg"" height=""50""></button><button class=""jspsych-html-btn-chosen""><img src=""run_exp/static/images/task_images/planet-02.jpg"" height=""50""></button><p><b>[press the space bar to lock in your answer]<b><br></p>",32,,,,,,,,,,,,,,,,,,,,,,,
instruc_goal,6,87197,0.0-6.0-0.0,,null,run_exp/static/audio/clip_3_goal.m4a,null,"<p> As a space explorer, you’ll visit different planets to dig for space treasure, these pink gems.</p> <p> The more treasure you dig up, the more bonus money you’ll win! </p><br><br><p><img src='run_exp/static/images/task_images/pink_gem.jpg' height='300' width='auto'></p>",,,,,,,,,,,,,,,,,,,,,,
instruc_goal,7,90143,0.0-6.0-1.0,,2943.7,"<p> As a space explorer, you’ll visit different planets to dig for space treasure, these pink gems.</p> <p> The more treasure you dig up, the more bonus money you’ll win! </p><br><br><p><img src='run_exp/static/images/task_images/pink_gem.jpg' height='300' width='auto'></p>",,,,,,1,,,,,,,,,,,,,,,,,,
html-keyboard-response,8,90531,0.0-6.0-2.0,,386.5,"<p> As a space explorer, you’ll visit different planets to dig for space treasure, these pink gems.</p> <p> The more treasure you dig up, the more bonus money you’ll win! </p><br><br><p><img src='run_exp/static/images/task_images/pink_gem.jpg' height='300' width='auto'></p><button class=""jspsych-html-btn-unchosen""><img src=""run_exp/static/images/task_images/planet-01.jpg"" height=""50""></button><button class=""jspsych-html-btn-chosen""><img src=""run_exp/static/images/task_images/planet-02.jpg"" height=""50""></button><p><b>[press the space bar to lock in your answer]<b><br></p>",32,,,,,,,,,,,,,,,,,,,,,,,
instruc_dig,9,106917,0.0-7.0-0.0,,null,run_exp/static/audio/clip_4_dig.m4a,null,,,,,,100,,,,,,,,,,,,,,,,,
instruc_dig_try,10,107460,0.0-7.0-1.0,,541.1,"<p> When you’ve arrived at a new planet, you will dig once. </p> <p>Then, you get to decide if you want to stay on the planet and dig again or travel to a new planet and dig there.</p> <p> To stay and dig, press the letter <strong>‘A’</strong> on your keyboard. Try pressing it now! </p><p><img src='run_exp/static/images/task_images/land.jpg'  height='700' width='auto'></p>",65,"<p> When you’ve arrived at a new planet, you will dig once. </p> <p>Then, you get to decide if you want to stay on the planet and dig again or travel to a new planet and dig there.</p> <p> To stay and dig, press the letter <strong>‘A’</strong> on your keyboard. Try pressing it now! </p><p><img src='run_exp/static/images/task_images/land.jpg'  height='700' width='auto'></p>",,,,,100,,,,,,,,,,,,,,,,,
dig_prac,11,109474,0.0-7.0-2.0,,,,,,,,,,,"[{""stimulus"":""run_exp/static/images/task_images/dig.jpg"",""time"":0.5},{""stimulus"":""run_exp/static/images/task_images/land.jpg"",""time"":668.6999999880791},{""stimulus"":""run_exp/static/images/task_images/dig.jpg"",""time"":1335.3999999910593}]",[],,,,,,,,,,,,,,,
instruc_travel,12,146106,0.0-7.0-3.0,,null,run_exp/static/audio/clip_5_travel.m4a,null,"<p>Every time you dig up gems, there are less gems on the planet, so the more you dig on a planet the fewer gems you’ll get with each dig.</p><p>When gems are running low, you may want to travel to a new planet. </p> <p>  Planets are very far apart in this galaxy, so it will take some time to travel between them. </p> <br><p>There are lots and lots of planets for you to visit, so you won’t be able to return to any planets you’ve seen before. </p><br><p>To leave this planet and travel to a new one, press the letter <strong>‘L’</strong> on your keyboard. Try pressing it now! </p><p><img src='run_exp/static/images/task_images/rocket-01.jpg'  height='600' width='auto'></p>",,,,,,,,,,,,,,,,,,,,,,
instruc_travel_try,13,147761,0.0-7.0-4.0,,1652.4,"<p>Every time you dig up gems, there are less gems on the planet, so the more you dig on a planet the fewer gems you’ll get with each dig.</p><p>When gems are running low, you may want to travel to a new planet. </p> <p>  Planets are very far apart in this galaxy, so it will take some time to travel between them. </p> <br><p>There are lots and lots of planets for you to visit, so you won’t be able to return to any planets you’ve seen before. </p><br><p>To leave this planet and travel to a new one, press the letter <strong>‘L’</strong> on your keyboard. Try pressing it now! </p><p><img src='run_exp/static/images/task_images/rocket-01.jpg'  height='600' width='auto'></p>",76,"<p>Every time you dig up gems, there are less gems on the planet, so the more you dig on a planet the fewer gems you’ll get with each dig.</p><p>When gems are running low, you may want to travel to a new planet. </p> <p>  Planets are very far apart in this galaxy, so it will take some time to travel between them. </p> <br><p>There are lots and lots of planets for you to visit, so you won’t be able to return to any planets you’ve seen before. </p><br><p>To leave this planet and travel to a new one, press the letter <strong>‘L’</strong> on your keyboard. Try pressing it now! </p><p><img src='run_exp/static/images/task_images/rocket-01.jpg'  height='600' width='auto'></p>",,,,,,,,,,,,,,,,,,,,,,
travel_prac,14,157764,0.0-7.0-5.0,,,,,,,,,,,"[{""stimulus"":""run_exp/static/images/task_images/rocket-01.jpg"",""time"":0.29999999701976776},{""stimulus"":""run_exp/static/images/task_images/rocket-02.jpg"",""time"":1112.7999999970198},{""stimulus"":""run_exp/static/images/task_images/rocket-03.jpg"",""time"":2223.7000000029802},{""stimulus"":""run_exp/static/images/task_images/rocket-04.jpg"",""time"":3334.7999999970198},{""stimulus"":""run_exp/static/images/task_images/rocket-05.jpg"",""time"":4445.70000000298},{""stimulus"":""run_exp/static/images/task_images/rocket-06.jpg"",""time"":5556.9000000059605},{""stimulus"":""run_exp/static/images/task_images/rocket-07.jpg"",""time"":6667.9000000059605},{""stimulus"":""run_exp/static/images/task_images/rocket-08.jpg"",""time"":7778.79999999702},{""stimulus"":""run_exp/static/images/task_images/rocket-09.jpg"",""time"":8889.5}]",[],0,,,,,,,,,,,,,,
instruc_alien_greet,15,185248,0.0-7.0-6.0,,null,run_exp/static/audio/clip_6_alien.m4a,null,"<p>When you arrive at a new planet, the alien who owns the treasure mine on that planet will greet you!</p><p>The better an alien takes care of their mine the easier it is to dig for gems. Some aliens take better care of their mine than others. So, you won’t get exactly the same amount of gems on each planet.</p><p>What the alien looks like does not tell you anything about how many gems there are on the planet.</p><br><p><img src=""run_exp/static/images/task_images/aliens/instructions_aliens/planet/alien_planet-1.jpg""  height=""600"" width=""auto""></p>",,,,,,,,,,,,,,,,,,,,,,
instruc_alien_greet,16,189106,0.0-7.0-7.0,,3853.8,"<p>When you arrive at a new planet, the alien who owns the treasure mine on that planet will greet you!</p><p>The better an alien takes care of their mine the easier it is to dig for gems. Some aliens take better care of their mine than others. So, you won’t get exactly the same amount of gems on each planet.</p><p>What the alien looks like does not tell you anything about how many gems there are on the planet.</p><br><p><img src=""run_exp/static/images/task_images/aliens/instructions_aliens/planet/alien_planet-1.jpg""  height=""600"" width=""auto""></p>",,,,,,1,,,,,,,,,,,,,,,,,,
html-keyboard-response,17,189846,0.0-7.0-8.0,,737.2,"<p>When you arrive at a new planet, the alien who owns the treasure mine on that planet will greet you!</p><p>The better an alien takes care of their mine the easier it is to dig for gems. Some aliens take better care of their mine than others. So, you won’t get exactly the same amount of gems on each planet.</p><p>What the alien looks like does not tell you anything about how many gems there are on the planet.</p><br><p><img src=""run_exp/static/images/task_images/aliens/instructions_aliens/planet/alien_planet-1.jpg""  height=""600"" width=""auto""></p><button class=""jspsych-html-btn-unchosen""><img src=""run_exp/static/images/task_images/planet-01.jpg"" height=""50""></button><button class=""jspsych-html-btn-chosen""><img src=""run_exp/static/images/task_images/planet-02.jpg"" height=""50""></button><p><b>[press the space bar to lock in your answer]<b><br></p>",32,,,,,,,,,,,,,,,,,,,,,,,
time_out,18,201255,0.0-8.0-0.0,,null,run_exp/static/audio/clip_7_timeout.m4a,null,"<p>If you don't make your choice fast enough, you’ll have to wait a few seconds before you can make another one.</p><p>You can’t dig for more gems or travel to new planets. You just have to sit and wait.</p><br><p><img src='run_exp/static/images/task_images/time_out.jpg'  height='600' width='auto'></p>",,,,,,,,,,,,,,,,,,,,,,
time_out,19,202862,0.0-8.0-1.0,,1603.2,"<p>If you don't make your choice fast enough, you’ll have to wait a few seconds before you can make another one.</p><p>You can’t dig for more gems or travel to new planets. You just have to sit and wait.</p><br><p><img src='run_exp/static/images/task_images/time_out.jpg'  height='600' width='auto'></p>",,,,,,1,,,,,,,,,,,,,,,,,,
html-keyboard-response,20,203261,0.0-8.0-2.0,,396.9,"<p>If you don't make your choice fast enough, you’ll have to wait a few seconds before you can make another one.</p><p>You can’t dig for more gems or travel to new planets. You just have to sit and wait.</p><br><p><img src='run_exp/static/images/task_images/time_out.jpg'  height='600' width='auto'></p><button class=""jspsych-html-btn-unchosen""><img src=""run_exp/static/images/task_images/planet-01.jpg"" height=""50""></button><button class=""jspsych-html-btn-chosen""><img src=""run_exp/static/images/task_images/planet-02.jpg"" height=""50""></button><p><b>[press the space bar to lock in your answer]<b><br></p>",32,,,,,,,,,,,,,,,,,,,,,,,
instruc_break,21,219184,0.0-9.0-0.0,,null,run_exp/static/audio/clip_8_break.m4a,null,"<p> After digging and traveling for a while, you’ll be able to take a break at home base. </p><p>The game will last 20 minutes no matter what.</p><p>You will visit home base every 5 minutes, so, you will visit home base three times during the game.</p><br><p><img src='run_exp/static/images/task_images/home_base.jpg' height='600' width='auto'></p>",,,,,,,,,,,,,,,,,,,,,,
instruc_break,22,220571,0.0-9.0-1.0,,1384.9,"<p> After digging and traveling for a while, you’ll be able to take a break at home base. </p><p>The game will last 20 minutes no matter what.</p><p>You will visit home base every 5 minutes, so, you will visit home base three times during the game.</p><br><p><img src='run_exp/static/images/task_images/home_base.jpg' height='600' width='auto'></p>",,,,,,1,,,,,,,,,,,,,,,,,,
html-keyboard-response,23,221823,0.0-9.0-2.0,,1249.2,"<p> After digging and traveling for a while, you’ll be able to take a break at home base. </p><p>The game will last 20 minutes no matter what.</p><p>You will visit home base every 5 minutes, so, you will visit home base three times during the game.</p><br><p><img src='run_exp/static/images/task_images/home_base.jpg' height='600' width='auto'></p><button class=""jspsych-html-btn-unchosen""><img src=""run_exp/static/images/task_images/planet-01.jpg"" height=""50""></button><button class=""jspsych-html-btn-chosen""><img src=""run_exp/static/images/task_images/planet-02.jpg"" height=""50""></button><p><b>[press the space bar to lock in your answer]<b><br></p>",32,,,,,,,,,,,,,,,,,,,,,,,
instruc_prac_game,24,232245,0.0-10.0-0.0,,null,run_exp/static/audio/clip_9_practice.m4a,null,"<p> Are you ready to play a practice game? </p> <p>In this practice game, you'll be digging up barrels of gems. But, in the real game, you'll be digging up the gems themselves. </p>",,,,,,,,,,,,,,,,,,,,,,
html-button-response,25,234173,0.0-10.0-1.0,,1926.4,"<p> Are you ready to play a practice game? </p> <p>In this practice game, you'll be digging up barrels of gems. But, in the real game, you'll be digging up the gems themselves. </p>",,,,,,0,,,,,,,,,,,,,,,,,,
alien_welcome_prac,26,239178,0.0-11.0-0.0,,null,run_exp/static/images/task_images/aliens/practice_aliens/planet/alien_planet-5.jpg,null,,,,,,,,,,,,,,,,,,,,,,,
land_prac,27,239680,0.0-11.0-1.0,,null,run_exp/static/images/task_images/land.jpg,null,,,,,,98,,,0,,,,,,,,,,,,,,
dig_prac,28,241685,0.0-11.0-2.0,,,,,,,,,,,"[{""stimulus"":""run_exp/static/images/task_images/dig.jpg"",""time"":0.6000000089406967},{""stimulus"":""run_exp/static/images/task_images/land.jpg"",""time"":669.3000000119209},{""stimulus"":""run_exp/static/images/task_images/dig.jpg"",""time"":1336}]",[],,,,,,,,,,,,,,,
harvest_prac,29,242687,0.0-11.0-3.0,,null,run_exp/static/images/task_images/barrel_text.jpg,null,,,,,,,,,,,,,,,,,,,,,,,
decision_prac,30,244283,0.0-11.0-4.0,,1593.7,run_exp/static/images/task_images/land.jpg,65,,,,,,,,,,1,,,,,,,,,,,,,
dig_prac,31,246290,0.0-12.0-0.0,,,,,,,,,,,"[{""stimulus"":""run_exp/static/images/task_images/dig.jpg"",""time"":0.20000000298023224},{""stimulus"":""run_exp/static/images/task_images/land.jpg"",""time"":668.9000000059605},{""stimulus"":""run_exp/static/images/task_images/dig.jpg"",""time"":1335.7999999970198}]",[],,,,,,,,,,,,,,,
harvest_prac,32,247294,0.0-12.0-1.0,,null,run_exp/static/images/task_images/barrel_text.jpg,null,,,,,,,,,,,,,,,,,,,,,,,
decision_prac,33,249163,0.0-12.0-2.0,,1867.3,run_exp/static/images/task_images/land.jpg,65,,,,,,,,,,2,,,,,,,,,,,,,
dig_prac,34,251170,0.0-13.0-0.0,,,,,,,,,,,"[{""stimulus"":""run_exp/static/images/task_images/dig.jpg"",""time"":0.29999999701976776},{""stimulus"":""run_exp/static/images/task_images/land.jpg"",""time"":669},{""stimulus"":""run_exp/static/images/task_images/dig.jpg"",""time"":1335.5999999940395}]",[],,,,,,,,,,,,,,,
harvest_prac,35,252172,0.0-13.0-1.0,,null,run_exp/static/images/task_images/barrel_text.jpg,null,,,,,,,,,,,,,,,,,,,,,,,
decision_prac,36,252708,0.0-13.0-2.0,,534.6,run_exp/static/images/task_images/land.jpg,65,,,,,,,,,,3,,,,,,,,,,,,,
dig_prac,37,254715,0.0-14.0-0.0,,,,,,,,,,,"[{""stimulus"":""run_exp/static/images/task_images/dig.jpg"",""time"":0.29999999701976776},{""stimulus"":""run_exp/static/images/task_images/land.jpg"",""time"":668.5999999940395},{""stimulus"":""run_exp/static/images/task_images/dig.jpg"",""time"":1336}]",[],,,,,,,,,,,,,,,
harvest_prac,38,255716,0.0-14.0-1.0,,null,run_exp/static/images/task_images/barrel_text.jpg,null,,,,,,,,,,,,,,,,,,,,,,,
decision_prac,39,256097,0.0-14.0-2.0,,379.2,run_exp/static/images/task_images/land.jpg,65,,,,,,,,,,4,,,,,,,,,,,,,
dig_prac,40,258105,0.0-15.0-0.0,,,,,,,,,,,"[{""stimulus"":""run_exp/static/images/task_images/dig.jpg"",""time"":0.4000000059604645},{""stimulus"":""run_exp/static/images/task_images/land.jpg"",""time"":669},{""stimulus"":""run_exp/static/images/task_images/dig.jpg"",""time"":1336.2000000029802}]",[],,,,,,,,,,,,,,,
harvest_prac,41,259107,0.0-15.0-1.0,,null,run_exp/static/images/task_images/barrel_text.jpg,null,,,,,,,,,,,,,,,,,,,,,,,
decision_prac,42,259788,0.0-15.0-2.0,,679.3,run_exp/static/images/task_images/land.jpg,65,,,,,,,,,,,1,,,,,,,,,,,,
quiz_instruc,43,276515,0.0-16.0-0.0,,16722.1,run_exp/static/audio/clip_10_quiz.m4a,,,,,,0,,,,,,,,,,,,,,,,,,
instruc_repeat,44,319681,0.0-16.0-1.0,,null,"<p> Are you ready to play a practice game? </p> <p>In this practice game, you'll be digging up barrels of gems. But, in the real game, you'll be digging up the gems themselves. </p>",null,"<p>In this game, your goal is to collect as many gems as you can. That’s how you will win bonus money. </p> <p>The entire game will last 20 minutes no matter how many gems you collect or how many planets you visit. </p><p>To stay on a planet and dig again, press the letter A on your keyboard. To leave for a new planet, press the letter L.</p><p>The more you dig on a planet, the fewer gems you’ll get with each dig which is why you might consider leaving for a new planet. </p><p>When you arrive at a new planet, you’ll be greeted by an alien. What the alien looks like does not tell you anything about how much treasure is on the planet. </p>",,,,,,,,,,,,,,,,,,,,,,
instruc_repeat_continue,45,324733,0.0-16.0-2.0,,5050.2,"<p> Are you ready to play a practice game? </p> <p>In this practice game, you'll be digging up barrels of gems. But, in the real game, you'll be digging up the gems themselves. </p>",,,,,,0,,,,,,,,,,,,,,,,,,
quiz_q_1_ask,46,341931,0.0-16.0-3.0,,17178.2,run_exp/static/audio/clip_11_q1_ask.m4a,,,,,,2,,,,,,,,,,,,,,,,,,
quiz_q_1_fb_correct,47,346063,0.0-17.0-0.0,,null,run_exp/static/audio/clip_12_q1_corrrect.m4a,null,<p>That’s correct. You win extra money by collecting more gems.</p>,,,,,,,,,,,,,,,,,,,,,,
quiz_q_2_ask,48,348729,0.0-17.0-1.0,,2663.8,run_exp/static/audio/clip_14_q2_ask.m4a,,,,,,1,,,,,,,,,,,,,,,,,,
quiz_q_2_fb_correct,49,352849,0.0-18.0-0.0,,null,run_exp/static/audio/clip_15_q2_correct.m4a,null,<p>That’s correct. The experiment is 20 minutes no matter what.</p>,,,,,,,,,,,,,,,,,,,,,,
quiz_q_3_ask,50,354916,0.0-18.0-1.0,,2061.4,run_exp/static/audio/clip_17_q3_ask.m4a,,,,,,1,,,,,,,,,,,,,,,,,,
quiz_q_3_fb_correct,51,359253,0.0-19.0-0.0,,null,run_exp/static/audio/clip_18_q3_correct.m4a,null,<p> That’s correct. You press the letter L to travel to a new planet.</p>,,,,,,,,,,,,,,,,,,,,,,
quiz_q_4_ask,52,361970,0.0-19.0-1.0,,2712.2,run_exp/static/audio/clip_20_q4_ask.m4a,,,,,,0,,,,,,,,,,,,,,,,,,
quiz_q_4_fb_correct,53,367704,0.0-20.0-0.0,,null,run_exp/static/audio/clip_21_q4_correct.m4a,null,<p> That’s correct. The more you dig on a planet the fewer gems you’ll get with each dig. </p>,,,,,,,,,,,,,,,,,,,,,,
quiz_q_5_ask,54,372520,0.0-20.0-1.0,,4812.5,run_exp/static/audio/clip_23_q5_ask.m4a,,,,,,1,,,,,,,,,,,,,,,,,,
quiz_q_5_fb_correct,55,377821,0.0-21.0-0.0,,null,run_exp/static/audio/clip_24_q5_correct.m4a,null,<p> That’s correct. The alien tells you nothing about how much treasure is on the planet.</p>,,,,,,,,,,,,,,,,,,,,,,
quiz_correct,56,381664,0.0-22.0-0.0,,null,run_exp/static/audio/clip_26_correct_quiz.m4a,null,,,,,,,,,,,,,,,,,,,,,,,
quiz_correct_continue,57,384545,0.0-22.0-1.0,,2878,<p>Good job! You're now ready to move on to the real game!</p>,,,,,,0,,,,,,,,,,,,,,,,,,
audio-keyboard-response,58,394983,0.0-22.0-2.0,,null,run_exp/static/audio/clip_28_real_game.m4a,null,,,,,,,,,,,,,,,,,,,,,,,
instruc_begin_exp_contine,59,396015,0.0-22.0-3.0,,1029.9,"<p>Now that you know how  to dig for space treasure and travel to new planets,you can start exploring! </p><p>Do you want to go over the instructions again or get started with the real game?</p>",,,,,,1,,,,,,1,,,,,,,,,,,,
alien_welcome,60,401022,0.0-23.0-0.0,,null,run_exp/static/images/task_images/aliens/old_aliens/planet/alien_planet-70.jpg,null,,,,,,,,,,,,70,"70,50,27,45,43,69,10,14,46,55,68,22,32,4,5,19,7,36,28,33,6,77,20,16,65,59,80,42,47,54,9,26,72,29,13,23,73,24,31,30,11",,,,,,,,,,
land,61,401524,0.0-23.0-1.0,,null,run_exp/static/images/task_images/land.jpg,null,,,,,,98,,,1,,,,,,,,,,,,,,
dig,62,403531,0.0-23.0-2.0,,,,,,,,,,,"[{""stimulus"":""run_exp/static/images/task_images/dig.jpg"",""time"":0.4000000059604645},{""stimulus"":""run_exp/static/images/task_images/land.jpg"",""time"":669.1000000089407},{""stimulus"":""run_exp/static/images/task_images/dig.jpg"",""time"":1336.1000000089407}]",[],1,,,,,,,,,,,,,,
harvest,63,404533,0.0-23.0-3.0,,null,run_exp/static/images/task_images/gems/98.jpg,null,,,,,,30,,,1,,,,,98,0.305698098,0.306122449,,,,,,,
decision,64,405751,0.0-23.0-4.0,,1215.7,run_exp/static/images/task_images/land.jpg,65,,,,,,30,,,1,,,,,,,,9735,1,0,FALSE,,,
dig,65,407543,0.0-24.0-0.0,,,,,,,,,,,"[{""stimulus"":""run_exp/static/images/task_images/dig.jpg"",""time"":0.4000000059604645},{""stimulus"":""run_exp/static/images/task_images/land.jpg"",""time"":596.2000000029802},{""stimulus"":""run_exp/static/images/task_images/dig.jpg"",""time"":1190.4000000059605}]",[],1,,,,,,,,,,,,,,
harvest,66,408544,0.0-24.0-1.0,,null,run_exp/static/images/task_images/gems/30.jpg,null,,,,,,8,,,1,,,,,30,0.258372154,0.266666667,,,,,,,
decision,67,410479,0.0-24.0-2.0,,1933.4,run_exp/static/images/task_images/land.jpg,76,,,,,,8,,,1,,,,,,,,14463,1,1,TRUE,,,
travel,68,418549,0.0-25.0-0.0,,,,,,,,,,,"[{""stimulus"":""run_exp/static/images/task_images/rocket-01.jpg"",""time"":0.4000000059604645},{""stimulus"":""run_exp/static/images/task_images/rocket-02.jpg"",""time"":897.7000000029802},{""stimulus"":""run_exp/static/images/task_images/rocket-03.jpg"",""time"":1793.5},{""stimulus"":""run_exp/static/images/task_images/rocket-04.jpg"",""time"":2689.4000000059605},{""stimulus"":""run_exp/static/images/task_images/rocket-05.jpg"",""time"":3585.4000000059605},{""stimulus"":""run_exp/static/images/task_images/rocket-06.jpg"",""time"":4481.4000000059605},{""stimulus"":""run_exp/static/images/task_images/rocket-07.jpg"",""time"":5377.29999999702},{""stimulus"":""run_exp/static/images/task_images/rocket-08.jpg"",""time"":6273.5},{""stimulus"":""run_exp/static/images/task_images/rocket-09.jpg"",""time"":7169.5}]",[],1,,,,,,,,,,,,,,
alien_welcome,69,423552,0.0-25.0-1.0,,null,run_exp/static/images/task_images/aliens/old_aliens/planet/alien_planet-50.jpg,null,,,,,,,,,,,,50,"70,50,27,45,43,69,10,14,46,55,68,22,32,4,5,19,7,36,28,33,6,77,20,16,65,59,80,42,47,54,9,26,72,29,13,23,73,24,31,30,11",,,,,,,,,,
land,70,424054,0.0-25.0-2.0,,null,run_exp/static/images/task_images/land.jpg,null,,,,,,103,,,2,,,,,,,,,,,,,,
dig,71,426058,0.0-25.0-3.0,,,,,,,,,,,"[{""stimulus"":""run_exp/static/images/task_images/dig.jpg"",""time"":0.30000001192092896},{""stimulus"":""run_exp/static/images/task_images/land.jpg"",""time"":668.4000000059605},{""stimulus"":""run_exp/static/images/task_images/dig.jpg"",""time"":1335.300000011921}]",[],2,,,,,,,,,,,,,,
harvest,72,427060,0.0-25.0-4.0,,null,run_exp/static/images/task_images/gems/103.jpg,null,,,,,,20,,,2,,,,,103,0.191331006,0.194174757,,,,,,,
decision,73,427399,0.0-25.0-5.0,,337.2,run_exp/static/images/task_images/land.jpg,65,,,,,,20,,,2,,,,,,,,31382,1,0,FALSE,,,
dig,74,430065,0.0-26.0-0.0,,,,,,,,,,,"[{""stimulus"":""run_exp/static/images/task_images/dig.jpg"",""time"":0.3999999910593033},{""stimulus"":""run_exp/static/images/task_images/land.jpg"",""time"":888.5999999940395},{""stimulus"":""run_exp/static/images/task_images/dig.jpg"",""time"":1775.3999999910593}]",[],2,,,,,,,,,,,,,,
harvest,75,431066,0.0-26.0-1.0,,null,run_exp/static/images/task_images/gems/20.jpg,null,,,,,,3,,,2,,,,,20,0.153184998,0.15,,,,,,,
decision,76,431456,0.0-26.0-2.0,,388.5,run_exp/static/images/task_images/land.jpg,65,,,,,,3,,,2,,,,,,,,35439,1,1,FALSE,,,
dig,77,434072,0.0-27.0-0.0,,,,,,,,,,,"[{""stimulus"":""run_exp/static/images/task_images/dig.jpg"",""time"":0.29999999701976776},{""stimulus"":""run_exp/static/images/task_images/land.jpg"",""time"":871.5},{""stimulus"":""run_exp/static/images/task_images/dig.jpg"",""time"":1741.3999999910593}]",[],2,,,,,,,,,,,,,,
harvest,78,435075,0.0-27.0-1.0,,null,run_exp/static/images/task_images/gems/3.jpg,null,,,,,,1,,,2,,,,,3,0.188161828,0.333333333,,,,,,,
decision,79,436347,0.0-27.0-2.0,,1270.8,run_exp/static/images/task_images/land.jpg,76,,,,,,1,,,2,,,,,,,,40330,1,2,TRUE,,,
travel,80,445074,0.0-28.0-0.0,,,,,,,,,,,"[{""stimulus"":""run_exp/static/images/task_images/rocket-01.jpg"",""time"":0.4000000059604645},{""stimulus"":""run_exp/static/images/task_images/rocket-02.jpg"",""time"":970.4000000059605},{""stimulus"":""run_exp/static/images/task_images/rocket-03.jpg"",""time"":1939.6000000089407},{""stimulus"":""run_exp/static/images/task_images/rocket-04.jpg"",""time"":2908.2999999970198},{""stimulus"":""run_exp/static/images/task_images/rocket-05.jpg"",""time"":3877.4000000059605},{""stimulus"":""run_exp/static/images/task_images/rocket-06.jpg"",""time"":4846.20000000298},{""stimulus"":""run_exp/static/images/task_images/rocket-07.jpg"",""time"":5815.20000000298},{""stimulus"":""run_exp/static/images/task_images/rocket-08.jpg"",""time"":6784.29999999702},{""stimulus"":""run_exp/static/images/task_images/rocket-09.jpg"",""time"":7753.4000000059605}]",[],2,,,,,,,,,,,,,,
alien_welcome,81,450076,0.0-28.0-1.0,,null,run_exp/static/images/task_images/aliens/old_aliens/planet/alien_planet-27.jpg,null,,,,,,,,,,,,27,"70,50,27,45,43,69,10,14,46,55,68,22,32,4,5,19,7,36,28,33,6,77,20,16,65,59,80,42,47,54,9,26,72,29,13,23,73,24,31,30,11",,,,,,,,,,
land,82,450578,0.0-28.0-2.0,,null,run_exp/static/images/task_images/land.jpg,null,,,,,,107,,,3,,,,,,,,,,,,,,
dig,83,452582,0.0-28.0-3.0,,,,,,,,,,,"[{""stimulus"":""run_exp/static/images/task_images/dig.jpg"",""time"":0.29999999701976776},{""stimulus"":""run_exp/static/images/task_images/land.jpg"",""time"":668.2000000029802},{""stimulus"":""run_exp/static/images/task_images/dig.jpg"",""time"":1335.7000000029802}]",[],3,,,,,,,,,,,,,,
harvest,84,453583,0.0-28.0-4.0,,null,run_exp/static/images/task_images/gems/107.jpg,null,,,,,,60,,,3,,,,,107,0.561767937,0.560747664,,,,,,,
decision,85,453903,0.0-28.0-5.0,,317.7,run_exp/static/images/task_images/land.jpg,65,,,,,,60,,,3,,,,,,,,57886,1,0,FALSE,,,
dig,86,456590,0.0-29.0-0.0,,,,,,,,,,,"[{""stimulus"":""run_exp/static/images/task_images/dig.jpg"",""time"":0.20000000298023224},{""stimulus"":""run_exp/static/images/task_images/land.jpg"",""time"":895.6000000089407},{""stimulus"":""run_exp/static/images/task_images/dig.jpg"",""time"":1789.5}]",[],3,,,,,,,,,,,,,,
harvest,87,457591,0.0-29.0-1.0,,null,run_exp/static/images/task_images/gems/60.jpg,null,,,,,,27,,,3,,,,,60,0.448841712,0.45,,,,,,,
decision,88,457938,0.0-29.0-2.0,,344.9,run_exp/static/images/task_images/land.jpg,65,,,,,,27,,,3,,,,,,,,61921,1,1,FALSE,,,
dig,89,460598,0.0-30.0-0.0,,,,,,,,,,,"[{""stimulus"":""run_exp/static/images/task_images/dig.jpg"",""time"":0.09999999403953552},{""stimulus"":""run_exp/static/images/task_images/land.jpg"",""time"":886.3999999910593},{""stimulus"":""run_exp/static/images/task_images/dig.jpg"",""time"":1771.2999999970198}]",[],3,,,,,,,,,,,,,,
harvest,90,461602,0.0-30.0-1.0,,null,run_exp/static/images/task_images/gems/27.jpg,null,,,,,,14,,,3,,,,,27,0.516024765,0.518518519,,,,,,,
decision,91,461707,0.0-30.0-2.0,,104.1,run_exp/static/images/task_images/land.jpg,65,,,,,,14,,,3,,,,,,,,65690,1,2,FALSE,,,
dig,92,464608,0.0-31.0-0.0,,,,,,,,,,,"[{""stimulus"":""run_exp/static/images/task_images/dig.jpg"",""time"":0.20000000298023224},{""stimulus"":""run_exp/static/images/task_images/land.jpg"",""time"":966.2999999970198},{""stimulus"":""run_exp/static/images/task_images/dig.jpg"",""time"":1931.5}]",[],3,,,,,,,,,,,,,,
harvest,93,465609,0.0-31.0-1.0,,null,run_exp/static/images/task_images/gems/14.jpg,null,,,,,,8,,,3,,,,,14,0.549444079,0.571428571,,,,,,,
decision,94,465742,0.0-31.0-2.0,,131.2,run_exp/static/images/task_images/land.jpg,65,,,,,,8,,,3,,,,,,,,69725,1,3,FALSE,,,
dig,95,468616,0.0-32.0-0.0,,,,,,,,,,,"[{""stimulus"":""run_exp/static/images/task_images/dig.jpg"",""time"":0.29999999701976776},{""stimulus"":""run_exp/static/images/task_images/land.jpg"",""time"":957.9000000059605},{""stimulus"":""run_exp/static/images/task_images/dig.jpg"",""time"":1913.9000000059605}]",[],3,,,,,,,,,,,,,,
harvest,96,469618,0.0-32.0-1.0,,null,run_exp/static/images/task_images/gems/8.jpg,null,,,,,,4,,,3,,,,,8,0.543999405,0.5,,,,,,,
decision,97,470711,0.0-32.0-2.0,,1092.1,run_exp/static/images/task_images/land.jpg,76,,,,,,4,,,3,,,,,,,,74695,1,4,TRUE,,,
travel,98,479619,0.0-33.0-0.0,,,,,,,,,,,"[{""stimulus"":""run_exp/static/images/task_images/rocket-01.jpg"",""time"":0.19999998807907104},{""stimulus"":""run_exp/static/images/task_images/rocket-02.jpg"",""time"":991},{""stimulus"":""run_exp/static/images/task_images/rocket-03.jpg"",""time"":1979.199999988079},{""stimulus"":""run_exp/static/images/task_images/rocket-04.jpg"",""time"":2968.2999999970198},{""stimulus"":""run_exp/static/images/task_images/rocket-05.jpg"",""time"":3957.199999988079},{""stimulus"":""run_exp/static/images/task_images/rocket-06.jpg"",""time"":4946.29999999702},{""stimulus"":""run_exp/static/images/task_images/rocket-07.jpg"",""time"":5935.29999999702},{""stimulus"":""run_exp/static/images/task_images/rocket-08.jpg"",""time"":6924.199999988079},{""stimulus"":""run_exp/static/images/task_images/rocket-09.jpg"",""time"":7913.29999999702}]",[],3,,,,,,,,,,,,,,
alien_welcome,99,484621,0.0-33.0-1.0,,null,run_exp/static/images/task_images/aliens/old_aliens/planet/alien_planet-45.jpg,null,,,,,,,,,,,,45,"70,50,27,45,43,69,10,14,46,55,68,22,32,4,5,19,7,36,28,33,6,77,20,16,65,59,80,42,47,54,9,26,72,29,13,23,73,24,31,30,11",,,,,,,,,,
land,100,485123,0.0-33.0-2.0,,null,run_exp/static/images/task_images/land.jpg,null,,,,,,93,,,4,,,,,,,,,,,,,,
dig,101,487126,0.0-33.0-3.0,,,,,,,,,,,"[{""stimulus"":""run_exp/static/images/task_images/dig.jpg"",""time"":0.3999999910593033},{""stimulus"":""run_exp/static/images/task_images/land.jpg"",""time"":668.5999999940395},{""stimulus"":""run_exp/static/images/task_images/dig.jpg"",""time"":1336}]",[],4,,,,,,,,,,,,,,
harvest,102,488128,0.0-33.0-4.0,,null,run_exp/static/images/task_images/gems/93.jpg,null,,,,,,54,,,4,,,,,93,0.579692792,0.580645161,,,,,,,
decision,103,488521,0.0-33.0-5.0,,391.7,run_exp/static/images/task_images/land.jpg,65,,,,,,54,,,4,,,,,,,,92505,1,0,FALSE,,,
dig,104,491136,0.0-34.0-0.0,,,,,,,,,,,"[{""stimulus"":""run_exp/static/images/task_images/dig.jpg"",""time"":0.4000000059604645},{""stimulus"":""run_exp/static/images/task_images/land.jpg"",""time"":870.7999999970198},{""stimulus"":""run_exp/static/images/task_images/dig.jpg"",""time"":1739.7999999970198}]",[],4,,,,,,,,,,,,,,
harvest,105,492138,0.0-34.0-1.0,,null,run_exp/static/images/task_images/gems/54.jpg,null,,,,,,27,,,4,,,,,54,0.507371127,0.5,,,,,,,
decision,106,492777,0.0-34.0-2.0,,637.8,run_exp/static/images/task_images/land.jpg,65,,,,,,27,,,4,,,,,,,,96760,1,1,FALSE,,,
dig,107,495143,0.0-35.0-0.0,,,,,,,,,,,"[{""stimulus"":""run_exp/static/images/task_images/dig.jpg"",""time"":0.20000000298023224},{""stimulus"":""run_exp/static/images/task_images/land.jpg"",""time"":788.5999999940395},{""stimulus"":""run_exp/static/images/task_images/dig.jpg"",""time"":1575.7000000029802}]",[],4,,,,,,,,,,,,,,
harvest,108,496145,0.0-35.0-1.0,,null,run_exp/static/images/task_images/gems/27.jpg,null,,,,,,12,,,4,,,,,27,0.459907401,0.444444444,,,,,,,
decision,109,497272,0.0-35.0-2.0,,1124.1,run_exp/static/images/task_images/land.jpg,65,,,,,,12,,,4,,,,,,,,101255,1,2,FALSE,,,
dig,110,499152,0.0-36.0-0.0,,,,,,,,,,,"[{""stimulus"":""run_exp/static/images/task_images/dig.jpg"",""time"":0.20000000298023224},{""stimulus"":""run_exp/static/images/task_images/land.jpg"",""time"":626.2999999970198},{""stimulus"":""run_exp/static/images/task_images/dig.jpg"",""time"":1251.3999999910593}]",[],4,,,,,,,,,,,,,,
harvest,111,500154,0.0-36.0-1.0,,null,run_exp/static/images/task_images/gems/12.jpg,null,,,,,,6,,,4,,,,,12,0.536662287,0.5,,,,,,,
decision,112,501321,0.0-36.0-2.0,,1165.7,run_exp/static/images/task_images/land.jpg,76,,,,,,6,,,4,,,,,,,,105304,1,3,TRUE,,,
travel,113,510155,0.0-37.0-0.0,,,,,,,,,,,"[{""stimulus"":""run_exp/static/images/task_images/rocket-01.jpg"",""time"":0.20000000298023224},{""stimulus"":""run_exp/static/images/task_images/rocket-02.jpg"",""time"":982.8999999910593},{""stimulus"":""run_exp/static/images/task_images/rocket-03.jpg"",""time"":1963.3999999910593},{""stimulus"":""run_exp/static/images/task_images/rocket-04.jpg"",""time"":2944.2000000029802},{""stimulus"":""run_exp/static/images/task_images/rocket-05.jpg"",""time"":3925.5},{""stimulus"":""run_exp/static/images/task_images/rocket-06.jpg"",""time"":4906.399999991059},{""stimulus"":""run_exp/static/images/task_images/rocket-07.jpg"",""time"":5887.5},{""stimulus"":""run_exp/static/images/task_images/rocket-08.jpg"",""time"":6868.5},{""stimulus"":""run_exp/static/images/task_images/rocket-09.jpg"",""time"":7849.5}]",[],4,,,,,,,,,,,,,,
alien_welcome,114,515157,0.0-37.0-1.0,,null,run_exp/static/images/task_images/aliens/old_aliens/planet/alien_planet-43.jpg,null,,,,,,,,,,,,43,"70,50,27,45,43,69,10,14,46,55,68,22,32,4,5,19,7,36,28,33,6,77,20,16,65,59,80,42,47,54,9,26,72,29,13,23,73,24,31,30,11",,,,,,,,,,
land,115,515659,0.0-37.0-2.0,,null,run_exp/static/images/task_images/land.jpg,null,,,,,,98,,,5,,,,,,,,,,,,,,
dig,116,517664,0.0-37.0-3.0,,,,,,,,,,,"[{""stimulus"":""run_exp/static/images/task_images/dig.jpg"",""time"":0.3999999910593033},{""stimulus"":""run_exp/static/images/task_images/land.jpg"",""time"":668.5999999940395},{""stimulus"":""run_exp/static/images/task_images/dig.jpg"",""time"":1336}]",[],5,,,,,,,,,,,,,,
harvest,117,518666,0.0-37.0-4.0,,null,run_exp/static/images/task_images/gems/98.jpg,null,,,,,,54,,,5,,,,,98,0.548113332,0.551020408,,,,,,,
decision,118,519113,0.0-37.0-5.0,,445.7,run_exp/static/images/task_images/land.jpg,65,,,,,,54,,,5,,,,,,,,123096,1,0,FALSE,,,
dig,119,521672,0.0-38.0-0.0,,,,,,,,,,,"[{""stimulus"":""run_exp/static/images/task_images/dig.jpg"",""time"":0.30000001192092896},{""stimulus"":""run_exp/static/images/task_images/land.jpg"",""time"":852.9000000059605},{""stimulus"":""run_exp/static/images/task_images/dig.jpg"",""time"":1703.4000000059605}]",[],5,,,,,,,,,,,,,,
harvest,120,522674,0.0-38.0-1.0,,null,run_exp/static/images/task_images/gems/54.jpg,null,,,,,,24,,,5,,,,,54,0.439022231,0.444444444,,,,,,,
decision,121,522951,0.0-38.0-2.0,,275.3,run_exp/static/images/task_images/land.jpg,65,,,,,,24,,,5,,,,,,,,126934,1,1,FALSE,,,
dig,122,525680,0.0-39.0-0.0,,,,,,,,,,,"[{""stimulus"":""run_exp/static/images/task_images/dig.jpg"",""time"":0.20000000298023224},{""stimulus"":""run_exp/static/images/task_images/land.jpg"",""time"":909.3999999910593},{""stimulus"":""run_exp/static/images/task_images/dig.jpg"",""time"":1817.0999999940395}]",[],5,,,,,,,,,,,,,,
harvest,123,526686,0.0-39.0-1.0,,null,run_exp/static/images/task_images/gems/24.jpg,null,,,,,,13,,,5,,,,,24,0.535801038,0.541666667,,,,,,,
decision,124,527567,0.0-39.0-2.0,,879.3,run_exp/static/images/task_images/land.jpg,76,,,,,,13,,,5,,,,,,,,131550,1,2,TRUE,,,
travel,125,536690,0.0-40.0-0.0,,,,,,,,,,,"[{""stimulus"":""run_exp/static/images/task_images/rocket-01.jpg"",""time"":0.3999999910593033},{""stimulus"":""run_exp/static/images/task_images/rocket-02.jpg"",""time"":1014.2999999970198},{""stimulus"":""run_exp/static/images/task_images/rocket-03.jpg"",""time"":2027.8999999910593},{""stimulus"":""run_exp/static/images/task_images/rocket-04.jpg"",""time"":3040.7999999970198},{""stimulus"":""run_exp/static/images/task_images/rocket-05.jpg"",""time"":4053.7999999970198},{""stimulus"":""run_exp/static/images/task_images/rocket-06.jpg"",""time"":5066.899999991059},{""stimulus"":""run_exp/static/images/task_images/rocket-07.jpg"",""time"":6079.699999988079},{""stimulus"":""run_exp/static/images/task_images/rocket-08.jpg"",""time"":7092.899999991059},{""stimulus"":""run_exp/static/images/task_images/rocket-09.jpg"",""time"":8106}]",[],5,,,,,,,,,,,,,,
alien_welcome,126,541692,0.0-40.0-1.0,,null,run_exp/static/images/task_images/aliens/old_aliens/planet/alien_planet-69.jpg,null,,,,,,,,,,,,69,"70,50,27,45,43,69,10,14,46,55,68,22,32,4,5,19,7,36,28,33,6,77,20,16,65,59,80,42,47,54,9,26,72,29,13,23,73,24,31,30,11",,,,,,,,,,
land,127,542194,0.0-40.0-2.0,,null,run_exp/static/images/task_images/land.jpg,null,,,,,,93,,,6,,,,,,,,,,,,,,
dig,128,544198,0.0-40.0-3.0,,,,,,,,,,,"[{""stimulus"":""run_exp/static/images/task_images/dig.jpg"",""time"":0.4000000059604645},{""stimulus"":""run_exp/static/images/task_images/land.jpg"",""time"":668.6000000089407},{""stimulus"":""run_exp/static/images/task_images/dig.jpg"",""time"":1336}]",[],6,,,,,,,,,,,,,,
harvest,129,545200,0.0-40.0-4.0,,null,run_exp/static/images/task_images/gems/93.jpg,null,,,,,,74,,,6,,,,,93,0.791843578,0.795698925,,,,,,,
decision,130,545455,0.0-40.0-5.0,,253.9,run_exp/static/images/task_images/land.jpg,65,,,,,,74,,,6,,,,,,,,149438,1,0,FALSE,,,
dig,131,548206,0.0-41.0-0.0,,,,,,,,,,,"[{""stimulus"":""run_exp/static/images/task_images/dig.jpg"",""time"":0.10000000894069672},{""stimulus"":""run_exp/static/images/task_images/land.jpg"",""time"":916.5},{""stimulus"":""run_exp/static/images/task_images/dig.jpg"",""time"":1831.7000000029802}]",[],6,,,,,,,,,,,,,,
harvest,132,549208,0.0-41.0-1.0,,null,run_exp/static/images/task_images/gems/74.jpg,null,,,,,,60,,,6,,,,,74,0.814855918,0.810810811,,,,,,,
decision,133,549453,0.0-41.0-2.0,,242.9,run_exp/static/images/task_images/land.jpg,65,,,,,,60,,,6,,,,,,,,153436,1,1,FALSE,,,
dig,134,552216,0.0-42.0-0.0,,,,,,,,,,,"[{""stimulus"":""run_exp/static/images/task_images/dig.jpg"",""time"":0.5},{""stimulus"":""run_exp/static/images/task_images/land.jpg"",""time"":920.6000000089407},{""stimulus"":""run_exp/static/images/task_images/dig.jpg"",""time"":1840.1000000089407}]",[],6,,,,,,,,,,,,,,
harvest,135,553218,0.0-42.0-1.0,,null,run_exp/static/images/task_images/gems/60.jpg,null,,,,,,46,,,6,,,,,60,0.762142515,0.766666667,,,,,,,
decision,136,553427,0.0-42.0-2.0,,207.2,run_exp/static/images/task_images/land.jpg,65,,,,,,46,,,6,,,,,,,,157410,1,2,FALSE,,,
dig,137,556222,0.0-43.0-0.0,,,,,,,,,,,"[{""stimulus"":""run_exp/static/images/task_images/dig.jpg"",""time"":0.29999999701976776},{""stimulus"":""run_exp/static/images/task_images/land.jpg"",""time"":931.5999999940395},{""stimulus"":""run_exp/static/images/task_images/dig.jpg"",""time"":1861.5999999940395}]",[],6,,,,,,,,,,,,,,
harvest,138,557224,0.0-43.0-1.0,,null,run_exp/static/images/task_images/gems/46.jpg,null,,,,,,38,,,6,,,,,46,0.832373084,0.826086957,,,,,,,
decision,139,557497,0.0-43.0-2.0,,271.7,run_exp/static/images/task_images/land.jpg,65,,,,,,38,,,6,,,,,,,,161480,1,3,FALSE,,,
dig,140,560230,0.0-44.0-0.0,,,,,,,,,,,"[{""stimulus"":""run_exp/static/images/task_images/dig.jpg"",""time"":0.4000000059604645},{""stimulus"":""run_exp/static/images/task_images/land.jpg"",""time"":910.7999999970198},{""stimulus"":""run_exp/static/images/task_images/dig.jpg"",""time"":1819.7999999970198}]",[],6,,,,,,,,,,,,,,
harvest,141,561232,0.0-44.0-1.0,,null,run_exp/static/images/task_images/gems/38.jpg,null,,,,,,30,,,6,,,,,38,0.794445368,0.789473684,,,,,,,
decision,142,561423,0.0-44.0-2.0,,188.9,run_exp/static/images/task_images/land.jpg,65,,,,,,30,,,6,,,,,,,,165406,1,4,FALSE,,,
dig,143,564240,0.0-45.0-0.0,,,,,,,,,,,"[{""stimulus"":""run_exp/static/images/task_images/dig.jpg"",""time"":0.20000000298023224},{""stimulus"":""run_exp/static/images/task_images/land.jpg"",""time"":938.7000000029802},{""stimulus"":""run_exp/static/images/task_images/dig.jpg"",""time"":1875.5999999940395}]",[],6,,,,,,,,,,,,,,
harvest,144,565242,0.0-45.0-1.0,,null,run_exp/static/images/task_images/gems/30.jpg,null,,,,,,22,,,6,,,,,30,0.749148083,0.733333333,,,,,,,
decision,145,565832,0.0-45.0-2.0,,588.4,run_exp/static/images/task_images/land.jpg,65,,,,,,22,,,6,,,,,,,,169815,1,5,FALSE,,,
dig,146,568246,0.0-46.0-0.0,,,,,,,,,,,"[{""stimulus"":""run_exp/static/images/task_images/dig.jpg"",""time"":0.29999999701976776},{""stimulus"":""run_exp/static/images/task_images/land.jpg"",""time"":804.4000000059605},{""stimulus"":""run_exp/static/images/task_images/dig.jpg"",""time"":1607.5999999940395}]",[],6,,,,,,,,,,,,,,
harvest,147,569248,0.0-46.0-1.0,,null,run_exp/static/images/task_images/gems/22.jpg,null,,,,,,19,,,6,,,,,22,0.872701761,0.863636364,,,,,,,
decision,148,569849,0.0-46.0-2.0,,600.2,run_exp/static/images/task_images/land.jpg,65,,,,,,19,,,6,,,,,,,,173833,1,6,FALSE,,,
dig,149,572252,0.0-47.0-0.0,,,,,,,,,,,"[{""stimulus"":""run_exp/static/images/task_images/dig.jpg"",""time"":0.19999998807907104},{""stimulus"":""run_exp/static/images/task_images/land.jpg"",""time"":800.8999999910593},{""stimulus"":""run_exp/static/images/task_images/dig.jpg"",""time"":1599.699999988079}]",[],6,,,,,,,,,,,,,,
harvest,150,573254,0.0-47.0-1.0,,null,run_exp/static/images/task_images/gems/19.jpg,null,,,,,,17,,,6,,,,,19,0.901953029,0.894736842,,,,,,,
decision,151,573409,0.0-47.0-2.0,,153.4,run_exp/static/images/task_images/land.jpg,76,,,,,,17,,,6,,,,,,,,177392,1,7,TRUE,,,
travel,152,583261,0.0-48.0-0.0,,,,,,,,,,,"[{""stimulus"":""run_exp/static/images/task_images/rocket-01.jpg"",""time"":0.20000000298023224},{""stimulus"":""run_exp/static/images/task_images/rocket-02.jpg"",""time"":1095.7000000029802},{""stimulus"":""run_exp/static/images/task_images/rocket-03.jpg"",""time"":2189.5},{""stimulus"":""run_exp/static/images/task_images/rocket-04.jpg"",""time"":3283.5},{""stimulus"":""run_exp/static/images/task_images/rocket-05.jpg"",""time"":4377.70000000298},{""stimulus"":""run_exp/static/images/task_images/rocket-06.jpg"",""time"":5471.600000008941},{""stimulus"":""run_exp/static/images/task_images/rocket-07.jpg"",""time"":6565.5},{""stimulus"":""run_exp/static/images/task_images/rocket-08.jpg"",""time"":7659.5},{""stimulus"":""run_exp/static/images/task_images/rocket-09.jpg"",""time"":8753.5}]",[],6,,,,,,,,,,,,,,
alien_welcome,153,588263,0.0-48.0-1.0,,null,run_exp/static/images/task_images/aliens/old_aliens/planet/alien_planet-10.jpg,null,,,,,,,,,,,,10,"70,50,27,45,43,69,10,14,46,55,68,22,32,4,5,19,7,36,28,33,6,77,20,16,65,59,80,42,47,54,9,26,72,29,13,23,73,24,31,30,11",,,,,,,,,,
land,154,588765,0.0-48.0-2.0,,null,run_exp/static/images/task_images/land.jpg,null,,,,,,104,,,7,,,,,,,,,,,,,,
dig,155,590770,0.0-48.0-3.0,,,,,,,,,,,"[{""stimulus"":""run_exp/static/images/task_images/dig.jpg"",""time"":0.4000000059604645},{""stimulus"":""run_exp/static/images/task_images/land.jpg"",""time"":669},{""stimulus"":""run_exp/static/images/task_images/dig.jpg"",""time"":1335.9000000059605}]",[],7,,,,,,,,,,,,,,
harvest,156,591772,0.0-48.0-4.0,,null,run_exp/static/images/task_images/gems/104.jpg,null,,,,,,78,,,7,,,,,104,0.747107315,0.75,,,,,,,
decision,157,592350,0.0-48.0-5.0,,576.8,run_exp/static/images/task_images/land.jpg,65,,,,,,78,,,7,,,,,,,,196333,1,0,FALSE,,,
dig,158,594777,0.0-49.0-0.0,,,,,,,,,,,"[{""stimulus"":""run_exp/static/images/task_images/dig.jpg"",""time"":0.30000001192092896},{""stimulus"":""run_exp/static/images/task_images/land.jpg"",""time"":808.3000000119209},{""stimulus"":""run_exp/static/images/task_images/dig.jpg"",""time"":1615.7000000029802}]",[],7,,,,,,,,,,,,,,
harvest,159,595779,0.0-49.0-1.0,,null,run_exp/static/images/task_images/gems/78.jpg,null,,,,,,67,,,7,,,,,78,0.856431651,0.858974359,,,,,,,
decision,160,596120,0.0-49.0-2.0,,339.6,run_exp/static/images/task_images/land.jpg,65,,,,,,67,,,7,,,,,,,,200103,1,1,FALSE,,,
dig,161,598784,0.0-50.0-0.0,,,,,,,,,,,"[{""stimulus"":""run_exp/static/images/task_images/dig.jpg"",""time"":0.4000000059604645},{""stimulus"":""run_exp/static/images/task_images/land.jpg"",""time"":887.5},{""stimulus"":""run_exp/static/images/task_images/dig.jpg"",""time"":1773.5}]",[],7,,,,,,,,,,,,,,
harvest,162,599786,0.0-50.0-1.0,,null,run_exp/static/images/task_images/gems/67.jpg,null,,,,,,56,,,7,,,,,67,0.830053812,0.835820896,,,,,,,
decision,163,600455,0.0-50.0-2.0,,667.1,run_exp/static/images/task_images/land.jpg,65,,,,,,56,,,7,,,,,,,,204439,1,2,FALSE,,,
dig,164,602794,0.0-51.0-0.0,,,,,,,,,,,"[{""stimulus"":""run_exp/static/images/task_images/dig.jpg"",""time"":0.29999999701976776},{""stimulus"":""run_exp/static/images/task_images/land.jpg"",""time"":778.5},{""stimulus"":""run_exp/static/images/task_images/dig.jpg"",""time"":1555.7000000029802}]",[],7,,,,,,,,,,,,,,
harvest,165,603796,0.0-51.0-1.0,,null,run_exp/static/images/task_images/gems/56.jpg,null,,,,,,40,,,7,,,,,56,0.721605221,0.714285714,,,,,,,
decision,166,604213,0.0-51.0-2.0,,415.9,run_exp/static/images/task_images/land.jpg,65,,,,,,40,,,7,,,,,,,,208196,1,3,FALSE,,,
dig,167,606808,0.0-52.0-0.0,,,,,,,,,,,"[{""stimulus"":""run_exp/static/images/task_images/dig.jpg"",""time"":0.29999999701976776},{""stimulus"":""run_exp/static/images/task_images/land.jpg"",""time"":862.7999999970198},{""stimulus"":""run_exp/static/images/task_images/dig.jpg"",""time"":1723.7000000029802}]",[],7,,,,,,,,,,,,,,
harvest,168,607810,0.0-52.0-1.0,,null,run_exp/static/images/task_images/gems/40.jpg,null,,,,,,34,,,7,,,,,40,0.852215028,0.85,,,,,,,
decision,169,608410,0.0-52.0-2.0,,598.7,run_exp/static/images/task_images/land.jpg,65,,,,,,34,,,7,,,,,,,,212393,1,4,FALSE,,,
dig,170,610816,0.0-53.0-0.0,,,,,,,,,,,"[{""stimulus"":""run_exp/static/images/task_images/dig.jpg"",""time"":0.5},{""stimulus"":""run_exp/static/images/task_images/land.jpg"",""time"":801.7000000029802},{""stimulus"":""run_exp/static/images/task_images/dig.jpg"",""time"":1602}]",[],7,,,,,,,,,,,,,,
harvest,171,611818,0.0-53.0-1.0,,null,run_exp/static/images/task_images/gems/34.jpg,null,,,,,,26,,,7,,,,,34,0.77368672,0.764705882,,,,,,,
decision,172,612170,0.0-53.0-2.0,,350.1,run_exp/static/images/task_images/land.jpg,65,,,,,,26,,,7,,,,,,,,216153,1,5,FALSE,,,
dig,173,614832,0.0-54.0-0.0,,,,,,,,,,,"[{""stimulus"":""run_exp/static/images/task_images/dig.jpg"",""time"":0.29999999701976776},{""stimulus"":""run_exp/static/images/task_images/land.jpg"",""time"":887.2999999970198},{""stimulus"":""run_exp/static/images/task_images/dig.jpg"",""time"":1770.5}]",[],7,,,,,,,,,,,,,,
harvest,174,615834,0.0-54.0-1.0,,null,run_exp/static/images/task_images/gems/26.jpg,null,,,,,,22,,,7,,,,,26,0.841731409,0.846153846,,,,,,,
decision,175,616226,0.0-54.0-2.0,,390.2,run_exp/static/images/task_images/land.jpg,76,,,,,,22,,,7,,,,,,,,220209,1,6,TRUE,,,
travel,176,625835,0.0-55.0-0.0,,,,,,,,,,,"[{""stimulus"":""run_exp/static/images/task_images/rocket-01.jpg"",""time"":0.30000001192092896},{""stimulus"":""run_exp/static/images/task_images/rocket-02.jpg"",""time"":1068.6000000089407},{""stimulus"":""run_exp/static/images/task_images/rocket-03.jpg"",""time"":2135.4000000059605},{""stimulus"":""run_exp/static/images/task_images/rocket-04.jpg"",""time"":3202.6000000089407},{""stimulus"":""run_exp/static/images/task_images/rocket-05.jpg"",""time"":4269.4000000059605},{""stimulus"":""run_exp/static/images/task_images/rocket-06.jpg"",""time"":5336.300000011921},{""stimulus"":""run_exp/static/images/task_images/rocket-07.jpg"",""time"":6403.4000000059605},{""stimulus"":""run_exp/static/images/task_images/rocket-08.jpg"",""time"":7470.4000000059605},{""stimulus"":""run_exp/static/images/task_images/rocket-09.jpg"",""time"":8537.300000011921}]",[],7,,,,,,,,,,,,,,
alien_welcome,177,630837,0.0-55.0-1.0,,null,run_exp/static/images/task_images/aliens/old_aliens/planet/alien_planet-14.jpg,null,,,,,,,,,,,,14,"70,50,27,45,43,69,10,14,46,55,68,22,32,4,5,19,7,36,28,33,6,77,20,16,65,59,80,42,47,54,9,26,72,29,13,23,73,24,31,30,11",,,,,,,,,,
land,178,631339,0.0-55.0-2.0,,null,run_exp/static/images/task_images/land.jpg,null,,,,,,98,,,8,,,,,,,,,,,,,,
dig,179,633344,0.0-55.0-3.0,,,,,,,,,,,"[{""stimulus"":""run_exp/static/images/task_images/dig.jpg"",""time"":0.4000000059604645},{""stimulus"":""run_exp/static/images/task_images/land.jpg"",""time"":668.5},{""stimulus"":""run_exp/static/images/task_images/dig.jpg"",""time"":1335.7000000029802}]",[],8,,,,,,,,,,,,,,
harvest,180,634345,0.0-55.0-4.0,,null,run_exp/static/images/task_images/gems/98.jpg,null,,,,,,72,,,8,,,,,98,0.734263696,0.734693878,,,,,,,
decision,181,634839,0.0-55.0-5.0,,492.1,run_exp/static/images/task_images/land.jpg,65,,,,,,72,,,8,,,,,,,,238822,1,0,FALSE,,,
dig,182,637352,0.0-56.0-0.0,,,,,,,,,,,"[{""stimulus"":""run_exp/static/images/task_images/dig.jpg"",""time"":0.4000000059604645},{""stimulus"":""run_exp/static/images/task_images/land.jpg"",""time"":836.7999999970198},{""stimulus"":""run_exp/static/images/task_images/dig.jpg"",""time"":1671.6000000089407}]",[],8,,,,,,,,,,,,,,
harvest,183,638354,0.0-56.0-1.0,,null,run_exp/static/images/task_images/gems/72.jpg,null,,,,,,55,,,8,,,,,72,0.761897766,0.763888889,,,,,,,
decision,184,638798,0.0-56.0-2.0,,442.4,run_exp/static/images/task_images/land.jpg,65,,,,,,55,,,8,,,,,,,,242781,1,1,FALSE,,,
dig,185,641359,0.0-57.0-0.0,,,,,,,,,,,"[{""stimulus"":""run_exp/static/images/task_images/dig.jpg"",""time"":0.19999998807907104},{""stimulus"":""run_exp/static/images/task_images/land.jpg"",""time"":853.8999999910593},{""stimulus"":""run_exp/static/images/task_images/dig.jpg"",""time"":1705.199999988079}]",[],8,,,,,,,,,,,,,,
harvest,186,642361,0.0-57.0-1.0,,null,run_exp/static/images/task_images/gems/55.jpg,null,,,,,,40,,,8,,,,,55,0.725284982,0.727272727,,,,,,,
decision,187,642638,0.0-57.0-2.0,,275,run_exp/static/images/task_images/land.jpg,65,,,,,,40,,,8,,,,,,,,246621,1,2,FALSE,,,
dig,188,645368,0.0-58.0-0.0,,,,,,,,,,,"[{""stimulus"":""run_exp/static/images/task_images/dig.jpg"",""time"":0.29999999701976776},{""stimulus"":""run_exp/static/images/task_images/land.jpg"",""time"":909.5},{""stimulus"":""run_exp/static/images/task_images/dig.jpg"",""time"":1817.5999999940395}]",[],8,,,,,,,,,,,,,,
harvest,189,646370,0.0-58.0-1.0,,null,run_exp/static/images/task_images/gems/40.jpg,null,,,,,,30,,,8,,,,,40,0.745134033,0.75,,,,,,,
decision,190,646658,0.0-58.0-2.0,,286.8,run_exp/static/images/task_images/land.jpg,65,,,,,,30,,,8,,,,,,,,250641,1,3,FALSE,,,
dig,191,649377,0.0-59.0-0.0,,,,,,,,,,,"[{""stimulus"":""run_exp/static/images/task_images/dig.jpg"",""time"":0.5},{""stimulus"":""run_exp/static/images/task_images/land.jpg"",""time"":905.5999999940395},{""stimulus"":""run_exp/static/images/task_images/dig.jpg"",""time"":1809.5}]",[],8,,,,,,,,,,,,,,
harvest,192,650378,0.0-59.0-1.0,,null,run_exp/static/images/task_images/gems/30.jpg,null,,,,,,23,,,8,,,,,30,0.762796673,0.766666667,,,,,,,
decision,193,650936,0.0-59.0-2.0,,555.7,run_exp/static/images/task_images/land.jpg,65,,,,,,23,,,8,,,,,,,,254919,1,4,FALSE,,,
dig,194,653384,0.0-60.0-0.0,,,,,,,,,,,"[{""stimulus"":""run_exp/static/images/task_images/dig.jpg"",""time"":0.4000000059604645},{""stimulus"":""run_exp/static/images/task_images/land.jpg"",""time"":815.8000000119209},{""stimulus"":""run_exp/static/images/task_images/dig.jpg"",""time"":1629.6000000089407}]",[],8,,,,,,,,,,,,,,
harvest,195,654386,0.0-60.0-1.0,,null,run_exp/static/images/task_images/gems/23.jpg,null,,,,,,19,,,8,,,,,23,0.825144042,0.826086957,,,,,,,
decision,196,655764,0.0-60.0-2.0,,1376.2,run_exp/static/images/task_images/land.jpg,76,,,,,,19,,,8,,,,,,,,259747,1,5,TRUE,,,
travel,197,664392,0.0-61.0-0.0,,,,,,,,,,,"[{""stimulus"":""run_exp/static/images/task_images/rocket-01.jpg"",""time"":0.29999999701976776},{""stimulus"":""run_exp/static/images/task_images/rocket-02.jpg"",""time"":959.2999999970198},{""stimulus"":""run_exp/static/images/task_images/rocket-03.jpg"",""time"":1917.5},{""stimulus"":""run_exp/static/images/task_images/rocket-04.jpg"",""time"":2875.7999999970198},{""stimulus"":""run_exp/static/images/task_images/rocket-05.jpg"",""time"":3833.5999999940395},{""stimulus"":""run_exp/static/images/task_images/rocket-06.jpg"",""time"":4791.399999991059},{""stimulus"":""run_exp/static/images/task_images/rocket-07.jpg"",""time"":5749.399999991059},{""stimulus"":""run_exp/static/images/task_images/rocket-08.jpg"",""time"":6707.399999991059},{""stimulus"":""run_exp/static/images/task_images/rocket-09.jpg"",""time"":7665.29999999702}]",[],8,,,,,,,,,,,,,,
alien_welcome,198,669394,0.0-61.0-1.0,,null,run_exp/static/images/task_images/aliens/old_aliens/planet/alien_planet-46.jpg,null,,,,,,,,,,,,46,"70,50,27,45,43,69,10,14,46,55,68,22,32,4,5,19,7,36,28,33,6,77,20,16,65,59,80,42,47,54,9,26,72,29,13,23,73,24,31,30,11",,,,,,,,,,
land,199,669896,0.0-61.0-2.0,,null,run_exp/static/images/task_images/land.jpg,null,,,,,,95,,,9,,,,,,,,,,,,,,
dig,200,671901,0.0-61.0-3.0,,,,,,,,,,,"[{""stimulus"":""run_exp/static/images/task_images/dig.jpg"",""time"":0.30000001192092896},{""stimulus"":""run_exp/static/images/task_images/land.jpg"",""time"":668.7000000029802},{""stimulus"":""run_exp/static/images/task_images/dig.jpg"",""time"":1335.6000000089407}]",[],9,,,,,,,,,,,,,,
harvest,201,672902,0.0-61.0-4.0,,null,run_exp/static/images/task_images/gems/95.jpg,null,,,,,,17,,,9,,,,,95,0.18034497,0.178947368,,,,,,,
decision,202,673313,0.0-61.0-5.0,,407.3,run_exp/static/images/task_images/land.jpg,65,,,,,,17,,,9,,,,,,,,277296,1,0,FALSE,,,
dig,203,675912,0.0-62.0-0.0,,,,,,,,,,,"[{""stimulus"":""run_exp/static/images/task_images/dig.jpg"",""time"":0.5},{""stimulus"":""run_exp/static/images/task_images/land.jpg"",""time"":866},{""stimulus"":""run_exp/static/images/task_images/dig.jpg"",""time"":1729.7999999970198}]",[],9,,,,,,,,,,,,,,
harvest,204,676914,0.0-62.0-1.0,,null,run_exp/static/images/task_images/gems/17.jpg,null,,,,,,3,,,9,,,,,17,0.203189156,0.176470588,,,,,,,
decision,205,678611,0.0-62.0-2.0,,1695.6,run_exp/static/images/task_images/land.jpg,76,,,,,,3,,,9,,,,,,,,282594,1,1,TRUE,,,
travel,206,686916,0.0-63.0-0.0,,,,,,,,,,,"[{""stimulus"":""run_exp/static/images/task_images/rocket-01.jpg"",""time"":0.29999999701976776},{""stimulus"":""run_exp/static/images/task_images/rocket-02.jpg"",""time"":923.3999999910593},{""stimulus"":""run_exp/static/images/task_images/rocket-03.jpg"",""time"":1845.5999999940395},{""stimulus"":""run_exp/static/images/task_images/rocket-04.jpg"",""time"":2767.5999999940395},{""stimulus"":""run_exp/static/images/task_images/rocket-05.jpg"",""time"":3689.8999999910593},{""stimulus"":""run_exp/static/images/task_images/rocket-06.jpg"",""time"":4611.79999999702},{""stimulus"":""run_exp/static/images/task_images/rocket-07.jpg"",""time"":5535.70000000298},{""stimulus"":""run_exp/static/images/task_images/rocket-08.jpg"",""time"":6455.5},{""stimulus"":""run_exp/static/images/task_images/rocket-09.jpg"",""time"":7377.70000000298}]",[],9,,,,,,,,,,,,,,
alien_welcome,207,691918,0.0-63.0-1.0,,null,run_exp/static/images/task_images/aliens/old_aliens/planet/alien_planet-55.jpg,null,,,,,,,,,,,,55,"70,50,27,45,43,69,10,14,46,55,68,22,32,4,5,19,7,36,28,33,6,77,20,16,65,59,80,42,47,54,9,26,72,29,13,23,73,24,31,30,11",,,,,,,,,,
land,208,692421,0.0-63.0-2.0,,null,run_exp/static/images/task_images/land.jpg,null,,,,,,94,,,10,,,,,,,,,,,,,,
dig,209,694425,0.0-63.0-3.0,,,,,,,,,,,"[{""stimulus"":""run_exp/static/images/task_images/dig.jpg"",""time"":0.5},{""stimulus"":""run_exp/static/images/task_images/land.jpg"",""time"":668.5999999940395},{""stimulus"":""run_exp/static/images/task_images/dig.jpg"",""time"":1336}]",[],10,,,,,,,,,,,,,,
harvest,210,695427,0.0-63.0-4.0,,null,run_exp/static/images/task_images/gems/94.jpg,null,,,,,,11,,,10,,,,,94,0.114491532,0.117021277,,,,,,,
decision,211,696080,0.0-63.0-5.0,,650.7,run_exp/static/images/task_images/land.jpg,65,,,,,,11,,,10,,,,,,,,300063,1,0,TRUE,,,
end_of_block_continue,212,705091,0.0-64.0-0.0,,null,run_exp/static/audio/clip_32_block_end.m4a,,,,,,null,,,,,,,,,,,,,,,,,,
alien_welcome,213,710097,0.0-65.0-0.0,,null,run_exp/static/images/task_images/aliens/old_aliens/planet/alien_planet-68.jpg,null,,,,,,,,,,,,68,"70,50,27,45,43,69,10,14,46,55,68,22,32,4,5,19,7,36,28,33,6,77,20,16,65,59,80,42,47,54,9,26,72,29,13,23,73,24,31,30,11",,,,,,,,,,
land,214,710599,0.0-65.0-1.0,,null,run_exp/static/images/task_images/land.jpg,null,,,,,,93,,,11,,,,,,,,,,,,,,
dig,215,712604,0.0-65.0-2.0,,,,,,,,,,,"[{""stimulus"":""run_exp/static/images/task_images/dig.jpg"",""time"":0.3999999910593033},{""stimulus"":""run_exp/static/images/task_images/land.jpg"",""time"":669.0999999940395},{""stimulus"":""run_exp/static/images/task_images/dig.jpg"",""time"":1335.8999999910593}]",[],11,,,,,,,,,,,,,,
harvest,216,713606,0.0-65.0-3.0,,null,run_exp/static/images/task_images/gems/93.jpg,null,,,,,,18,,,11,,,,,93,0.190479171,0.193548387,,,,,,,
decision,217,713804,0.0-65.0-4.0,,195.4,run_exp/static/images/task_images/land.jpg,65,,,,,,18,,,11,,,,,,,,8709,2,0,FALSE,,,
dig,218,716613,0.0-66.0-0.0,,,,,,,,,,,"[{""stimulus"":""run_exp/static/images/task_images/dig.jpg"",""time"":0.19999998807907104},{""stimulus"":""run_exp/static/images/task_images/land.jpg"",""time"":935.5999999940395},{""stimulus"":""run_exp/static/images/task_images/dig.jpg"",""time"":1869.5999999940395}]",[],11,,,,,,,,,,,,,,
harvest,219,717615,0.0-66.0-1.0,,null,run_exp/static/images/task_images/gems/18.jpg,null,,,,,,5,,,11,,,,,18,0.305312568,0.277777778,,,,,,,
decision,220,718775,0.0-66.0-2.0,,1158.2,run_exp/static/images/task_images/land.jpg,65,,,,,,5,,,11,,,,,,,,13680,2,1,FALSE,,,
dig,221,720621,0.0-67.0-0.0,,,,,,,,,,,"[{""stimulus"":""run_exp/static/images/task_images/dig.jpg"",""time"":0.4000000059604645},{""stimulus"":""run_exp/static/images/task_images/land.jpg"",""time"":614.5999999940395},{""stimulus"":""run_exp/static/images/task_images/dig.jpg"",""time"":1227.7999999970198}]",[],11,,,,,,,,,,,,,,
harvest,222,721623,0.0-67.0-1.0,,null,run_exp/static/images/task_images/gems/5.jpg,null,,,,,,1,,,11,,,,,5,0.293510988,0.2,,,,,,,
decision,223,722133,0.0-67.0-2.0,,507.8,run_exp/static/images/task_images/land.jpg,76,,,,,,1,,,11,,,,,,,,17038,2,2,TRUE,,,
travel,224,731625,0.0-68.0-0.0,,,,,,,,,,,"[{""stimulus"":""run_exp/static/images/task_images/rocket-01.jpg"",""time"":0.20000000298023224},{""stimulus"":""run_exp/static/images/task_images/rocket-02.jpg"",""time"":1055.2000000029802},{""stimulus"":""run_exp/static/images/task_images/rocket-03.jpg"",""time"":2109.2000000029802},{""stimulus"":""run_exp/static/images/task_images/rocket-04.jpg"",""time"":3163.0999999940395},{""stimulus"":""run_exp/static/images/task_images/rocket-05.jpg"",""time"":4217.0999999940395},{""stimulus"":""run_exp/static/images/task_images/rocket-06.jpg"",""time"":5271.0999999940395},{""stimulus"":""run_exp/static/images/task_images/rocket-07.jpg"",""time"":6325.20000000298},{""stimulus"":""run_exp/static/images/task_images/rocket-08.jpg"",""time"":7379.0999999940395},{""stimulus"":""run_exp/static/images/task_images/rocket-09.jpg"",""time"":8433.09999999404}]",[],11,,,,,,,,,,,,,,
alien_welcome,225,736627,0.0-68.0-1.0,,null,run_exp/static/images/task_images/aliens/old_aliens/planet/alien_planet-22.jpg,null,,,,,,,,,,,,22,"70,50,27,45,43,69,10,14,46,55,68,22,32,4,5,19,7,36,28,33,6,77,20,16,65,59,80,42,47,54,9,26,72,29,13,23,73,24,31,30,11",,,,,,,,,,
land,226,737129,0.0-68.0-2.0,,null,run_exp/static/images/task_images/land.jpg,null,,,,,,101,,,12,,,,,,,,,,,,,,
dig,227,739133,0.0-68.0-3.0,,,,,,,,,,,"[{""stimulus"":""run_exp/static/images/task_images/dig.jpg"",""time"":0.4000000059604645},{""stimulus"":""run_exp/static/images/task_images/land.jpg"",""time"":668.4000000059605},{""stimulus"":""run_exp/static/images/task_images/dig.jpg"",""time"":1335.4000000059605}]",[],12,,,,,,,,,,,,,,
harvest,228,740135,0.0-68.0-4.0,,null,run_exp/static/images/task_images/gems/101.jpg,null,,,,,,20,,,12,,,,,101,0.194154561,0.198019802,,,,,,,
decision,229,740695,0.0-68.0-5.0,,558.6,run_exp/static/images/task_images/land.jpg,65,,,,,,20,,,12,,,,,,,,35600,2,0,FALSE,,,
dig,230,743140,0.0-69.0-0.0,,,,,,,,,,,"[{""stimulus"":""run_exp/static/images/task_images/dig.jpg"",""time"":0.30000001192092896},{""stimulus"":""run_exp/static/images/task_images/land.jpg"",""time"":814.5},{""stimulus"":""run_exp/static/images/task_images/dig.jpg"",""time"":1627.2000000029802}]",[],12,,,,,,,,,,,,,,
harvest,231,744142,0.0-69.0-1.0,,null,run_exp/static/images/task_images/gems/20.jpg,null,,,,,,3,,,12,,,,,20,0.125763113,0.15,,,,,,,
decision,232,744684,0.0-69.0-2.0,,541.1,run_exp/static/images/task_images/land.jpg,65,,,,,,3,,,12,,,,,,,,39589,2,1,FALSE,,,
dig,233,747147,0.0-70.0-0.0,,,,,,,,,,,"[{""stimulus"":""run_exp/static/images/task_images/dig.jpg"",""time"":0.29999999701976776},{""stimulus"":""run_exp/static/images/task_images/land.jpg"",""time"":820.2999999970198},{""stimulus"":""run_exp/static/images/task_images/dig.jpg"",""time"":1639.7999999970198}]",[],12,,,,,,,,,,,,,,
harvest,234,748149,0.0-70.0-1.0,,null,run_exp/static/images/task_images/gems/3.jpg,null,,,,,,0,,,12,,,,,3,0.138983234,0,,,,,,,
decision,235,748628,0.0-70.0-2.0,,477,run_exp/static/images/task_images/land.jpg,65,,,,,,0,,,12,,,,,,,,43533,2,2,FALSE,,,
dig,236,751158,0.0-71.0-0.0,,,,,,,,,,,"[{""stimulus"":""run_exp/static/images/task_images/dig.jpg"",""time"":0.29999999701976776},{""stimulus"":""run_exp/static/images/task_images/land.jpg"",""time"":842.4000000059605},{""stimulus"":""run_exp/static/images/task_images/dig.jpg"",""time"":1683.7000000029802}]",[],12,,,,,,,,,,,,,,
harvest,237,752159,0.0-71.0-1.0,,null,run_exp/static/images/task_images/gems/0.jpg,null,,,,,,0,,,12,,,,,0,0.231831251,NaN,,,,,,,
decision,238,753504,0.0-71.0-2.0,,1343.1,run_exp/static/images/task_images/land.jpg,76,,,,,,0,,,12,,,,,,,,48409,2,3,TRUE,,,
travel,239,762160,0.0-72.0-0.0,,,,,,,,,,,"[{""stimulus"":""run_exp/static/images/task_images/rocket-01.jpg"",""time"":0.30000001192092896},{""stimulus"":""run_exp/static/images/task_images/rocket-02.jpg"",""time"":962.3000000119209},{""stimulus"":""run_exp/static/images/task_images/rocket-03.jpg"",""time"":1923.300000011921},{""stimulus"":""run_exp/static/images/task_images/rocket-04.jpg"",""time"":2884.4000000059605},{""stimulus"":""run_exp/static/images/task_images/rocket-05.jpg"",""time"":3845.7000000029802},{""stimulus"":""run_exp/static/images/task_images/rocket-06.jpg"",""time"":4806.20000000298},{""stimulus"":""run_exp/static/images/task_images/rocket-07.jpg"",""time"":5767.600000008941},{""stimulus"":""run_exp/static/images/task_images/rocket-08.jpg"",""time"":6728.20000000298},{""stimulus"":""run_exp/static/images/task_images/rocket-09.jpg"",""time"":7689.4000000059605}]",[],12,,,,,,,,,,,,,,
alien_welcome,240,767162,0.0-72.0-1.0,,null,run_exp/static/images/task_images/aliens/old_aliens/planet/alien_planet-32.jpg,null,,,,,,,,,,,,32,"70,50,27,45,43,69,10,14,46,55,68,22,32,4,5,19,7,36,28,33,6,77,20,16,65,59,80,42,47,54,9,26,72,29,13,23,73,24,31,30,11",,,,,,,,,,
land,241,767664,0.0-72.0-2.0,,null,run_exp/static/images/task_images/land.jpg,null,,,,,,101,,,13,,,,,,,,,,,,,,
dig,242,769668,0.0-72.0-3.0,,,,,,,,,,,"[{""stimulus"":""run_exp/static/images/task_images/dig.jpg"",""time"":0.29999999701976776},{""stimulus"":""run_exp/static/images/task_images/land.jpg"",""time"":668.5},{""stimulus"":""run_exp/static/images/task_images/dig.jpg"",""time"":1335.5}]",[],13,,,,,,,,,,,,,,
harvest,243,770670,0.0-72.0-4.0,,null,run_exp/static/images/task_images/gems/101.jpg,null,,,,,,19,,,13,,,,,101,0.191322913,0.188118812,,,,,,,
decision,244,770798,0.0-72.0-5.0,,126.4,run_exp/static/images/task_images/land.jpg,65,,,,,,19,,,13,,,,,,,,65703,2,0,FALSE,,,
dig,245,773676,0.0-73.0-0.0,,,,,,,,,,,"[{""stimulus"":""run_exp/static/images/task_images/dig.jpg"",""time"":0.7000000029802322},{""stimulus"":""run_exp/static/images/task_images/land.jpg"",""time"":959.1000000089407},{""stimulus"":""run_exp/static/images/task_images/dig.jpg"",""time"":1916.2000000029802}]",[],13,,,,,,,,,,,,,,
harvest,246,774678,0.0-73.0-1.0,,null,run_exp/static/images/task_images/gems/19.jpg,null,,,,,,4,,,13,,,,,19,0.20538665,0.210526316,,,,,,,
decision,247,775800,0.0-73.0-2.0,,1120,run_exp/static/images/task_images/land.jpg,76,,,,,,4,,,13,,,,,,,,70705,2,1,TRUE,,,
travel,248,784683,0.0-74.0-0.0,,,,,,,,,,,"[{""stimulus"":""run_exp/static/images/task_images/rocket-01.jpg"",""time"":0.5},{""stimulus"":""run_exp/static/images/task_images/rocket-02.jpg"",""time"":989.5999999940395},{""stimulus"":""run_exp/static/images/task_images/rocket-03.jpg"",""time"":1974.3999999910593},{""stimulus"":""run_exp/static/images/task_images/rocket-04.jpg"",""time"":2960.5},{""stimulus"":""run_exp/static/images/task_images/rocket-05.jpg"",""time"":3946.7000000029802},{""stimulus"":""run_exp/static/images/task_images/rocket-06.jpg"",""time"":4932.5999999940395},{""stimulus"":""run_exp/static/images/task_images/rocket-07.jpg"",""time"":5918.5},{""stimulus"":""run_exp/static/images/task_images/rocket-08.jpg"",""time"":6904.399999991059},{""stimulus"":""run_exp/static/images/task_images/rocket-09.jpg"",""time"":7890.5}]",[],13,,,,,,,,,,,,,,
alien_welcome,249,789685,0.0-74.0-1.0,,null,run_exp/static/images/task_images/aliens/old_aliens/planet/alien_planet-4.jpg,null,,,,,,,,,,,,4,"70,50,27,45,43,69,10,14,46,55,68,22,32,4,5,19,7,36,28,33,6,77,20,16,65,59,80,42,47,54,9,26,72,29,13,23,73,24,31,30,11",,,,,,,,,,
land,250,790188,0.0-74.0-2.0,,null,run_exp/static/images/task_images/land.jpg,null,,,,,,102,,,14,,,,,,,,,,,,,,
dig,251,792192,0.0-74.0-3.0,,,,,,,,,,,"[{""stimulus"":""run_exp/static/images/task_images/dig.jpg"",""time"":0.5},{""stimulus"":""run_exp/static/images/task_images/land.jpg"",""time"":668.7999999970198},{""stimulus"":""run_exp/static/images/task_images/dig.jpg"",""time"":1335.7000000029802}]",[],14,,,,,,,,,,,,,,
harvest,252,793194,0.0-74.0-4.0,,null,run_exp/static/images/task_images/gems/102.jpg,null,,,,,,85,,,14,,,,,102,0.832617334,0.833333333,,,,,,,
decision,253,793688,0.0-74.0-5.0,,492.4,run_exp/static/images/task_images/land.jpg,76,,,,,,85,,,14,,,,,,,,88594,2,0,TRUE,,,
travel,254,803200,0.0-75.0-0.0,,,,,,,,,,,"[{""stimulus"":""run_exp/static/images/task_images/rocket-01.jpg"",""time"":0.5999999940395355},{""stimulus"":""run_exp/static/images/task_images/rocket-02.jpg"",""time"":1059.2999999970198},{""stimulus"":""run_exp/static/images/task_images/rocket-03.jpg"",""time"":2115},{""stimulus"":""run_exp/static/images/task_images/rocket-04.jpg"",""time"":3170.5999999940395},{""stimulus"":""run_exp/static/images/task_images/rocket-05.jpg"",""time"":4226.699999988079},{""stimulus"":""run_exp/static/images/task_images/rocket-06.jpg"",""time"":5283},{""stimulus"":""run_exp/static/images/task_images/rocket-07.jpg"",""time"":6338.699999988079},{""stimulus"":""run_exp/static/images/task_images/rocket-08.jpg"",""time"":7394.699999988079},{""stimulus"":""run_exp/static/images/task_images/rocket-09.jpg"",""time"":8450.89999999106}]",[],14,,,,,,,,,,,,,,
alien_welcome,255,808202,0.0-75.0-1.0,,null,run_exp/static/images/task_images/aliens/old_aliens/planet/alien_planet-5.jpg,null,,,,,,,,,,,,5,"70,50,27,45,43,69,10,14,46,55,68,22,32,4,5,19,7,36,28,33,6,77,20,16,65,59,80,42,47,54,9,26,72,29,13,23,73,24,31,30,11",,,,,,,,,,
land,256,808704,0.0-75.0-2.0,,null,run_exp/static/images/task_images/land.jpg,null,,,,,,95,,,15,,,,,,,,,,,,,,
dig,257,810709,0.0-75.0-3.0,,,,,,,,,,,"[{""stimulus"":""run_exp/static/images/task_images/dig.jpg"",""time"":0.5},{""stimulus"":""run_exp/static/images/task_images/land.jpg"",""time"":668.7999999970198},{""stimulus"":""run_exp/static/images/task_images/dig.jpg"",""time"":1335.5999999940395}]",[],15,,,,,,,,,,,,,,
harvest,258,811712,0.0-75.0-4.0,,null,run_exp/static/images/task_images/gems/95.jpg,null,,,,,,75,,,15,,,,,95,0.788086169,0.789473684,,,,,,,
decision,259,812102,0.0-75.0-5.0,,388.8,run_exp/static/images/task_images/land.jpg,65,,,,,,75,,,15,,,,,,,,107007,2,0,FALSE,,,
dig,260,814720,0.0-76.0-0.0,,,,,,,,,,,"[{""stimulus"":""run_exp/static/images/task_images/dig.jpg"",""time"":0.5},{""stimulus"":""run_exp/static/images/task_images/land.jpg"",""time"":871.6000000089407},{""stimulus"":""run_exp/static/images/task_images/dig.jpg"",""time"":1741.7000000029802}]",[],15,,,,,,,,,,,,,,
harvest,261,815723,0.0-76.0-1.0,,null,run_exp/static/images/task_images/gems/75.jpg,null,,,,,,65,,,15,,,,,75,0.867040036,0.866666667,,,,,,,
decision,262,816168,0.0-76.0-2.0,,444,run_exp/static/images/task_images/land.jpg,65,,,,,,65,,,15,,,,,,,,111073,2,1,FALSE,,,
dig,263,818732,0.0-77.0-0.0,,,,,,,,,,,"[{""stimulus"":""run_exp/static/images/task_images/dig.jpg"",""time"":0.4000000059604645},{""stimulus"":""run_exp/static/images/task_images/land.jpg"",""time"":853.4000000059605},{""stimulus"":""run_exp/static/images/task_images/dig.jpg"",""time"":1705.4000000059605}]",[],15,,,,,,,,,,,,,,
harvest,264,819734,0.0-77.0-1.0,,null,run_exp/static/images/task_images/gems/65.jpg,null,,,,,,52,,,15,,,,,65,0.794710466,0.8,,,,,,,
decision,265,820088,0.0-77.0-2.0,,351.8,run_exp/static/images/task_images/land.jpg,65,,,,,,52,,,15,,,,,,,,114994,2,2,FALSE,,,
dig,266,822742,0.0-78.0-0.0,,,,,,,,,,,"[{""stimulus"":""run_exp/static/images/task_images/dig.jpg"",""time"":0.3999999910593033},{""stimulus"":""run_exp/static/images/task_images/land.jpg"",""time"":883.5},{""stimulus"":""run_exp/static/images/task_images/dig.jpg"",""time"":1765.699999988079}]",[],15,,,,,,,,,,,,,,
harvest,267,823744,0.0-78.0-1.0,,null,run_exp/static/images/task_images/gems/52.jpg,null,,,,,,41,,,15,,,,,52,0.790456899,0.788461538,,,,,,,
decision,268,824340,0.0-78.0-2.0,,590.8,run_exp/static/images/task_images/land.jpg,65,,,,,,41,,,15,,,,,,,,119245,2,3,FALSE,,,
dig,269,826757,0.0-79.0-0.0,,,,,,,,,,,"[{""stimulus"":""run_exp/static/images/task_images/dig.jpg"",""time"":0.29999999701976776},{""stimulus"":""run_exp/static/images/task_images/land.jpg"",""time"":805},{""stimulus"":""run_exp/static/images/task_images/dig.jpg"",""time"":1607.5}]",[],15,,,,,,,,,,,,,,
harvest,270,827759,0.0-79.0-1.0,,null,run_exp/static/images/task_images/gems/41.jpg,null,,,,,,34,,,15,,,,,41,0.825832232,0.829268293,,,,,,,
decision,271,828172,0.0-79.0-2.0,,410.5,run_exp/static/images/task_images/land.jpg,65,,,,,,34,,,15,,,,,,,,123077,2,4,FALSE,,,
dig,272,830782,0.0-80.0-0.0,,,,,,,,,,,"[{""stimulus"":""run_exp/static/images/task_images/dig.jpg"",""time"":0.5},{""stimulus"":""run_exp/static/images/task_images/land.jpg"",""time"":864.6999999880791},{""stimulus"":""run_exp/static/images/task_images/dig.jpg"",""time"":1727.3999999910593}]",[],15,,,,,,,,,,,,,,
harvest,273,831783,0.0-80.0-1.0,,null,run_exp/static/images/task_images/gems/34.jpg,null,,,,,,24,,,15,,,,,34,0.710771947,0.705882353,,,,,,,
decision,274,832134,0.0-80.0-2.0,,348.9,run_exp/static/images/task_images/land.jpg,65,,,,,,24,,,15,,,,,,,,127039,2,5,FALSE,,,
dig,275,834791,0.0-81.0-0.0,,,,,,,,,,,"[{""stimulus"":""run_exp/static/images/task_images/dig.jpg"",""time"":0.4000000059604645},{""stimulus"":""run_exp/static/images/task_images/land.jpg"",""time"":885},{""stimulus"":""run_exp/static/images/task_images/dig.jpg"",""time"":1767.5}]",[],15,,,,,,,,,,,,,,
harvest,276,835793,0.0-81.0-1.0,,null,run_exp/static/images/task_images/gems/24.jpg,null,,,,,,17,,,15,,,,,24,0.723670729,0.708333333,,,,,,,
decision,277,837047,0.0-81.0-2.0,,1251.9,run_exp/static/images/task_images/land.jpg,65,,,,,,17,,,15,,,,,,,,131952,2,6,FALSE,,,
dig,278,838801,0.0-82.0-0.0,,,,,,,,,,,"[{""stimulus"":""run_exp/static/images/task_images/dig.jpg"",""time"":0.3999999910593033},{""stimulus"":""run_exp/static/images/task_images/land.jpg"",""time"":583.7999999970198},{""stimulus"":""run_exp/static/images/task_images/dig.jpg"",""time"":1165.8999999910593}]",[],15,,,,,,,,,,,,,,
harvest,279,839803,0.0-82.0-1.0,,null,run_exp/static/images/task_images/gems/17.jpg,null,,,,,,13,,,15,,,,,17,0.761181537,0.764705882,,,,,,,
decision,280,840456,0.0-82.0-2.0,,651.7,run_exp/static/images/task_images/land.jpg,76,,,,,,13,,,15,,,,,,,,135361,2,7,TRUE,,,
travel,281,849808,0.0-83.0-0.0,,,,,,,,,,,"[{""stimulus"":""run_exp/static/images/task_images/rocket-01.jpg"",""time"":0.5},{""stimulus"":""run_exp/static/images/task_images/rocket-02.jpg"",""time"":1039.7000000029802},{""stimulus"":""run_exp/static/images/task_images/rocket-03.jpg"",""time"":2077.7000000029802},{""stimulus"":""run_exp/static/images/task_images/rocket-04.jpg"",""time"":3115.5},{""stimulus"":""run_exp/static/images/task_images/rocket-05.jpg"",""time"":4153.4000000059605},{""stimulus"":""run_exp/static/images/task_images/rocket-06.jpg"",""time"":5191.5},{""stimulus"":""run_exp/static/images/task_images/rocket-07.jpg"",""time"":6230.0999999940395},{""stimulus"":""run_exp/static/images/task_images/rocket-08.jpg"",""time"":7267.70000000298},{""stimulus"":""run_exp/static/images/task_images/rocket-09.jpg"",""time"":8305.90000000596}]",[],15,,,,,,,,,,,,,,
alien_welcome,282,854811,0.0-83.0-1.0,,null,run_exp/static/images/task_images/aliens/old_aliens/planet/alien_planet-19.jpg,null,,,,,,,,,,,,19,"70,50,27,45,43,69,10,14,46,55,68,22,32,4,5,19,7,36,28,33,6,77,20,16,65,59,80,42,47,54,9,26,72,29,13,23,73,24,31,30,11",,,,,,,,,,
land,283,855313,0.0-83.0-2.0,,null,run_exp/static/images/task_images/land.jpg,null,,,,,,99,,,16,,,,,,,,,,,,,,
dig,284,857317,0.0-83.0-3.0,,,,,,,,,,,"[{""stimulus"":""run_exp/static/images/task_images/dig.jpg"",""time"":0.5},{""stimulus"":""run_exp/static/images/task_images/land.jpg"",""time"":668.7999999970198},{""stimulus"":""run_exp/static/images/task_images/dig.jpg"",""time"":1335.6000000089407}]",[],16,,,,,,,,,,,,,,
harvest,285,858319,0.0-83.0-4.0,,null,run_exp/static/images/task_images/gems/99.jpg,null,,,,,,84,,,16,,,,,99,0.843824017,0.848484848,,,,,,,
decision,286,858815,0.0-83.0-5.0,,493.1,run_exp/static/images/task_images/land.jpg,65,,,,,,84,,,16,,,,,,,,153720,2,0,FALSE,,,
dig,287,861326,0.0-84.0-0.0,,,,,,,,,,,"[{""stimulus"":""run_exp/static/images/task_images/dig.jpg"",""time"":0.20000000298023224},{""stimulus"":""run_exp/static/images/task_images/land.jpg"",""time"":836.2999999970198},{""stimulus"":""run_exp/static/images/task_images/dig.jpg"",""time"":1671.3999999910593}]",[],16,,,,,,,,,,,,,,
harvest,288,862329,0.0-84.0-1.0,,null,run_exp/static/images/task_images/gems/84.jpg,null,,,,,,75,,,16,,,,,84,0.889307762,0.892857143,,,,,,,
decision,289,862505,0.0-84.0-2.0,,175.1,run_exp/static/images/task_images/land.jpg,65,,,,,,75,,,16,,,,,,,,157411,2,1,FALSE,,,
dig,290,865336,0.0-85.0-0.0,,,,,,,,,,,"[{""stimulus"":""run_exp/static/images/task_images/dig.jpg"",""time"":0.4000000059604645},{""stimulus"":""run_exp/static/images/task_images/land.jpg"",""time"":943},{""stimulus"":""run_exp/static/images/task_images/dig.jpg"",""time"":1883.5999999940395}]",[],16,,,,,,,,,,,,,,
harvest,291,866338,0.0-85.0-1.0,,null,run_exp/static/images/task_images/gems/75.jpg,null,,,,,,67,,,16,,,,,75,0.887465189,0.893333333,,,,,,,
decision,292,866634,0.0-85.0-2.0,,294.7,run_exp/static/images/task_images/land.jpg,65,,,,,,67,,,16,,,,,,,,161539,2,2,FALSE,,,
dig,293,869345,0.0-86.0-0.0,,,,,,,,,,,"[{""stimulus"":""run_exp/static/images/task_images/dig.jpg"",""time"":0.4000000059604645},{""stimulus"":""run_exp/static/images/task_images/land.jpg"",""time"":902.6000000089407},{""stimulus"":""run_exp/static/images/task_images/dig.jpg"",""time"":1803.6000000089407}]",[],16,,,,,,,,,,,,,,
harvest,294,870347,0.0-86.0-1.0,,null,run_exp/static/images/task_images/gems/67.jpg,null,,,,,,55,,,16,,,,,67,0.819277126,0.820895522,,,,,,,
decision,295,870470,0.0-86.0-2.0,,120.7,run_exp/static/images/task_images/land.jpg,65,,,,,,55,,,16,,,,,,,,165376,2,3,FALSE,,,
dig,296,873356,0.0-87.0-0.0,,,,,,,,,,,"[{""stimulus"":""run_exp/static/images/task_images/dig.jpg"",""time"":0.5},{""stimulus"":""run_exp/static/images/task_images/land.jpg"",""time"":960.7000000029802},{""stimulus"":""run_exp/static/images/task_images/dig.jpg"",""time"":1920.2999999970198}]",[],16,,,,,,,,,,,,,,
harvest,297,874358,0.0-87.0-1.0,,null,run_exp/static/images/task_images/gems/55.jpg,null,,,,,,48,,,16,,,,,55,0.87380492,0.872727273,,,,,,,
decision,298,874869,0.0-87.0-2.0,,509.4,run_exp/static/images/task_images/land.jpg,65,,,,,,48,,,16,,,,,,,,169774,2,4,FALSE,,,
dig,299,877368,0.0-88.0-0.0,,,,,,,,,,,"[{""stimulus"":""run_exp/static/images/task_images/dig.jpg"",""time"":0.5},{""stimulus"":""run_exp/static/images/task_images/land.jpg"",""time"":831.7000000029802},{""stimulus"":""run_exp/static/images/task_images/dig.jpg"",""time"":1661.5999999940395}]",[],16,,,,,,,,,,,,,,
harvest,300,878371,0.0-88.0-1.0,,null,run_exp/static/images/task_images/gems/48.jpg,null,,,,,,41,,,16,,,,,48,0.850083946,0.854166667,,,,,,,
decision,301,879167,0.0-88.0-2.0,,794.6,run_exp/static/images/task_images/land.jpg,65,,,,,,41,,,16,,,,,,,,174072,2,5,FALSE,,,
dig,302,881380,0.0-89.0-0.0,,,,,,,,,,,"[{""stimulus"":""run_exp/static/images/task_images/dig.jpg"",""time"":0.29999999701976776},{""stimulus"":""run_exp/static/images/task_images/land.jpg"",""time"":736.5},{""stimulus"":""run_exp/static/images/task_images/dig.jpg"",""time"":1471.5}]",[],16,,,,,,,,,,,,,,
harvest,303,882381,0.0-89.0-1.0,,null,run_exp/static/images/task_images/gems/41.jpg,null,,,,,,34,,,16,,,,,41,0.818741219,0.829268293,,,,,,,
decision,304,882848,0.0-89.0-2.0,,464.8,run_exp/static/images/task_images/land.jpg,65,,,,,,34,,,16,,,,,,,,177753,2,6,FALSE,,,
dig,305,885391,0.0-90.0-0.0,,,,,,,,,,,"[{""stimulus"":""run_exp/static/images/task_images/dig.jpg"",""time"":0.5},{""stimulus"":""run_exp/static/images/task_images/land.jpg"",""time"":846.6999999880791},{""stimulus"":""run_exp/static/images/task_images/dig.jpg"",""time"":1692.0999999940395}]",[],16,,,,,,,,,,,,,,
harvest,306,886392,0.0-90.0-1.0,,null,run_exp/static/images/task_images/gems/34.jpg,null,,,,,,27,,,16,,,,,34,0.801324472,0.794117647,,,,,,,
decision,307,889395,0.0-90.0-2.0,,null,run_exp/static/images/task_images/land.jpg,null,,,,,,27,,,16,,,,,,,,184300,2,7,FALSE,,,
time_out,308,891400,0.0-91.0-0.0,,null,run_exp/static/images/task_images/time_out.jpg,null,,,,,,27,,,,,,,,,,,,,,,,,
decision,309,891938,0.0-91.0-1.0,,536.1,run_exp/static/images/task_images/land.jpg,76,,,,,,27,,,16,,,,,,,,186843,2,7,TRUE,,,
travel,310,901404,0.0-92.0-0.0,,,,,,,,,,,"[{""stimulus"":""run_exp/static/images/task_images/rocket-01.jpg"",""time"":0.29999999701976776},{""stimulus"":""run_exp/static/images/task_images/rocket-02.jpg"",""time"":1052.5},{""stimulus"":""run_exp/static/images/task_images/rocket-03.jpg"",""time"":2103.5},{""stimulus"":""run_exp/static/images/task_images/rocket-04.jpg"",""time"":3154.2999999970198},{""stimulus"":""run_exp/static/images/task_images/rocket-05.jpg"",""time"":4205.5999999940395},{""stimulus"":""run_exp/static/images/task_images/rocket-06.jpg"",""time"":5256.5},{""stimulus"":""run_exp/static/images/task_images/rocket-07.jpg"",""time"":6307.899999991059},{""stimulus"":""run_exp/static/images/task_images/rocket-08.jpg"",""time"":7358.399999991059},{""stimulus"":""run_exp/static/images/task_images/rocket-09.jpg"",""time"":8409.79999999702}]",[],16,,,,,,,,,,,,,,
alien_welcome,311,906407,0.0-92.0-1.0,,null,run_exp/static/images/task_images/aliens/old_aliens/planet/alien_planet-7.jpg,null,,,,,,,,,,,,7,"70,50,27,45,43,69,10,14,46,55,68,22,32,4,5,19,7,36,28,33,6,77,20,16,65,59,80,42,47,54,9,26,72,29,13,23,73,24,31,30,11",,,,,,,,,,
land,312,906910,0.0-92.0-2.0,,null,run_exp/static/images/task_images/land.jpg,null,,,,,,95,,,17,,,,,,,,,,,,,,
dig,313,908914,0.0-92.0-3.0,,,,,,,,,,,"[{""stimulus"":""run_exp/static/images/task_images/dig.jpg"",""time"":0.29999999701976776},{""stimulus"":""run_exp/static/images/task_images/land.jpg"",""time"":668.6000000089407},{""stimulus"":""run_exp/static/images/task_images/dig.jpg"",""time"":1335.7000000029802}]",[],17,,,,,,,,,,,,,,
harvest,314,909917,0.0-92.0-4.0,,null,run_exp/static/images/task_images/gems/95.jpg,null,,,,,,74,,,17,,,,,95,0.781552775,0.778947368,,,,,,,
decision,315,910782,0.0-92.0-5.0,,863.4,run_exp/static/images/task_images/land.jpg,76,,,,,,74,,,17,,,,,,,,205687,2,0,TRUE,,,
travel,316,919925,0.0-93.0-0.0,,,,,,,,,,,"[{""stimulus"":""run_exp/static/images/task_images/rocket-01.jpg"",""time"":0.29999999701976776},{""stimulus"":""run_exp/static/images/task_images/rocket-02.jpg"",""time"":1016.5},{""stimulus"":""run_exp/static/images/task_images/rocket-03.jpg"",""time"":2032.1000000089407},{""stimulus"":""run_exp/static/images/task_images/rocket-04.jpg"",""time"":3046.2999999970198},{""stimulus"":""run_exp/static/images/task_images/rocket-05.jpg"",""time"":4061.4000000059605},{""stimulus"":""run_exp/static/images/task_images/rocket-06.jpg"",""time"":5076.5},{""stimulus"":""run_exp/static/images/task_images/rocket-07.jpg"",""time"":6091.4000000059605},{""stimulus"":""run_exp/static/images/task_images/rocket-08.jpg"",""time"":7106.70000000298},{""stimulus"":""run_exp/static/images/task_images/rocket-09.jpg"",""time"":8121.4000000059605}]",[],17,,,,,,,,,,,,,,
alien_welcome,317,924928,0.0-93.0-1.0,,null,run_exp/static/images/task_images/aliens/old_aliens/planet/alien_planet-36.jpg,null,,,,,,,,,,,,36,"70,50,27,45,43,69,10,14,46,55,68,22,32,4,5,19,7,36,28,33,6,77,20,16,65,59,80,42,47,54,9,26,72,29,13,23,73,24,31,30,11",,,,,,,,,,
land,318,925431,0.0-93.0-2.0,,null,run_exp/static/images/task_images/land.jpg,null,,,,,,99,,,18,,,,,,,,,,,,,,
dig,319,927436,0.0-93.0-3.0,,,,,,,,,,,"[{""stimulus"":""run_exp/static/images/task_images/dig.jpg"",""time"":0.4000000059604645},{""stimulus"":""run_exp/static/images/task_images/land.jpg"",""time"":668.7000000029802},{""stimulus"":""run_exp/static/images/task_images/dig.jpg"",""time"":1335.7000000029802}]",[],18,,,,,,,,,,,,,,
harvest,320,928438,0.0-93.0-4.0,,null,run_exp/static/images/task_images/gems/99.jpg,null,,,,,,78,,,18,,,,,99,0.783039436,0.787878788,,,,,,,
decision,321,928718,0.0-93.0-5.0,,278.1,run_exp/static/images/task_images/land.jpg,65,,,,,,78,,,18,,,,,,,,223623,2,0,FALSE,,,
dig,322,931448,0.0-94.0-0.0,,,,,,,,,,,"[{""stimulus"":""run_exp/static/images/task_images/dig.jpg"",""time"":0.5},{""stimulus"":""run_exp/static/images/task_images/land.jpg"",""time"":908.6000000089407},{""stimulus"":""run_exp/static/images/task_images/dig.jpg"",""time"":1816}]",[],18,,,,,,,,,,,,,,
harvest,323,932450,0.0-94.0-1.0,,null,run_exp/static/images/task_images/gems/78.jpg,null,,,,,,70,,,18,,,,,78,0.899085205,0.897435897,,,,,,,
decision,324,933066,0.0-94.0-2.0,,611.8,run_exp/static/images/task_images/land.jpg,65,,,,,,70,,,18,,,,,,,,227971,2,1,FALSE,,,
dig,325,935463,0.0-95.0-0.0,,,,,,,,,,,"[{""stimulus"":""run_exp/static/images/task_images/dig.jpg"",""time"":0.4000000059604645},{""stimulus"":""run_exp/static/images/task_images/land.jpg"",""time"":797.9000000059605},{""stimulus"":""run_exp/static/images/task_images/dig.jpg"",""time"":1594.1000000089407}]",[],18,,,,,,,,,,,,,,
harvest,326,936465,0.0-95.0-1.0,,null,run_exp/static/images/task_images/gems/70.jpg,null,,,,,,60,,,18,,,,,70,0.860984,0.857142857,,,,,,,
decision,327,936543,0.0-95.0-2.0,,76.09999999,run_exp/static/images/task_images/land.jpg,65,,,,,,60,,,18,,,,,,,,231448,2,2,FALSE,,,
dig,328,939474,0.0-96.0-0.0,,,,,,,,,,,"[{""stimulus"":""run_exp/static/images/task_images/dig.jpg"",""time"":0.29999999701976776},{""stimulus"":""run_exp/static/images/task_images/land.jpg"",""time"":975.6999999880791},{""stimulus"":""run_exp/static/images/task_images/dig.jpg"",""time"":1949.5}]",[],18,,,,,,,,,,,,,,
harvest,329,940480,0.0-96.0-1.0,,null,run_exp/static/images/task_images/gems/60.jpg,null,,,,,,43,,,18,,,,,60,0.713520075,0.716666667,,,,,,,
decision,330,940880,0.0-96.0-2.0,,398.3,run_exp/static/images/task_images/land.jpg,65,,,,,,43,,,18,,,,,,,,235785,2,3,FALSE,,,
dig,331,943489,0.0-97.0-0.0,,,,,,,,,,,"[{""stimulus"":""run_exp/static/images/task_images/dig.jpg"",""time"":0.3999999910593033},{""stimulus"":""run_exp/static/images/task_images/land.jpg"",""time"":869},{""stimulus"":""run_exp/static/images/task_images/dig.jpg"",""time"":1736.2999999970198}]",[],18,,,,,,,,,,,,,,
harvest,332,944491,0.0-97.0-1.0,,null,run_exp/static/images/task_images/gems/43.jpg,null,,,,,,37,,,18,,,,,43,0.861700779,0.860465116,,,,,,,
decision,333,945003,0.0-97.0-2.0,,509.4,run_exp/static/images/task_images/land.jpg,65,,,,,,37,,,18,,,,,,,,239908,2,4,FALSE,,,
dig,334,947501,0.0-98.0-0.0,,,,,,,,,,,"[{""stimulus"":""run_exp/static/images/task_images/dig.jpg"",""time"":0.4000000059604645},{""stimulus"":""run_exp/static/images/task_images/land.jpg"",""time"":831.7000000029802},{""stimulus"":""run_exp/static/images/task_images/dig.jpg"",""time"":1661.9000000059605}]",[],18,,,,,,,,,,,,,,
harvest,335,948503,0.0-98.0-1.0,,null,run_exp/static/images/task_images/gems/37.jpg,null,,,,,,27,,,18,,,,,37,0.719237383,0.72972973,,,,,,,
decision,336,949270,0.0-98.0-2.0,,764.3,run_exp/static/images/task_images/land.jpg,65,,,,,,27,,,18,,,,,,,,244175,2,5,FALSE,,,
dig,337,951513,0.0-99.0-0.0,,,,,,,,,,,"[{""stimulus"":""run_exp/static/images/task_images/dig.jpg"",""time"":0.4000000059604645},{""stimulus"":""run_exp/static/images/task_images/land.jpg"",""time"":747.2000000029802},{""stimulus"":""run_exp/static/images/task_images/dig.jpg"",""time"":1491.6000000089407}]",[],18,,,,,,,,,,,,,,
harvest,338,952515,0.0-99.0-1.0,,null,run_exp/static/images/task_images/gems/27.jpg,null,,,,,,22,,,18,,,,,27,0.796648229,0.814814815,,,,,,,
decision,339,954319,0.0-99.0-2.0,,1802.1,run_exp/static/images/task_images/land.jpg,65,,,,,,22,,,18,,,,,,,,249224,2,6,FALSE,,,
dig,340,955524,0.0-100.0-0.0,,,,,,,,,,,"[{""stimulus"":""run_exp/static/images/task_images/dig.jpg"",""time"":0.5},{""stimulus"":""run_exp/static/images/task_images/land.jpg"",""time"":400.79999999701977},{""stimulus"":""run_exp/static/images/task_images/dig.jpg"",""time"":800.0999999940395}]",[],18,,,,,,,,,,,,,,
harvest,341,956526,0.0-100.0-1.0,,null,run_exp/static/images/task_images/gems/22.jpg,null,,,,,,17,,,18,,,,,22,0.788658198,0.772727273,,,,,,,
decision,342,958521,0.0-100.0-2.0,,1993,run_exp/static/images/task_images/land.jpg,76,,,,,,17,,,18,,,,,,,,253426,2,7,TRUE,,,
travel,343,966530,0.0-101.0-0.0,,,,,,,,,,,"[{""stimulus"":""run_exp/static/images/task_images/rocket-01.jpg"",""time"":0.4000000059604645},{""stimulus"":""run_exp/static/images/task_images/rocket-02.jpg"",""time"":891},{""stimulus"":""run_exp/static/images/task_images/rocket-03.jpg"",""time"":1779.5},{""stimulus"":""run_exp/static/images/task_images/rocket-04.jpg"",""time"":2669.300000011921},{""stimulus"":""run_exp/static/images/task_images/rocket-05.jpg"",""time"":3558.300000011921},{""stimulus"":""run_exp/static/images/task_images/rocket-06.jpg"",""time"":4446.70000000298},{""stimulus"":""run_exp/static/images/task_images/rocket-07.jpg"",""time"":5335.70000000298},{""stimulus"":""run_exp/static/images/task_images/rocket-08.jpg"",""time"":6224.70000000298},{""stimulus"":""run_exp/static/images/task_images/rocket-09.jpg"",""time"":7113.70000000298}]",[],18,,,,,,,,,,,,,,
alien_welcome,344,971532,0.0-101.0-1.0,,null,run_exp/static/images/task_images/aliens/old_aliens/planet/alien_planet-28.jpg,null,,,,,,,,,,,,28,"70,50,27,45,43,69,10,14,46,55,68,22,32,4,5,19,7,36,28,33,6,77,20,16,65,59,80,42,47,54,9,26,72,29,13,23,73,24,31,30,11",,,,,,,,,,
land,345,972035,0.0-101.0-2.0,,null,run_exp/static/images/task_images/land.jpg,null,,,,,,103,,,19,,,,,,,,,,,,,,
dig,346,974040,0.0-101.0-3.0,,,,,,,,,,,"[{""stimulus"":""run_exp/static/images/task_images/dig.jpg"",""time"":0.5},{""stimulus"":""run_exp/static/images/task_images/land.jpg"",""time"":668.8000000119209},{""stimulus"":""run_exp/static/images/task_images/dig.jpg"",""time"":1335.800000011921}]",[],19,,,,,,,,,,,,,,
harvest,347,975042,0.0-101.0-4.0,,null,run_exp/static/images/task_images/gems/103.jpg,null,,,,,,57,,,19,,,,,103,0.556787699,0.553398058,,,,,,,
decision,348,975489,0.0-101.0-5.0,,444.5,run_exp/static/images/task_images/land.jpg,65,,,,,,57,,,19,,,,,,,,270395,2,0,FALSE,,,
dig,349,978052,0.0-102.0-0.0,,,,,,,,,,,"[{""stimulus"":""run_exp/static/images/task_images/dig.jpg"",""time"":0.3999999910593033},{""stimulus"":""run_exp/static/images/task_images/land.jpg"",""time"":853},{""stimulus"":""run_exp/static/images/task_images/dig.jpg"",""time"":1703.7000000029802}]",[],19,,,,,,,,,,,,,,
harvest,350,979054,0.0-102.0-1.0,,null,run_exp/static/images/task_images/gems/57.jpg,null,,,,,,31,,,19,,,,,57,0.541027689,0.543859649,,,,,,,
decision,351,979225,0.0-102.0-2.0,,169.5,run_exp/static/images/task_images/land.jpg,65,,,,,,31,,,19,,,,,,,,274131,2,1,FALSE,,,
dig,352,982062,0.0-103.0-0.0,,,,,,,,,,,"[{""stimulus"":""run_exp/static/images/task_images/dig.jpg"",""time"":0.5},{""stimulus"":""run_exp/static/images/task_images/land.jpg"",""time"":945},{""stimulus"":""run_exp/static/images/task_images/dig.jpg"",""time"":1888.0999999940395}]",[],19,,,,,,,,,,,,,,
harvest,353,983065,0.0-103.0-1.0,,null,run_exp/static/images/task_images/gems/31.jpg,null,,,,,,16,,,19,,,,,31,0.519891815,0.516129032,,,,,,,
decision,354,983899,0.0-103.0-2.0,,832.1,run_exp/static/images/task_images/land.jpg,76,,,,,,16,,,19,,,,,,,,278804,2,2,TRUE,,,
travel,355,993072,0.0-104.0-0.0,,,,,,,,,,,"[{""stimulus"":""run_exp/static/images/task_images/rocket-01.jpg"",""time"":0.3999999910593033},{""stimulus"":""run_exp/static/images/task_images/rocket-02.jpg"",""time"":1019.7999999970198},{""stimulus"":""run_exp/static/images/task_images/rocket-03.jpg"",""time"":2037.7999999970198},{""stimulus"":""run_exp/static/images/task_images/rocket-04.jpg"",""time"":3056.5},{""stimulus"":""run_exp/static/images/task_images/rocket-05.jpg"",""time"":4074},{""stimulus"":""run_exp/static/images/task_images/rocket-06.jpg"",""time"":5092.29999999702},{""stimulus"":""run_exp/static/images/task_images/rocket-07.jpg"",""time"":6109.79999999702},{""stimulus"":""run_exp/static/images/task_images/rocket-08.jpg"",""time"":7127.899999991059},{""stimulus"":""run_exp/static/images/task_images/rocket-09.jpg"",""time"":8145.899999991059}]",[],19,,,,,,,,,,,,,,
alien_welcome,356,998074,0.0-104.0-1.0,,null,run_exp/static/images/task_images/aliens/old_aliens/planet/alien_planet-33.jpg,null,,,,,,,,,,,,33,"70,50,27,45,43,69,10,14,46,55,68,22,32,4,5,19,7,36,28,33,6,77,20,16,65,59,80,42,47,54,9,26,72,29,13,23,73,24,31,30,11",,,,,,,,,,
land,357,998576,0.0-104.0-2.0,,null,run_exp/static/images/task_images/land.jpg,null,,,,,,98,,,20,,,,,,,,,,,,,,
dig,358,1000582,0.0-104.0-3.0,,,,,,,,,,,"[{""stimulus"":""run_exp/static/images/task_images/dig.jpg"",""time"":0.5},{""stimulus"":""run_exp/static/images/task_images/land.jpg"",""time"":668.7000000029802},{""stimulus"":""run_exp/static/images/task_images/dig.jpg"",""time"":1336.4000000059605}]",[],20,,,,,,,,,,,,,,
harvest,359,1001585,0.0-104.0-4.0,,null,run_exp/static/images/task_images/gems/98.jpg,null,,,,,,78,,,20,,,,,98,0.793462704,0.795918367,,,,,,,
decision,360,1001882,0.0-104.0-5.0,,294.5,run_exp/static/images/task_images/land.jpg,65,,,,,,78,,,20,,,,,,,,296787,2,0,FALSE,,,
dig,361,1004594,0.0-105.0-0.0,,,,,,,,,,,"[{""stimulus"":""run_exp/static/images/task_images/dig.jpg"",""time"":0.5},{""stimulus"":""run_exp/static/images/task_images/land.jpg"",""time"":903.2999999970198},{""stimulus"":""run_exp/static/images/task_images/dig.jpg"",""time"":1804.5}]",[],20,,,,,,,,,,,,,,
harvest,362,1005596,0.0-105.0-1.0,,null,run_exp/static/images/task_images/gems/78.jpg,null,,,,,,65,,,20,,,,,78,0.830189539,0.833333333,,,,,,,
decision,363,1005764,0.0-105.0-2.0,,165.9,run_exp/static/images/task_images/land.jpg,65,,,,,,65,,,20,,,,,,,,300669,2,1,TRUE,,,
end_of_block_continue,364,1014824,0.0-106.0-0.0,,null,run_exp/static/audio/clip_32_block_end.m4a,,,,,,null,,,,,,,,,,,,,,,,,,
alien_welcome,365,1019832,0.0-107.0-0.0,,null,run_exp/static/images/task_images/aliens/old_aliens/planet/alien_planet-6.jpg,null,,,,,,,,,,,,6,"70,50,27,45,43,69,10,14,46,55,68,22,32,4,5,19,7,36,28,33,6,77,20,16,65,59,80,42,47,54,9,26,72,29,13,23,73,24,31,30,11",,,,,,,,,,
land,366,1020334,0.0-107.0-1.0,,null,run_exp/static/images/task_images/land.jpg,null,,,,,,105,,,21,,,,,,,,,,,,,,
dig,367,1022341,0.0-107.0-2.0,,,,,,,,,,,"[{""stimulus"":""run_exp/static/images/task_images/dig.jpg"",""time"":1.2000000029802322},{""stimulus"":""run_exp/static/images/task_images/land.jpg"",""time"":669.5999999940395},{""stimulus"":""run_exp/static/images/task_images/dig.jpg"",""time"":1336.5999999940395}]",[],21,,,,,,,,,,,,,,
harvest,368,1023343,0.0-107.0-3.0,,null,run_exp/static/images/task_images/gems/105.jpg,null,,,,,,53,,,21,,,,,105,0.506174683,0.504761905,,,,,,,
decision,369,1023765,0.0-107.0-4.0,,419,run_exp/static/images/task_images/land.jpg,65,,,,,,53,,,21,,,,,,,,8937,3,0,FALSE,,,
dig,370,1026356,0.0-108.0-0.0,,,,,,,,,,,"[{""stimulus"":""run_exp/static/images/task_images/dig.jpg"",""time"":0.5},{""stimulus"":""run_exp/static/images/task_images/land.jpg"",""time"":861.7000000029802},{""stimulus"":""run_exp/static/images/task_images/dig.jpg"",""time"":1722.3999999910593}]",[],21,,,,,,,,,,,,,,
harvest,371,1027358,0.0-108.0-1.0,,null,run_exp/static/images/task_images/gems/53.jpg,null,,,,,,23,,,21,,,,,53,0.436008201,0.433962264,,,,,,,
decision,372,1027781,0.0-108.0-2.0,,421.3,run_exp/static/images/task_images/land.jpg,65,,,,,,23,,,21,,,,,,,,12954,3,1,FALSE,,,
dig,373,1030370,0.0-109.0-0.0,,,,,,,,,,,"[{""stimulus"":""run_exp/static/images/task_images/dig.jpg"",""time"":0.4000000059604645},{""stimulus"":""run_exp/static/images/task_images/land.jpg"",""time"":860.6000000089407},{""stimulus"":""run_exp/static/images/task_images/dig.jpg"",""time"":1719.7000000029802}]",[],21,,,,,,,,,,,,,,
harvest,374,1031372,0.0-109.0-1.0,,null,run_exp/static/images/task_images/gems/23.jpg,null,,,,,,12,,,21,,,,,23,0.513055578,0.52173913,,,,,,,
decision,375,1031762,0.0-109.0-2.0,,388.6,run_exp/static/images/task_images/land.jpg,76,,,,,,12,,,21,,,,,,,,16935,3,2,TRUE,,,
travel,376,1041373,0.0-110.0-0.0,,,,,,,,,,,"[{""stimulus"":""run_exp/static/images/task_images/rocket-01.jpg"",""time"":1.1000000089406967},{""stimulus"":""run_exp/static/images/task_images/rocket-02.jpg"",""time"":1070.2000000029802},{""stimulus"":""run_exp/static/images/task_images/rocket-03.jpg"",""time"":2136.4000000059605},{""stimulus"":""run_exp/static/images/task_images/rocket-04.jpg"",""time"":3203.2000000029802},{""stimulus"":""run_exp/static/images/task_images/rocket-05.jpg"",""time"":4270.20000000298},{""stimulus"":""run_exp/static/images/task_images/rocket-06.jpg"",""time"":5337.4000000059605},{""stimulus"":""run_exp/static/images/task_images/rocket-07.jpg"",""time"":6404.100000008941},{""stimulus"":""run_exp/static/images/task_images/rocket-08.jpg"",""time"":7471.70000000298},{""stimulus"":""run_exp/static/images/task_images/rocket-09.jpg"",""time"":8538.10000000894}]",[],21,,,,,,,,,,,,,,
alien_welcome,377,1046375,0.0-110.0-1.0,,null,run_exp/static/images/task_images/aliens/old_aliens/planet/alien_planet-77.jpg,null,,,,,,,,,,,,77,"70,50,27,45,43,69,10,14,46,55,68,22,32,4,5,19,7,36,28,33,6,77,20,16,65,59,80,42,47,54,9,26,72,29,13,23,73,24,31,30,11",,,,,,,,,,
land,378,1046877,0.0-110.0-2.0,,null,run_exp/static/images/task_images/land.jpg,null,,,,,,98,,,22,,,,,,,,,,,,,,
dig,379,1048881,0.0-110.0-3.0,,,,,,,,,,,"[{""stimulus"":""run_exp/static/images/task_images/dig.jpg"",""time"":0.30000001192092896},{""stimulus"":""run_exp/static/images/task_images/land.jpg"",""time"":668.8000000119209},{""stimulus"":""run_exp/static/images/task_images/dig.jpg"",""time"":1335.4000000059605}]",[],22,,,,,,,,,,,,,,
harvest,380,1049883,0.0-110.0-4.0,,null,run_exp/static/images/task_images/gems/98.jpg,null,,,,,,76,,,22,,,,,98,0.775179956,0.775510204,,,,,,,
decision,381,1050146,0.0-110.0-5.0,,260.9,run_exp/static/images/task_images/land.jpg,65,,,,,,76,,,22,,,,,,,,35318,3,0,FALSE,,,
dig,382,1052894,0.0-111.0-0.0,,,,,,,,,,,"[{""stimulus"":""run_exp/static/images/task_images/dig.jpg"",""time"":0.5},{""stimulus"":""run_exp/static/images/task_images/land.jpg"",""time"":914.7999999970198},{""stimulus"":""run_exp/static/images/task_images/dig.jpg"",""time"":1827.7000000029802}]",[],22,,,,,,,,,,,,,,
harvest,383,1053897,0.0-111.0-1.0,,null,run_exp/static/images/task_images/gems/76.jpg,null,,,,,,58,,,22,,,,,76,0.768999533,0.763157895,,,,,,,
decision,384,1054464,0.0-111.0-2.0,,564.5,run_exp/static/images/task_images/land.jpg,65,,,,,,58,,,22,,,,,,,,39636,3,1,FALSE,,,
dig,385,1056906,0.0-112.0-0.0,,,,,,,,,,,"[{""stimulus"":""run_exp/static/images/task_images/dig.jpg"",""time"":0.29999999701976776},{""stimulus"":""run_exp/static/images/task_images/land.jpg"",""time"":812.5},{""stimulus"":""run_exp/static/images/task_images/dig.jpg"",""time"":1623.6000000089407}]",[],22,,,,,,,,,,,,,,
harvest,386,1057909,0.0-112.0-1.0,,null,run_exp/static/images/task_images/gems/58.jpg,null,,,,,,48,,,22,,,,,58,0.834969217,0.827586207,,,,,,,
decision,387,1058710,0.0-112.0-2.0,,796.8,run_exp/static/images/task_images/land.jpg,65,,,,,,48,,,22,,,,,,,,43882,3,2,FALSE,,,
dig,388,1060919,0.0-113.0-0.0,,,,,,,,,,,"[{""stimulus"":""run_exp/static/images/task_images/dig.jpg"",""time"":0.4000000059604645},{""stimulus"":""run_exp/static/images/task_images/land.jpg"",""time"":735.4000000059605},{""stimulus"":""run_exp/static/images/task_images/dig.jpg"",""time"":1470.1000000089407}]",[],22,,,,,,,,,,,,,,
harvest,389,1061921,0.0-113.0-1.0,,null,run_exp/static/images/task_images/gems/48.jpg,null,,,,,,35,,,22,,,,,48,0.719963319,0.729166667,,,,,,,
decision,390,1062482,0.0-113.0-2.0,,558.6,run_exp/static/images/task_images/land.jpg,65,,,,,,35,,,22,,,,,,,,47654,3,3,FALSE,,,
dig,391,1064930,0.0-114.0-0.0,,,,,,,,,,,"[{""stimulus"":""run_exp/static/images/task_images/dig.jpg"",""time"":0.5},{""stimulus"":""run_exp/static/images/task_images/land.jpg"",""time"":814.7000000029802},{""stimulus"":""run_exp/static/images/task_images/dig.jpg"",""time"":1628}]",[],22,,,,,,,,,,,,,,
harvest,392,1065932,0.0-114.0-1.0,,null,run_exp/static/images/task_images/gems/35.jpg,null,,,,,,29,,,22,,,,,35,0.821275177,0.828571429,,,,,,,
decision,393,1067578,0.0-114.0-2.0,,1644.5,run_exp/static/images/task_images/land.jpg,65,,,,,,29,,,22,,,,,,,,52751,3,4,FALSE,,,
dig,394,1068940,0.0-115.0-0.0,,,,,,,,,,,"[{""stimulus"":""run_exp/static/images/task_images/dig.jpg"",""time"":0.29999999701976776},{""stimulus"":""run_exp/static/images/task_images/land.jpg"",""time"":452.59999999403954},{""stimulus"":""run_exp/static/images/task_images/dig.jpg"",""time"":903.5}]",[],22,,,,,,,,,,,,,,
harvest,395,1069941,0.0-115.0-1.0,,null,run_exp/static/images/task_images/gems/29.jpg,null,,,,,,25,,,22,,,,,29,0.856875619,0.862068966,,,,,,,
decision,396,1071298,0.0-115.0-2.0,,1354.3,run_exp/static/images/task_images/land.jpg,65,,,,,,25,,,22,,,,,,,,56470,3,5,FALSE,,,
dig,397,1072950,0.0-116.0-0.0,,,,,,,,,,,"[{""stimulus"":""run_exp/static/images/task_images/dig.jpg"",""time"":0.29999999701976776},{""stimulus"":""run_exp/static/images/task_images/land.jpg"",""time"":549.5},{""stimulus"":""run_exp/static/images/task_images/dig.jpg"",""time"":1098}]",[],22,,,,,,,,,,,,,,
harvest,398,1073952,0.0-116.0-1.0,,null,run_exp/static/images/task_images/gems/25.jpg,null,,,,,,22,,,22,,,,,25,0.896742783,0.88,,,,,,,
decision,399,1074280,0.0-116.0-2.0,,325.5,run_exp/static/images/task_images/land.jpg,76,,,,,,22,,,22,,,,,,,,59452,3,6,TRUE,,,
