trial_type,trial_index,time_elapsed,internal_node_id,interactions,blur_events,focus_events,fullscreenenter_events,fullscreenexit_events,success,rt,stimulus,key_press,prompt,subject_id,participant_id,age,gender,button_pressed,next_reward,animation_sequence,responses,planet,curr_prac_trial,n_prac_rounds,alien,aliens,reward_received,decay_rate_actual,decay_rate_exp,time_in_block,block_num,prt,last_trial_on_planet,button_html,bonus,num_failures
pavlovia,0,4,0.0-0.0,"""event"",""trial"",""time""
""fullscreenenter"",""1"",""2745""
","
","
","""event"",""trial"",""time""
""fullscreenenter"",""1"",""2745""
","
",,,,,,,,,,,,,,,,,,,,,,,,,,,,
fullscreen,1,3742,0.0-1.0,"""event"",""trial"",""time""
""fullscreenenter"",""1"",""2745""
","
","
","""event"",""trial"",""time""
""fullscreenenter"",""1"",""2745""
","
",TRUE,,,,,,,,,,,,,,,,,,,,,,,,,,,
instruc_welcome,2,13468,0.0-2.0,"""event"",""trial"",""time""
""fullscreenenter"",""1"",""2745""
","
","
","""event"",""trial"",""time""
""fullscreenenter"",""1"",""2745""
","
",,null,run_exp/static/audio/clip_1_welcome.m4a,null,"<p>Howdy! In this experiment, you’ll be an explorer traveling through space to collect space treasure.</p><p>Your mission is to collect as much treasure as possible.</p><br><br><p><img src='run_exp/static/images/task_images/opening_img-01.jpg' height='300' width='auto'></p>",9317,308,15.99,Male,,,,,,,,,,,,,,,,,,,
audio-keyboard-response,3,30047,0.0-3.0,"""event"",""trial"",""time""
""fullscreenenter"",""1"",""2745""
","
","
","""event"",""trial"",""time""
""fullscreenenter"",""1"",""2745""
","
",,null,run_exp/static/audio/clip_2_move.m4a,null,,,,,,,,,,,,,,,,,,,,,,,,
welcome_dec,4,35459,0.0-4.0,"""event"",""trial"",""time""
""fullscreenenter"",""1"",""2745""
","
","
","""event"",""trial"",""time""
""fullscreenenter"",""1"",""2745""
","
",,5410.9,"<p>Howdy! In this experiment, you’ll be an explorer traveling through space to collect space treasure.</p><p>Your mission is to collect as much treasure as possible.</p><br><br><p><img src='run_exp/static/images/task_images/opening_img-01.jpg' height='300' width='auto'></p>",,,,,,,1,,,,,,,,,,,,,,,,,,
html-keyboard-response,5,37461,0.0-5.0,"""event"",""trial"",""time""
""fullscreenenter"",""1"",""2745""
","
","
","""event"",""trial"",""time""
""fullscreenenter"",""1"",""2745""
","
",,2001.4,"<p>Howdy! In this experiment, you’ll be an explorer traveling through space to collect space treasure.</p><p>Your mission is to collect as much treasure as possible.</p><br><br><p><img src='run_exp/static/images/task_images/opening_img-01.jpg' height='300' width='auto'></p><button class=""jspsych-html-btn-unchosen""><img src=""run_exp/static/images/task_images/planet-01.jpg"" height=""50""></button><button class=""jspsych-html-btn-chosen""><img src=""run_exp/static/images/task_images/planet-02.jpg"" height=""50""></button><p><b>[press the space bar to lock in your answer]<b><br></p>",32,,,,,,,,,,,,,,,,,,,,,,,,
instruc_goal,6,47508,0.0-6.0-0.0,"""event"",""trial"",""time""
""fullscreenenter"",""1"",""2745""
","
","
","""event"",""trial"",""time""
""fullscreenenter"",""1"",""2745""
","
",,null,run_exp/static/audio/clip_3_goal.m4a,null,"<p> As a space explorer, you’ll visit different planets to dig for space treasure, these pink gems.</p> <p> The more treasure you dig up, the more bonus money you’ll win! </p><br><br><p><img src='run_exp/static/images/task_images/pink_gem.jpg' height='300' width='auto'></p>",,,,,,,,,,,,,,,,,,,,,,,
instruc_goal,7,50190,0.0-6.0-1.0,"""event"",""trial"",""time""
""fullscreenenter"",""1"",""2745""
","
","
","""event"",""trial"",""time""
""fullscreenenter"",""1"",""2745""
","
",,2681.4,"<p> As a space explorer, you’ll visit different planets to dig for space treasure, these pink gems.</p> <p> The more treasure you dig up, the more bonus money you’ll win! </p><br><br><p><img src='run_exp/static/images/task_images/pink_gem.jpg' height='300' width='auto'></p>",,,,,,,1,,,,,,,,,,,,,,,,,,
html-keyboard-response,8,51126,0.0-6.0-2.0,"""event"",""trial"",""time""
""fullscreenenter"",""1"",""2745""
","
","
","""event"",""trial"",""time""
""fullscreenenter"",""1"",""2745""
","
",,935,"<p> As a space explorer, you’ll visit different planets to dig for space treasure, these pink gems.</p> <p> The more treasure you dig up, the more bonus money you’ll win! </p><br><br><p><img src='run_exp/static/images/task_images/pink_gem.jpg' height='300' width='auto'></p><button class=""jspsych-html-btn-unchosen""><img src=""run_exp/static/images/task_images/planet-01.jpg"" height=""50""></button><button class=""jspsych-html-btn-chosen""><img src=""run_exp/static/images/task_images/planet-02.jpg"" height=""50""></button><p><b>[press the space bar to lock in your answer]<b><br></p>",32,,,,,,,,,,,,,,,,,,,,,,,,
instruc_dig,9,67129,0.0-7.0-0.0,"""event"",""trial"",""time""
""fullscreenenter"",""1"",""2745""
","
","
","""event"",""trial"",""time""
""fullscreenenter"",""1"",""2745""
","
",,null,run_exp/static/audio/clip_4_dig.m4a,null,,,,,,,100,,,,,,,,,,,,,,,,,
instruc_dig_try,10,69381,0.0-7.0-1.0,"""event"",""trial"",""time""
""fullscreenenter"",""1"",""2745""
","
","
","""event"",""trial"",""time""
""fullscreenenter"",""1"",""2745""
","
",,2251.1,"<p> When you’ve arrived at a new planet, you will dig once. </p> <p>Then, you get to decide if you want to stay on the planet and dig again or travel to a new planet and dig there.</p> <p> To stay and dig, press the letter <strong>‘A’</strong> on your keyboard. Try pressing it now! </p><p><img src='run_exp/static/images/task_images/land.jpg'  height='700' width='auto'></p>",65,"<p> When you’ve arrived at a new planet, you will dig once. </p> <p>Then, you get to decide if you want to stay on the planet and dig again or travel to a new planet and dig there.</p> <p> To stay and dig, press the letter <strong>‘A’</strong> on your keyboard. Try pressing it now! </p><p><img src='run_exp/static/images/task_images/land.jpg'  height='700' width='auto'></p>",,,,,,100,,,,,,,,,,,,,,,,,
dig_prac,11,71388,0.0-7.0-2.0,"""event"",""trial"",""time""
""fullscreenenter"",""1"",""2745""
","
","
","""event"",""trial"",""time""
""fullscreenenter"",""1"",""2745""
","
",,,,,,,,,,,,"[{""stimulus"":""run_exp/static/images/task_images/dig.jpg"",""time"":0.09999990463256836},{""stimulus"":""run_exp/static/images/task_images/land.jpg"",""time"":675.5999999046326},{""stimulus"":""run_exp/static/images/task_images/dig.jpg"",""time"":1341}]",[],,,,,,,,,,,,,,,
instruc_travel,12,107602,0.0-7.0-3.0,"""event"",""trial"",""time""
""fullscreenenter"",""1"",""2745""
","
","
","""event"",""trial"",""time""
""fullscreenenter"",""1"",""2745""
","
",,null,run_exp/static/audio/clip_5_travel.m4a,null,"<p>Every time you dig up gems, there are less gems on the planet, so the more you dig on a planet the fewer gems you’ll get with each dig.</p><p>When gems are running low, you may want to travel to a new planet. </p> <p>  Planets are very far apart in this galaxy, so it will take some time to travel between them. </p> <br><p>There are lots and lots of planets for you to visit, so you won’t be able to return to any planets you’ve seen before. </p><br><p>To leave this planet and travel to a new one, press the letter <strong>‘L’</strong> on your keyboard. Try pressing it now! </p><p><img src='run_exp/static/images/task_images/rocket-01.jpg'  height='600' width='auto'></p>",,,,,,,,,,,,,,,,,,,,,,,
instruc_travel_try,13,108437,0.0-7.0-4.0,"""event"",""trial"",""time""
""fullscreenenter"",""1"",""2745""
","
","
","""event"",""trial"",""time""
""fullscreenenter"",""1"",""2745""
","
",,834.5,"<p>Every time you dig up gems, there are less gems on the planet, so the more you dig on a planet the fewer gems you’ll get with each dig.</p><p>When gems are running low, you may want to travel to a new planet. </p> <p>  Planets are very far apart in this galaxy, so it will take some time to travel between them. </p> <br><p>There are lots and lots of planets for you to visit, so you won’t be able to return to any planets you’ve seen before. </p><br><p>To leave this planet and travel to a new one, press the letter <strong>‘L’</strong> on your keyboard. Try pressing it now! </p><p><img src='run_exp/static/images/task_images/rocket-01.jpg'  height='600' width='auto'></p>",76,"<p>Every time you dig up gems, there are less gems on the planet, so the more you dig on a planet the fewer gems you’ll get with each dig.</p><p>When gems are running low, you may want to travel to a new planet. </p> <p>  Planets are very far apart in this galaxy, so it will take some time to travel between them. </p> <br><p>There are lots and lots of planets for you to visit, so you won’t be able to return to any planets you’ve seen before. </p><br><p>To leave this planet and travel to a new one, press the letter <strong>‘L’</strong> on your keyboard. Try pressing it now! </p><p><img src='run_exp/static/images/task_images/rocket-01.jpg'  height='600' width='auto'></p>",,,,,,,,,,,,,,,,,,,,,,,
travel_prac,14,118446,0.0-7.0-5.0,"""event"",""trial"",""time""
""fullscreenenter"",""1"",""2745""
","
","
","""event"",""trial"",""time""
""fullscreenenter"",""1"",""2745""
","
",,,,,,,,,,,,"[{""stimulus"":""run_exp/static/images/task_images/rocket-01.jpg"",""time"":0.20000028610229492},{""stimulus"":""run_exp/static/images/task_images/rocket-02.jpg"",""time"":1117.5999999046326},{""stimulus"":""run_exp/static/images/task_images/rocket-03.jpg"",""time"":2233.800000190735},{""stimulus"":""run_exp/static/images/task_images/rocket-04.jpg"",""time"":3343.7000002861023},{""stimulus"":""run_exp/static/images/task_images/rocket-05.jpg"",""time"":4445.5},{""stimulus"":""run_exp/static/images/task_images/rocket-06.jpg"",""time"":5560.900000095367},{""stimulus"":""run_exp/static/images/task_images/rocket-07.jpg"",""time"":6671.400000095367},{""stimulus"":""run_exp/static/images/task_images/rocket-08.jpg"",""time"":7785.200000286102},{""stimulus"":""run_exp/static/images/task_images/rocket-09.jpg"",""time"":8895.700000286102}]",[],0,,,,,,,,,,,,,,
instruc_alien_greet,15,145636,0.0-7.0-6.0,"""event"",""trial"",""time""
""fullscreenenter"",""1"",""2745""
","
","
","""event"",""trial"",""time""
""fullscreenenter"",""1"",""2745""
","
",,null,run_exp/static/audio/clip_6_alien.m4a,null,"<p>When you arrive at a new planet, the alien who owns the treasure mine on that planet will greet you!</p><p>The better an alien takes care of their mine the easier it is to dig for gems. Some aliens take better care of their mine than others. So, you won’t get exactly the same amount of gems on each planet.</p><p>What the alien looks like does not tell you anything about how many gems there are on the planet.</p><br><p><img src=""run_exp/static/images/task_images/aliens/instructions_aliens/planet/alien_planet-1.jpg""  height=""600"" width=""auto""></p>",,,,,,,,,,,,,,,,,,,,,,,
instruc_alien_greet,16,148085,0.0-7.0-7.0,"""event"",""trial"",""time""
""fullscreenenter"",""1"",""2745""
","
","
","""event"",""trial"",""time""
""fullscreenenter"",""1"",""2745""
","
",,2447.9,"<p>When you arrive at a new planet, the alien who owns the treasure mine on that planet will greet you!</p><p>The better an alien takes care of their mine the easier it is to dig for gems. Some aliens take better care of their mine than others. So, you won’t get exactly the same amount of gems on each planet.</p><p>What the alien looks like does not tell you anything about how many gems there are on the planet.</p><br><p><img src=""run_exp/static/images/task_images/aliens/instructions_aliens/planet/alien_planet-1.jpg""  height=""600"" width=""auto""></p>",,,,,,,1,,,,,,,,,,,,,,,,,,
html-keyboard-response,17,148997,0.0-7.0-8.0,"""event"",""trial"",""time""
""fullscreenenter"",""1"",""2745""
","
","
","""event"",""trial"",""time""
""fullscreenenter"",""1"",""2745""
","
",,911.1000004,"<p>When you arrive at a new planet, the alien who owns the treasure mine on that planet will greet you!</p><p>The better an alien takes care of their mine the easier it is to dig for gems. Some aliens take better care of their mine than others. So, you won’t get exactly the same amount of gems on each planet.</p><p>What the alien looks like does not tell you anything about how many gems there are on the planet.</p><br><p><img src=""run_exp/static/images/task_images/aliens/instructions_aliens/planet/alien_planet-1.jpg""  height=""600"" width=""auto""></p><button class=""jspsych-html-btn-unchosen""><img src=""run_exp/static/images/task_images/planet-01.jpg"" height=""50""></button><button class=""jspsych-html-btn-chosen""><img src=""run_exp/static/images/task_images/planet-02.jpg"" height=""50""></button><p><b>[press the space bar to lock in your answer]<b><br></p>",32,,,,,,,,,,,,,,,,,,,,,,,,
time_out,18,160079,0.0-8.0-0.0,"""event"",""trial"",""time""
""fullscreenenter"",""1"",""2745""
","
","
","""event"",""trial"",""time""
""fullscreenenter"",""1"",""2745""
","
",,null,run_exp/static/audio/clip_7_timeout.m4a,null,"<p>If you don't make your choice fast enough, you’ll have to wait a few seconds before you can make another one.</p><p>You can’t dig for more gems or travel to new planets. You just have to sit and wait.</p><br><p><img src='run_exp/static/images/task_images/time_out.jpg'  height='600' width='auto'></p>",,,,,,,,,,,,,,,,,,,,,,,
time_out,19,161989,0.0-8.0-1.0,"""event"",""trial"",""time""
""fullscreenenter"",""1"",""2745""
","
","
","""event"",""trial"",""time""
""fullscreenenter"",""1"",""2745""
","
",,1909.1,"<p>If you don't make your choice fast enough, you’ll have to wait a few seconds before you can make another one.</p><p>You can’t dig for more gems or travel to new planets. You just have to sit and wait.</p><br><p><img src='run_exp/static/images/task_images/time_out.jpg'  height='600' width='auto'></p>",,,,,,,1,,,,,,,,,,,,,,,,,,
html-keyboard-response,20,162287,0.0-8.0-2.0,"""event"",""trial"",""time""
""fullscreenenter"",""1"",""2745""
","
","
","""event"",""trial"",""time""
""fullscreenenter"",""1"",""2745""
","
",,297.2999997,"<p>If you don't make your choice fast enough, you’ll have to wait a few seconds before you can make another one.</p><p>You can’t dig for more gems or travel to new planets. You just have to sit and wait.</p><br><p><img src='run_exp/static/images/task_images/time_out.jpg'  height='600' width='auto'></p><button class=""jspsych-html-btn-unchosen""><img src=""run_exp/static/images/task_images/planet-01.jpg"" height=""50""></button><button class=""jspsych-html-btn-chosen""><img src=""run_exp/static/images/task_images/planet-02.jpg"" height=""50""></button><p><b>[press the space bar to lock in your answer]<b><br></p>",32,,,,,,,,,,,,,,,,,,,,,,,,
instruc_break,21,177982,0.0-9.0-0.0,"""event"",""trial"",""time""
""fullscreenenter"",""1"",""2745""
","
","
","""event"",""trial"",""time""
""fullscreenenter"",""1"",""2745""
","
",,null,run_exp/static/audio/clip_8_break.m4a,null,"<p> After digging and traveling for a while, you’ll be able to take a break at home base. </p><p>The game will last 20 minutes no matter what.</p><p>You will visit home base every 5 minutes, so, you will visit home base three times during the game.</p><br><p><img src='run_exp/static/images/task_images/home_base.jpg' height='600' width='auto'></p>",,,,,,,,,,,,,,,,,,,,,,,
instruc_break,22,181123,0.0-9.0-1.0,"""event"",""trial"",""time""
""fullscreenenter"",""1"",""2745""
","
","
","""event"",""trial"",""time""
""fullscreenenter"",""1"",""2745""
","
",,3140.3,"<p> After digging and traveling for a while, you’ll be able to take a break at home base. </p><p>The game will last 20 minutes no matter what.</p><p>You will visit home base every 5 minutes, so, you will visit home base three times during the game.</p><br><p><img src='run_exp/static/images/task_images/home_base.jpg' height='600' width='auto'></p>",,,,,,,1,,,,,,,,,,,,,,,,,,
html-keyboard-response,23,181349,0.0-9.0-2.0,"""event"",""trial"",""time""
""fullscreenenter"",""1"",""2745""
","
","
","""event"",""trial"",""time""
""fullscreenenter"",""1"",""2745""
","
",,225.5999999,"<p> After digging and traveling for a while, you’ll be able to take a break at home base. </p><p>The game will last 20 minutes no matter what.</p><p>You will visit home base every 5 minutes, so, you will visit home base three times during the game.</p><br><p><img src='run_exp/static/images/task_images/home_base.jpg' height='600' width='auto'></p><button class=""jspsych-html-btn-unchosen""><img src=""run_exp/static/images/task_images/planet-01.jpg"" height=""50""></button><button class=""jspsych-html-btn-chosen""><img src=""run_exp/static/images/task_images/planet-02.jpg"" height=""50""></button><p><b>[press the space bar to lock in your answer]<b><br></p>",32,,,,,,,,,,,,,,,,,,,,,,,,
instruc_prac_game,24,191472,0.0-10.0-0.0,"""event"",""trial"",""time""
""fullscreenenter"",""1"",""2745""
","
","
","""event"",""trial"",""time""
""fullscreenenter"",""1"",""2745""
","
",,null,run_exp/static/audio/clip_9_practice.m4a,null,"<p> Are you ready to play a practice game? </p> <p>In this practice game, you'll be digging up barrels of gems. But, in the real game, you'll be digging up the gems themselves. </p>",,,,,,,,,,,,,,,,,,,,,,,
html-button-response,25,195447,0.0-10.0-1.0,"""event"",""trial"",""time""
""fullscreenenter"",""1"",""2745""
","
","
","""event"",""trial"",""time""
""fullscreenenter"",""1"",""2745""
","
",,3973.9,"<p> Are you ready to play a practice game? </p> <p>In this practice game, you'll be digging up barrels of gems. But, in the real game, you'll be digging up the gems themselves. </p>",,,,,,,0,,,,,,,,,,,,,,,,,,
alien_welcome_prac,26,200455,0.0-11.0-0.0,"""event"",""trial"",""time""
""fullscreenenter"",""1"",""2745""
","
","
","""event"",""trial"",""time""
""fullscreenenter"",""1"",""2745""
","
",,null,run_exp/static/images/task_images/aliens/practice_aliens/planet/alien_planet-5.jpg,null,,,,,,,,,,,,,,,,,,,,,,,,
land_prac,27,200966,0.0-11.0-1.0,"""event"",""trial"",""time""
""fullscreenenter"",""1"",""2745""
","
","
","""event"",""trial"",""time""
""fullscreenenter"",""1"",""2745""
","
",,null,run_exp/static/images/task_images/land.jpg,null,,,,,,,98,,,0,,,,,,,,,,,,,,
dig_prac,28,202974,0.0-11.0-2.0,"""event"",""trial"",""time""
""fullscreenenter"",""1"",""2745""
","
","
","""event"",""trial"",""time""
""fullscreenenter"",""1"",""2745""
","
",,,,,,,,,,,,"[{""stimulus"":""run_exp/static/images/task_images/dig.jpg"",""time"":0.20000028610229492},{""stimulus"":""run_exp/static/images/task_images/land.jpg"",""time"":671.7000002861023},{""stimulus"":""run_exp/static/images/task_images/dig.jpg"",""time"":1340.9000000953674}]",[],,,,,,,,,,,,,,,
harvest_prac,29,203981,0.0-11.0-3.0,"""event"",""trial"",""time""
""fullscreenenter"",""1"",""2745""
","
","
","""event"",""trial"",""time""
""fullscreenenter"",""1"",""2745""
","
",,null,run_exp/static/images/task_images/barrel_text.jpg,null,,,,,,,,,,,,,,,,,,,,,,,,
decision_prac,30,206469,0.0-11.0-4.0,"""event"",""trial"",""time""
""fullscreenenter"",""1"",""2745""
","
","
","""event"",""trial"",""time""
""fullscreenenter"",""1"",""2745""
","
",,2488.1,run_exp/static/images/task_images/land.jpg,65,,,,,,,,,,,1,,,,,,,,,,,,,
dig_prac,31,208478,0.0-12.0-0.0,"""event"",""trial"",""time""
""fullscreenenter"",""1"",""2745""
","
","
","""event"",""trial"",""time""
""fullscreenenter"",""1"",""2745""
","
",,,,,,,,,,,,"[{""stimulus"":""run_exp/static/images/task_images/dig.jpg"",""time"":0.09999990463256836},{""stimulus"":""run_exp/static/images/task_images/land.jpg"",""time"":671.5},{""stimulus"":""run_exp/static/images/task_images/dig.jpg"",""time"":1340.5999999046326}]",[],,,,,,,,,,,,,,,
harvest_prac,32,209486,0.0-12.0-1.0,"""event"",""trial"",""time""
""fullscreenenter"",""1"",""2745""
","
","
","""event"",""trial"",""time""
""fullscreenenter"",""1"",""2745""
","
",,null,run_exp/static/images/task_images/barrel_text.jpg,null,,,,,,,,,,,,,,,,,,,,,,,,
decision_prac,33,210295,0.0-12.0-2.0,"""event"",""trial"",""time""
""fullscreenenter"",""1"",""2745""
","
","
","""event"",""trial"",""time""
""fullscreenenter"",""1"",""2745""
","
",,808.4000001,run_exp/static/images/task_images/land.jpg,65,,,,,,,,,,,2,,,,,,,,,,,,,
dig_prac,34,212299,0.0-13.0-0.0,"""event"",""trial"",""time""
""fullscreenenter"",""1"",""2745""
","
","
","""event"",""trial"",""time""
""fullscreenenter"",""1"",""2745""
","
",,,,,,,,,,,,"[{""stimulus"":""run_exp/static/images/task_images/dig.jpg"",""time"":0.20000028610229492},{""stimulus"":""run_exp/static/images/task_images/land.jpg"",""time"":675.6000003814697},{""stimulus"":""run_exp/static/images/task_images/dig.jpg"",""time"":1339.6000003814697}]",[],,,,,,,,,,,,,,,
harvest_prac,35,213311,0.0-13.0-1.0,"""event"",""trial"",""time""
""fullscreenenter"",""1"",""2745""
","
","
","""event"",""trial"",""time""
""fullscreenenter"",""1"",""2745""
","
",,null,run_exp/static/images/task_images/barrel_text.jpg,null,,,,,,,,,,,,,,,,,,,,,,,,
decision_prac,36,213997,0.0-13.0-2.0,"""event"",""trial"",""time""
""fullscreenenter"",""1"",""2745""
","
","
","""event"",""trial"",""time""
""fullscreenenter"",""1"",""2745""
","
",,686,run_exp/static/images/task_images/land.jpg,65,,,,,,,,,,,3,,,,,,,,,,,,,
dig_prac,37,216005,0.0-14.0-0.0,"""event"",""trial"",""time""
""fullscreenenter"",""1"",""2745""
","
","
","""event"",""trial"",""time""
""fullscreenenter"",""1"",""2745""
","
",,,,,,,,,,,,"[{""stimulus"":""run_exp/static/images/task_images/dig.jpg"",""time"":0.09999990463256836},{""stimulus"":""run_exp/static/images/task_images/land.jpg"",""time"":673},{""stimulus"":""run_exp/static/images/task_images/dig.jpg"",""time"":1341.3999996185303}]",[],,,,,,,,,,,,,,,
harvest_prac,38,217014,0.0-14.0-1.0,"""event"",""trial"",""time""
""fullscreenenter"",""1"",""2745""
","
","
","""event"",""trial"",""time""
""fullscreenenter"",""1"",""2745""
","
",,null,run_exp/static/images/task_images/barrel_text.jpg,null,,,,,,,,,,,,,,,,,,,,,,,,
decision_prac,39,217535,0.0-14.0-2.0,"""event"",""trial"",""time""
""fullscreenenter"",""1"",""2745""
","
","
","""event"",""trial"",""time""
""fullscreenenter"",""1"",""2745""
","
",,520.2999997,run_exp/static/images/task_images/land.jpg,65,,,,,,,,,,,4,,,,,,,,,,,,,
dig_prac,40,219542,0.0-15.0-0.0,"""event"",""trial"",""time""
""fullscreenenter"",""1"",""2745""
","
","
","""event"",""trial"",""time""
""fullscreenenter"",""1"",""2745""
","
",,,,,,,,,,,,"[{""stimulus"":""run_exp/static/images/task_images/dig.jpg"",""time"":0.09999990463256836},{""stimulus"":""run_exp/static/images/task_images/land.jpg"",""time"":674.5999999046326},{""stimulus"":""run_exp/static/images/task_images/dig.jpg"",""time"":1334.8000001907349}]",[],,,,,,,,,,,,,,,
harvest_prac,41,220548,0.0-15.0-1.0,"""event"",""trial"",""time""
""fullscreenenter"",""1"",""2745""
","
","
","""event"",""trial"",""time""
""fullscreenenter"",""1"",""2745""
","
",,null,run_exp/static/images/task_images/barrel_text.jpg,null,,,,,,,,,,,,,,,,,,,,,,,,
decision_prac,42,220853,0.0-15.0-2.0,"""event"",""trial"",""time""
""fullscreenenter"",""1"",""2745""
","
","
","""event"",""trial"",""time""
""fullscreenenter"",""1"",""2745""
","
",,305.2000003,run_exp/static/images/task_images/land.jpg,65,,,,,,,,,,,,1,,,,,,,,,,,,
quiz_instruc,43,231911,0.0-16.0-0.0,"""event"",""trial"",""time""
""fullscreenenter"",""1"",""2745""
","
","
","""event"",""trial"",""time""
""fullscreenenter"",""1"",""2745""
","
",,11056.5,run_exp/static/audio/clip_10_quiz.m4a,,,,,,,0,,,,,,,,,,,,,,,,,,
instruc_repeat,44,274670,0.0-16.0-1.0,"""event"",""trial"",""time""
""fullscreenenter"",""1"",""2745""
","
","
","""event"",""trial"",""time""
""fullscreenenter"",""1"",""2745""
","
",,null,"<p> Are you ready to play a practice game? </p> <p>In this practice game, you'll be digging up barrels of gems. But, in the real game, you'll be digging up the gems themselves. </p>",null,"<p>In this game, your goal is to collect as many gems as you can. That’s how you will win bonus money. </p> <p>The entire game will last 20 minutes no matter how many gems you collect or how many planets you visit. </p><p>To stay on a planet and dig again, press the letter A on your keyboard. To leave for a new planet, press the letter L.</p><p>The more you dig on a planet, the fewer gems you’ll get with each dig which is why you might consider leaving for a new planet. </p><p>When you arrive at a new planet, you’ll be greeted by an alien. What the alien looks like does not tell you anything about how much treasure is on the planet. </p>",,,,,,,,,,,,,,,,,,,,,,,
instruc_repeat_continue,45,275425,0.0-16.0-2.0,"""event"",""trial"",""time""
""fullscreenenter"",""1"",""2745""
","
","
","""event"",""trial"",""time""
""fullscreenenter"",""1"",""2745""
","
",,754.7999997,"<p> Are you ready to play a practice game? </p> <p>In this practice game, you'll be digging up barrels of gems. But, in the real game, you'll be digging up the gems themselves. </p>",,,,,,,0,,,,,,,,,,,,,,,,,,
quiz_q_1_ask,46,278038,0.0-16.0-3.0,"""event"",""trial"",""time""
""fullscreenenter"",""1"",""2745""
","
","
","""event"",""trial"",""time""
""fullscreenenter"",""1"",""2745""
","
",,2611.3,run_exp/static/audio/clip_11_q1_ask.m4a,,,,,,,2,,,,,,,,,,,,,,,,,,
quiz_q_1_fb_correct,47,281891,0.0-17.0-0.0,"""event"",""trial"",""time""
""fullscreenenter"",""1"",""2745""
","
","
","""event"",""trial"",""time""
""fullscreenenter"",""1"",""2745""
","
",,null,run_exp/static/audio/clip_12_q1_correct.m4a,null,<p>That’s correct. You win extra money by collecting more gems.</p>,,,,,,,,,,,,,,,,,,,,,,,
quiz_q_2_ask,48,284001,0.0-17.0-1.0,"""event"",""trial"",""time""
""fullscreenenter"",""1"",""2745""
","
","
","""event"",""trial"",""time""
""fullscreenenter"",""1"",""2745""
","
",,2109.2,run_exp/static/audio/clip_14_q2_ask.m4a,,,,,,,1,,,,,,,,,,,,,,,,,,
quiz_q_2_fb_correct,49,287998,0.0-18.0-0.0,"""event"",""trial"",""time""
""fullscreenenter"",""1"",""2745""
","
","
","""event"",""trial"",""time""
""fullscreenenter"",""1"",""2745""
","
",,null,run_exp/static/audio/clip_15_q2_correct.m4a,null,<p>That’s correct. The experiment is 20 minutes no matter what.</p>,,,,,,,,,,,,,,,,,,,,,,,
quiz_q_3_ask,50,291955,0.0-18.0-1.0,"""event"",""trial"",""time""
""fullscreenenter"",""1"",""2745""
","
","
","""event"",""trial"",""time""
""fullscreenenter"",""1"",""2745""
","
",,3956.6,run_exp/static/audio/clip_17_q3_ask.m4a,,,,,,,1,,,,,,,,,,,,,,,,,,
quiz_q_3_fb_correct,51,295916,0.0-19.0-0.0,"""event"",""trial"",""time""
""fullscreenenter"",""1"",""2745""
","
","
","""event"",""trial"",""time""
""fullscreenenter"",""1"",""2745""
","
",,null,run_exp/static/audio/clip_18_q3_correct.m4a,null,<p> That’s correct. You press the letter L to travel to a new planet.</p>,,,,,,,,,,,,,,,,,,,,,,,
quiz_q_4_ask,52,300453,0.0-19.0-1.0,"""event"",""trial"",""time""
""fullscreenenter"",""1"",""2745""
","
","
","""event"",""trial"",""time""
""fullscreenenter"",""1"",""2745""
","
",,4536.4,run_exp/static/audio/clip_20_q4_ask.m4a,,,,,,,0,,,,,,,,,,,,,,,,,,
quiz_q_4_fb_correct,53,305761,0.0-20.0-0.0,"""event"",""trial"",""time""
""fullscreenenter"",""1"",""2745""
","
","
","""event"",""trial"",""time""
""fullscreenenter"",""1"",""2745""
","
",,null,run_exp/static/audio/clip_21_q4_correct.m4a,null,<p> That’s correct. The more you dig on a planet the fewer gems you’ll get with each dig. </p>,,,,,,,,,,,,,,,,,,,,,,,
quiz_q_5_ask,54,308439,0.0-20.0-1.0,"""event"",""trial"",""time""
""fullscreenenter"",""1"",""2745""
","
","
","""event"",""trial"",""time""
""fullscreenenter"",""1"",""2745""
","
",,2677.3,run_exp/static/audio/clip_23_q5_ask.m4a,,,,,,,1,,,,,,,,,,,,,,,,,,
quiz_q_5_fb_correct,55,313424,0.0-21.0-0.0,"""event"",""trial"",""time""
""fullscreenenter"",""1"",""2745""
","
","
","""event"",""trial"",""time""
""fullscreenenter"",""1"",""2745""
","
",,null,run_exp/static/audio/clip_24_q5_correct.m4a,null,<p> That’s correct. The alien tells you nothing about how much treasure is on the planet.</p>,,,,,,,,,,,,,,,,,,,,,,,
quiz_correct,56,316884,0.0-22.0-0.0,"""event"",""trial"",""time""
""fullscreenenter"",""1"",""2745""
","
","
","""event"",""trial"",""time""
""fullscreenenter"",""1"",""2745""
","
",,null,run_exp/static/audio/clip_26_correct_quiz.m4a,null,,,,,,,,,,,,,,,,,,,,,,,,
quiz_correct_continue,57,317739,0.0-22.0-1.0,"""event"",""trial"",""time""
""fullscreenenter"",""1"",""2745""
","
","
","""event"",""trial"",""time""
""fullscreenenter"",""1"",""2745""
","
",,855.0999999,<p>Good job! You're now ready to move on to the real game!</p>,,,,,,,0,,,,,,,,,,,,,,,,,,
audio-keyboard-response,58,327867,0.0-22.0-2.0,"""event"",""trial"",""time""
""fullscreenenter"",""1"",""2745""
","
","
","""event"",""trial"",""time""
""fullscreenenter"",""1"",""2745""
","
",,null,run_exp/static/audio/clip_28_real_game.m4a,null,,,,,,,,,,,,,,,,,,,,,,,,
instruc_begin_exp_contine,59,329300,0.0-22.0-3.0,"""event"",""trial"",""time""
""fullscreenenter"",""1"",""2745""
","
","
","""event"",""trial"",""time""
""fullscreenenter"",""1"",""2745""
","
",,1431.7,"<p>Now that you know how  to dig for space treasure and travel to new planets,you can start exploring! </p><p>Do you want to go over the instructions again or get started with the real game?</p>",,,,,,,1,,,,,,1,,,,,,,,,,,,
alien_welcome,60,334311,0.0-23.0-0.0,"""event"",""trial"",""time""
""fullscreenenter"",""1"",""2745""
","
","
","""event"",""trial"",""time""
""fullscreenenter"",""1"",""2745""
","
",,null,run_exp/static/images/task_images/aliens/old_aliens/planet/alien_planet-70.jpg,null,,,,,,,,,,,,,70,"70,3,57,79,55,24,64,76,60,6,78,37,16,77,14,75,67,43,65,4,31,17,28,51,36,71,73,32,19,47",,,,,,,,,,
land,61,334824,0.0-23.0-1.0,"""event"",""trial"",""time""
""fullscreenenter"",""1"",""2745""
","
","
","""event"",""trial"",""time""
""fullscreenenter"",""1"",""2745""
","
",,null,run_exp/static/images/task_images/land.jpg,null,,,,,,,98,,,1,,,,,,,,,,,,,,
dig,62,336832,0.0-23.0-2.0,"""event"",""trial"",""time""
""fullscreenenter"",""1"",""2745""
","
","
","""event"",""trial"",""time""
""fullscreenenter"",""1"",""2745""
","
",,,,,,,,,,,,"[{""stimulus"":""run_exp/static/images/task_images/dig.jpg"",""time"":0.20000028610229492},{""stimulus"":""run_exp/static/images/task_images/land.jpg"",""time"":679.7000002861023},{""stimulus"":""run_exp/static/images/task_images/dig.jpg"",""time"":1341.0999999046326}]",[],1,,,,,,,,,,,,,,
harvest,63,337839,0.0-23.0-3.0,"""event"",""trial"",""time""
""fullscreenenter"",""1"",""2745""
","
","
","""event"",""trial"",""time""
""fullscreenenter"",""1"",""2745""
","
",,null,run_exp/static/images/task_images/gems/98.jpg,null,,,,,,,14,,,1,,,,,98,0.140460982,0.142857143,,,,,,,
decision,64,339095,0.0-23.0-4.0,"""event"",""trial"",""time""
""fullscreenenter"",""1"",""2745""
","
","
","""event"",""trial"",""time""
""fullscreenenter"",""1"",""2745""
","
",,1255.3,run_exp/static/images/task_images/land.jpg,65,,,,,,,14,,,1,,,,,,,,9795,1,0,FALSE,,,
dig,65,340847,0.0-24.0-0.0,"""event"",""trial"",""time""
""fullscreenenter"",""1"",""2745""
","
","
","""event"",""trial"",""time""
""fullscreenenter"",""1"",""2745""
","
",,,,,,,,,,,,"[{""stimulus"":""run_exp/static/images/task_images/dig.jpg"",""time"":0},{""stimulus"":""run_exp/static/images/task_images/land.jpg"",""time"":587.4000000953674},{""stimulus"":""run_exp/static/images/task_images/dig.jpg"",""time"":1174}]",[],1,,,,,,,,,,,,,,
harvest,66,341855,0.0-24.0-1.0,"""event"",""trial"",""time""
""fullscreenenter"",""1"",""2745""
","
","
","""event"",""trial"",""time""
""fullscreenenter"",""1"",""2745""
","
",,null,run_exp/static/images/task_images/gems/14.jpg,null,,,,,,,4,,,1,,,,,14,0.254402129,0.285714286,,,,,,,
decision,67,342558,0.0-24.0-2.0,"""event"",""trial"",""time""
""fullscreenenter"",""1"",""2745""
","
","
","""event"",""trial"",""time""
""fullscreenenter"",""1"",""2745""
","
",,702.5999999,run_exp/static/images/task_images/land.jpg,65,,,,,,,4,,,1,,,,,,,,13258,1,1,FALSE,,,
dig,68,344862,0.0-25.0-0.0,"""event"",""trial"",""time""
""fullscreenenter"",""1"",""2745""
","
","
","""event"",""trial"",""time""
""fullscreenenter"",""1"",""2745""
","
",,,,,,,,,,,,"[{""stimulus"":""run_exp/static/images/task_images/dig.jpg"",""time"":0.19999980926513672},{""stimulus"":""run_exp/static/images/task_images/land.jpg"",""time"":772.0999999046326},{""stimulus"":""run_exp/static/images/task_images/dig.jpg"",""time"":1533.5999999046326}]",[],1,,,,,,,,,,,,,,
harvest,69,345871,0.0-25.0-1.0,"""event"",""trial"",""time""
""fullscreenenter"",""1"",""2745""
","
","
","""event"",""trial"",""time""
""fullscreenenter"",""1"",""2745""
","
",,null,run_exp/static/images/task_images/gems/4.jpg,null,,,,,,,1,,,1,,,,,4,0.243082398,0.25,,,,,,,
decision,70,347086,0.0-25.0-2.0,"""event"",""trial"",""time""
""fullscreenenter"",""1"",""2745""
","
","
","""event"",""trial"",""time""
""fullscreenenter"",""1"",""2745""
","
",,1214.5,run_exp/static/images/task_images/land.jpg,76,,,,,,,1,,,1,,,,,,,,17786,1,2,TRUE,,,
travel,71,355875,0.0-26.0-0.0,"""event"",""trial"",""time""
""fullscreenenter"",""1"",""2745""
","
","
","""event"",""trial"",""time""
""fullscreenenter"",""1"",""2745""
","
",,,,,,,,,,,,"[{""stimulus"":""run_exp/static/images/task_images/rocket-01.jpg"",""time"":0.09999990463256836},{""stimulus"":""run_exp/static/images/task_images/rocket-02.jpg"",""time"":983.6999998092651},{""stimulus"":""run_exp/static/images/task_images/rocket-03.jpg"",""time"":1961.2999997138977},{""stimulus"":""run_exp/static/images/task_images/rocket-04.jpg"",""time"":2933.2999997138977},{""stimulus"":""run_exp/static/images/task_images/rocket-05.jpg"",""time"":3912.699999809265},{""stimulus"":""run_exp/static/images/task_images/rocket-06.jpg"",""time"":4884.89999961853},{""stimulus"":""run_exp/static/images/task_images/rocket-07.jpg"",""time"":5861.099999904633},{""stimulus"":""run_exp/static/images/task_images/rocket-08.jpg"",""time"":6836.699999809265},{""stimulus"":""run_exp/static/images/task_images/rocket-09.jpg"",""time"":7816.89999961853}]",[],1,,,,,,,,,,,,,,
alien_welcome,72,360886,0.0-26.0-1.0,"""event"",""trial"",""time""
""fullscreenenter"",""1"",""2745""
","
","
","""event"",""trial"",""time""
""fullscreenenter"",""1"",""2745""
","
",,null,run_exp/static/images/task_images/aliens/old_aliens/planet/alien_planet-3.jpg,null,,,,,,,,,,,,,3,"70,3,57,79,55,24,64,76,60,6,78,37,16,77,14,75,67,43,65,4,31,17,28,51,36,71,73,32,19,47",,,,,,,,,,
land,73,361389,0.0-26.0-2.0,"""event"",""trial"",""time""
""fullscreenenter"",""1"",""2745""
","
","
","""event"",""trial"",""time""
""fullscreenenter"",""1"",""2745""
","
",,null,run_exp/static/images/task_images/land.jpg,null,,,,,,,99,,,2,,,,,,,,,,,,,,
dig,74,363399,0.0-26.0-3.0,"""event"",""trial"",""time""
""fullscreenenter"",""1"",""2745""
","
","
","""event"",""trial"",""time""
""fullscreenenter"",""1"",""2745""
","
",,,,,,,,,,,,"[{""stimulus"":""run_exp/static/images/task_images/dig.jpg"",""time"":0.09999990463256836},{""stimulus"":""run_exp/static/images/task_images/land.jpg"",""time"":670.2999997138977},{""stimulus"":""run_exp/static/images/task_images/dig.jpg"",""time"":1336.0999999046326}]",[],2,,,,,,,,,,,,,,
harvest,75,364405,0.0-26.0-4.0,"""event"",""trial"",""time""
""fullscreenenter"",""1"",""2745""
","
","
","""event"",""trial"",""time""
""fullscreenenter"",""1"",""2745""
","
",,null,run_exp/static/images/task_images/gems/99.jpg,null,,,,,,,19,,,2,,,,,99,0.191207795,0.191919192,,,,,,,
decision,76,365327,0.0-26.0-5.0,"""event"",""trial"",""time""
""fullscreenenter"",""1"",""2745""
","
","
","""event"",""trial"",""time""
""fullscreenenter"",""1"",""2745""
","
",,921.6999998,run_exp/static/images/task_images/land.jpg,65,,,,,,,19,,,2,,,,,,,,36027,1,0,FALSE,,,
dig,77,367411,0.0-27.0-0.0,"""event"",""trial"",""time""
""fullscreenenter"",""1"",""2745""
","
","
","""event"",""trial"",""time""
""fullscreenenter"",""1"",""2745""
","
",,,,,,,,,,,,"[{""stimulus"":""run_exp/static/images/task_images/dig.jpg"",""time"":0.19999980926513672},{""stimulus"":""run_exp/static/images/task_images/land.jpg"",""time"":694},{""stimulus"":""run_exp/static/images/task_images/dig.jpg"",""time"":1386.8999996185303}]",[],2,,,,,,,,,,,,,,
harvest,78,368422,0.0-27.0-1.0,"""event"",""trial"",""time""
""fullscreenenter"",""1"",""2745""
","
","
","""event"",""trial"",""time""
""fullscreenenter"",""1"",""2745""
","
",,null,run_exp/static/images/task_images/gems/19.jpg,null,,,,,,,4,,,2,,,,,19,0.202381225,0.210526316,,,,,,,
decision,79,368878,0.0-27.0-2.0,"""event"",""trial"",""time""
""fullscreenenter"",""1"",""2745""
","
","
","""event"",""trial"",""time""
""fullscreenenter"",""1"",""2745""
","
",,454.9000001,run_exp/static/images/task_images/land.jpg,65,,,,,,,4,,,2,,,,,,,,39578,1,1,FALSE,,,
dig,80,371431,0.0-28.0-0.0,"""event"",""trial"",""time""
""fullscreenenter"",""1"",""2745""
","
","
","""event"",""trial"",""time""
""fullscreenenter"",""1"",""2745""
","
",,,,,,,,,,,,"[{""stimulus"":""run_exp/static/images/task_images/dig.jpg"",""time"":0},{""stimulus"":""run_exp/static/images/task_images/land.jpg"",""time"":856.1999998092651},{""stimulus"":""run_exp/static/images/task_images/dig.jpg"",""time"":1700.5999999046326}]",[],2,,,,,,,,,,,,,,
harvest,81,372438,0.0-28.0-1.0,"""event"",""trial"",""time""
""fullscreenenter"",""1"",""2745""
","
","
","""event"",""trial"",""time""
""fullscreenenter"",""1"",""2745""
","
",,null,run_exp/static/images/task_images/gems/4.jpg,null,,,,,,,1,,,2,,,,,4,0.234813142,0.25,,,,,,,
decision,82,373750,0.0-28.0-2.0,"""event"",""trial"",""time""
""fullscreenenter"",""1"",""2745""
","
","
","""event"",""trial"",""time""
""fullscreenenter"",""1"",""2745""
","
",,1311.3,run_exp/static/images/task_images/land.jpg,76,,,,,,,1,,,2,,,,,,,,44450,1,2,TRUE,,,
travel,83,382447,0.0-29.0-0.0,"""event"",""trial"",""time""
""fullscreenenter"",""1"",""2745""
","
","
","""event"",""trial"",""time""
""fullscreenenter"",""1"",""2745""
","
",,,,,,,,,,,,"[{""stimulus"":""run_exp/static/images/task_images/rocket-01.jpg"",""time"":0},{""stimulus"":""run_exp/static/images/task_images/rocket-02.jpg"",""time"":973.0999999046326},{""stimulus"":""run_exp/static/images/task_images/rocket-03.jpg"",""time"":1934.3999996185303},{""stimulus"":""run_exp/static/images/task_images/rocket-04.jpg"",""time"":2904.3999996185303},{""stimulus"":""run_exp/static/images/task_images/rocket-05.jpg"",""time"":3870.2999997138977},{""stimulus"":""run_exp/static/images/task_images/rocket-06.jpg"",""time"":4828.299999713898},{""stimulus"":""run_exp/static/images/task_images/rocket-07.jpg"",""time"":5797},{""stimulus"":""run_exp/static/images/task_images/rocket-08.jpg"",""time"":6760.699999809265},{""stimulus"":""run_exp/static/images/task_images/rocket-09.jpg"",""time"":7727.89999961853}]",[],2,,,,,,,,,,,,,,
alien_welcome,84,387455,0.0-29.0-1.0,"""event"",""trial"",""time""
""fullscreenenter"",""1"",""2745""
","
","
","""event"",""trial"",""time""
""fullscreenenter"",""1"",""2745""
","
",,null,run_exp/static/images/task_images/aliens/old_aliens/planet/alien_planet-57.jpg,null,,,,,,,,,,,,,57,"70,3,57,79,55,24,64,76,60,6,78,37,16,77,14,75,67,43,65,4,31,17,28,51,36,71,73,32,19,47",,,,,,,,,,
land,85,387958,0.0-29.0-2.0,"""event"",""trial"",""time""
""fullscreenenter"",""1"",""2745""
","
","
","""event"",""trial"",""time""
""fullscreenenter"",""1"",""2745""
","
",,null,run_exp/static/images/task_images/land.jpg,null,,,,,,,98,,,3,,,,,,,,,,,,,,
dig,86,389965,0.0-29.0-3.0,"""event"",""trial"",""time""
""fullscreenenter"",""1"",""2745""
","
","
","""event"",""trial"",""time""
""fullscreenenter"",""1"",""2745""
","
",,,,,,,,,,,,"[{""stimulus"":""run_exp/static/images/task_images/dig.jpg"",""time"":0.09999990463256836},{""stimulus"":""run_exp/static/images/task_images/land.jpg"",""time"":673.3000001907349},{""stimulus"":""run_exp/static/images/task_images/dig.jpg"",""time"":1344.5999999046326}]",[],3,,,,,,,,,,,,,,
harvest,87,390975,0.0-29.0-4.0,"""event"",""trial"",""time""
""fullscreenenter"",""1"",""2745""
","
","
","""event"",""trial"",""time""
""fullscreenenter"",""1"",""2745""
","
",,null,run_exp/static/images/task_images/gems/98.jpg,null,,,,,,,53,,,3,,,,,98,0.544972243,0.540816327,,,,,,,
decision,88,391479,0.0-29.0-5.0,"""event"",""trial"",""time""
""fullscreenenter"",""1"",""2745""
","
","
","""event"",""trial"",""time""
""fullscreenenter"",""1"",""2745""
","
",,503.9000001,run_exp/static/images/task_images/land.jpg,65,,,,,,,53,,,3,,,,,,,,62179,1,0,FALSE,,,
dig,89,393984,0.0-30.0-0.0,"""event"",""trial"",""time""
""fullscreenenter"",""1"",""2745""
","
","
","""event"",""trial"",""time""
""fullscreenenter"",""1"",""2745""
","
",,,,,,,,,,,,"[{""stimulus"":""run_exp/static/images/task_images/dig.jpg"",""time"":0},{""stimulus"":""run_exp/static/images/task_images/land.jpg"",""time"":834.6999998092651},{""stimulus"":""run_exp/static/images/task_images/dig.jpg"",""time"":1666.7999997138977}]",[],3,,,,,,,,,,,,,,
harvest,90,394988,0.0-30.0-1.0,"""event"",""trial"",""time""
""fullscreenenter"",""1"",""2745""
","
","
","""event"",""trial"",""time""
""fullscreenenter"",""1"",""2745""
","
",,null,run_exp/static/images/task_images/gems/53.jpg,null,,,,,,,27,,,3,,,,,53,0.510984414,0.509433962,,,,,,,
decision,91,395094,0.0-30.0-2.0,"""event"",""trial"",""time""
""fullscreenenter"",""1"",""2745""
","
","
","""event"",""trial"",""time""
""fullscreenenter"",""1"",""2745""
","
",,105.2000003,run_exp/static/images/task_images/land.jpg,65,,,,,,,27,,,3,,,,,,,,65794,1,1,FALSE,,,
dig,92,397997,0.0-31.0-0.0,"""event"",""trial"",""time""
""fullscreenenter"",""1"",""2745""
","
","
","""event"",""trial"",""time""
""fullscreenenter"",""1"",""2745""
","
",,,,,,,,,,,,"[{""stimulus"":""run_exp/static/images/task_images/dig.jpg"",""time"":0.09999990463256836},{""stimulus"":""run_exp/static/images/task_images/land.jpg"",""time"":968.5},{""stimulus"":""run_exp/static/images/task_images/dig.jpg"",""time"":1936.5}]",[],3,,,,,,,,,,,,,,
harvest,93,399005,0.0-31.0-1.0,"""event"",""trial"",""time""
""fullscreenenter"",""1"",""2745""
","
","
","""event"",""trial"",""time""
""fullscreenenter"",""1"",""2745""
","
",,null,run_exp/static/images/task_images/gems/27.jpg,null,,,,,,,15,,,3,,,,,27,0.552183345,0.555555556,,,,,,,
decision,94,399070,0.0-31.0-2.0,"""event"",""trial"",""time""
""fullscreenenter"",""1"",""2745""
","
","
","""event"",""trial"",""time""
""fullscreenenter"",""1"",""2745""
","
",,64,run_exp/static/images/task_images/land.jpg,65,,,,,,,15,,,3,,,,,,,,69770,1,2,FALSE,,,
dig,95,402012,0.0-32.0-0.0,"""event"",""trial"",""time""
""fullscreenenter"",""1"",""2745""
","
","
","""event"",""trial"",""time""
""fullscreenenter"",""1"",""2745""
","
",,,,,,,,,,,,"[{""stimulus"":""run_exp/static/images/task_images/dig.jpg"",""time"":0.10000038146972656},{""stimulus"":""run_exp/static/images/task_images/land.jpg"",""time"":983.6000003814697},{""stimulus"":""run_exp/static/images/task_images/dig.jpg"",""time"":1966.1000003814697}]",[],3,,,,,,,,,,,,,,
harvest,96,403020,0.0-32.0-1.0,"""event"",""trial"",""time""
""fullscreenenter"",""1"",""2745""
","
","
","""event"",""trial"",""time""
""fullscreenenter"",""1"",""2745""
","
",,null,run_exp/static/images/task_images/gems/15.jpg,null,,,,,,,8,,,3,,,,,15,0.509946404,0.533333333,,,,,,,
decision,97,403462,0.0-32.0-2.0,"""event"",""trial"",""time""
""fullscreenenter"",""1"",""2745""
","
","
","""event"",""trial"",""time""
""fullscreenenter"",""1"",""2745""
","
",,440.8000002,run_exp/static/images/task_images/land.jpg,65,,,,,,,8,,,3,,,,,,,,74162,1,3,FALSE,,,
dig,98,406031,0.0-33.0-0.0,"""event"",""trial"",""time""
""fullscreenenter"",""1"",""2745""
","
","
","""event"",""trial"",""time""
""fullscreenenter"",""1"",""2745""
","
",,,,,,,,,,,,"[{""stimulus"":""run_exp/static/images/task_images/dig.jpg"",""time"":0},{""stimulus"":""run_exp/static/images/task_images/land.jpg"",""time"":862.7000002861023},{""stimulus"":""run_exp/static/images/task_images/dig.jpg"",""time"":1709.1000003814697}]",[],3,,,,,,,,,,,,,,
harvest,99,407037,0.0-33.0-1.0,"""event"",""trial"",""time""
""fullscreenenter"",""1"",""2745""
","
","
","""event"",""trial"",""time""
""fullscreenenter"",""1"",""2745""
","
",,null,run_exp/static/images/task_images/gems/8.jpg,null,,,,,,,4,,,3,,,,,8,0.455490069,0.5,,,,,,,
decision,100,407966,0.0-33.0-2.0,"""event"",""trial"",""time""
""fullscreenenter"",""1"",""2745""
","
","
","""event"",""trial"",""time""
""fullscreenenter"",""1"",""2745""
","
",,928.5999999,run_exp/static/images/task_images/land.jpg,76,,,,,,,4,,,3,,,,,,,,78666,1,4,TRUE,,,
travel,101,417037,0.0-34.0-0.0,"""event"",""trial"",""time""
""fullscreenenter"",""1"",""2745""
","
","
","""event"",""trial"",""time""
""fullscreenenter"",""1"",""2745""
","
",,,,,,,,,,,,"[{""stimulus"":""run_exp/static/images/task_images/rocket-01.jpg"",""time"":0},{""stimulus"":""run_exp/static/images/task_images/rocket-02.jpg"",""time"":1012.9000000953674},{""stimulus"":""run_exp/static/images/task_images/rocket-03.jpg"",""time"":2015.8000001907349},{""stimulus"":""run_exp/static/images/task_images/rocket-04.jpg"",""time"":3030.5999999046326},{""stimulus"":""run_exp/static/images/task_images/rocket-05.jpg"",""time"":4036.300000190735},{""stimulus"":""run_exp/static/images/task_images/rocket-06.jpg"",""time"":5037.199999809265},{""stimulus"":""run_exp/static/images/task_images/rocket-07.jpg"",""time"":6045.699999809265},{""stimulus"":""run_exp/static/images/task_images/rocket-08.jpg"",""time"":7053.400000095367},{""stimulus"":""run_exp/static/images/task_images/rocket-09.jpg"",""time"":8064.099999904633}]",[],3,,,,,,,,,,,,,,
alien_welcome,102,422044,0.0-34.0-1.0,"""event"",""trial"",""time""
""fullscreenenter"",""1"",""2745""
","
","
","""event"",""trial"",""time""
""fullscreenenter"",""1"",""2745""
","
",,null,run_exp/static/images/task_images/aliens/old_aliens/planet/alien_planet-79.jpg,null,,,,,,,,,,,,,79,"70,3,57,79,55,24,64,76,60,6,78,37,16,77,14,75,67,43,65,4,31,17,28,51,36,71,73,32,19,47",,,,,,,,,,
land,103,422551,0.0-34.0-2.0,"""event"",""trial"",""time""
""fullscreenenter"",""1"",""2745""
","
","
","""event"",""trial"",""time""
""fullscreenenter"",""1"",""2745""
","
",,null,run_exp/static/images/task_images/land.jpg,null,,,,,,,100,,,4,,,,,,,,,,,,,,
dig,104,424556,0.0-34.0-3.0,"""event"",""trial"",""time""
""fullscreenenter"",""1"",""2745""
","
","
","""event"",""trial"",""time""
""fullscreenenter"",""1"",""2745""
","
",,,,,,,,,,,,"[{""stimulus"":""run_exp/static/images/task_images/dig.jpg"",""time"":0.09999990463256836},{""stimulus"":""run_exp/static/images/task_images/land.jpg"",""time"":671.3000001907349},{""stimulus"":""run_exp/static/images/task_images/dig.jpg"",""time"":1336}]",[],4,,,,,,,,,,,,,,
harvest,105,425566,0.0-34.0-4.0,"""event"",""trial"",""time""
""fullscreenenter"",""1"",""2745""
","
","
","""event"",""trial"",""time""
""fullscreenenter"",""1"",""2745""
","
",,null,run_exp/static/images/task_images/gems/100.jpg,null,,,,,,,44,,,4,,,,,100,0.436839954,0.44,,,,,,,
decision,106,425864,0.0-34.0-5.0,"""event"",""trial"",""time""
""fullscreenenter"",""1"",""2745""
","
","
","""event"",""trial"",""time""
""fullscreenenter"",""1"",""2745""
","
",,297.3000002,run_exp/static/images/task_images/land.jpg,65,,,,,,,44,,,4,,,,,,,,96564,1,0,FALSE,,,
dig,107,428575,0.0-35.0-0.0,"""event"",""trial"",""time""
""fullscreenenter"",""1"",""2745""
","
","
","""event"",""trial"",""time""
""fullscreenenter"",""1"",""2745""
","
",,,,,,,,,,,,"[{""stimulus"":""run_exp/static/images/task_images/dig.jpg"",""time"":0.09999990463256836},{""stimulus"":""run_exp/static/images/task_images/land.jpg"",""time"":908.5999999046326},{""stimulus"":""run_exp/static/images/task_images/dig.jpg"",""time"":1805.1999998092651}]",[],4,,,,,,,,,,,,,,
harvest,108,429584,0.0-35.0-1.0,"""event"",""trial"",""time""
""fullscreenenter"",""1"",""2745""
","
","
","""event"",""trial"",""time""
""fullscreenenter"",""1"",""2745""
","
",,null,run_exp/static/images/task_images/gems/44.jpg,null,,,,,,,20,,,4,,,,,44,0.463823022,0.454545455,,,,,,,
decision,109,429798,0.0-35.0-2.0,"""event"",""trial"",""time""
""fullscreenenter"",""1"",""2745""
","
","
","""event"",""trial"",""time""
""fullscreenenter"",""1"",""2745""
","
",,214.0999999,run_exp/static/images/task_images/land.jpg,65,,,,,,,20,,,4,,,,,,,,100499,1,1,FALSE,,,
dig,110,432589,0.0-36.0-0.0,"""event"",""trial"",""time""
""fullscreenenter"",""1"",""2745""
","
","
","""event"",""trial"",""time""
""fullscreenenter"",""1"",""2745""
","
",,,,,,,,,,,,"[{""stimulus"":""run_exp/static/images/task_images/dig.jpg"",""time"":0.10000038146972656},{""stimulus"":""run_exp/static/images/task_images/land.jpg"",""time"":935.9000000953674},{""stimulus"":""run_exp/static/images/task_images/dig.jpg"",""time"":1860.2000002861023}]",[],4,,,,,,,,,,,,,,
harvest,111,433600,0.0-36.0-1.0,"""event"",""trial"",""time""
""fullscreenenter"",""1"",""2745""
","
","
","""event"",""trial"",""time""
""fullscreenenter"",""1"",""2745""
","
",,null,run_exp/static/images/task_images/gems/20.jpg,null,,,,,,,9,,,4,,,,,20,0.43469359,0.45,,,,,,,
decision,112,433742,0.0-36.0-2.0,"""event"",""trial"",""time""
""fullscreenenter"",""1"",""2745""
","
","
","""event"",""trial"",""time""
""fullscreenenter"",""1"",""2745""
","
",,141.5,run_exp/static/images/task_images/land.jpg,65,,,,,,,9,,,4,,,,,,,,104442,1,2,FALSE,,,
dig,113,436606,0.0-37.0-0.0,"""event"",""trial"",""time""
""fullscreenenter"",""1"",""2745""
","
","
","""event"",""trial"",""time""
""fullscreenenter"",""1"",""2745""
","
",,,,,,,,,,,,"[{""stimulus"":""run_exp/static/images/task_images/dig.jpg"",""time"":0.09999990463256836},{""stimulus"":""run_exp/static/images/task_images/land.jpg"",""time"":959.7999997138977},{""stimulus"":""run_exp/static/images/task_images/dig.jpg"",""time"":1911.3999996185303}]",[],4,,,,,,,,,,,,,,
harvest,114,437616,0.0-37.0-1.0,"""event"",""trial"",""time""
""fullscreenenter"",""1"",""2745""
","
","
","""event"",""trial"",""time""
""fullscreenenter"",""1"",""2745""
","
",,null,run_exp/static/images/task_images/gems/9.jpg,null,,,,,,,4,,,4,,,,,9,0.442941351,0.444444444,,,,,,,
decision,115,438350,0.0-37.0-2.0,"""event"",""trial"",""time""
""fullscreenenter"",""1"",""2745""
","
","
","""event"",""trial"",""time""
""fullscreenenter"",""1"",""2745""
","
",,733.1000004,run_exp/static/images/task_images/land.jpg,76,,,,,,,4,,,4,,,,,,,,109050,1,3,TRUE,,,
travel,116,447620,0.0-38.0-0.0,"""event"",""trial"",""time""
""fullscreenenter"",""1"",""2745""
","
","
","""event"",""trial"",""time""
""fullscreenenter"",""1"",""2745""
","
",,,,,,,,,,,,"[{""stimulus"":""run_exp/static/images/task_images/rocket-01.jpg"",""time"":0},{""stimulus"":""run_exp/static/images/task_images/rocket-02.jpg"",""time"":1037},{""stimulus"":""run_exp/static/images/task_images/rocket-03.jpg"",""time"":2063.0999999046326},{""stimulus"":""run_exp/static/images/task_images/rocket-04.jpg"",""time"":3096.8999996185303},{""stimulus"":""run_exp/static/images/task_images/rocket-05.jpg"",""time"":4129.099999904633},{""stimulus"":""run_exp/static/images/task_images/rocket-06.jpg"",""time"":5148.099999904633},{""stimulus"":""run_exp/static/images/task_images/rocket-07.jpg"",""time"":6184.299999713898},{""stimulus"":""run_exp/static/images/task_images/rocket-08.jpg"",""time"":7206.299999713898},{""stimulus"":""run_exp/static/images/task_images/rocket-09.jpg"",""time"":8237.299999713898}]",[],4,,,,,,,,,,,,,,
alien_welcome,117,452631,0.0-38.0-1.0,"""event"",""trial"",""time""
""fullscreenenter"",""1"",""2745""
","
","
","""event"",""trial"",""time""
""fullscreenenter"",""1"",""2745""
","
",,null,run_exp/static/images/task_images/aliens/old_aliens/planet/alien_planet-55.jpg,null,,,,,,,,,,,,,55,"70,3,57,79,55,24,64,76,60,6,78,37,16,77,14,75,67,43,65,4,31,17,28,51,36,71,73,32,19,47",,,,,,,,,,
land,118,453135,0.0-38.0-2.0,"""event"",""trial"",""time""
""fullscreenenter"",""1"",""2745""
","
","
","""event"",""trial"",""time""
""fullscreenenter"",""1"",""2745""
","
",,null,run_exp/static/images/task_images/land.jpg,null,,,,,,,97,,,5,,,,,,,,,,,,,,
dig,119,455143,0.0-38.0-3.0,"""event"",""trial"",""time""
""fullscreenenter"",""1"",""2745""
","
","
","""event"",""trial"",""time""
""fullscreenenter"",""1"",""2745""
","
",,,,,,,,,,,,"[{""stimulus"":""run_exp/static/images/task_images/dig.jpg"",""time"":0.20000028610229492},{""stimulus"":""run_exp/static/images/task_images/land.jpg"",""time"":668},{""stimulus"":""run_exp/static/images/task_images/dig.jpg"",""time"":1339.9000000953674}]",[],5,,,,,,,,,,,,,,
harvest,120,456149,0.0-38.0-4.0,"""event"",""trial"",""time""
""fullscreenenter"",""1"",""2745""
","
","
","""event"",""trial"",""time""
""fullscreenenter"",""1"",""2745""
","
",,null,run_exp/static/images/task_images/gems/97.jpg,null,,,,,,,53,,,5,,,,,97,0.550957776,0.546391753,,,,,,,
decision,121,456294,0.0-38.0-5.0,"""event"",""trial"",""time""
""fullscreenenter"",""1"",""2745""
","
","
","""event"",""trial"",""time""
""fullscreenenter"",""1"",""2745""
","
",,144,run_exp/static/images/task_images/land.jpg,65,,,,,,,53,,,5,,,,,,,,126994,1,0,FALSE,,,
dig,122,459157,0.0-39.0-0.0,"""event"",""trial"",""time""
""fullscreenenter"",""1"",""2745""
","
","
","""event"",""trial"",""time""
""fullscreenenter"",""1"",""2745""
","
",,,,,,,,,,,,"[{""stimulus"":""run_exp/static/images/task_images/dig.jpg"",""time"":0},{""stimulus"":""run_exp/static/images/task_images/land.jpg"",""time"":957.3000001907349},{""stimulus"":""run_exp/static/images/task_images/dig.jpg"",""time"":1913.1000003814697}]",[],5,,,,,,,,,,,,,,
harvest,123,460164,0.0-39.0-1.0,"""event"",""trial"",""time""
""fullscreenenter"",""1"",""2745""
","
","
","""event"",""trial"",""time""
""fullscreenenter"",""1"",""2745""
","
",,null,run_exp/static/images/task_images/gems/53.jpg,null,,,,,,,27,,,5,,,,,53,0.509599407,0.509433962,,,,,,,
decision,124,460454,0.0-39.0-2.0,"""event"",""trial"",""time""
""fullscreenenter"",""1"",""2745""
","
","
","""event"",""trial"",""time""
""fullscreenenter"",""1"",""2745""
","
",,290.0999999,run_exp/static/images/task_images/land.jpg,65,,,,,,,27,,,5,,,,,,,,131154,1,1,FALSE,,,
dig,125,463172,0.0-40.0-0.0,"""event"",""trial"",""time""
""fullscreenenter"",""1"",""2745""
","
","
","""event"",""trial"",""time""
""fullscreenenter"",""1"",""2745""
","
",,,,,,,,,,,,"[{""stimulus"":""run_exp/static/images/task_images/dig.jpg"",""time"":0.09999990463256836},{""stimulus"":""run_exp/static/images/task_images/land.jpg"",""time"":911.7999997138977},{""stimulus"":""run_exp/static/images/task_images/dig.jpg"",""time"":1816.6999998092651}]",[],5,,,,,,,,,,,,,,
harvest,126,464180,0.0-40.0-1.0,"""event"",""trial"",""time""
""fullscreenenter"",""1"",""2745""
","
","
","""event"",""trial"",""time""
""fullscreenenter"",""1"",""2745""
","
",,null,run_exp/static/images/task_images/gems/27.jpg,null,,,,,,,13,,,5,,,,,27,0.47623189,0.481481481,,,,,,,
decision,127,464184,0.0-40.0-2.0,"""event"",""trial"",""time""
""fullscreenenter"",""1"",""2745""
","
","
","""event"",""trial"",""time""
""fullscreenenter"",""1"",""2745""
","
",,3.799999714,run_exp/static/images/task_images/land.jpg,65,,,,,,,13,,,5,,,,,,,,134884,1,2,FALSE,,,
dig,128,467192,0.0-41.0-0.0,"""event"",""trial"",""time""
""fullscreenenter"",""1"",""2745""
","
","
","""event"",""trial"",""time""
""fullscreenenter"",""1"",""2745""
","
",,,,,,,,,,,,"[{""stimulus"":""run_exp/static/images/task_images/dig.jpg"",""time"":0.19999980926513672},{""stimulus"":""run_exp/static/images/task_images/land.jpg"",""time"":1005},{""stimulus"":""run_exp/static/images/task_images/dig.jpg"",""time"":2003.4000000953674}]",[],5,,,,,,,,,,,,,,
harvest,129,468197,0.0-41.0-1.0,"""event"",""trial"",""time""
""fullscreenenter"",""1"",""2745""
","
","
","""event"",""trial"",""time""
""fullscreenenter"",""1"",""2745""
","
",,null,run_exp/static/images/task_images/gems/13.jpg,null,,,,,,,6,,,5,,,,,13,0.446835047,0.461538462,,,,,,,
decision,130,468374,0.0-41.0-2.0,"""event"",""trial"",""time""
""fullscreenenter"",""1"",""2745""
","
","
","""event"",""trial"",""time""
""fullscreenenter"",""1"",""2745""
","
",,176.1999998,run_exp/static/images/task_images/land.jpg,65,,,,,,,6,,,5,,,,,,,,139074,1,3,FALSE,,,
dig,131,471204,0.0-42.0-0.0,"""event"",""trial"",""time""
""fullscreenenter"",""1"",""2745""
","
","
","""event"",""trial"",""time""
""fullscreenenter"",""1"",""2745""
","
",,,,,,,,,,,,"[{""stimulus"":""run_exp/static/images/task_images/dig.jpg"",""time"":0.10000038146972656},{""stimulus"":""run_exp/static/images/task_images/land.jpg"",""time"":948.1000003814697},{""stimulus"":""run_exp/static/images/task_images/dig.jpg"",""time"":1888.4000000953674}]",[],5,,,,,,,,,,,,,,
harvest,132,472212,0.0-42.0-1.0,"""event"",""trial"",""time""
""fullscreenenter"",""1"",""2745""
","
","
","""event"",""trial"",""time""
""fullscreenenter"",""1"",""2745""
","
",,null,run_exp/static/images/task_images/gems/6.jpg,null,,,,,,,3,,,5,,,,,6,0.501445185,0.5,,,,,,,
decision,133,472550,0.0-42.0-2.0,"""event"",""trial"",""time""
""fullscreenenter"",""1"",""2745""
","
","
","""event"",""trial"",""time""
""fullscreenenter"",""1"",""2745""
","
",,338.0999999,run_exp/static/images/task_images/land.jpg,76,,,,,,,3,,,5,,,,,,,,143250,1,4,TRUE,,,
travel,134,482212,0.0-43.0-0.0,"""event"",""trial"",""time""
""fullscreenenter"",""1"",""2745""
","
","
","""event"",""trial"",""time""
""fullscreenenter"",""1"",""2745""
","
",,,,,,,,,,,,"[{""stimulus"":""run_exp/static/images/task_images/rocket-01.jpg"",""time"":0.19999980926513672},{""stimulus"":""run_exp/static/images/task_images/rocket-02.jpg"",""time"":1078.9000000953674},{""stimulus"":""run_exp/static/images/task_images/rocket-03.jpg"",""time"":2152.199999809265},{""stimulus"":""run_exp/static/images/task_images/rocket-04.jpg"",""time"":3224.9000000953674},{""stimulus"":""run_exp/static/images/task_images/rocket-05.jpg"",""time"":4304.099999904633},{""stimulus"":""run_exp/static/images/task_images/rocket-06.jpg"",""time"":5372.900000095367},{""stimulus"":""run_exp/static/images/task_images/rocket-07.jpg"",""time"":6445.599999904633},{""stimulus"":""run_exp/static/images/task_images/rocket-08.jpg"",""time"":7519},{""stimulus"":""run_exp/static/images/task_images/rocket-09.jpg"",""time"":8590.799999713898}]",[],5,,,,,,,,,,,,,,
alien_welcome,135,487225,0.0-43.0-1.0,"""event"",""trial"",""time""
""fullscreenenter"",""1"",""2745""
","
","
","""event"",""trial"",""time""
""fullscreenenter"",""1"",""2745""
","
",,null,run_exp/static/images/task_images/aliens/old_aliens/planet/alien_planet-24.jpg,null,,,,,,,,,,,,,24,"70,3,57,79,55,24,64,76,60,6,78,37,16,77,14,75,67,43,65,4,31,17,28,51,36,71,73,32,19,47",,,,,,,,,,
land,136,487736,0.0-43.0-2.0,"""event"",""trial"",""time""
""fullscreenenter"",""1"",""2745""
","
","
","""event"",""trial"",""time""
""fullscreenenter"",""1"",""2745""
","
",,null,run_exp/static/images/task_images/land.jpg,null,,,,,,,108,,,6,,,,,,,,,,,,,,
dig,137,489743,0.0-43.0-3.0,"""event"",""trial"",""time""
""fullscreenenter"",""1"",""2745""
","
","
","""event"",""trial"",""time""
""fullscreenenter"",""1"",""2745""
","
",,,,,,,,,,,,"[{""stimulus"":""run_exp/static/images/task_images/dig.jpg"",""time"":0.09999990463256836},{""stimulus"":""run_exp/static/images/task_images/land.jpg"",""time"":675.7000002861023},{""stimulus"":""run_exp/static/images/task_images/dig.jpg"",""time"":1338.9000000953674}]",[],6,,,,,,,,,,,,,,
harvest,138,490751,0.0-43.0-4.0,"""event"",""trial"",""time""
""fullscreenenter"",""1"",""2745""
","
","
","""event"",""trial"",""time""
""fullscreenenter"",""1"",""2745""
","
",,null,run_exp/static/images/task_images/gems/108.jpg,null,,,,,,,90,,,6,,,,,108,0.831920925,0.833333333,,,,,,,
decision,139,490928,0.0-43.0-5.0,"""event"",""trial"",""time""
""fullscreenenter"",""1"",""2745""
","
","
","""event"",""trial"",""time""
""fullscreenenter"",""1"",""2745""
","
",,175.7000003,run_exp/static/images/task_images/land.jpg,65,,,,,,,90,,,6,,,,,,,,161628,1,0,FALSE,,,
dig,140,493756,0.0-44.0-0.0,"""event"",""trial"",""time""
""fullscreenenter"",""1"",""2745""
","
","
","""event"",""trial"",""time""
""fullscreenenter"",""1"",""2745""
","
",,,,,,,,,,,,"[{""stimulus"":""run_exp/static/images/task_images/dig.jpg"",""time"":0},{""stimulus"":""run_exp/static/images/task_images/land.jpg"",""time"":947.3999996185303},{""stimulus"":""run_exp/static/images/task_images/dig.jpg"",""time"":1887.5}]",[],6,,,,,,,,,,,,,,
harvest,141,494767,0.0-44.0-1.0,"""event"",""trial"",""time""
""fullscreenenter"",""1"",""2745""
","
","
","""event"",""trial"",""time""
""fullscreenenter"",""1"",""2745""
","
",,null,run_exp/static/images/task_images/gems/90.jpg,null,,,,,,,76,,,6,,,,,90,0.84790438,0.844444444,,,,,,,
decision,142,494840,0.0-44.0-2.0,"""event"",""trial"",""time""
""fullscreenenter"",""1"",""2745""
","
","
","""event"",""trial"",""time""
""fullscreenenter"",""1"",""2745""
","
",,72.0999999,run_exp/static/images/task_images/land.jpg,65,,,,,,,76,,,6,,,,,,,,165540,1,1,FALSE,,,
dig,143,497773,0.0-45.0-0.0,"""event"",""trial"",""time""
""fullscreenenter"",""1"",""2745""
","
","
","""event"",""trial"",""time""
""fullscreenenter"",""1"",""2745""
","
",,,,,,,,,,,,"[{""stimulus"":""run_exp/static/images/task_images/dig.jpg"",""time"":0.09999990463256836},{""stimulus"":""run_exp/static/images/task_images/land.jpg"",""time"":983.2000002861023},{""stimulus"":""run_exp/static/images/task_images/dig.jpg"",""time"":1955.5}]",[],6,,,,,,,,,,,,,,
harvest,144,498784,0.0-45.0-1.0,"""event"",""trial"",""time""
""fullscreenenter"",""1"",""2745""
","
","
","""event"",""trial"",""time""
""fullscreenenter"",""1"",""2745""
","
",,null,run_exp/static/images/task_images/gems/76.jpg,null,,,,,,,62,,,6,,,,,76,0.816901144,0.815789474,,,,,,,
decision,145,498816,0.0-45.0-2.0,"""event"",""trial"",""time""
""fullscreenenter"",""1"",""2745""
","
","
","""event"",""trial"",""time""
""fullscreenenter"",""1"",""2745""
","
",,30.80000019,run_exp/static/images/task_images/land.jpg,65,,,,,,,62,,,6,,,,,,,,169516,1,2,FALSE,,,
dig,146,501788,0.0-46.0-0.0,"""event"",""trial"",""time""
""fullscreenenter"",""1"",""2745""
","
","
","""event"",""trial"",""time""
""fullscreenenter"",""1"",""2745""
","
",,,,,,,,,,,,"[{""stimulus"":""run_exp/static/images/task_images/dig.jpg"",""time"":0},{""stimulus"":""run_exp/static/images/task_images/land.jpg"",""time"":995.3999996185303},{""stimulus"":""run_exp/static/images/task_images/dig.jpg"",""time"":1979.5999999046326}]",[],6,,,,,,,,,,,,,,
harvest,147,502797,0.0-46.0-1.0,"""event"",""trial"",""time""
""fullscreenenter"",""1"",""2745""
","
","
","""event"",""trial"",""time""
""fullscreenenter"",""1"",""2745""
","
",,null,run_exp/static/images/task_images/gems/62.jpg,null,,,,,,,50,,,6,,,,,62,0.810318624,0.806451613,,,,,,,
decision,148,502840,0.0-46.0-2.0,"""event"",""trial"",""time""
""fullscreenenter"",""1"",""2745""
","
","
","""event"",""trial"",""time""
""fullscreenenter"",""1"",""2745""
","
",,42.0999999,run_exp/static/images/task_images/land.jpg,65,,,,,,,50,,,6,,,,,,,,173540,1,3,FALSE,,,
dig,149,505809,0.0-47.0-0.0,"""event"",""trial"",""time""
""fullscreenenter"",""1"",""2745""
","
","
","""event"",""trial"",""time""
""fullscreenenter"",""1"",""2745""
","
",,,,,,,,,,,,"[{""stimulus"":""run_exp/static/images/task_images/dig.jpg"",""time"":0.09999990463256836},{""stimulus"":""run_exp/static/images/task_images/land.jpg"",""time"":989.4000000953674},{""stimulus"":""run_exp/static/images/task_images/dig.jpg"",""time"":1979.7999997138977}]",[],6,,,,,,,,,,,,,,
harvest,150,506812,0.0-47.0-1.0,"""event"",""trial"",""time""
""fullscreenenter"",""1"",""2745""
","
","
","""event"",""trial"",""time""
""fullscreenenter"",""1"",""2745""
","
",,null,run_exp/static/images/task_images/gems/50.jpg,null,,,,,,,42,,,6,,,,,50,0.835880817,0.84,,,,,,,
decision,151,506896,0.0-47.0-2.0,"""event"",""trial"",""time""
""fullscreenenter"",""1"",""2745""
","
","
","""event"",""trial"",""time""
""fullscreenenter"",""1"",""2745""
","
",,83.5999999,run_exp/static/images/task_images/land.jpg,65,,,,,,,42,,,6,,,,,,,,177596,1,4,FALSE,,,
dig,152,509821,0.0-48.0-0.0,"""event"",""trial"",""time""
""fullscreenenter"",""1"",""2745""
","
","
","""event"",""trial"",""time""
""fullscreenenter"",""1"",""2745""
","
",,,,,,,,,,,,"[{""stimulus"":""run_exp/static/images/task_images/dig.jpg"",""time"":0},{""stimulus"":""run_exp/static/images/task_images/land.jpg"",""time"":980.5},{""stimulus"":""run_exp/static/images/task_images/dig.jpg"",""time"":1948.5999999046326}]",[],6,,,,,,,,,,,,,,
harvest,153,510831,0.0-48.0-1.0,"""event"",""trial"",""time""
""fullscreenenter"",""1"",""2745""
","
","
","""event"",""trial"",""time""
""fullscreenenter"",""1"",""2745""
","
",,null,run_exp/static/images/task_images/gems/42.jpg,null,,,,,,,33,,,6,,,,,42,0.795387847,0.785714286,,,,,,,
decision,154,511607,0.0-48.0-2.0,"""event"",""trial"",""time""
""fullscreenenter"",""1"",""2745""
","
","
","""event"",""trial"",""time""
""fullscreenenter"",""1"",""2745""
","
",,775.3000002,run_exp/static/images/task_images/land.jpg,65,,,,,,,33,,,6,,,,,,,,182307,1,5,FALSE,,,
dig,155,513836,0.0-49.0-0.0,"""event"",""trial"",""time""
""fullscreenenter"",""1"",""2745""
","
","
","""event"",""trial"",""time""
""fullscreenenter"",""1"",""2745""
","
",,,,,,,,,,,,"[{""stimulus"":""run_exp/static/images/task_images/dig.jpg"",""time"":0.09999990463256836},{""stimulus"":""run_exp/static/images/task_images/land.jpg"",""time"":751.6999998092651},{""stimulus"":""run_exp/static/images/task_images/dig.jpg"",""time"":1484.9000000953674}]",[],6,,,,,,,,,,,,,,
harvest,156,514838,0.0-49.0-1.0,"""event"",""trial"",""time""
""fullscreenenter"",""1"",""2745""
","
","
","""event"",""trial"",""time""
""fullscreenenter"",""1"",""2745""
","
",,null,run_exp/static/images/task_images/gems/33.jpg,null,,,,,,,28,,,6,,,,,33,0.835991075,0.848484848,,,,,,,
decision,157,515608,0.0-49.0-2.0,"""event"",""trial"",""time""
""fullscreenenter"",""1"",""2745""
","
","
","""event"",""trial"",""time""
""fullscreenenter"",""1"",""2745""
","
",,769.0999999,run_exp/static/images/task_images/land.jpg,65,,,,,,,28,,,6,,,,,,,,186308,1,6,FALSE,,,
dig,158,517844,0.0-50.0-0.0,"""event"",""trial"",""time""
""fullscreenenter"",""1"",""2745""
","
","
","""event"",""trial"",""time""
""fullscreenenter"",""1"",""2745""
","
",,,,,,,,,,,,"[{""stimulus"":""run_exp/static/images/task_images/dig.jpg"",""time"":0},{""stimulus"":""run_exp/static/images/task_images/land.jpg"",""time"":747.5},{""stimulus"":""run_exp/static/images/task_images/dig.jpg"",""time"":1493.4000000953674}]",[],6,,,,,,,,,,,,,,
harvest,159,518848,0.0-50.0-1.0,"""event"",""trial"",""time""
""fullscreenenter"",""1"",""2745""
","
","
","""event"",""trial"",""time""
""fullscreenenter"",""1"",""2745""
","
",,null,run_exp/static/images/task_images/gems/28.jpg,null,,,,,,,21,,,6,,,,,28,0.732343473,0.75,,,,,,,
decision,160,518854,0.0-50.0-2.0,"""event"",""trial"",""time""
""fullscreenenter"",""1"",""2745""
","
","
","""event"",""trial"",""time""
""fullscreenenter"",""1"",""2745""
","
",,6.300000191,run_exp/static/images/task_images/land.jpg,65,,,,,,,21,,,6,,,,,,,,189554,1,7,FALSE,,,
dig,161,521856,0.0-51.0-0.0,"""event"",""trial"",""time""
""fullscreenenter"",""1"",""2745""
","
","
","""event"",""trial"",""time""
""fullscreenenter"",""1"",""2745""
","
",,,,,,,,,,,,"[{""stimulus"":""run_exp/static/images/task_images/dig.jpg"",""time"":0.19999980926513672},{""stimulus"":""run_exp/static/images/task_images/land.jpg"",""time"":1005.6999998092651},{""stimulus"":""run_exp/static/images/task_images/dig.jpg"",""time"":1998.4000000953674}]",[],6,,,,,,,,,,,,,,
harvest,162,522862,0.0-51.0-1.0,"""event"",""trial"",""time""
""fullscreenenter"",""1"",""2745""
","
","
","""event"",""trial"",""time""
""fullscreenenter"",""1"",""2745""
","
",,null,run_exp/static/images/task_images/gems/21.jpg,null,,,,,,,16,,,6,,,,,21,0.762313189,0.761904762,,,,,,,
decision,163,522942,0.0-51.0-2.0,"""event"",""trial"",""time""
""fullscreenenter"",""1"",""2745""
","
","
","""event"",""trial"",""time""
""fullscreenenter"",""1"",""2745""
","
",,79.60000038,run_exp/static/images/task_images/land.jpg,65,,,,,,,16,,,6,,,,,,,,193643,1,8,FALSE,,,
dig,164,525869,0.0-52.0-0.0,"""event"",""trial"",""time""
""fullscreenenter"",""1"",""2745""
","
","
","""event"",""trial"",""time""
""fullscreenenter"",""1"",""2745""
","
",,,,,,,,,,,,"[{""stimulus"":""run_exp/static/images/task_images/dig.jpg"",""time"":0.09999990463256836},{""stimulus"":""run_exp/static/images/task_images/land.jpg"",""time"":984.5},{""stimulus"":""run_exp/static/images/task_images/dig.jpg"",""time"":1950.6999998092651}]",[],6,,,,,,,,,,,,,,
harvest,165,526876,0.0-52.0-1.0,"""event"",""trial"",""time""
""fullscreenenter"",""1"",""2745""
","
","
","""event"",""trial"",""time""
""fullscreenenter"",""1"",""2745""
","
",,null,run_exp/static/images/task_images/gems/16.jpg,null,,,,,,,14,,,6,,,,,16,0.861225044,0.875,,,,,,,
decision,166,526952,0.0-52.0-2.0,"""event"",""trial"",""time""
""fullscreenenter"",""1"",""2745""
","
","
","""event"",""trial"",""time""
""fullscreenenter"",""1"",""2745""
","
",,75.5999999,run_exp/static/images/task_images/land.jpg,65,,,,,,,14,,,6,,,,,,,,197652,1,9,FALSE,,,
dig,167,529886,0.0-53.0-0.0,"""event"",""trial"",""time""
""fullscreenenter"",""1"",""2745""
","
","
","""event"",""trial"",""time""
""fullscreenenter"",""1"",""2745""
","
",,,,,,,,,,,,"[{""stimulus"":""run_exp/static/images/task_images/dig.jpg"",""time"":0.19999980926513672},{""stimulus"":""run_exp/static/images/task_images/land.jpg"",""time"":982.5},{""stimulus"":""run_exp/static/images/task_images/dig.jpg"",""time"":1956}]",[],6,,,,,,,,,,,,,,
harvest,168,530894,0.0-53.0-1.0,"""event"",""trial"",""time""
""fullscreenenter"",""1"",""2745""
","
","
","""event"",""trial"",""time""
""fullscreenenter"",""1"",""2745""
","
",,null,run_exp/static/images/task_images/gems/14.jpg,null,,,,,,,12,,,6,,,,,14,0.867818296,0.857142857,,,,,,,
decision,169,532264,0.0-53.0-2.0,"""event"",""trial"",""time""
""fullscreenenter"",""1"",""2745""
","
","
","""event"",""trial"",""time""
""fullscreenenter"",""1"",""2745""
","
",,1369.7,run_exp/static/images/task_images/land.jpg,65,,,,,,,12,,,6,,,,,,,,202964,1,10,FALSE,,,
dig,170,533902,0.0-54.0-0.0,"""event"",""trial"",""time""
""fullscreenenter"",""1"",""2745""
","
","
","""event"",""trial"",""time""
""fullscreenenter"",""1"",""2745""
","
",,,,,,,,,,,,"[{""stimulus"":""run_exp/static/images/task_images/dig.jpg"",""time"":0.10000038146972656},{""stimulus"":""run_exp/static/images/task_images/land.jpg"",""time"":547.3000001907349},{""stimulus"":""run_exp/static/images/task_images/dig.jpg"",""time"":1092.9000000953674}]",[],6,,,,,,,,,,,,,,
harvest,171,534911,0.0-54.0-1.0,"""event"",""trial"",""time""
""fullscreenenter"",""1"",""2745""
","
","
","""event"",""trial"",""time""
""fullscreenenter"",""1"",""2745""
","
",,null,run_exp/static/images/task_images/gems/12.jpg,null,,,,,,,9,,,6,,,,,12,0.766170987,0.75,,,,,,,
decision,172,535671,0.0-54.0-2.0,"""event"",""trial"",""time""
""fullscreenenter"",""1"",""2745""
","
","
","""event"",""trial"",""time""
""fullscreenenter"",""1"",""2745""
","
",,759.0999999,run_exp/static/images/task_images/land.jpg,65,,,,,,,9,,,6,,,,,,,,206371,1,11,FALSE,,,
dig,173,537919,0.0-55.0-0.0,"""event"",""trial"",""time""
""fullscreenenter"",""1"",""2745""
","
","
","""event"",""trial"",""time""
""fullscreenenter"",""1"",""2745""
","
",,,,,,,,,,,,"[{""stimulus"":""run_exp/static/images/task_images/dig.jpg"",""time"":0},{""stimulus"":""run_exp/static/images/task_images/land.jpg"",""time"":749.5999999046326},{""stimulus"":""run_exp/static/images/task_images/dig.jpg"",""time"":1503.9000000953674}]",[],6,,,,,,,,,,,,,,
harvest,174,538926,0.0-55.0-1.0,"""event"",""trial"",""time""
""fullscreenenter"",""1"",""2745""
","
","
","""event"",""trial"",""time""
""fullscreenenter"",""1"",""2745""
","
",,null,run_exp/static/images/task_images/gems/9.jpg,null,,,,,,,8,,,6,,,,,9,0.869829465,0.888888889,,,,,,,
decision,175,539086,0.0-55.0-2.0,"""event"",""trial"",""time""
""fullscreenenter"",""1"",""2745""
","
","
","""event"",""trial"",""time""
""fullscreenenter"",""1"",""2745""
","
",,160.2000003,run_exp/static/images/task_images/land.jpg,76,,,,,,,8,,,6,,,,,,,,209787,1,12,TRUE,,,
travel,176,548936,0.0-56.0-0.0,"""event"",""trial"",""time""
""fullscreenenter"",""1"",""2745""
","
","
","""event"",""trial"",""time""
""fullscreenenter"",""1"",""2745""
","
",,,,,,,,,,,,"[{""stimulus"":""run_exp/static/images/task_images/rocket-01.jpg"",""time"":0.09999990463256836},{""stimulus"":""run_exp/static/images/task_images/rocket-02.jpg"",""time"":1104.7999997138977},{""stimulus"":""run_exp/static/images/task_images/rocket-03.jpg"",""time"":2189.0999999046326},{""stimulus"":""run_exp/static/images/task_images/rocket-04.jpg"",""time"":3288.0999999046326},{""stimulus"":""run_exp/static/images/task_images/rocket-05.jpg"",""time"":4381.5},{""stimulus"":""run_exp/static/images/task_images/rocket-06.jpg"",""time"":5468.299999713898},{""stimulus"":""run_exp/static/images/task_images/rocket-07.jpg"",""time"":6564.799999713898},{""stimulus"":""run_exp/static/images/task_images/rocket-08.jpg"",""time"":7654.900000095367},{""stimulus"":""run_exp/static/images/task_images/rocket-09.jpg"",""time"":8748.099999904633}]",[],6,,,,,,,,,,,,,,
alien_welcome,177,553943,0.0-56.0-1.0,"""event"",""trial"",""time""
""fullscreenenter"",""1"",""2745""
","
","
","""event"",""trial"",""time""
""fullscreenenter"",""1"",""2745""
","
",,null,run_exp/static/images/task_images/aliens/old_aliens/planet/alien_planet-64.jpg,null,,,,,,,,,,,,,64,"70,3,57,79,55,24,64,76,60,6,78,37,16,77,14,75,67,43,65,4,31,17,28,51,36,71,73,32,19,47",,,,,,,,,,
land,178,554452,0.0-56.0-2.0,"""event"",""trial"",""time""
""fullscreenenter"",""1"",""2745""
","
","
","""event"",""trial"",""time""
""fullscreenenter"",""1"",""2745""
","
",,null,run_exp/static/images/task_images/land.jpg,null,,,,,,,99,,,7,,,,,,,,,,,,,,
dig,179,556463,0.0-56.0-3.0,"""event"",""trial"",""time""
""fullscreenenter"",""1"",""2745""
","
","
","""event"",""trial"",""time""
""fullscreenenter"",""1"",""2745""
","
",,,,,,,,,,,,"[{""stimulus"":""run_exp/static/images/task_images/dig.jpg"",""time"":0.09999990463256836},{""stimulus"":""run_exp/static/images/task_images/land.jpg"",""time"":675.1999998092651},{""stimulus"":""run_exp/static/images/task_images/dig.jpg"",""time"":1336.0999999046326}]",[],7,,,,,,,,,,,,,,
harvest,180,557470,0.0-56.0-4.0,"""event"",""trial"",""time""
""fullscreenenter"",""1"",""2745""
","
","
","""event"",""trial"",""time""
""fullscreenenter"",""1"",""2745""
","
",,null,run_exp/static/images/task_images/gems/99.jpg,null,,,,,,,80,,,7,,,,,99,0.803128465,0.808080808,,,,,,,
decision,181,557568,0.0-56.0-5.0,"""event"",""trial"",""time""
""fullscreenenter"",""1"",""2745""
","
","
","""event"",""trial"",""time""
""fullscreenenter"",""1"",""2745""
","
",,97.20000029,run_exp/static/images/task_images/land.jpg,65,,,,,,,80,,,7,,,,,,,,228268,1,0,FALSE,,,
dig,182,560477,0.0-57.0-0.0,"""event"",""trial"",""time""
""fullscreenenter"",""1"",""2745""
","
","
","""event"",""trial"",""time""
""fullscreenenter"",""1"",""2745""
","
",,,,,,,,,,,,"[{""stimulus"":""run_exp/static/images/task_images/dig.jpg"",""time"":0.19999980926513672},{""stimulus"":""run_exp/static/images/task_images/land.jpg"",""time"":974},{""stimulus"":""run_exp/static/images/task_images/dig.jpg"",""time"":1940.4000000953674}]",[],7,,,,,,,,,,,,,,
harvest,183,561485,0.0-57.0-1.0,"""event"",""trial"",""time""
""fullscreenenter"",""1"",""2745""
","
","
","""event"",""trial"",""time""
""fullscreenenter"",""1"",""2745""
","
",,null,run_exp/static/images/task_images/gems/80.jpg,null,,,,,,,62,,,7,,,,,80,0.77360019,0.775,,,,,,,
decision,184,561519,0.0-57.0-2.0,"""event"",""trial"",""time""
""fullscreenenter"",""1"",""2745""
","
","
","""event"",""trial"",""time""
""fullscreenenter"",""1"",""2745""
","
",,33.10000038,run_exp/static/images/task_images/land.jpg,65,,,,,,,62,,,7,,,,,,,,232219,1,1,FALSE,,,
dig,185,564494,0.0-58.0-0.0,"""event"",""trial"",""time""
""fullscreenenter"",""1"",""2745""
","
","
","""event"",""trial"",""time""
""fullscreenenter"",""1"",""2745""
","
",,,,,,,,,,,,"[{""stimulus"":""run_exp/static/images/task_images/dig.jpg"",""time"":0.09999990463256836},{""stimulus"":""run_exp/static/images/task_images/land.jpg"",""time"":990.5999999046326},{""stimulus"":""run_exp/static/images/task_images/dig.jpg"",""time"":1982.6999998092651}]",[],7,,,,,,,,,,,,,,
harvest,186,565503,0.0-58.0-1.0,"""event"",""trial"",""time""
""fullscreenenter"",""1"",""2745""
","
","
","""event"",""trial"",""time""
""fullscreenenter"",""1"",""2745""
","
",,null,run_exp/static/images/task_images/gems/62.jpg,null,,,,,,,50,,,7,,,,,62,0.799139469,0.806451613,,,,,,,
decision,187,565512,0.0-58.0-2.0,"""event"",""trial"",""time""
""fullscreenenter"",""1"",""2745""
","
","
","""event"",""trial"",""time""
""fullscreenenter"",""1"",""2745""
","
",,9.199999809,run_exp/static/images/task_images/land.jpg,65,,,,,,,50,,,7,,,,,,,,236212,1,2,FALSE,,,
dig,188,568508,0.0-59.0-0.0,"""event"",""trial"",""time""
""fullscreenenter"",""1"",""2745""
","
","
","""event"",""trial"",""time""
""fullscreenenter"",""1"",""2745""
","
",,,,,,,,,,,,"[{""stimulus"":""run_exp/static/images/task_images/dig.jpg"",""time"":0.10000038146972656},{""stimulus"":""run_exp/static/images/task_images/land.jpg"",""time"":1006.3000001907349},{""stimulus"":""run_exp/static/images/task_images/dig.jpg"",""time"":1995.1000003814697}]",[],7,,,,,,,,,,,,,,
harvest,189,569517,0.0-59.0-1.0,"""event"",""trial"",""time""
""fullscreenenter"",""1"",""2745""
","
","
","""event"",""trial"",""time""
""fullscreenenter"",""1"",""2745""
","
",,null,run_exp/static/images/task_images/gems/50.jpg,null,,,,,,,44,,,7,,,,,50,0.878425806,0.88,,,,,,,
decision,190,569687,0.0-59.0-2.0,"""event"",""trial"",""time""
""fullscreenenter"",""1"",""2745""
","
","
","""event"",""trial"",""time""
""fullscreenenter"",""1"",""2745""
","
",,169.3000002,run_exp/static/images/task_images/land.jpg,65,,,,,,,44,,,7,,,,,,,,240387,1,3,FALSE,,,
dig,191,572527,0.0-60.0-0.0,"""event"",""trial"",""time""
""fullscreenenter"",""1"",""2745""
","
","
","""event"",""trial"",""time""
""fullscreenenter"",""1"",""2745""
","
",,,,,,,,,,,,"[{""stimulus"":""run_exp/static/images/task_images/dig.jpg"",""time"":0.09999990463256836},{""stimulus"":""run_exp/static/images/task_images/land.jpg"",""time"":948},{""stimulus"":""run_exp/static/images/task_images/dig.jpg"",""time"":1893.1999998092651}]",[],7,,,,,,,,,,,,,,
harvest,192,573534,0.0-60.0-1.0,"""event"",""trial"",""time""
""fullscreenenter"",""1"",""2745""
","
","
","""event"",""trial"",""time""
""fullscreenenter"",""1"",""2745""
","
",,null,run_exp/static/images/task_images/gems/44.jpg,null,,,,,,,35,,,7,,,,,44,0.80329478,0.795454545,,,,,,,
decision,193,573696,0.0-60.0-2.0,"""event"",""trial"",""time""
""fullscreenenter"",""1"",""2745""
","
","
","""event"",""trial"",""time""
""fullscreenenter"",""1"",""2745""
","
",,161.1999998,run_exp/static/images/task_images/land.jpg,65,,,,,,,35,,,7,,,,,,,,244396,1,4,FALSE,,,
dig,194,576544,0.0-61.0-0.0,"""event"",""trial"",""time""
""fullscreenenter"",""1"",""2745""
","
","
","""event"",""trial"",""time""
""fullscreenenter"",""1"",""2745""
","
",,,,,,,,,,,,"[{""stimulus"":""run_exp/static/images/task_images/dig.jpg"",""time"":0.09999990463256836},{""stimulus"":""run_exp/static/images/task_images/land.jpg"",""time"":959.2000002861023},{""stimulus"":""run_exp/static/images/task_images/dig.jpg"",""time"":1899.7000002861023}]",[],7,,,,,,,,,,,,,,
harvest,195,577548,0.0-61.0-1.0,"""event"",""trial"",""time""
""fullscreenenter"",""1"",""2745""
","
","
","""event"",""trial"",""time""
""fullscreenenter"",""1"",""2745""
","
",,null,run_exp/static/images/task_images/gems/35.jpg,null,,,,,,,30,,,7,,,,,35,0.846099061,0.857142857,,,,,,,
decision,196,577671,0.0-61.0-2.0,"""event"",""trial"",""time""
""fullscreenenter"",""1"",""2745""
","
","
","""event"",""trial"",""time""
""fullscreenenter"",""1"",""2745""
","
",,122,run_exp/static/images/task_images/land.jpg,65,,,,,,,30,,,7,,,,,,,,248371,1,5,FALSE,,,
dig,197,580557,0.0-62.0-0.0,"""event"",""trial"",""time""
""fullscreenenter"",""1"",""2745""
","
","
","""event"",""trial"",""time""
""fullscreenenter"",""1"",""2745""
","
",,,,,,,,,,,,"[{""stimulus"":""run_exp/static/images/task_images/dig.jpg"",""time"":0.09999990463256836},{""stimulus"":""run_exp/static/images/task_images/land.jpg"",""time"":964.8999996185303},{""stimulus"":""run_exp/static/images/task_images/dig.jpg"",""time"":1925.2999997138977}]",[],7,,,,,,,,,,,,,,
harvest,198,581565,0.0-62.0-1.0,"""event"",""trial"",""time""
""fullscreenenter"",""1"",""2745""
","
","
","""event"",""trial"",""time""
""fullscreenenter"",""1"",""2745""
","
",,null,run_exp/static/images/task_images/gems/30.jpg,null,,,,,,,27,,,7,,,,,30,0.896864957,0.9,,,,,,,
decision,199,581655,0.0-62.0-2.0,"""event"",""trial"",""time""
""fullscreenenter"",""1"",""2745""
","
","
","""event"",""trial"",""time""
""fullscreenenter"",""1"",""2745""
","
",,89.10000038,run_exp/static/images/task_images/land.jpg,65,,,,,,,27,,,7,,,,,,,,252355,1,6,FALSE,,,
dig,200,584573,0.0-63.0-0.0,"""event"",""trial"",""time""
""fullscreenenter"",""1"",""2745""
","
","
","""event"",""trial"",""time""
""fullscreenenter"",""1"",""2745""
","
",,,,,,,,,,,,"[{""stimulus"":""run_exp/static/images/task_images/dig.jpg"",""time"":0.09999990463256836},{""stimulus"":""run_exp/static/images/task_images/land.jpg"",""time"":974.4000000953674},{""stimulus"":""run_exp/static/images/task_images/dig.jpg"",""time"":1948.5999999046326}]",[],7,,,,,,,,,,,,,,
harvest,201,585581,0.0-63.0-1.0,"""event"",""trial"",""time""
""fullscreenenter"",""1"",""2745""
","
","
","""event"",""trial"",""time""
""fullscreenenter"",""1"",""2745""
","
",,null,run_exp/static/images/task_images/gems/27.jpg,null,,,,,,,21,,,7,,,,,27,0.775986146,0.777777778,,,,,,,
decision,202,585816,0.0-63.0-2.0,"""event"",""trial"",""time""
""fullscreenenter"",""1"",""2745""
","
","
","""event"",""trial"",""time""
""fullscreenenter"",""1"",""2745""
","
",,234.5,run_exp/static/images/task_images/land.jpg,65,,,,,,,21,,,7,,,,,,,,256516,1,7,FALSE,,,
dig,203,588589,0.0-64.0-0.0,"""event"",""trial"",""time""
""fullscreenenter"",""1"",""2745""
","
","
","""event"",""trial"",""time""
""fullscreenenter"",""1"",""2745""
","
",,,,,,,,,,,,"[{""stimulus"":""run_exp/static/images/task_images/dig.jpg"",""time"":0},{""stimulus"":""run_exp/static/images/task_images/land.jpg"",""time"":925.8000001907349},{""stimulus"":""run_exp/static/images/task_images/dig.jpg"",""time"":1851.5}]",[],7,,,,,,,,,,,,,,
harvest,204,589599,0.0-64.0-1.0,"""event"",""trial"",""time""
""fullscreenenter"",""1"",""2745""
","
","
","""event"",""trial"",""time""
""fullscreenenter"",""1"",""2745""
","
",,null,run_exp/static/images/task_images/gems/21.jpg,null,,,,,,,17,,,7,,,,,21,0.799669327,0.80952381,,,,,,,
decision,205,589784,0.0-64.0-2.0,"""event"",""trial"",""time""
""fullscreenenter"",""1"",""2745""
","
","
","""event"",""trial"",""time""
""fullscreenenter"",""1"",""2745""
","
",,184.7000003,run_exp/static/images/task_images/land.jpg,65,,,,,,,17,,,7,,,,,,,,260484,1,8,FALSE,,,
dig,206,592607,0.0-65.0-0.0,"""event"",""trial"",""time""
""fullscreenenter"",""1"",""2745""
","
","
","""event"",""trial"",""time""
""fullscreenenter"",""1"",""2745""
","
",,,,,,,,,,,,"[{""stimulus"":""run_exp/static/images/task_images/dig.jpg"",""time"":0},{""stimulus"":""run_exp/static/images/task_images/land.jpg"",""time"":950.3000001907349},{""stimulus"":""run_exp/static/images/task_images/dig.jpg"",""time"":1883.5999999046326}]",[],7,,,,,,,,,,,,,,
harvest,207,593614,0.0-65.0-1.0,"""event"",""trial"",""time""
""fullscreenenter"",""1"",""2745""
","
","
","""event"",""trial"",""time""
""fullscreenenter"",""1"",""2745""
","
",,null,run_exp/static/images/task_images/gems/17.jpg,null,,,,,,,15,,,7,,,,,17,0.877805897,0.882352941,,,,,,,
decision,208,593752,0.0-65.0-2.0,"""event"",""trial"",""time""
""fullscreenenter"",""1"",""2745""
","
","
","""event"",""trial"",""time""
""fullscreenenter"",""1"",""2745""
","
",,137.5999999,run_exp/static/images/task_images/land.jpg,65,,,,,,,15,,,7,,,,,,,,264452,1,9,FALSE,,,
dig,209,596622,0.0-66.0-0.0,"""event"",""trial"",""time""
""fullscreenenter"",""1"",""2745""
","
","
","""event"",""trial"",""time""
""fullscreenenter"",""1"",""2745""
","
",,,,,,,,,,,,"[{""stimulus"":""run_exp/static/images/task_images/dig.jpg"",""time"":0.09999990463256836},{""stimulus"":""run_exp/static/images/task_images/land.jpg"",""time"":967.2000002861023},{""stimulus"":""run_exp/static/images/task_images/dig.jpg"",""time"":1915.4000000953674}]",[],7,,,,,,,,,,,,,,
harvest,210,597630,0.0-66.0-1.0,"""event"",""trial"",""time""
""fullscreenenter"",""1"",""2745""
","
","
","""event"",""trial"",""time""
""fullscreenenter"",""1"",""2745""
","
",,null,run_exp/static/images/task_images/gems/15.jpg,null,,,,,,,11,,,7,,,,,15,0.723720439,0.733333333,,,,,,,
decision,211,597816,0.0-66.0-2.0,"""event"",""trial"",""time""
""fullscreenenter"",""1"",""2745""
","
","
","""event"",""trial"",""time""
""fullscreenenter"",""1"",""2745""
","
",,185.4000001,run_exp/static/images/task_images/land.jpg,65,,,,,,,11,,,7,,,,,,,,268516,1,10,FALSE,,,
dig,212,600637,0.0-67.0-0.0,"""event"",""trial"",""time""
""fullscreenenter"",""1"",""2745""
","
","
","""event"",""trial"",""time""
""fullscreenenter"",""1"",""2745""
","
",,,,,,,,,,,,"[{""stimulus"":""run_exp/static/images/task_images/dig.jpg"",""time"":0},{""stimulus"":""run_exp/static/images/task_images/land.jpg"",""time"":951.3000001907349},{""stimulus"":""run_exp/static/images/task_images/dig.jpg"",""time"":1884.7000002861023}]",[],7,,,,,,,,,,,,,,
harvest,213,601647,0.0-67.0-1.0,"""event"",""trial"",""time""
""fullscreenenter"",""1"",""2745""
","
","
","""event"",""trial"",""time""
""fullscreenenter"",""1"",""2745""
","
",,null,run_exp/static/images/task_images/gems/11.jpg,null,,,,,,,10,,,7,,,,,11,0.865909487,0.909090909,,,,,,,
decision,214,601824,0.0-67.0-2.0,"""event"",""trial"",""time""
""fullscreenenter"",""1"",""2745""
","
","
","""event"",""trial"",""time""
""fullscreenenter"",""1"",""2745""
","
",,176.4000001,run_exp/static/images/task_images/land.jpg,65,,,,,,,10,,,7,,,,,,,,272525,1,11,FALSE,,,
dig,215,604653,0.0-68.0-0.0,"""event"",""trial"",""time""
""fullscreenenter"",""1"",""2745""
","
","
","""event"",""trial"",""time""
""fullscreenenter"",""1"",""2745""
","
",,,,,,,,,,,,"[{""stimulus"":""run_exp/static/images/task_images/dig.jpg"",""time"":0.09999990463256836},{""stimulus"":""run_exp/static/images/task_images/land.jpg"",""time"":949.4000000953674},{""stimulus"":""run_exp/static/images/task_images/dig.jpg"",""time"":1891.5999999046326}]",[],7,,,,,,,,,,,,,,
harvest,216,605664,0.0-68.0-1.0,"""event"",""trial"",""time""
""fullscreenenter"",""1"",""2745""
","
","
","""event"",""trial"",""time""
""fullscreenenter"",""1"",""2745""
","
",,null,run_exp/static/images/task_images/gems/10.jpg,null,,,,,,,8,,,7,,,,,10,0.824496364,0.8,,,,,,,
decision,217,606087,0.0-68.0-2.0,"""event"",""trial"",""time""
""fullscreenenter"",""1"",""2745""
","
","
","""event"",""trial"",""time""
""fullscreenenter"",""1"",""2745""
","
",,422.5,run_exp/static/images/task_images/land.jpg,65,,,,,,,8,,,7,,,,,,,,276787,1,12,FALSE,,,
dig,218,608669,0.0-69.0-0.0,"""event"",""trial"",""time""
""fullscreenenter"",""1"",""2745""
","
","
","""event"",""trial"",""time""
""fullscreenenter"",""1"",""2745""
","
",,,,,,,,,,,,"[{""stimulus"":""run_exp/static/images/task_images/dig.jpg"",""time"":0.09999990463256836},{""stimulus"":""run_exp/static/images/task_images/land.jpg"",""time"":860.4000000953674},{""stimulus"":""run_exp/static/images/task_images/dig.jpg"",""time"":1725}]",[],7,,,,,,,,,,,,,,
harvest,219,609677,0.0-69.0-1.0,"""event"",""trial"",""time""
""fullscreenenter"",""1"",""2745""
","
","
","""event"",""trial"",""time""
""fullscreenenter"",""1"",""2745""
","
",,null,run_exp/static/images/task_images/gems/8.jpg,null,,,,,,,7,,,7,,,,,8,0.906224365,0.875,,,,,,,
decision,220,609824,0.0-69.0-2.0,"""event"",""trial"",""time""
""fullscreenenter"",""1"",""2745""
","
","
","""event"",""trial"",""time""
""fullscreenenter"",""1"",""2745""
","
",,146.6000004,run_exp/static/images/task_images/land.jpg,76,,,,,,,7,,,7,,,,,,,,280524,1,13,TRUE,,,
travel,221,619680,0.0-70.0-0.0,"""event"",""trial"",""time""
""fullscreenenter"",""1"",""2745""
","
","
","""event"",""trial"",""time""
""fullscreenenter"",""1"",""2745""
","
",,,,,,,,,,,,"[{""stimulus"":""run_exp/static/images/task_images/rocket-01.jpg"",""time"":0.19999980926513672},{""stimulus"":""run_exp/static/images/task_images/rocket-02.jpg"",""time"":1103.2999997138977},{""stimulus"":""run_exp/static/images/task_images/rocket-03.jpg"",""time"":2195.4000000953674},{""stimulus"":""run_exp/static/images/task_images/rocket-04.jpg"",""time"":3291.4000000953674},{""stimulus"":""run_exp/static/images/task_images/rocket-05.jpg"",""time"":4383.299999713898},{""stimulus"":""run_exp/static/images/task_images/rocket-06.jpg"",""time"":5477.799999713898},{""stimulus"":""run_exp/static/images/task_images/rocket-07.jpg"",""time"":6571.299999713898},{""stimulus"":""run_exp/static/images/task_images/rocket-08.jpg"",""time"":7670.599999904633},{""stimulus"":""run_exp/static/images/task_images/rocket-09.jpg"",""time"":8756.199999809265}]",[],7,,,,,,,,,,,,,,
alien_welcome,222,624684,0.0-70.0-1.0,"""event"",""trial"",""time""
""fullscreenenter"",""1"",""2745""
","
","
","""event"",""trial"",""time""
""fullscreenenter"",""1"",""2745""
","
",,null,run_exp/static/images/task_images/aliens/old_aliens/planet/alien_planet-76.jpg,null,,,,,,,,,,,,,76,"70,3,57,79,55,24,64,76,60,6,78,37,16,77,14,75,67,43,65,4,31,17,28,51,36,71,73,32,19,47",,,,,,,,,,
land,223,625188,0.0-70.0-2.0,"""event"",""trial"",""time""
""fullscreenenter"",""1"",""2745""
","
","
","""event"",""trial"",""time""
""fullscreenenter"",""1"",""2745""
","
",,null,run_exp/static/images/task_images/land.jpg,null,,,,,,,100,,,8,,,,,,,,,,,,,,
dig,224,627196,0.0-70.0-3.0,"""event"",""trial"",""time""
""fullscreenenter"",""1"",""2745""
","
","
","""event"",""trial"",""time""
""fullscreenenter"",""1"",""2745""
","
",,,,,,,,,,,,"[{""stimulus"":""run_exp/static/images/task_images/dig.jpg"",""time"":0.09999990463256836},{""stimulus"":""run_exp/static/images/task_images/land.jpg"",""time"":674.6999998092651},{""stimulus"":""run_exp/static/images/task_images/dig.jpg"",""time"":1336.3000001907349}]",[],8,,,,,,,,,,,,,,
harvest,225,628205,0.0-70.0-4.0,"""event"",""trial"",""time""
""fullscreenenter"",""1"",""2745""
","
","
","""event"",""trial"",""time""
""fullscreenenter"",""1"",""2745""
","
",,null,run_exp/static/images/task_images/gems/100.jpg,null,,,,,,,78,,,8,,,,,100,0.783282401,0.78,,,,,,,
decision,226,628424,0.0-70.0-5.0,"""event"",""trial"",""time""
""fullscreenenter"",""1"",""2745""
","
","
","""event"",""trial"",""time""
""fullscreenenter"",""1"",""2745""
","
",,218.7000003,run_exp/static/images/task_images/land.jpg,65,,,,,,,78,,,8,,,,,,,,299124,1,0,FALSE,,,
dig,227,631213,0.0-71.0-0.0,"""event"",""trial"",""time""
""fullscreenenter"",""1"",""2745""
","
","
","""event"",""trial"",""time""
""fullscreenenter"",""1"",""2745""
","
",,,,,,,,,,,,"[{""stimulus"":""run_exp/static/images/task_images/dig.jpg"",""time"":0.09999990463256836},{""stimulus"":""run_exp/static/images/task_images/land.jpg"",""time"":934.8000001907349},{""stimulus"":""run_exp/static/images/task_images/dig.jpg"",""time"":1861.1999998092651}]",[],8,,,,,,,,,,,,,,
harvest,228,632225,0.0-71.0-1.0,"""event"",""trial"",""time""
""fullscreenenter"",""1"",""2745""
","
","
","""event"",""trial"",""time""
""fullscreenenter"",""1"",""2745""
","
",,null,run_exp/static/images/task_images/gems/78.jpg,null,,,,,,,62,,,8,,,,,78,0.795135715,0.794871795,,,,,,,
decision,229,632281,0.0-71.0-2.0,"""event"",""trial"",""time""
""fullscreenenter"",""1"",""2745""
","
","
","""event"",""trial"",""time""
""fullscreenenter"",""1"",""2745""
","
",,54.69999981,run_exp/static/images/task_images/land.jpg,65,,,,,,,62,,,8,,,,,,,,302981,1,1,TRUE,,,
end_of_block_continue,230,641129,0.0-72.0-0.0,"""event"",""trial"",""time""
""fullscreenenter"",""1"",""2745""
","
","
","""event"",""trial"",""time""
""fullscreenenter"",""1"",""2745""
","
",,null,run_exp/static/audio/clip_32_block_end.m4a,,,,,,,null,,,,,,,,,,,,,,,,,,
alien_welcome,231,646136,0.0-73.0-0.0,"""event"",""trial"",""time""
""fullscreenenter"",""1"",""2745""
","
","
","""event"",""trial"",""time""
""fullscreenenter"",""1"",""2745""
","
",,null,run_exp/static/images/task_images/aliens/old_aliens/planet/alien_planet-60.jpg,null,,,,,,,,,,,,,60,"70,3,57,79,55,24,64,76,60,6,78,37,16,77,14,75,67,43,65,4,31,17,28,51,36,71,73,32,19,47",,,,,,,,,,
land,232,646645,0.0-73.0-1.0,"""event"",""trial"",""time""
""fullscreenenter"",""1"",""2745""
","
","
","""event"",""trial"",""time""
""fullscreenenter"",""1"",""2745""
","
",,null,run_exp/static/images/task_images/land.jpg,null,,,,,,,101,,,9,,,,,,,,,,,,,,
dig,233,648653,0.0-73.0-2.0,"""event"",""trial"",""time""
""fullscreenenter"",""1"",""2745""
","
","
","""event"",""trial"",""time""
""fullscreenenter"",""1"",""2745""
","
",,,,,,,,,,,,"[{""stimulus"":""run_exp/static/images/task_images/dig.jpg"",""time"":0.09999990463256836},{""stimulus"":""run_exp/static/images/task_images/land.jpg"",""time"":671.9000000953674},{""stimulus"":""run_exp/static/images/task_images/dig.jpg"",""time"":1344.2999997138977}]",[],9,,,,,,,,,,,,,,
harvest,234,649662,0.0-73.0-3.0,"""event"",""trial"",""time""
""fullscreenenter"",""1"",""2745""
","
","
","""event"",""trial"",""time""
""fullscreenenter"",""1"",""2745""
","
",,null,run_exp/static/images/task_images/gems/101.jpg,null,,,,,,,24,,,9,,,,,101,0.234425788,0.237623762,,,,,,,
decision,235,649761,0.0-73.0-4.0,"""event"",""trial"",""time""
""fullscreenenter"",""1"",""2745""
","
","
","""event"",""trial"",""time""
""fullscreenenter"",""1"",""2745""
","
",,97.69999981,run_exp/static/images/task_images/land.jpg,65,,,,,,,24,,,9,,,,,,,,8631,2,0,FALSE,,,
dig,236,652669,0.0-74.0-0.0,"""event"",""trial"",""time""
""fullscreenenter"",""1"",""2745""
","
","
","""event"",""trial"",""time""
""fullscreenenter"",""1"",""2745""
","
",,,,,,,,,,,,"[{""stimulus"":""run_exp/static/images/task_images/dig.jpg"",""time"":0.09999990463256836},{""stimulus"":""run_exp/static/images/task_images/land.jpg"",""time"":973.4000000953674},{""stimulus"":""run_exp/static/images/task_images/dig.jpg"",""time"":1940}]",[],9,,,,,,,,,,,,,,
harvest,237,653679,0.0-74.0-1.0,"""event"",""trial"",""time""
""fullscreenenter"",""1"",""2745""
","
","
","""event"",""trial"",""time""
""fullscreenenter"",""1"",""2745""
","
",,null,run_exp/static/images/task_images/gems/24.jpg,null,,,,,,,5,,,9,,,,,24,0.202705575,0.208333333,,,,,,,
decision,238,653705,0.0-74.0-2.0,"""event"",""trial"",""time""
""fullscreenenter"",""1"",""2745""
","
","
","""event"",""trial"",""time""
""fullscreenenter"",""1"",""2745""
","
",,24.70000029,run_exp/static/images/task_images/land.jpg,65,,,,,,,5,,,9,,,,,,,,12575,2,1,FALSE,,,
dig,239,656685,0.0-75.0-0.0,"""event"",""trial"",""time""
""fullscreenenter"",""1"",""2745""
","
","
","""event"",""trial"",""time""
""fullscreenenter"",""1"",""2745""
","
",,,,,,,,,,,,"[{""stimulus"":""run_exp/static/images/task_images/dig.jpg"",""time"":0},{""stimulus"":""run_exp/static/images/task_images/land.jpg"",""time"":996.7000002861023},{""stimulus"":""run_exp/static/images/task_images/dig.jpg"",""time"":1989.5999999046326}]",[],9,,,,,,,,,,,,,,
harvest,240,657696,0.0-75.0-1.0,"""event"",""trial"",""time""
""fullscreenenter"",""1"",""2745""
","
","
","""event"",""trial"",""time""
""fullscreenenter"",""1"",""2745""
","
",,null,run_exp/static/images/task_images/gems/5.jpg,null,,,,,,,1,,,9,,,,,5,0.225809526,0.2,,,,,,,
decision,241,657743,0.0-75.0-2.0,"""event"",""trial"",""time""
""fullscreenenter"",""1"",""2745""
","
","
","""event"",""trial"",""time""
""fullscreenenter"",""1"",""2745""
","
",,45.80000019,run_exp/static/images/task_images/land.jpg,76,,,,,,,1,,,9,,,,,,,,16613,2,2,TRUE,,,
travel,242,667702,0.0-76.0-0.0,"""event"",""trial"",""time""
""fullscreenenter"",""1"",""2745""
","
","
","""event"",""trial"",""time""
""fullscreenenter"",""1"",""2745""
","
",,,,,,,,,,,,"[{""stimulus"":""run_exp/static/images/task_images/rocket-01.jpg"",""time"":0.19999980926513672},{""stimulus"":""run_exp/static/images/task_images/rocket-02.jpg"",""time"":1112},{""stimulus"":""run_exp/static/images/task_images/rocket-03.jpg"",""time"":2224.300000190735},{""stimulus"":""run_exp/static/images/task_images/rocket-04.jpg"",""time"":3325.9000000953674},{""stimulus"":""run_exp/static/images/task_images/rocket-05.jpg"",""time"":4431.800000190735},{""stimulus"":""run_exp/static/images/task_images/rocket-06.jpg"",""time"":5536.199999809265},{""stimulus"":""run_exp/static/images/task_images/rocket-07.jpg"",""time"":6637.400000095367},{""stimulus"":""run_exp/static/images/task_images/rocket-08.jpg"",""time"":7751.900000095367},{""stimulus"":""run_exp/static/images/task_images/rocket-09.jpg"",""time"":8852.300000190735}]",[],9,,,,,,,,,,,,,,
alien_welcome,243,672712,0.0-76.0-1.0,"""event"",""trial"",""time""
""fullscreenenter"",""1"",""2745""
","
","
","""event"",""trial"",""time""
""fullscreenenter"",""1"",""2745""
","
",,null,run_exp/static/images/task_images/aliens/old_aliens/planet/alien_planet-6.jpg,null,,,,,,,,,,,,,6,"70,3,57,79,55,24,64,76,60,6,78,37,16,77,14,75,67,43,65,4,31,17,28,51,36,71,73,32,19,47",,,,,,,,,,
land,244,673217,0.0-76.0-2.0,"""event"",""trial"",""time""
""fullscreenenter"",""1"",""2745""
","
","
","""event"",""trial"",""time""
""fullscreenenter"",""1"",""2745""
","
",,null,run_exp/static/images/task_images/land.jpg,null,,,,,,,103,,,10,,,,,,,,,,,,,,
dig,245,675223,0.0-76.0-3.0,"""event"",""trial"",""time""
""fullscreenenter"",""1"",""2745""
","
","
","""event"",""trial"",""time""
""fullscreenenter"",""1"",""2745""
","
",,,,,,,,,,,,"[{""stimulus"":""run_exp/static/images/task_images/dig.jpg"",""time"":0.19999980926513672},{""stimulus"":""run_exp/static/images/task_images/land.jpg"",""time"":676.0999999046326},{""stimulus"":""run_exp/static/images/task_images/dig.jpg"",""time"":1338.4000000953674}]",[],10,,,,,,,,,,,,,,
harvest,246,676229,0.0-76.0-4.0,"""event"",""trial"",""time""
""fullscreenenter"",""1"",""2745""
","
","
","""event"",""trial"",""time""
""fullscreenenter"",""1"",""2745""
","
",,null,run_exp/static/images/task_images/gems/103.jpg,null,,,,,,,19,,,10,,,,,103,0.183253644,0.184466019,,,,,,,
decision,247,676247,0.0-76.0-5.0,"""event"",""trial"",""time""
""fullscreenenter"",""1"",""2745""
","
","
","""event"",""trial"",""time""
""fullscreenenter"",""1"",""2745""
","
",,17.39999962,run_exp/static/images/task_images/land.jpg,65,,,,,,,19,,,10,,,,,,,,35117,2,0,FALSE,,,
dig,248,679231,0.0-77.0-0.0,"""event"",""trial"",""time""
""fullscreenenter"",""1"",""2745""
","
","
","""event"",""trial"",""time""
""fullscreenenter"",""1"",""2745""
","
",,,,,,,,,,,,"[{""stimulus"":""run_exp/static/images/task_images/dig.jpg"",""time"":0},{""stimulus"":""run_exp/static/images/task_images/land.jpg"",""time"":996.8000001907349},{""stimulus"":""run_exp/static/images/task_images/dig.jpg"",""time"":1998.3000001907349}]",[],10,,,,,,,,,,,,,,
harvest,249,680237,0.0-77.0-1.0,"""event"",""trial"",""time""
""fullscreenenter"",""1"",""2745""
","
","
","""event"",""trial"",""time""
""fullscreenenter"",""1"",""2745""
","
",,null,run_exp/static/images/task_images/gems/19.jpg,null,,,,,,,4,,,10,,,,,19,0.228854896,0.210526316,,,,,,,
decision,250,680785,0.0-77.0-2.0,"""event"",""trial"",""time""
""fullscreenenter"",""1"",""2745""
","
","
","""event"",""trial"",""time""
""fullscreenenter"",""1"",""2745""
","
",,546.8000002,run_exp/static/images/task_images/land.jpg,65,,,,,,,4,,,10,,,,,,,,39655,2,1,FALSE,,,
dig,251,683249,0.0-78.0-0.0,"""event"",""trial"",""time""
""fullscreenenter"",""1"",""2745""
","
","
","""event"",""trial"",""time""
""fullscreenenter"",""1"",""2745""
","
