trial_type,trial_index,time_elapsed,internal_node_id,interactions,blur_events,focus_events,fullscreenenter_events,fullscreenexit_events,success,rt,stimulus,key_press,prompt,subject_id,participant_id,age,gender,button_pressed,next_reward,animation_sequence,responses,planet,curr_prac_trial,n_prac_rounds,alien,aliens,reward_received,decay_rate_actual,decay_rate_exp,time_in_block,block_num,prt,last_trial_on_planet,button_html,bonus,num_failures
pavlovia,0,9,0.0-0.0,"""event"",""trial"",""time""
""fullscreenenter"",""1"",""7004""
","
","
","""event"",""trial"",""time""
""fullscreenenter"",""1"",""7004""
","
",,,,,,,,,,,,,,,,,,,,,,,,,,,,
fullscreen,1,7998,0.0-1.0,"""event"",""trial"",""time""
""fullscreenenter"",""1"",""7004""
","
","
","""event"",""trial"",""time""
""fullscreenenter"",""1"",""7004""
","
",TRUE,,,,,,,,,,,,,,,,,,,,,,,,,,,
instruc_welcome,2,17822,0.0-2.0,"""event"",""trial"",""time""
""fullscreenenter"",""1"",""7004""
","
","
","""event"",""trial"",""time""
""fullscreenenter"",""1"",""7004""
","
",,null,run_exp/static/audio/clip_1_welcome.m4a,null,"<p>Howdy! In this experiment, you’ll be an explorer traveling through space to collect space treasure.</p><p>Your mission is to collect as much treasure as possible.</p><br><br><p><img src='run_exp/static/images/task_images/opening_img-01.jpg' height='300' width='auto'></p>",8074,273,25.5,Female,,,,,,,,,,,,,,,,,,,
audio-keyboard-response,3,34468,0.0-3.0,"""event"",""trial"",""time""
""fullscreenenter"",""1"",""7004""
","
","
","""event"",""trial"",""time""
""fullscreenenter"",""1"",""7004""
","
",,null,run_exp/static/audio/clip_2_move.m4a,null,,,,,,,,,,,,,,,,,,,,,,,,
welcome_dec,4,38460,0.0-4.0,"""event"",""trial"",""time""
""fullscreenenter"",""1"",""7004""
","
","
","""event"",""trial"",""time""
""fullscreenenter"",""1"",""7004""
","
",,3988.9,"<p>Howdy! In this experiment, you’ll be an explorer traveling through space to collect space treasure.</p><p>Your mission is to collect as much treasure as possible.</p><br><br><p><img src='run_exp/static/images/task_images/opening_img-01.jpg' height='300' width='auto'></p>",,,,,,,1,,,,,,,,,,,,,,,,,,
html-keyboard-response,5,39333,0.0-5.0,"""event"",""trial"",""time""
""fullscreenenter"",""1"",""7004""
","
","
","""event"",""trial"",""time""
""fullscreenenter"",""1"",""7004""
","
",,867.8,"<p>Howdy! In this experiment, you’ll be an explorer traveling through space to collect space treasure.</p><p>Your mission is to collect as much treasure as possible.</p><br><br><p><img src='run_exp/static/images/task_images/opening_img-01.jpg' height='300' width='auto'></p><button class=""jspsych-html-btn-unchosen""><img src=""run_exp/static/images/task_images/planet-01.jpg"" height=""50""></button><button class=""jspsych-html-btn-chosen""><img src=""run_exp/static/images/task_images/planet-02.jpg"" height=""50""></button><p><b>[press the space bar to lock in your answer]<b><br></p>",32,,,,,,,,,,,,,,,,,,,,,,,,
instruc_goal,6,49446,0.0-6.0-0.0,"""event"",""trial"",""time""
""fullscreenenter"",""1"",""7004""
","
","
","""event"",""trial"",""time""
""fullscreenenter"",""1"",""7004""
","
",,null,run_exp/static/audio/clip_3_goal.m4a,null,"<p> As a space explorer, you’ll visit different planets to dig for space treasure, these pink gems.</p> <p> The more treasure you dig up, the more bonus money you’ll win! </p><br><br><p><img src='run_exp/static/images/task_images/pink_gem.jpg' height='300' width='auto'></p>",,,,,,,,,,,,,,,,,,,,,,,
instruc_goal,7,53193,0.0-6.0-1.0,"""event"",""trial"",""time""
""fullscreenenter"",""1"",""7004""
","
","
","""event"",""trial"",""time""
""fullscreenenter"",""1"",""7004""
","
",,3743.5,"<p> As a space explorer, you’ll visit different planets to dig for space treasure, these pink gems.</p> <p> The more treasure you dig up, the more bonus money you’ll win! </p><br><br><p><img src='run_exp/static/images/task_images/pink_gem.jpg' height='300' width='auto'></p>",,,,,,,1,,,,,,,,,,,,,,,,,,
html-keyboard-response,8,54058,0.0-6.0-2.0,"""event"",""trial"",""time""
""fullscreenenter"",""1"",""7004""
","
","
","""event"",""trial"",""time""
""fullscreenenter"",""1"",""7004""
","
",,862.7,"<p> As a space explorer, you’ll visit different planets to dig for space treasure, these pink gems.</p> <p> The more treasure you dig up, the more bonus money you’ll win! </p><br><br><p><img src='run_exp/static/images/task_images/pink_gem.jpg' height='300' width='auto'></p><button class=""jspsych-html-btn-unchosen""><img src=""run_exp/static/images/task_images/planet-01.jpg"" height=""50""></button><button class=""jspsych-html-btn-chosen""><img src=""run_exp/static/images/task_images/planet-02.jpg"" height=""50""></button><p><b>[press the space bar to lock in your answer]<b><br></p>",32,,,,,,,,,,,,,,,,,,,,,,,,
instruc_dig,9,70110,0.0-7.0-0.0,"""event"",""trial"",""time""
""fullscreenenter"",""1"",""7004""
","
","
","""event"",""trial"",""time""
""fullscreenenter"",""1"",""7004""
","
",,null,run_exp/static/audio/clip_4_dig.m4a,null,,,,,,,100,,,,,,,,,,,,,,,,,
instruc_dig_try,10,70567,0.0-7.0-1.0,"""event"",""trial"",""time""
""fullscreenenter"",""1"",""7004""
","
","
","""event"",""trial"",""time""
""fullscreenenter"",""1"",""7004""
","
",,455.9,"<p> When you’ve arrived at a new planet, you will dig once. </p> <p>Then, you get to decide if you want to stay on the planet and dig again or travel to a new planet and dig there.</p> <p> To stay and dig, press the letter <strong>‘A’</strong> on your keyboard. Try pressing it now! </p><p><img src='run_exp/static/images/task_images/land.jpg'  height='700' width='auto'></p>",65,"<p> When you’ve arrived at a new planet, you will dig once. </p> <p>Then, you get to decide if you want to stay on the planet and dig again or travel to a new planet and dig there.</p> <p> To stay and dig, press the letter <strong>‘A’</strong> on your keyboard. Try pressing it now! </p><p><img src='run_exp/static/images/task_images/land.jpg'  height='700' width='auto'></p>",,,,,,100,,,,,,,,,,,,,,,,,
dig_prac,11,72583,0.0-7.0-2.0,"""event"",""trial"",""time""
""fullscreenenter"",""1"",""7004""
","
","
","""event"",""trial"",""time""
""fullscreenenter"",""1"",""7004""
","
",,,,,,,,,,,,"[{""stimulus"":""run_exp/static/images/task_images/dig.jpg"",""time"":0.40000003576278687},{""stimulus"":""run_exp/static/images/task_images/land.jpg"",""time"":674.2000000476837},{""stimulus"":""run_exp/static/images/task_images/dig.jpg"",""time"":1336.4000000357628}]",[],,,,,,,,,,,,,,,
instruc_travel,12,108864,0.0-7.0-3.0,"""event"",""trial"",""time""
""fullscreenenter"",""1"",""7004""
","
","
","""event"",""trial"",""time""
""fullscreenenter"",""1"",""7004""
","
",,null,run_exp/static/audio/clip_5_travel.m4a,null,"<p>Every time you dig up gems, there are less gems on the planet, so the more you dig on a planet the fewer gems you’ll get with each dig.</p><p>When gems are running low, you may want to travel to a new planet. </p> <p>  Planets are very far apart in this galaxy, so it will take some time to travel between them. </p> <br><p>There are lots and lots of planets for you to visit, so you won’t be able to return to any planets you’ve seen before. </p><br><p>To leave this planet and travel to a new one, press the letter <strong>‘L’</strong> on your keyboard. Try pressing it now! </p><p><img src='run_exp/static/images/task_images/rocket-01.jpg'  height='600' width='auto'></p>",,,,,,,,,,,,,,,,,,,,,,,
instruc_travel_try,13,110563,0.0-7.0-4.0,"""event"",""trial"",""time""
""fullscreenenter"",""1"",""7004""
","
","
","""event"",""trial"",""time""
""fullscreenenter"",""1"",""7004""
","
",,1698.1,"<p>Every time you dig up gems, there are less gems on the planet, so the more you dig on a planet the fewer gems you’ll get with each dig.</p><p>When gems are running low, you may want to travel to a new planet. </p> <p>  Planets are very far apart in this galaxy, so it will take some time to travel between them. </p> <br><p>There are lots and lots of planets for you to visit, so you won’t be able to return to any planets you’ve seen before. </p><br><p>To leave this planet and travel to a new one, press the letter <strong>‘L’</strong> on your keyboard. Try pressing it now! </p><p><img src='run_exp/static/images/task_images/rocket-01.jpg'  height='600' width='auto'></p>",76,"<p>Every time you dig up gems, there are less gems on the planet, so the more you dig on a planet the fewer gems you’ll get with each dig.</p><p>When gems are running low, you may want to travel to a new planet. </p> <p>  Planets are very far apart in this galaxy, so it will take some time to travel between them. </p> <br><p>There are lots and lots of planets for you to visit, so you won’t be able to return to any planets you’ve seen before. </p><br><p>To leave this planet and travel to a new one, press the letter <strong>‘L’</strong> on your keyboard. Try pressing it now! </p><p><img src='run_exp/static/images/task_images/rocket-01.jpg'  height='600' width='auto'></p>",,,,,,,,,,,,,,,,,,,,,,,
travel_prac,14,120569,0.0-7.0-5.0,"""event"",""trial"",""time""
""fullscreenenter"",""1"",""7004""
","
","
","""event"",""trial"",""time""
""fullscreenenter"",""1"",""7004""
","
",,,,,,,,,,,,"[{""stimulus"":""run_exp/static/images/task_images/rocket-01.jpg"",""time"":0.5},{""stimulus"":""run_exp/static/images/task_images/rocket-02.jpg"",""time"":1116.0999999642372},{""stimulus"":""run_exp/static/images/task_images/rocket-03.jpg"",""time"":2227.399999976158},{""stimulus"":""run_exp/static/images/task_images/rocket-04.jpg"",""time"":3335.099999964237},{""stimulus"":""run_exp/static/images/task_images/rocket-05.jpg"",""time"":4450.699999988079},{""stimulus"":""run_exp/static/images/task_images/rocket-06.jpg"",""time"":5558.399999976158},{""stimulus"":""run_exp/static/images/task_images/rocket-07.jpg"",""time"":6668.199999988079},{""stimulus"":""run_exp/static/images/task_images/rocket-08.jpg"",""time"":7782.899999976158},{""stimulus"":""run_exp/static/images/task_images/rocket-09.jpg"",""time"":8894.199999988079}]",[],0,,,,,,,,,,,,,,
instruc_alien_greet,15,147781,0.0-7.0-6.0,"""event"",""trial"",""time""
""fullscreenenter"",""1"",""7004""
","
","
","""event"",""trial"",""time""
""fullscreenenter"",""1"",""7004""
","
",,null,run_exp/static/audio/clip_6_alien.m4a,null,"<p>When you arrive at a new planet, the alien who owns the treasure mine on that planet will greet you!</p><p>The better an alien takes care of their mine the easier it is to dig for gems. Some aliens take better care of their mine than others. So, you won’t get exactly the same amount of gems on each planet.</p><p>What the alien looks like does not tell you anything about how many gems there are on the planet.</p><br><p><img src=""run_exp/static/images/task_images/aliens/instructions_aliens/planet/alien_planet-1.jpg""  height=""600"" width=""auto""></p>",,,,,,,,,,,,,,,,,,,,,,,
instruc_alien_greet,16,149277,0.0-7.0-7.0,"""event"",""trial"",""time""
""fullscreenenter"",""1"",""7004""
","
","
","""event"",""trial"",""time""
""fullscreenenter"",""1"",""7004""
","
",,1493,"<p>When you arrive at a new planet, the alien who owns the treasure mine on that planet will greet you!</p><p>The better an alien takes care of their mine the easier it is to dig for gems. Some aliens take better care of their mine than others. So, you won’t get exactly the same amount of gems on each planet.</p><p>What the alien looks like does not tell you anything about how many gems there are on the planet.</p><br><p><img src=""run_exp/static/images/task_images/aliens/instructions_aliens/planet/alien_planet-1.jpg""  height=""600"" width=""auto""></p>",,,,,,,1,,,,,,,,,,,,,,,,,,
html-keyboard-response,17,149671,0.0-7.0-8.0,"""event"",""trial"",""time""
""fullscreenenter"",""1"",""7004""
","
","
","""event"",""trial"",""time""
""fullscreenenter"",""1"",""7004""
","
",,391.7,"<p>When you arrive at a new planet, the alien who owns the treasure mine on that planet will greet you!</p><p>The better an alien takes care of their mine the easier it is to dig for gems. Some aliens take better care of their mine than others. So, you won’t get exactly the same amount of gems on each planet.</p><p>What the alien looks like does not tell you anything about how many gems there are on the planet.</p><br><p><img src=""run_exp/static/images/task_images/aliens/instructions_aliens/planet/alien_planet-1.jpg""  height=""600"" width=""auto""></p><button class=""jspsych-html-btn-unchosen""><img src=""run_exp/static/images/task_images/planet-01.jpg"" height=""50""></button><button class=""jspsych-html-btn-chosen""><img src=""run_exp/static/images/task_images/planet-02.jpg"" height=""50""></button><p><b>[press the space bar to lock in your answer]<b><br></p>",32,,,,,,,,,,,,,,,,,,,,,,,,
time_out,18,160808,0.0-8.0-0.0,"""event"",""trial"",""time""
""fullscreenenter"",""1"",""7004""
","
","
","""event"",""trial"",""time""
""fullscreenenter"",""1"",""7004""
","
",,null,run_exp/static/audio/clip_7_timeout.m4a,null,"<p>If you don't make your choice fast enough, you’ll have to wait a few seconds before you can make another one.</p><p>You can’t dig for more gems or travel to new planets. You just have to sit and wait.</p><br><p><img src='run_exp/static/images/task_images/time_out.jpg'  height='600' width='auto'></p>",,,,,,,,,,,,,,,,,,,,,,,
time_out,19,162560,0.0-8.0-1.0,"""event"",""trial"",""time""
""fullscreenenter"",""1"",""7004""
","
","
","""event"",""trial"",""time""
""fullscreenenter"",""1"",""7004""
","
",,1748.8,"<p>If you don't make your choice fast enough, you’ll have to wait a few seconds before you can make another one.</p><p>You can’t dig for more gems or travel to new planets. You just have to sit and wait.</p><br><p><img src='run_exp/static/images/task_images/time_out.jpg'  height='600' width='auto'></p>",,,,,,,1,,,,,,,,,,,,,,,,,,
html-keyboard-response,20,163163,0.0-8.0-2.0,"""event"",""trial"",""time""
""fullscreenenter"",""1"",""7004""
","
","
","""event"",""trial"",""time""
""fullscreenenter"",""1"",""7004""
","
",,599.9,"<p>If you don't make your choice fast enough, you’ll have to wait a few seconds before you can make another one.</p><p>You can’t dig for more gems or travel to new planets. You just have to sit and wait.</p><br><p><img src='run_exp/static/images/task_images/time_out.jpg'  height='600' width='auto'></p><button class=""jspsych-html-btn-unchosen""><img src=""run_exp/static/images/task_images/planet-01.jpg"" height=""50""></button><button class=""jspsych-html-btn-chosen""><img src=""run_exp/static/images/task_images/planet-02.jpg"" height=""50""></button><p><b>[press the space bar to lock in your answer]<b><br></p>",32,,,,,,,,,,,,,,,,,,,,,,,,
instruc_break,21,178873,0.0-9.0-0.0,"""event"",""trial"",""time""
""fullscreenenter"",""1"",""7004""
","
","
","""event"",""trial"",""time""
""fullscreenenter"",""1"",""7004""
","
",,null,run_exp/static/audio/clip_8_break.m4a,null,"<p> After digging and traveling for a while, you’ll be able to take a break at home base. </p><p>The game will last 20 minutes no matter what.</p><p>You will visit home base every 5 minutes, so, you will visit home base three times during the game.</p><br><p><img src='run_exp/static/images/task_images/home_base.jpg' height='600' width='auto'></p>",,,,,,,,,,,,,,,,,,,,,,,
instruc_break,22,184576,0.0-9.0-1.0,"""event"",""trial"",""time""
""fullscreenenter"",""1"",""7004""
","
","
","""event"",""trial"",""time""
""fullscreenenter"",""1"",""7004""
","
",,5702,"<p> After digging and traveling for a while, you’ll be able to take a break at home base. </p><p>The game will last 20 minutes no matter what.</p><p>You will visit home base every 5 minutes, so, you will visit home base three times during the game.</p><br><p><img src='run_exp/static/images/task_images/home_base.jpg' height='600' width='auto'></p>",,,,,,,1,,,,,,,,,,,,,,,,,,
html-keyboard-response,23,185335,0.0-9.0-2.0,"""event"",""trial"",""time""
""fullscreenenter"",""1"",""7004""
","
","
","""event"",""trial"",""time""
""fullscreenenter"",""1"",""7004""
","
",,756.8,"<p> After digging and traveling for a while, you’ll be able to take a break at home base. </p><p>The game will last 20 minutes no matter what.</p><p>You will visit home base every 5 minutes, so, you will visit home base three times during the game.</p><br><p><img src='run_exp/static/images/task_images/home_base.jpg' height='600' width='auto'></p><button class=""jspsych-html-btn-unchosen""><img src=""run_exp/static/images/task_images/planet-01.jpg"" height=""50""></button><button class=""jspsych-html-btn-chosen""><img src=""run_exp/static/images/task_images/planet-02.jpg"" height=""50""></button><p><b>[press the space bar to lock in your answer]<b><br></p>",32,,,,,,,,,,,,,,,,,,,,,,,,
instruc_prac_game,24,195474,0.0-10.0-0.0,"""event"",""trial"",""time""
""fullscreenenter"",""1"",""7004""
","
","
","""event"",""trial"",""time""
""fullscreenenter"",""1"",""7004""
","
",,null,run_exp/static/audio/clip_9_practice.m4a,null,"<p> Are you ready to play a practice game? </p> <p>In this practice game, you'll be digging up barrels of gems. But, in the real game, you'll be digging up the gems themselves. </p>",,,,,,,,,,,,,,,,,,,,,,,
html-button-response,25,197109,0.0-10.0-1.0,"""event"",""trial"",""time""
""fullscreenenter"",""1"",""7004""
","
","
","""event"",""trial"",""time""
""fullscreenenter"",""1"",""7004""
","
",,1633.6,"<p> Are you ready to play a practice game? </p> <p>In this practice game, you'll be digging up barrels of gems. But, in the real game, you'll be digging up the gems themselves. </p>",,,,,,,0,,,,,,,,,,,,,,,,,,
alien_welcome_prac,26,202114,0.0-11.0-0.0,"""event"",""trial"",""time""
""fullscreenenter"",""1"",""7004""
","
","
","""event"",""trial"",""time""
""fullscreenenter"",""1"",""7004""
","
",,null,run_exp/static/images/task_images/aliens/practice_aliens/planet/alien_planet-5.jpg,null,,,,,,,,,,,,,,,,,,,,,,,,
land_prac,27,202616,0.0-11.0-1.0,"""event"",""trial"",""time""
""fullscreenenter"",""1"",""7004""
","
","
","""event"",""trial"",""time""
""fullscreenenter"",""1"",""7004""
","
",,null,run_exp/static/images/task_images/land.jpg,null,,,,,,,100,,,0,,,,,,,,,,,,,,
dig_prac,28,204625,0.0-11.0-2.0,"""event"",""trial"",""time""
""fullscreenenter"",""1"",""7004""
","
","
","""event"",""trial"",""time""
""fullscreenenter"",""1"",""7004""
","
",,,,,,,,,,,,"[{""stimulus"":""run_exp/static/images/task_images/dig.jpg"",""time"":0.40000003576278687},{""stimulus"":""run_exp/static/images/task_images/land.jpg"",""time"":672.1000000238419},{""stimulus"":""run_exp/static/images/task_images/dig.jpg"",""time"":1336.1000000238419}]",[],,,,,,,,,,,,,,,
harvest_prac,29,205628,0.0-11.0-3.0,"""event"",""trial"",""time""
""fullscreenenter"",""1"",""7004""
","
","
","""event"",""trial"",""time""
""fullscreenenter"",""1"",""7004""
","
",,null,run_exp/static/images/task_images/barrel_text.jpg,null,,,,,,,,,,,,,,,,,,,,,,,,
decision_prac,30,207056,0.0-11.0-4.0,"""event"",""trial"",""time""
""fullscreenenter"",""1"",""7004""
","
","
","""event"",""trial"",""time""
""fullscreenenter"",""1"",""7004""
","
",,1426.7,run_exp/static/images/task_images/land.jpg,65,,,,,,,,,,,1,,,,,,,,,,,,,
dig_prac,31,209065,0.0-12.0-0.0,"""event"",""trial"",""time""
""fullscreenenter"",""1"",""7004""
","
","
","""event"",""trial"",""time""
""fullscreenenter"",""1"",""7004""
","
",,,,,,,,,,,,"[{""stimulus"":""run_exp/static/images/task_images/dig.jpg"",""time"":0.19999998807907104},{""stimulus"":""run_exp/static/images/task_images/land.jpg"",""time"":670.5},{""stimulus"":""run_exp/static/images/task_images/dig.jpg"",""time"":1336}]",[],,,,,,,,,,,,,,,
harvest_prac,32,210068,0.0-12.0-1.0,"""event"",""trial"",""time""
""fullscreenenter"",""1"",""7004""
","
","
","""event"",""trial"",""time""
""fullscreenenter"",""1"",""7004""
","
",,null,run_exp/static/images/task_images/barrel_text.jpg,null,,,,,,,,,,,,,,,,,,,,,,,,
decision_prac,33,210583,0.0-12.0-2.0,"""event"",""trial"",""time""
""fullscreenenter"",""1"",""7004""
","
","
","""event"",""trial"",""time""
""fullscreenenter"",""1"",""7004""
","
",,512.3,run_exp/static/images/task_images/land.jpg,65,,,,,,,,,,,2,,,,,,,,,,,,,
dig_prac,34,212589,0.0-13.0-0.0,"""event"",""trial"",""time""
""fullscreenenter"",""1"",""7004""
","
","
","""event"",""trial"",""time""
""fullscreenenter"",""1"",""7004""
","
",,,,,,,,,,,,"[{""stimulus"":""run_exp/static/images/task_images/dig.jpg"",""time"":0.3999999761581421},{""stimulus"":""run_exp/static/images/task_images/land.jpg"",""time"":672.5999999642372},{""stimulus"":""run_exp/static/images/task_images/dig.jpg"",""time"":1335.699999988079}]",[],,,,,,,,,,,,,,,
harvest_prac,35,213593,0.0-13.0-1.0,"""event"",""trial"",""time""
""fullscreenenter"",""1"",""7004""
","
","
","""event"",""trial"",""time""
""fullscreenenter"",""1"",""7004""
","
",,null,run_exp/static/images/task_images/barrel_text.jpg,null,,,,,,,,,,,,,,,,,,,,,,,,
decision_prac,36,213931,0.0-13.0-2.0,"""event"",""trial"",""time""
""fullscreenenter"",""1"",""7004""
","
","
","""event"",""trial"",""time""
""fullscreenenter"",""1"",""7004""
","
",,335.9,run_exp/static/images/task_images/land.jpg,65,,,,,,,,,,,3,,,,,,,,,,,,,
dig_prac,37,215938,0.0-14.0-0.0,"""event"",""trial"",""time""
""fullscreenenter"",""1"",""7004""
","
","
","""event"",""trial"",""time""
""fullscreenenter"",""1"",""7004""
","
",,,,,,,,,,,,"[{""stimulus"":""run_exp/static/images/task_images/dig.jpg"",""time"":0.30000001192092896},{""stimulus"":""run_exp/static/images/task_images/land.jpg"",""time"":671},{""stimulus"":""run_exp/static/images/task_images/dig.jpg"",""time"":1335.8999999761581}]",[],,,,,,,,,,,,,,,
harvest_prac,38,216942,0.0-14.0-1.0,"""event"",""trial"",""time""
""fullscreenenter"",""1"",""7004""
","
","
","""event"",""trial"",""time""
""fullscreenenter"",""1"",""7004""
","
",,null,run_exp/static/images/task_images/barrel_text.jpg,null,,,,,,,,,,,,,,,,,,,,,,,,
decision_prac,39,218657,0.0-14.0-2.0,"""event"",""trial"",""time""
""fullscreenenter"",""1"",""7004""
","
","
","""event"",""trial"",""time""
""fullscreenenter"",""1"",""7004""
","
",,1712.9,run_exp/static/images/task_images/land.jpg,76,,,,,,,,,,,4,,,,,,,,,,,,,
travel,40,226948,0.0-15.0-0.0,"""event"",""trial"",""time""
""fullscreenenter"",""1"",""7004""
","
","
","""event"",""trial"",""time""
""fullscreenenter"",""1"",""7004""
","
",,,,,,,,,,,,"[{""stimulus"":""run_exp/static/images/task_images/rocket-01.jpg"",""time"":0.30000001192092896},{""stimulus"":""run_exp/static/images/task_images/rocket-02.jpg"",""time"":926.0999999642372},{""stimulus"":""run_exp/static/images/task_images/rocket-03.jpg"",""time"":1842.199999988079},{""stimulus"":""run_exp/static/images/task_images/rocket-04.jpg"",""time"":2764.5},{""stimulus"":""run_exp/static/images/task_images/rocket-05.jpg"",""time"":3684.800000011921},{""stimulus"":""run_exp/static/images/task_images/rocket-06.jpg"",""time"":4606.199999988079},{""stimulus"":""run_exp/static/images/task_images/rocket-07.jpg"",""time"":5523.199999988079},{""stimulus"":""run_exp/static/images/task_images/rocket-08.jpg"",""time"":6446.399999976158},{""stimulus"":""run_exp/static/images/task_images/rocket-09.jpg"",""time"":7365.399999976158}]",[],0,,,,,,,,,,,,,,
alien_welcome_prac,41,231955,0.0-15.0-1.0,"""event"",""trial"",""time""
""fullscreenenter"",""1"",""7004""
","
","
","""event"",""trial"",""time""
""fullscreenenter"",""1"",""7004""
","
",,null,run_exp/static/images/task_images/aliens/practice_aliens/planet/alien_planet-4.jpg,null,,,,,,,,,,,,,,,,,,,,,,,,
land_prac,42,232460,0.0-15.0-2.0,"""event"",""trial"",""time""
""fullscreenenter"",""1"",""7004""
","
","
","""event"",""trial"",""time""
""fullscreenenter"",""1"",""7004""
","
",,null,run_exp/static/images/task_images/land.jpg,null,,,,,,,101,,,0,,,,,,,,,,,,,,
dig_prac,43,234468,0.0-15.0-3.0,"""event"",""trial"",""time""
""fullscreenenter"",""1"",""7004""
","
","
","""event"",""trial"",""time""
""fullscreenenter"",""1"",""7004""
","
",,,,,,,,,,,,"[{""stimulus"":""run_exp/static/images/task_images/dig.jpg"",""time"":0.30000001192092896},{""stimulus"":""run_exp/static/images/task_images/land.jpg"",""time"":670.6000000238419},{""stimulus"":""run_exp/static/images/task_images/dig.jpg"",""time"":1338.6000000238419}]",[],,,,,,,,,,,,,,,
harvest_prac,44,235471,0.0-15.0-4.0,"""event"",""trial"",""time""
""fullscreenenter"",""1"",""7004""
","
","
","""event"",""trial"",""time""
""fullscreenenter"",""1"",""7004""
","
",,null,run_exp/static/images/task_images/barrel_text.jpg,null,,,,,,,,,,,,,,,,,,,,,,,,
decision_prac,45,236236,0.0-15.0-5.0,"""event"",""trial"",""time""
""fullscreenenter"",""1"",""7004""
","
","
","""event"",""trial"",""time""
""fullscreenenter"",""1"",""7004""
","
",,763,run_exp/static/images/task_images/land.jpg,65,,,,,,,,,,,,1,,,,,,,,,,,,
quiz_instruc,46,247912,0.0-16.0-0.0,"""event"",""trial"",""time""
""fullscreenenter"",""1"",""7004""
","
","
","""event"",""trial"",""time""
""fullscreenenter"",""1"",""7004""
","
",,11671.9,run_exp/static/audio/clip_10_quiz.m4a,,,,,,,0,,,,,,,,,,,,,,,,,,
instruc_repeat,47,290701,0.0-16.0-1.0,"""event"",""trial"",""time""
""fullscreenenter"",""1"",""7004""
","
","
","""event"",""trial"",""time""
""fullscreenenter"",""1"",""7004""
","
",,null,"<p> Are you ready to play a practice game? </p> <p>In this practice game, you'll be digging up barrels of gems. But, in the real game, you'll be digging up the gems themselves. </p>",null,"<p>In this game, your goal is to collect as many gems as you can. That’s how you will win bonus money. </p> <p>The entire game will last 20 minutes no matter how many gems you collect or how many planets you visit. </p><p>To stay on a planet and dig again, press the letter A on your keyboard. To leave for a new planet, press the letter L.</p><p>The more you dig on a planet, the fewer gems you’ll get with each dig which is why you might consider leaving for a new planet. </p><p>When you arrive at a new planet, you’ll be greeted by an alien. What the alien looks like does not tell you anything about how much treasure is on the planet. </p>",,,,,,,,,,,,,,,,,,,,,,,
instruc_repeat_continue,48,291593,0.0-16.0-2.0,"""event"",""trial"",""time""
""fullscreenenter"",""1"",""7004""
","
","
","""event"",""trial"",""time""
""fullscreenenter"",""1"",""7004""
","
",,887.4,"<p> Are you ready to play a practice game? </p> <p>In this practice game, you'll be digging up barrels of gems. But, in the real game, you'll be digging up the gems themselves. </p>",,,,,,,0,,,,,,,,,,,,,,,,,,
quiz_q_1_ask,49,294227,0.0-16.0-3.0,"""event"",""trial"",""time""
""fullscreenenter"",""1"",""7004""
","
","
","""event"",""trial"",""time""
""fullscreenenter"",""1"",""7004""
","
",,2632.5,run_exp/static/audio/clip_11_q1_ask.m4a,,,,,,,2,,,,,,,,,,,,,,,,,,
quiz_q_1_fb_correct,50,298084,0.0-17.0-0.0,"""event"",""trial"",""time""
""fullscreenenter"",""1"",""7004""
","
","
","""event"",""trial"",""time""
""fullscreenenter"",""1"",""7004""
","
",,null,run_exp/static/audio/clip_12_q1_correct.m4a,null,<p>That’s correct. You win extra money by collecting more gems.</p>,,,,,,,,,,,,,,,,,,,,,,,
quiz_q_2_ask,51,301662,0.0-17.0-1.0,"""event"",""trial"",""time""
""fullscreenenter"",""1"",""7004""
","
","
","""event"",""trial"",""time""
""fullscreenenter"",""1"",""7004""
","
",,3575.1,run_exp/static/audio/clip_14_q2_ask.m4a,,,,,,,1,,,,,,,,,,,,,,,,,,
quiz_q_2_fb_correct,52,305654,0.0-18.0-0.0,"""event"",""trial"",""time""
""fullscreenenter"",""1"",""7004""
","
","
","""event"",""trial"",""time""
""fullscreenenter"",""1"",""7004""
","
",,null,run_exp/static/audio/clip_15_q2_correct.m4a,null,<p>That’s correct. The experiment is 20 minutes no matter what.</p>,,,,,,,,,,,,,,,,,,,,,,,
quiz_q_3_ask,53,307760,0.0-18.0-1.0,"""event"",""trial"",""time""
""fullscreenenter"",""1"",""7004""
","
","
","""event"",""trial"",""time""
""fullscreenenter"",""1"",""7004""
","
",,2104,run_exp/static/audio/clip_17_q3_ask.m4a,,,,,,,1,,,,,,,,,,,,,,,,,,
quiz_q_3_fb_correct,54,311737,0.0-19.0-0.0,"""event"",""trial"",""time""
""fullscreenenter"",""1"",""7004""
","
","
","""event"",""trial"",""time""
""fullscreenenter"",""1"",""7004""
","
",,null,run_exp/static/audio/clip_18_q3_correct.m4a,null,<p> That’s correct. You press the letter L to travel to a new planet.</p>,,,,,,,,,,,,,,,,,,,,,,,
quiz_q_4_ask,55,316546,0.0-19.0-1.0,"""event"",""trial"",""time""
""fullscreenenter"",""1"",""7004""
","
","
","""event"",""trial"",""time""
""fullscreenenter"",""1"",""7004""
","
",,4806.5,run_exp/static/audio/clip_20_q4_ask.m4a,,,,,,,0,,,,,,,,,,,,,,,,,,
quiz_q_4_fb_correct,56,321861,0.0-20.0-0.0,"""event"",""trial"",""time""
""fullscreenenter"",""1"",""7004""
","
","
","""event"",""trial"",""time""
""fullscreenenter"",""1"",""7004""
","
",,null,run_exp/static/audio/clip_21_q4_correct.m4a,null,<p> That’s correct. The more you dig on a planet the fewer gems you’ll get with each dig. </p>,,,,,,,,,,,,,,,,,,,,,,,
quiz_q_5_ask,57,323844,0.0-20.0-1.0,"""event"",""trial"",""time""
""fullscreenenter"",""1"",""7004""
","
","
","""event"",""trial"",""time""
""fullscreenenter"",""1"",""7004""
","
",,1980.6,run_exp/static/audio/clip_23_q5_ask.m4a,,,,,,,1,,,,,,,,,,,,,,,,,,
quiz_q_5_fb_correct,58,328850,0.0-21.0-0.0,"""event"",""trial"",""time""
""fullscreenenter"",""1"",""7004""
","
","
","""event"",""trial"",""time""
""fullscreenenter"",""1"",""7004""
","
",,null,run_exp/static/audio/clip_24_q5_correct.m4a,null,<p> That’s correct. The alien tells you nothing about how much treasure is on the planet.</p>,,,,,,,,,,,,,,,,,,,,,,,
quiz_correct,59,332310,0.0-22.0-0.0,"""event"",""trial"",""time""
""fullscreenenter"",""1"",""7004""
","
","
","""event"",""trial"",""time""
""fullscreenenter"",""1"",""7004""
","
",,null,run_exp/static/audio/clip_26_correct_quiz.m4a,null,,,,,,,,,,,,,,,,,,,,,,,,
quiz_correct_continue,60,333294,0.0-22.0-1.0,"""event"",""trial"",""time""
""fullscreenenter"",""1"",""7004""
","
","
","""event"",""trial"",""time""
""fullscreenenter"",""1"",""7004""
","
",,982.6,<p>Good job! You're now ready to move on to the real game!</p>,,,,,,,0,,,,,,,,,,,,,,,,,,
audio-keyboard-response,61,343410,0.0-22.0-2.0,"""event"",""trial"",""time""
""fullscreenenter"",""1"",""7004""
","
","
","""event"",""trial"",""time""
""fullscreenenter"",""1"",""7004""
","
",,null,run_exp/static/audio/clip_28_real_game.m4a,null,,,,,,,,,,,,,,,,,,,,,,,,
instruc_begin_exp_contine,62,344677,0.0-22.0-3.0,"""event"",""trial"",""time""
""fullscreenenter"",""1"",""7004""
","
","
","""event"",""trial"",""time""
""fullscreenenter"",""1"",""7004""
","
",,1265.7,"<p>Now that you know how  to dig for space treasure and travel to new planets,you can start exploring! </p><p>Do you want to go over the instructions again or get started with the real game?</p>",,,,,,,1,,,,,,1,,,,,,,,,,,,
alien_welcome,63,349687,0.0-23.0-0.0,"""event"",""trial"",""time""
""fullscreenenter"",""1"",""7004""
","
","
","""event"",""trial"",""time""
""fullscreenenter"",""1"",""7004""
","
",,null,run_exp/static/images/task_images/aliens/old_aliens/planet/alien_planet-46.jpg,null,,,,,,,,,,,,,46,"46,18,55,27,71,13,65,4,72,14,6,8,53,24,41,61,66,22,70,64,58,2,49,3,5,59,69,44,7,43,78,79,52,21,76,57,45,12,37,28,74,26,56",,,,,,,,,,
land,64,350191,0.0-23.0-1.0,"""event"",""trial"",""time""
""fullscreenenter"",""1"",""7004""
","
","
","""event"",""trial"",""time""
""fullscreenenter"",""1"",""7004""
","
",,null,run_exp/static/images/task_images/land.jpg,null,,,,,,,97,,,1,,,,,,,,,,,,,,
dig,65,352200,0.0-23.0-2.0,"""event"",""trial"",""time""
""fullscreenenter"",""1"",""7004""
","
","
","""event"",""trial"",""time""
""fullscreenenter"",""1"",""7004""
","
",,,,,,,,,,,,"[{""stimulus"":""run_exp/static/images/task_images/dig.jpg"",""time"":0.5},{""stimulus"":""run_exp/static/images/task_images/land.jpg"",""time"":673.6999999880791},{""stimulus"":""run_exp/static/images/task_images/dig.jpg"",""time"":1336.3999999761581}]",[],1,,,,,,,,,,,,,,
harvest,66,353205,0.0-23.0-3.0,"""event"",""trial"",""time""
""fullscreenenter"",""1"",""7004""
","
","
","""event"",""trial"",""time""
""fullscreenenter"",""1"",""7004""
","
",,null,run_exp/static/images/task_images/gems/97.jpg,null,,,,,,,22,,,1,,,,,97,0.226028399,0.226804124,,,,,,,
decision,67,353644,0.0-23.0-4.0,"""event"",""trial"",""time""
""fullscreenenter"",""1"",""7004""
","
","
","""event"",""trial"",""time""
""fullscreenenter"",""1"",""7004""
","
",,435.9,run_exp/static/images/task_images/land.jpg,65,,,,,,,22,,,1,,,,,,,,8966,1,0,FALSE,,,
dig,68,356212,0.0-24.0-0.0,"""event"",""trial"",""time""
""fullscreenenter"",""1"",""7004""
","
","
","""event"",""trial"",""time""
""fullscreenenter"",""1"",""7004""
","
",,,,,,,,,,,,"[{""stimulus"":""run_exp/static/images/task_images/dig.jpg"",""time"":0.30000001192092896},{""stimulus"":""run_exp/static/images/task_images/land.jpg"",""time"":857.7000000476837},{""stimulus"":""run_exp/static/images/task_images/dig.jpg"",""time"":1711}]",[],1,,,,,,,,,,,,,,
harvest,69,357216,0.0-24.0-1.0,"""event"",""trial"",""time""
""fullscreenenter"",""1"",""7004""
","
","
","""event"",""trial"",""time""
""fullscreenenter"",""1"",""7004""
","
",,null,run_exp/static/images/task_images/gems/22.jpg,null,,,,,,,3,,,1,,,,,22,0.156552754,0.136363636,,,,,,,
decision,70,357553,0.0-24.0-2.0,"""event"",""trial"",""time""
""fullscreenenter"",""1"",""7004""
","
","
","""event"",""trial"",""time""
""fullscreenenter"",""1"",""7004""
","
",,335.5,run_exp/static/images/task_images/land.jpg,65,,,,,,,3,,,1,,,,,,,,12874,1,1,FALSE,,,
dig,71,360222,0.0-25.0-0.0,"""event"",""trial"",""time""
""fullscreenenter"",""1"",""7004""
","
","
","""event"",""trial"",""time""
""fullscreenenter"",""1"",""7004""
","
",,,,,,,,,,,,"[{""stimulus"":""run_exp/static/images/task_images/dig.jpg"",""time"":0.19999998807907104},{""stimulus"":""run_exp/static/images/task_images/land.jpg"",""time"":889.8999999761581},{""stimulus"":""run_exp/static/images/task_images/dig.jpg"",""time"":1778.5}]",[],1,,,,,,,,,,,,,,
harvest,72,361227,0.0-25.0-1.0,"""event"",""trial"",""time""
""fullscreenenter"",""1"",""7004""
","
","
","""event"",""trial"",""time""
""fullscreenenter"",""1"",""7004""
","
",,null,run_exp/static/images/task_images/gems/3.jpg,null,,,,,,,1,,,1,,,,,3,0.198756976,0.333333333,,,,,,,
decision,73,361389,0.0-25.0-2.0,"""event"",""trial"",""time""
""fullscreenenter"",""1"",""7004""
","
","
","""event"",""trial"",""time""
""fullscreenenter"",""1"",""7004""
","
",,160.4,run_exp/static/images/task_images/land.jpg,65,,,,,,,1,,,1,,,,,,,,16710,1,2,FALSE,,,
dig,74,364234,0.0-26.0-0.0,"""event"",""trial"",""time""
""fullscreenenter"",""1"",""7004""
","
","
","""event"",""trial"",""time""
""fullscreenenter"",""1"",""7004""
","
",,,,,,,,,,,,"[{""stimulus"":""run_exp/static/images/task_images/dig.jpg"",""time"":0.19999998807907104},{""stimulus"":""run_exp/static/images/task_images/land.jpg"",""time"":948.0999999642372},{""stimulus"":""run_exp/static/images/task_images/dig.jpg"",""time"":1898.300000011921}]",[],1,,,,,,,,,,,,,,
harvest,75,365238,0.0-26.0-1.0,"""event"",""trial"",""time""
""fullscreenenter"",""1"",""7004""
","
","
","""event"",""trial"",""time""
""fullscreenenter"",""1"",""7004""
","
",,null,run_exp/static/images/task_images/gems/1.jpg,null,,,,,,,0,,,1,,,,,1,0.180328518,0,,,,,,,
decision,76,365429,0.0-26.0-2.0,"""event"",""trial"",""time""
""fullscreenenter"",""1"",""7004""
","
","
","""event"",""trial"",""time""
""fullscreenenter"",""1"",""7004""
","
",,188.8,run_exp/static/images/task_images/land.jpg,76,,,,,,,0,,,1,,,,,,,,20750,1,3,TRUE,,,
travel,77,375245,0.0-27.0-0.0,"""event"",""trial"",""time""
""fullscreenenter"",""1"",""7004""
","
","
","""event"",""trial"",""time""
""fullscreenenter"",""1"",""7004""
","
",,,,,,,,,,,,"[{""stimulus"":""run_exp/static/images/task_images/rocket-01.jpg"",""time"":0.19999998807907104},{""stimulus"":""run_exp/static/images/task_images/rocket-02.jpg"",""time"":1094},{""stimulus"":""run_exp/static/images/task_images/rocket-03.jpg"",""time"":2185.399999976158},{""stimulus"":""run_exp/static/images/task_images/rocket-04.jpg"",""time"":3275.899999976158},{""stimulus"":""run_exp/static/images/task_images/rocket-05.jpg"",""time"":4362.099999964237},{""stimulus"":""run_exp/static/images/task_images/rocket-06.jpg"",""time"":5453.5},{""stimulus"":""run_exp/static/images/task_images/rocket-07.jpg"",""time"":6544.800000011921},{""stimulus"":""run_exp/static/images/task_images/rocket-08.jpg"",""time"":7635.899999976158},{""stimulus"":""run_exp/static/images/task_images/rocket-09.jpg"",""time"":8723.099999964237}]",[],1,,,,,,,,,,,,,,
alien_welcome,78,380251,0.0-27.0-1.0,"""event"",""trial"",""time""
""fullscreenenter"",""1"",""7004""
","
","
","""event"",""trial"",""time""
""fullscreenenter"",""1"",""7004""
","
",,null,run_exp/static/images/task_images/aliens/old_aliens/planet/alien_planet-18.jpg,null,,,,,,,,,,,,,18,"46,18,55,27,71,13,65,4,72,14,6,8,53,24,41,61,66,22,70,64,58,2,49,3,5,59,69,44,7,43,78,79,52,21,76,57,45,12,37,28,74,26,56",,,,,,,,,,
land,79,380754,0.0-27.0-2.0,"""event"",""trial"",""time""
""fullscreenenter"",""1"",""7004""
","
","
","""event"",""trial"",""time""
""fullscreenenter"",""1"",""7004""
","
",,null,run_exp/static/images/task_images/land.jpg,null,,,,,,,96,,,2,,,,,,,,,,,,,,
dig,80,382763,0.0-27.0-3.0,"""event"",""trial"",""time""
""fullscreenenter"",""1"",""7004""
","
","
","""event"",""trial"",""time""
""fullscreenenter"",""1"",""7004""
","
",,,,,,,,,,,,"[{""stimulus"":""run_exp/static/images/task_images/dig.jpg"",""time"":0.5},{""stimulus"":""run_exp/static/images/task_images/land.jpg"",""time"":670.3999999761581},{""stimulus"":""run_exp/static/images/task_images/dig.jpg"",""time"":1335.8999999761581}]",[],2,,,,,,,,,,,,,,
harvest,81,383767,0.0-27.0-4.0,"""event"",""trial"",""time""
""fullscreenenter"",""1"",""7004""
","
","
","""event"",""trial"",""time""
""fullscreenenter"",""1"",""7004""
","
",,null,run_exp/static/images/task_images/gems/96.jpg,null,,,,,,,16,,,2,,,,,96,0.169537218,0.166666667,,,,,,,
decision,82,384596,0.0-27.0-5.0,"""event"",""trial"",""time""
""fullscreenenter"",""1"",""7004""
","
","
","""event"",""trial"",""time""
""fullscreenenter"",""1"",""7004""
","
",,827.7,run_exp/static/images/task_images/land.jpg,65,,,,,,,16,,,2,,,,,,,,39917,1,0,FALSE,,,
dig,83,386774,0.0-28.0-0.0,"""event"",""trial"",""time""
""fullscreenenter"",""1"",""7004""
","
","
","""event"",""trial"",""time""
""fullscreenenter"",""1"",""7004""
","
",,,,,,,,,,,,"[{""stimulus"":""run_exp/static/images/task_images/dig.jpg"",""time"":0.09999996423721313},{""stimulus"":""run_exp/static/images/task_images/land.jpg"",""time"":730.0999999642372},{""stimulus"":""run_exp/static/images/task_images/dig.jpg"",""time"":1453}]",[],2,,,,,,,,,,,,,,
harvest,84,387778,0.0-28.0-1.0,"""event"",""trial"",""time""
""fullscreenenter"",""1"",""7004""
","
","
","""event"",""trial"",""time""
""fullscreenenter"",""1"",""7004""
","
",,null,run_exp/static/images/task_images/gems/16.jpg,null,,,,,,,4,,,2,,,,,16,0.273558261,0.25,,,,,,,
decision,85,388260,0.0-28.0-2.0,"""event"",""trial"",""time""
""fullscreenenter"",""1"",""7004""
","
","
","""event"",""trial"",""time""
""fullscreenenter"",""1"",""7004""
","
",,480.9,run_exp/static/images/task_images/land.jpg,65,,,,,,,4,,,2,,,,,,,,43581,1,1,FALSE,,,
dig,86,390785,0.0-29.0-0.0,"""event"",""trial"",""time""
""fullscreenenter"",""1"",""7004""
","
","
","""event"",""trial"",""time""
""fullscreenenter"",""1"",""7004""
","
",,,,,,,,,,,,"[{""stimulus"":""run_exp/static/images/task_images/dig.jpg"",""time"":0.19999998807907104},{""stimulus"":""run_exp/static/images/task_images/land.jpg"",""time"":844.9000000357628},{""stimulus"":""run_exp/static/images/task_images/dig.jpg"",""time"":1681}]",[],2,,,,,,,,,,,,,,
harvest,87,391789,0.0-29.0-1.0,"""event"",""trial"",""time""
""fullscreenenter"",""1"",""7004""
","
","
","""event"",""trial"",""time""
""fullscreenenter"",""1"",""7004""
","
",,null,run_exp/static/images/task_images/gems/4.jpg,null,,,,,,,1,,,2,,,,,4,0.14972141,0.25,,,,,,,
decision,88,392935,0.0-29.0-2.0,"""event"",""trial"",""time""
""fullscreenenter"",""1"",""7004""
","
","
","""event"",""trial"",""time""
""fullscreenenter"",""1"",""7004""
","
",,1143.1,run_exp/static/images/task_images/land.jpg,76,,,,,,,1,,,2,,,,,,,,48256,1,2,TRUE,,,
travel,89,401797,0.0-30.0-0.0,"""event"",""trial"",""time""
""fullscreenenter"",""1"",""7004""
","
","
","""event"",""trial"",""time""
""fullscreenenter"",""1"",""7004""
","
",,,,,,,,,,,,"[{""stimulus"":""run_exp/static/images/task_images/rocket-01.jpg"",""time"":0.19999998807907104},{""stimulus"":""run_exp/static/images/task_images/rocket-02.jpg"",""time"":987},{""stimulus"":""run_exp/static/images/task_images/rocket-03.jpg"",""time"":1973.9000000357628},{""stimulus"":""run_exp/static/images/task_images/rocket-04.jpg"",""time"":2955.600000023842},{""stimulus"":""run_exp/static/images/task_images/rocket-05.jpg"",""time"":3942.100000023842},{""stimulus"":""run_exp/static/images/task_images/rocket-06.jpg"",""time"":4922.600000023842},{""stimulus"":""run_exp/static/images/task_images/rocket-07.jpg"",""time"":5909.699999988079},{""stimulus"":""run_exp/static/images/task_images/rocket-08.jpg"",""time"":6890.800000011921},{""stimulus"":""run_exp/static/images/task_images/rocket-09.jpg"",""time"":7877}]",[],2,,,,,,,,,,,,,,
alien_welcome,90,406801,0.0-30.0-1.0,"""event"",""trial"",""time""
""fullscreenenter"",""1"",""7004""
","
","
","""event"",""trial"",""time""
""fullscreenenter"",""1"",""7004""
","
",,null,run_exp/static/images/task_images/aliens/old_aliens/planet/alien_planet-55.jpg,null,,,,,,,,,,,,,55,"46,18,55,27,71,13,65,4,72,14,6,8,53,24,41,61,66,22,70,64,58,2,49,3,5,59,69,44,7,43,78,79,52,21,76,57,45,12,37,28,74,26,56",,,,,,,,,,
land,91,407306,0.0-30.0-2.0,"""event"",""trial"",""time""
""fullscreenenter"",""1"",""7004""
","
","
","""event"",""trial"",""time""
""fullscreenenter"",""1"",""7004""
","
",,null,run_exp/static/images/task_images/land.jpg,null,,,,,,,101,,,3,,,,,,,,,,,,,,
dig,92,409314,0.0-30.0-3.0,"""event"",""trial"",""time""
""fullscreenenter"",""1"",""7004""
","
","
","""event"",""trial"",""time""
""fullscreenenter"",""1"",""7004""
","
",,,,,,,,,,,,"[{""stimulus"":""run_exp/static/images/task_images/dig.jpg"",""time"":0.5},{""stimulus"":""run_exp/static/images/task_images/land.jpg"",""time"":671.1000000238419},{""stimulus"":""run_exp/static/images/task_images/dig.jpg"",""time"":1336.6000000238419}]",[],3,,,,,,,,,,,,,,
harvest,93,410318,0.0-30.0-4.0,"""event"",""trial"",""time""
""fullscreenenter"",""1"",""7004""
","
","
","""event"",""trial"",""time""
""fullscreenenter"",""1"",""7004""
","
",,null,run_exp/static/images/task_images/gems/101.jpg,null,,,,,,,53,,,3,,,,,101,0.528052761,0.524752475,,,,,,,
decision,94,411319,0.0-30.0-5.0,"""event"",""trial"",""time""
""fullscreenenter"",""1"",""7004""
","
","
","""event"",""trial"",""time""
""fullscreenenter"",""1"",""7004""
","
",,998.4,run_exp/static/images/task_images/land.jpg,65,,,,,,,53,,,3,,,,,,,,66640,1,0,FALSE,,,
dig,95,413329,0.0-31.0-0.0,"""event"",""trial"",""time""
""fullscreenenter"",""1"",""7004""
","
","
","""event"",""trial"",""time""
""fullscreenenter"",""1"",""7004""
","
",,,,,,,,,,,,"[{""stimulus"":""run_exp/static/images/task_images/dig.jpg"",""time"":0.19999998807907104},{""stimulus"":""run_exp/static/images/task_images/land.jpg"",""time"":673.2999999523163},{""stimulus"":""run_exp/static/images/task_images/dig.jpg"",""time"":1337}]",[],3,,,,,,,,,,,,,,
harvest,96,414335,0.0-31.0-1.0,"""event"",""trial"",""time""
""fullscreenenter"",""1"",""7004""
","
","
","""event"",""trial"",""time""
""fullscreenenter"",""1"",""7004""
","
",,null,run_exp/static/images/task_images/gems/53.jpg,null,,,,,,,29,,,3,,,,,53,0.538151302,0.547169811,,,,,,,
decision,97,414553,0.0-31.0-2.0,"""event"",""trial"",""time""
""fullscreenenter"",""1"",""7004""
","
","
","""event"",""trial"",""time""
""fullscreenenter"",""1"",""7004""
","
",,215.3,run_exp/static/images/task_images/land.jpg,65,,,,,,,29,,,3,,,,,,,,69874,1,1,FALSE,,,
dig,98,417342,0.0-32.0-0.0,"""event"",""trial"",""time""
""fullscreenenter"",""1"",""7004""
","
","
","""event"",""trial"",""time""
""fullscreenenter"",""1"",""7004""
","
",,,,,,,,,,,,"[{""stimulus"":""run_exp/static/images/task_images/dig.jpg"",""time"":0.19999998807907104},{""stimulus"":""run_exp/static/images/task_images/land.jpg"",""time"":933.5},{""stimulus"":""run_exp/static/images/task_images/dig.jpg"",""time"":1862.3999999761581}]",[],3,,,,,,,,,,,,,,
harvest,99,418344,0.0-32.0-1.0,"""event"",""trial"",""time""
""fullscreenenter"",""1"",""7004""
","
","
","""event"",""trial"",""time""
""fullscreenenter"",""1"",""7004""
","
",,null,run_exp/static/images/task_images/gems/29.jpg,null,,,,,,,13,,,3,,,,,29,0.459015798,0.448275862,,,,,,,
decision,100,418664,0.0-32.0-2.0,"""event"",""trial"",""time""
""fullscreenenter"",""1"",""7004""
","
","
","""event"",""trial"",""time""
""fullscreenenter"",""1"",""7004""
","
",,317,run_exp/static/images/task_images/land.jpg,65,,,,,,,13,,,3,,,,,,,,73985,1,2,FALSE,,,
dig,101,421352,0.0-33.0-0.0,"""event"",""trial"",""time""
""fullscreenenter"",""1"",""7004""
","
","
","""event"",""trial"",""time""
""fullscreenenter"",""1"",""7004""
","
",,,,,,,,,,,,"[{""stimulus"":""run_exp/static/images/task_images/dig.jpg"",""time"":0.19999998807907104},{""stimulus"":""run_exp/static/images/task_images/land.jpg"",""time"":897.5},{""stimulus"":""run_exp/static/images/task_images/dig.jpg"",""time"":1791.0999999642372}]",[],3,,,,,,,,,,,,,,
harvest,102,422357,0.0-33.0-1.0,"""event"",""trial"",""time""
""fullscreenenter"",""1"",""7004""
","
","
","""event"",""trial"",""time""
""fullscreenenter"",""1"",""7004""
","
",,null,run_exp/static/images/task_images/gems/13.jpg,null,,,,,,,7,,,3,,,,,13,0.565985798,0.538461538,,,,,,,
decision,103,422368,0.0-33.0-2.0,"""event"",""trial"",""time""
""fullscreenenter"",""1"",""7004""
","
","
","""event"",""trial"",""time""
""fullscreenenter"",""1"",""7004""
","
",,9.5,run_exp/static/images/task_images/land.jpg,76,,,,,,,7,,,3,,,,,,,,77689,1,3,TRUE,,,
travel,104,432365,0.0-34.0-0.0,"""event"",""trial"",""time""
""fullscreenenter"",""1"",""7004""
","
","
","""event"",""trial"",""time""
""fullscreenenter"",""1"",""7004""
","
",,,,,,,,,,,,"[{""stimulus"":""run_exp/static/images/task_images/rocket-01.jpg"",""time"":0.19999998807907104},{""stimulus"":""run_exp/static/images/task_images/rocket-02.jpg"",""time"":1113.6000000238419},{""stimulus"":""run_exp/static/images/task_images/rocket-03.jpg"",""time"":2222.5},{""stimulus"":""run_exp/static/images/task_images/rocket-04.jpg"",""time"":3336.300000011921},{""stimulus"":""run_exp/static/images/task_images/rocket-05.jpg"",""time"":4445.600000023842},{""stimulus"":""run_exp/static/images/task_images/rocket-06.jpg"",""time"":5553.300000011921},{""stimulus"":""run_exp/static/images/task_images/rocket-07.jpg"",""time"":6663.199999988079},{""stimulus"":""run_exp/static/images/task_images/rocket-08.jpg"",""time"":7772.100000023842},{""stimulus"":""run_exp/static/images/task_images/rocket-09.jpg"",""time"":8886.100000023842}]",[],3,,,,,,,,,,,,,,
alien_welcome,105,437369,0.0-34.0-1.0,"""event"",""trial"",""time""
""fullscreenenter"",""1"",""7004""
","
","
","""event"",""trial"",""time""
""fullscreenenter"",""1"",""7004""
","
",,null,run_exp/static/images/task_images/aliens/old_aliens/planet/alien_planet-27.jpg,null,,,,,,,,,,,,,27,"46,18,55,27,71,13,65,4,72,14,6,8,53,24,41,61,66,22,70,64,58,2,49,3,5,59,69,44,7,43,78,79,52,21,76,57,45,12,37,28,74,26,56",,,,,,,,,,
land,106,437876,0.0-34.0-2.0,"""event"",""trial"",""time""
""fullscreenenter"",""1"",""7004""
","
","
","""event"",""trial"",""time""
""fullscreenenter"",""1"",""7004""
","
",,null,run_exp/static/images/task_images/land.jpg,null,,,,,,,103,,,4,,,,,,,,,,,,,,
dig,107,439882,0.0-34.0-3.0,"""event"",""trial"",""time""
""fullscreenenter"",""1"",""7004""
","
","
","""event"",""trial"",""time""
""fullscreenenter"",""1"",""7004""
","
",,,,,,,,,,,,"[{""stimulus"":""run_exp/static/images/task_images/dig.jpg"",""time"":0.3999999761581421},{""stimulus"":""run_exp/static/images/task_images/land.jpg"",""time"":672.6999999880791},{""stimulus"":""run_exp/static/images/task_images/dig.jpg"",""time"":1336.5999999642372}]",[],4,,,,,,,,,,,,,,
harvest,108,440889,0.0-34.0-4.0,"""event"",""trial"",""time""
""fullscreenenter"",""1"",""7004""
","
","
","""event"",""trial"",""time""
""fullscreenenter"",""1"",""7004""
","
",,null,run_exp/static/images/task_images/gems/103.jpg,null,,,,,,,56,,,4,,,,,103,0.54336394,0.54368932,,,,,,,
decision,109,441444,0.0-34.0-5.0,"""event"",""trial"",""time""
""fullscreenenter"",""1"",""7004""
","
","
","""event"",""trial"",""time""
""fullscreenenter"",""1"",""7004""
","
",,553.2,run_exp/static/images/task_images/land.jpg,65,,,,,,,56,,,4,,,,,,,,96765,1,0,FALSE,,,
dig,110,443899,0.0-35.0-0.0,"""event"",""trial"",""time""
""fullscreenenter"",""1"",""7004""
","
","
","""event"",""trial"",""time""
""fullscreenenter"",""1"",""7004""
","
",,,,,,,,,,,,"[{""stimulus"":""run_exp/static/images/task_images/dig.jpg"",""time"":0.19999998807907104},{""stimulus"":""run_exp/static/images/task_images/land.jpg"",""time"":820},{""stimulus"":""run_exp/static/images/task_images/dig.jpg"",""time"":1632.800000011921}]",[],4,,,,,,,,,,,,,,
harvest,111,444903,0.0-35.0-1.0,"""event"",""trial"",""time""
""fullscreenenter"",""1"",""7004""
","
","
","""event"",""trial"",""time""
""fullscreenenter"",""1"",""7004""
","
",,null,run_exp/static/images/task_images/gems/56.jpg,null,,,,,,,29,,,4,,,,,56,0.518905098,0.517857143,,,,,,,
decision,112,445030,0.0-35.0-2.0,"""event"",""trial"",""time""
""fullscreenenter"",""1"",""7004""
","
","
","""event"",""trial"",""time""
""fullscreenenter"",""1"",""7004""
","
",,125.8,run_exp/static/images/task_images/land.jpg,65,,,,,,,29,,,4,,,,,,,,100351,1,1,FALSE,,,
dig,113,447914,0.0-36.0-0.0,"""event"",""trial"",""time""
""fullscreenenter"",""1"",""7004""
","
","
","""event"",""trial"",""time""
""fullscreenenter"",""1"",""7004""
","
",,,,,,,,,,,,"[{""stimulus"":""run_exp/static/images/task_images/dig.jpg"",""time"":0.30000001192092896},{""stimulus"":""run_exp/static/images/task_images/land.jpg"",""time"":960.6999999880791},{""stimulus"":""run_exp/static/images/task_images/dig.jpg"",""time"":1918.0999999642372}]",[],4,,,,,,,,,,,,,,
harvest,114,448920,0.0-36.0-1.0,"""event"",""trial"",""time""
""fullscreenenter"",""1"",""7004""
","
","
","""event"",""trial"",""time""
""fullscreenenter"",""1"",""7004""
","
",,null,run_exp/static/images/task_images/gems/29.jpg,null,,,,,,,16,,,4,,,,,29,0.536587613,0.551724138,,,,,,,
decision,115,449291,0.0-36.0-2.0,"""event"",""trial"",""time""
""fullscreenenter"",""1"",""7004""
","
","
","""event"",""trial"",""time""
""fullscreenenter"",""1"",""7004""
","
",,370.1,run_exp/static/images/task_images/land.jpg,76,,,,,,,16,,,4,,,,,,,,104612,1,2,TRUE,,,
travel,116,458922,0.0-37.0-0.0,"""event"",""trial"",""time""
""fullscreenenter"",""1"",""7004""
","
","
","""event"",""trial"",""time""
""fullscreenenter"",""1"",""7004""
","
",,,,,,,,,,,,"[{""stimulus"":""run_exp/static/images/task_images/rocket-01.jpg"",""time"":0.09999996423721313},{""stimulus"":""run_exp/static/images/task_images/rocket-02.jpg"",""time"":1070.699999988079},{""stimulus"":""run_exp/static/images/task_images/rocket-03.jpg"",""time"":2140.199999988079},{""stimulus"":""run_exp/static/images/task_images/rocket-04.jpg"",""time"":3209.7999999523163},{""stimulus"":""run_exp/static/images/task_images/rocket-05.jpg"",""time"":4280.299999952316},{""stimulus"":""run_exp/static/images/task_images/rocket-06.jpg"",""time"":5348.399999976158},{""stimulus"":""run_exp/static/images/task_images/rocket-07.jpg"",""time"":6417},{""stimulus"":""run_exp/static/images/task_images/rocket-08.jpg"",""time"":7487},{""stimulus"":""run_exp/static/images/task_images/rocket-09.jpg"",""time"":8557.399999976158}]",[],4,,,,,,,,,,,,,,
alien_welcome,117,463927,0.0-37.0-1.0,"""event"",""trial"",""time""
""fullscreenenter"",""1"",""7004""
","
","
","""event"",""trial"",""time""
""fullscreenenter"",""1"",""7004""
","
",,null,run_exp/static/images/task_images/aliens/old_aliens/planet/alien_planet-71.jpg,null,,,,,,,,,,,,,71,"46,18,55,27,71,13,65,4,72,14,6,8,53,24,41,61,66,22,70,64,58,2,49,3,5,59,69,44,7,43,78,79,52,21,76,57,45,12,37,28,74,26,56",,,,,,,,,,
land,118,464431,0.0-37.0-2.0,"""event"",""trial"",""time""
""fullscreenenter"",""1"",""7004""
","
","
","""event"",""trial"",""time""
""fullscreenenter"",""1"",""7004""
","
",,null,run_exp/static/images/task_images/land.jpg,null,,,,,,,98,,,5,,,,,,,,,,,,,,
dig,119,466437,0.0-37.0-3.0,"""event"",""trial"",""time""
""fullscreenenter"",""1"",""7004""
","
","
","""event"",""trial"",""time""
""fullscreenenter"",""1"",""7004""
","
",,,,,,,,,,,,"[{""stimulus"":""run_exp/static/images/task_images/dig.jpg"",""time"":0.30000001192092896},{""stimulus"":""run_exp/static/images/task_images/land.jpg"",""time"":672.8999999761581},{""stimulus"":""run_exp/static/images/task_images/dig.jpg"",""time"":1336.199999988079}]",[],5,,,,,,,,,,,,,,
harvest,120,467444,0.0-37.0-4.0,"""event"",""trial"",""time""
""fullscreenenter"",""1"",""7004""
","
","
","""event"",""trial"",""time""
""fullscreenenter"",""1"",""7004""
","
",,null,run_exp/static/images/task_images/gems/98.jpg,null,,,,,,,49,,,5,,,,,98,0.504404384,0.5,,,,,,,
decision,121,467801,0.0-37.0-5.0,"""event"",""trial"",""time""
""fullscreenenter"",""1"",""7004""
","
","
","""event"",""trial"",""time""
""fullscreenenter"",""1"",""7004""
","
",,355,run_exp/static/images/task_images/land.jpg,65,,,,,,,49,,,5,,,,,,,,123122,1,0,FALSE,,,
dig,122,470450,0.0-38.0-0.0,"""event"",""trial"",""time""
""fullscreenenter"",""1"",""7004""
","
","
","""event"",""trial"",""time""
""fullscreenenter"",""1"",""7004""
","
",,,,,,,,,,,,"[{""stimulus"":""run_exp/static/images/task_images/dig.jpg"",""time"":0.10000002384185791},{""stimulus"":""run_exp/static/images/task_images/land.jpg"",""time"":882.3000000119209},{""stimulus"":""run_exp/static/images/task_images/dig.jpg"",""time"":1765.6000000238419}]",[],5,,,,,,,,,,,,,,
harvest,123,471454,0.0-38.0-1.0,"""event"",""trial"",""time""
""fullscreenenter"",""1"",""7004""
","
","
","""event"",""trial"",""time""
""fullscreenenter"",""1"",""7004""
","
",,null,run_exp/static/images/task_images/gems/49.jpg,null,,,,,,,25,,,5,,,,,49,0.500040295,0.510204082,,,,,,,
decision,124,471761,0.0-38.0-2.0,"""event"",""trial"",""time""
""fullscreenenter"",""1"",""7004""
","
","
","""event"",""trial"",""time""
""fullscreenenter"",""1"",""7004""
","
",,305.4,run_exp/static/images/task_images/land.jpg,65,,,,,,,25,,,5,,,,,,,,127082,1,1,FALSE,,,
dig,125,474460,0.0-39.0-0.0,"""event"",""trial"",""time""
""fullscreenenter"",""1"",""7004""
","
","
","""event"",""trial"",""time""
""fullscreenenter"",""1"",""7004""
","
",,,,,,,,,,,,"[{""stimulus"":""run_exp/static/images/task_images/dig.jpg"",""time"":0.10000002384185791},{""stimulus"":""run_exp/static/images/task_images/land.jpg"",""time"":904.1000000238419},{""stimulus"":""run_exp/static/images/task_images/dig.jpg"",""time"":1797.6000000238419}]",[],5,,,,,,,,,,,,,,
harvest,126,475466,0.0-39.0-1.0,"""event"",""trial"",""time""
""fullscreenenter"",""1"",""7004""
","
","
","""event"",""trial"",""time""
""fullscreenenter"",""1"",""7004""
","
",,null,run_exp/static/images/task_images/gems/25.jpg,null,,,,,,,13,,,5,,,,,25,0.528231751,0.52,,,,,,,
decision,127,475818,0.0-39.0-2.0,"""event"",""trial"",""time""
""fullscreenenter"",""1"",""7004""
","
","
","""event"",""trial"",""time""
""fullscreenenter"",""1"",""7004""
","
",,350.2,run_exp/static/images/task_images/land.jpg,76,,,,,,,13,,,5,,,,,,,,131139,1,2,TRUE,,,
travel,128,485473,0.0-40.0-0.0,"""event"",""trial"",""time""
""fullscreenenter"",""1"",""7004""
","
","
","""event"",""trial"",""time""
""fullscreenenter"",""1"",""7004""
","
",,,,,,,,,,,,"[{""stimulus"":""run_exp/static/images/task_images/rocket-01.jpg"",""time"":0.10000002384185791},{""stimulus"":""run_exp/static/images/task_images/rocket-02.jpg"",""time"":1076.4000000357628},{""stimulus"":""run_exp/static/images/task_images/rocket-03.jpg"",""time"":2145.600000023842},{""stimulus"":""run_exp/static/images/task_images/rocket-04.jpg"",""time"":3219.600000023842},{""stimulus"":""run_exp/static/images/task_images/rocket-05.jpg"",""time"":4293.400000035763},{""stimulus"":""run_exp/static/images/task_images/rocket-06.jpg"",""time"":5365.600000023842},{""stimulus"":""run_exp/static/images/task_images/rocket-07.jpg"",""time"":6435.5},{""stimulus"":""run_exp/static/images/task_images/rocket-08.jpg"",""time"":7509.300000011921},{""stimulus"":""run_exp/static/images/task_images/rocket-09.jpg"",""time"":8577.300000011921}]",[],5,,,,,,,,,,,,,,
alien_welcome,129,490477,0.0-40.0-1.0,"""event"",""trial"",""time""
""fullscreenenter"",""1"",""7004""
","
","
","""event"",""trial"",""time""
""fullscreenenter"",""1"",""7004""
","
",,null,run_exp/static/images/task_images/aliens/old_aliens/planet/alien_planet-13.jpg,null,,,,,,,,,,,,,13,"46,18,55,27,71,13,65,4,72,14,6,8,53,24,41,61,66,22,70,64,58,2,49,3,5,59,69,44,7,43,78,79,52,21,76,57,45,12,37,28,74,26,56",,,,,,,,,,
land,130,490982,0.0-40.0-2.0,"""event"",""trial"",""time""
""fullscreenenter"",""1"",""7004""
","
","
","""event"",""trial"",""time""
""fullscreenenter"",""1"",""7004""
","
",,null,run_exp/static/images/task_images/land.jpg,null,,,,,,,108,,,6,,,,,,,,,,,,,,
dig,131,492990,0.0-40.0-3.0,"""event"",""trial"",""time""
""fullscreenenter"",""1"",""7004""
","
","
","""event"",""trial"",""time""
""fullscreenenter"",""1"",""7004""
","
",,,,,,,,,,,,"[{""stimulus"":""run_exp/static/images/task_images/dig.jpg"",""time"":0.5},{""stimulus"":""run_exp/static/images/task_images/land.jpg"",""time"":671.3000000119209},{""stimulus"":""run_exp/static/images/task_images/dig.jpg"",""time"":1337.8999999761581}]",[],6,,,,,,,,,,,,,,
harvest,132,493995,0.0-40.0-4.0,"""event"",""trial"",""time""
""fullscreenenter"",""1"",""7004""
","
","
","""event"",""trial"",""time""
""fullscreenenter"",""1"",""7004""
","
",,null,run_exp/static/images/task_images/gems/108.jpg,null,,,,,,,96,,,6,,,,,108,0.887126814,0.888888889,,,,,,,
decision,133,494359,0.0-40.0-5.0,"""event"",""trial"",""time""
""fullscreenenter"",""1"",""7004""
","
","
","""event"",""trial"",""time""
""fullscreenenter"",""1"",""7004""
","
",,362.1,run_exp/static/images/task_images/land.jpg,65,,,,,,,96,,,6,,,,,,,,149680,1,0,FALSE,,,
dig,134,497002,0.0-41.0-0.0,"""event"",""trial"",""time""
""fullscreenenter"",""1"",""7004""
","
","
","""event"",""trial"",""time""
""fullscreenenter"",""1"",""7004""
","
",,,,,,,,,,,,"[{""stimulus"":""run_exp/static/images/task_images/dig.jpg"",""time"":0.10000002384185791},{""stimulus"":""run_exp/static/images/task_images/land.jpg"",""time"":880.6999999880791},{""stimulus"":""run_exp/static/images/task_images/dig.jpg"",""time"":1763.699999988079}]",[],6,,,,,,,,,,,,,,
harvest,135,498006,0.0-41.0-1.0,"""event"",""trial"",""time""
""fullscreenenter"",""1"",""7004""
","
","
","""event"",""trial"",""time""
""fullscreenenter"",""1"",""7004""
","
",,null,run_exp/static/images/task_images/gems/96.jpg,null,,,,,,,69,,,6,,,,,96,0.721936649,0.71875,,,,,,,
decision,136,498588,0.0-41.0-2.0,"""event"",""trial"",""time""
""fullscreenenter"",""1"",""7004""
","
","
","""event"",""trial"",""time""
""fullscreenenter"",""1"",""7004""
","
",,580.3,run_exp/static/images/task_images/land.jpg,65,,,,,,,69,,,6,,,,,,,,153909,1,1,FALSE,,,
dig,137,501013,0.0-42.0-0.0,"""event"",""trial"",""time""
""fullscreenenter"",""1"",""7004""
","
","
","""event"",""trial"",""time""
""fullscreenenter"",""1"",""7004""
","
",,,,,,,,,,,,"[{""stimulus"":""run_exp/static/images/task_images/dig.jpg"",""time"":0.10000002384185791},{""stimulus"":""run_exp/static/images/task_images/land.jpg"",""time"":811.4000000357628},{""stimulus"":""run_exp/static/images/task_images/dig.jpg"",""time"":1614.4000000357628}]",[],6,,,,,,,,,,,,,,
harvest,138,502017,0.0-42.0-1.0,"""event"",""trial"",""time""
""fullscreenenter"",""1"",""7004""
","
","
","""event"",""trial"",""time""
""fullscreenenter"",""1"",""7004""
","
",,null,run_exp/static/images/task_images/gems/69.jpg,null,,,,,,,51,,,6,,,,,69,0.74538661,0.739130435,,,,,,,
decision,139,502449,0.0-42.0-2.0,"""event"",""trial"",""time""
""fullscreenenter"",""1"",""7004""
","
","
","""event"",""trial"",""time""
""fullscreenenter"",""1"",""7004""
","
",,430.6,run_exp/static/images/task_images/land.jpg,65,,,,,,,51,,,6,,,,,,,,157770,1,2,FALSE,,,
dig,140,505026,0.0-43.0-0.0,"""event"",""trial"",""time""
""fullscreenenter"",""1"",""7004""
","
","
","""event"",""trial"",""time""
""fullscreenenter"",""1"",""7004""
","
",,,,,,,,,,,,"[{""stimulus"":""run_exp/static/images/task_images/dig.jpg"",""time"":0.40000003576278687},{""stimulus"":""run_exp/static/images/task_images/land.jpg"",""time"":858.6000000238419},{""stimulus"":""run_exp/static/images/task_images/dig.jpg"",""time"":1717.7000000476837}]",[],6,,,,,,,,,,,,,,
harvest,141,506034,0.0-43.0-1.0,"""event"",""trial"",""time""
""fullscreenenter"",""1"",""7004""
","
","
","""event"",""trial"",""time""
""fullscreenenter"",""1"",""7004""
","
",,null,run_exp/static/images/task_images/gems/51.jpg,null,,,,,,,37,,,6,,,,,51,0.722468583,0.725490196,,,,,,,
decision,142,506462,0.0-43.0-2.0,"""event"",""trial"",""time""
""fullscreenenter"",""1"",""7004""
","
","
","""event"",""trial"",""time""
""fullscreenenter"",""1"",""7004""
","
",,427.1,run_exp/static/images/task_images/land.jpg,65,,,,,,,37,,,6,,,,,,,,161784,1,3,FALSE,,,
dig,143,509041,0.0-44.0-0.0,"""event"",""trial"",""time""
""fullscreenenter"",""1"",""7004""
","
","
","""event"",""trial"",""time""
""fullscreenenter"",""1"",""7004""
","
",,,,,,,,,,,,"[{""stimulus"":""run_exp/static/images/task_images/dig.jpg"",""time"":0.19999998807907104},{""stimulus"":""run_exp/static/images/task_images/land.jpg"",""time"":858.5},{""stimulus"":""run_exp/static/images/task_images/dig.jpg"",""time"":1717.5}]",[],6,,,,,,,,,,,,,,
harvest,144,510048,0.0-44.0-1.0,"""event"",""trial"",""time""
""fullscreenenter"",""1"",""7004""
","
","
","""event"",""trial"",""time""
""fullscreenenter"",""1"",""7004""
","
",,null,run_exp/static/images/task_images/gems/37.jpg,null,,,,,,,30,,,6,,,,,37,0.81084649,0.810810811,,,,,,,
decision,145,510689,0.0-44.0-2.0,"""event"",""trial"",""time""
""fullscreenenter"",""1"",""7004""
","
","
","""event"",""trial"",""time""
""fullscreenenter"",""1"",""7004""
","
",,640.4,run_exp/static/images/task_images/land.jpg,76,,,,,,,30,,,6,,,,,,,,166011,1,4,TRUE,,,
travel,146,520047,0.0-45.0-0.0,"""event"",""trial"",""time""
""fullscreenenter"",""1"",""7004""
","
","
","""event"",""trial"",""time""
""fullscreenenter"",""1"",""7004""
","
",,,,,,,,,,,,"[{""stimulus"":""run_exp/static/images/task_images/rocket-01.jpg"",""time"":0.3999999761581421},{""stimulus"":""run_exp/static/images/task_images/rocket-02.jpg"",""time"":1040.0999999642372},{""stimulus"":""run_exp/static/images/task_images/rocket-03.jpg"",""time"":2079.699999988079},{""stimulus"":""run_exp/static/images/task_images/rocket-04.jpg"",""time"":3123.399999976158},{""stimulus"":""run_exp/static/images/task_images/rocket-05.jpg"",""time"":4160.899999976158},{""stimulus"":""run_exp/static/images/task_images/rocket-06.jpg"",""time"":5196.899999976158},{""stimulus"":""run_exp/static/images/task_images/rocket-07.jpg"",""time"":6235.599999964237},{""stimulus"":""run_exp/static/images/task_images/rocket-08.jpg"",""time"":7275},{""stimulus"":""run_exp/static/images/task_images/rocket-09.jpg"",""time"":8313.799999952316}]",[],6,,,,,,,,,,,,,,
alien_welcome,147,525055,0.0-45.0-1.0,"""event"",""trial"",""time""
""fullscreenenter"",""1"",""7004""
","
","
","""event"",""trial"",""time""
""fullscreenenter"",""1"",""7004""
","
",,null,run_exp/static/images/task_images/aliens/old_aliens/planet/alien_planet-65.jpg,null,,,,,,,,,,,,,65,"46,18,55,27,71,13,65,4,72,14,6,8,53,24,41,61,66,22,70,64,58,2,49,3,5,59,69,44,7,43,78,79,52,21,76,57,45,12,37,28,74,26,56",,,,,,,,,,
land,148,525561,0.0-45.0-2.0,"""event"",""trial"",""time""
""fullscreenenter"",""1"",""7004""
","
","
","""event"",""trial"",""time""
""fullscreenenter"",""1"",""7004""
","
",,null,run_exp/static/images/task_images/land.jpg,null,,,,,,,102,,,7,,,,,,,,,,,,,,
dig,149,527568,0.0-45.0-3.0,"""event"",""trial"",""time""
""fullscreenenter"",""1"",""7004""
","
","
","""event"",""trial"",""time""
""fullscreenenter"",""1"",""7004""
","
",,,,,,,,,,,,"[{""stimulus"":""run_exp/static/images/task_images/dig.jpg"",""time"":0.19999998807907104},{""stimulus"":""run_exp/static/images/task_images/land.jpg"",""time"":673.0999999642372},{""stimulus"":""run_exp/static/images/task_images/dig.jpg"",""time"":1338.199999988079}]",[],7,,,,,,,,,,,,,,
harvest,150,528573,0.0-45.0-4.0,"""event"",""trial"",""time""
""fullscreenenter"",""1"",""7004""
","
","
","""event"",""trial"",""time""
""fullscreenenter"",""1"",""7004""
","
",,null,run_exp/static/images/task_images/gems/102.jpg,null,,,,,,,76,,,7,,,,,102,0.748854895,0.745098039,,,,,,,
decision,151,528962,0.0-45.0-5.0,"""event"",""trial"",""time""
""fullscreenenter"",""1"",""7004""
","
","
","""event"",""trial"",""time""
""fullscreenenter"",""1"",""7004""
","
",,388.5,run_exp/static/images/task_images/land.jpg,65,,,,,,,76,,,7,,,,,,,,184283,1,0,FALSE,,,
dig,152,531576,0.0-46.0-0.0,"""event"",""trial"",""time""
""fullscreenenter"",""1"",""7004""
","
","
","""event"",""trial"",""time""
""fullscreenenter"",""1"",""7004""
","
",,,,,,,,,,,,"[{""stimulus"":""run_exp/static/images/task_images/dig.jpg"",""time"":0.10000002384185791},{""stimulus"":""run_exp/static/images/task_images/land.jpg"",""time"":875.1999999880791},{""stimulus"":""run_exp/static/images/task_images/dig.jpg"",""time"":1746.300000011921}]",[],7,,,,,,,,,,,,,,
harvest,153,532581,0.0-46.0-1.0,"""event"",""trial"",""time""
""fullscreenenter"",""1"",""7004""
","
","
","""event"",""trial"",""time""
""fullscreenenter"",""1"",""7004""
","
",,null,run_exp/static/images/task_images/gems/76.jpg,null,,,,,,,60,,,7,,,,,76,0.783202103,0.789473684,,,,,,,
decision,154,532865,0.0-46.0-2.0,"""event"",""trial"",""time""
""fullscreenenter"",""1"",""7004""
","
","
","""event"",""trial"",""time""
""fullscreenenter"",""1"",""7004""
","
",,281.7,run_exp/static/images/task_images/land.jpg,65,,,,,,,60,,,7,,,,,,,,188186,1,1,FALSE,,,
dig,155,535592,0.0-47.0-0.0,"""event"",""trial"",""time""
""fullscreenenter"",""1"",""7004""
","
","
","""event"",""trial"",""time""
""fullscreenenter"",""1"",""7004""
","
",,,,,,,,,,,,"[{""stimulus"":""run_exp/static/images/task_images/dig.jpg"",""time"":0.19999998807907104},{""stimulus"":""run_exp/static/images/task_images/land.jpg"",""time"":909.8999999761581},{""stimulus"":""run_exp/static/images/task_images/dig.jpg"",""time"":1814.699999988079}]",[],7,,,,,,,,,,,,,,
harvest,156,536596,0.0-47.0-1.0,"""event"",""trial"",""time""
""fullscreenenter"",""1"",""7004""
","
","
","""event"",""trial"",""time""
""fullscreenenter"",""1"",""7004""
","
",,null,run_exp/static/images/task_images/gems/60.jpg,null,,,,,,,48,,,7,,,,,60,0.800504081,0.8,,,,,,,
decision,157,537113,0.0-47.0-2.0,"""event"",""trial"",""time""
""fullscreenenter"",""1"",""7004""
","
","
","""event"",""trial"",""time""
""fullscreenenter"",""1"",""7004""
","
",,514.4,run_exp/static/images/task_images/land.jpg,65,,,,,,,48,,,7,,,,,,,,192434,1,2,FALSE,,,
dig,158,539605,0.0-48.0-0.0,"""event"",""trial"",""time""
""fullscreenenter"",""1"",""7004""
","
","
","""event"",""trial"",""time""
""fullscreenenter"",""1"",""7004""
","
",,,,,,,,,,,,"[{""stimulus"":""run_exp/static/images/task_images/dig.jpg"",""time"":0.19999998807907104},{""stimulus"":""run_exp/static/images/task_images/land.jpg"",""time"":832.6999999880791},{""stimulus"":""run_exp/static/images/task_images/dig.jpg"",""time"":1662.3999999761581}]",[],7,,,,,,,,,,,,,,
harvest,159,540611,0.0-48.0-1.0,"""event"",""trial"",""time""
""fullscreenenter"",""1"",""7004""
","
","
","""event"",""trial"",""time""
""fullscreenenter"",""1"",""7004""
","
",,null,run_exp/static/images/task_images/gems/48.jpg,null,,,,,,,37,,,7,,,,,48,0.774529673,0.770833333,,,,,,,
decision,160,541117,0.0-48.0-2.0,"""event"",""trial"",""time""
""fullscreenenter"",""1"",""7004""
","
","
","""event"",""trial"",""time""
""fullscreenenter"",""1"",""7004""
","
",,504,run_exp/static/images/task_images/land.jpg,65,,,,,,,37,,,7,,,,,,,,196439,1,3,FALSE,,,
dig,161,543620,0.0-49.0-0.0,"""event"",""trial"",""time""
""fullscreenenter"",""1"",""7004""
","
","
","""event"",""trial"",""time""
""fullscreenenter"",""1"",""7004""
","
",,,,,,,,,,,,"[{""stimulus"":""run_exp/static/images/task_images/dig.jpg"",""time"":0.3999999761581421},{""stimulus"":""run_exp/static/images/task_images/land.jpg"",""time"":836.0999999642372},{""stimulus"":""run_exp/static/images/task_images/dig.jpg"",""time"":1669.3999999761581}]",[],7,,,,,,,,,,,,,,
harvest,162,544627,0.0-49.0-1.0,"""event"",""trial"",""time""
""fullscreenenter"",""1"",""7004""
","
","
","""event"",""trial"",""time""
""fullscreenenter"",""1"",""7004""
","
",,null,run_exp/static/images/task_images/gems/37.jpg,null,,,,,,,30,,,7,,,,,37,0.807243297,0.810810811,,,,,,,
decision,163,544961,0.0-49.0-2.0,"""event"",""trial"",""time""
""fullscreenenter"",""1"",""7004""
","
","
","""event"",""trial"",""time""
""fullscreenenter"",""1"",""7004""
","
",,331.9,run_exp/static/images/task_images/land.jpg,76,,,,,,,30,,,7,,,,,,,,200283,1,4,TRUE,,,
travel,164,554638,0.0-50.0-0.0,"""event"",""trial"",""time""
""fullscreenenter"",""1"",""7004""
","
","
","""event"",""trial"",""time""
""fullscreenenter"",""1"",""7004""
","
",,,,,,,,,,,,"[{""stimulus"":""run_exp/static/images/task_images/rocket-01.jpg"",""time"":0.19999998807907104},{""stimulus"":""run_exp/static/images/task_images/rocket-02.jpg"",""time"":1075.4000000357628},{""stimulus"":""run_exp/static/images/task_images/rocket-03.jpg"",""time"":2150.5},{""stimulus"":""run_exp/static/images/task_images/rocket-04.jpg"",""time"":3227.600000023842},{""stimulus"":""run_exp/static/images/task_images/rocket-05.jpg"",""time"":4301.400000035763},{""stimulus"":""run_exp/static/images/task_images/rocket-06.jpg"",""time"":5371.600000023842},{""stimulus"":""run_exp/static/images/task_images/rocket-07.jpg"",""time"":6449.800000011921},{""stimulus"":""run_exp/static/images/task_images/rocket-08.jpg"",""time"":7523.800000011921},{""stimulus"":""run_exp/static/images/task_images/rocket-09.jpg"",""time"":8597.699999988079}]",[],7,,,,,,,,,,,,,,
alien_welcome,165,559642,0.0-50.0-1.0,"""event"",""trial"",""time""
""fullscreenenter"",""1"",""7004""
","
","
","""event"",""trial"",""time""
""fullscreenenter"",""1"",""7004""
","
",,null,run_exp/static/images/task_images/aliens/old_aliens/planet/alien_planet-4.jpg,null,,,,,,,,,,,,,4,"46,18,55,27,71,13,65,4,72,14,6,8,53,24,41,61,66,22,70,64,58,2,49,3,5,59,69,44,7,43,78,79,52,21,76,57,45,12,37,28,74,26,56",,,,,,,,,,
land,166,560148,0.0-50.0-2.0,"""event"",""trial"",""time""
""fullscreenenter"",""1"",""7004""
","
","
","""event"",""trial"",""time""
""fullscreenenter"",""1"",""7004""
","
",,null,run_exp/static/images/task_images/land.jpg,null,,,,,,,108,,,8,,,,,,,,,,,,,,
dig,167,562155,0.0-50.0-3.0,"""event"",""trial"",""time""
""fullscreenenter"",""1"",""7004""
","
","
","""event"",""trial"",""time""
""fullscreenenter"",""1"",""7004""
","
",,,,,,,,,,,,"[{""stimulus"":""run_exp/static/images/task_images/dig.jpg"",""time"":0.5},{""stimulus"":""run_exp/static/images/task_images/land.jpg"",""time"":670.0999999642372},{""stimulus"":""run_exp/static/images/task_images/dig.jpg"",""time"":1337.3999999761581}]",[],8,,,,,,,,,,,,,,
harvest,168,563160,0.0-50.0-4.0,"""event"",""trial"",""time""
""fullscreenenter"",""1"",""7004""
","
","
","""event"",""trial"",""time""
""fullscreenenter"",""1"",""7004""
","
",,null,run_exp/static/images/task_images/gems/108.jpg,null,,,,,,,88,,,8,,,,,108,0.810756282,0.814814815,,,,,,,
decision,169,563447,0.0-50.0-5.0,"""event"",""trial"",""time""
""fullscreenenter"",""1"",""7004""
","
","
","""event"",""trial"",""time""
""fullscreenenter"",""1"",""7004""
","
",,284.4,run_exp/static/images/task_images/land.jpg,65,,,,,,,88,,,8,,,,,,,,218768,1,0,FALSE,,,
dig,170,566172,0.0-51.0-0.0,"""event"",""trial"",""time""
""fullscreenenter"",""1"",""7004""
","
","
","""event"",""trial"",""time""
""fullscreenenter"",""1"",""7004""
","
",,,,,,,,,,,,"[{""stimulus"":""run_exp/static/images/task_images/dig.jpg"",""time"":0.10000002384185791},{""stimulus"":""run_exp/static/images/task_images/land.jpg"",""time"":910.1000000238419},{""stimulus"":""run_exp/static/images/task_images/dig.jpg"",""time"":1815.300000011921}]",[],8,,,,,,,,,,,,,,
harvest,171,567176,0.0-51.0-1.0,"""event"",""trial"",""time""
""fullscreenenter"",""1"",""7004""
","
","
","""event"",""trial"",""time""
""fullscreenenter"",""1"",""7004""
","
",,null,run_exp/static/images/task_images/gems/88.jpg,null,,,,,,,76,,,8,,,,,88,0.867774425,0.863636364,,,,,,,
decision,172,567573,0.0-51.0-2.0,"""event"",""trial"",""time""
""fullscreenenter"",""1"",""7004""
","
","
","""event"",""trial"",""time""
""fullscreenenter"",""1"",""7004""
","
",,395.1,run_exp/static/images/task_images/land.jpg,65,,,,,,,76,,,8,,,,,,,,222894,1,1,FALSE,,,
dig,173,570183,0.0-52.0-0.0,"""event"",""trial"",""time""
""fullscreenenter"",""1"",""7004""
","
","
","""event"",""trial"",""time""
""fullscreenenter"",""1"",""7004""
","
",,,,,,,,,,,,"[{""stimulus"":""run_exp/static/images/task_images/dig.jpg"",""time"":0.19999998807907104},{""stimulus"":""run_exp/static/images/task_images/land.jpg"",""time"":870.6000000238419},{""stimulus"":""run_exp/static/images/task_images/dig.jpg"",""time"":1742.1000000238419}]",[],8,,,,,,,,,,,,,,
harvest,174,571188,0.0-52.0-1.0,"""event"",""trial"",""time""
""fullscreenenter"",""1"",""7004""
","
","
","""event"",""trial"",""time""
""fullscreenenter"",""1"",""7004""
","
",,null,run_exp/static/images/task_images/gems/76.jpg,null,,,,,,,62,,,8,,,,,76,0.81748125,0.815789474,,,,,,,
decision,175,571484,0.0-52.0-2.0,"""event"",""trial"",""time""
""fullscreenenter"",""1"",""7004""
","
","
","""event"",""trial"",""time""
""fullscreenenter"",""1"",""7004""
","
",,294.4,run_exp/static/images/task_images/land.jpg,65,,,,,,,62,,,8,,,,,,,,226805,1,2,FALSE,,,
dig,176,574194,0.0-53.0-0.0,"""event"",""trial"",""time""
""fullscreenenter"",""1"",""7004""
","
","
","""event"",""trial"",""time""
""fullscreenenter"",""1"",""7004""
","
",,,,,,,,,,,,"[{""stimulus"":""run_exp/static/images/task_images/dig.jpg"",""time"":0.09999996423721313},{""stimulus"":""run_exp/static/images/task_images/land.jpg"",""time"":906.8000000119209},{""stimulus"":""run_exp/static/images/task_images/dig.jpg"",""time"":1805.8999999761581}]",[],8,,,,,,,,,,,,,,
harvest,177,575198,0.0-53.0-1.0,"""event"",""trial"",""time""
""fullscreenenter"",""1"",""7004""
","
","
","""event"",""trial"",""time""
""fullscreenenter"",""1"",""7004""
","
",,null,run_exp/static/images/task_images/gems/62.jpg,null,,,,,,,49,,,8,,,,,62,0.78748179,0.790322581,,,,,,,
decision,178,575570,0.0-53.0-2.0,"""event"",""trial"",""time""
""fullscreenenter"",""1"",""7004""
","
","
","""event"",""trial"",""time""
""fullscreenenter"",""1"",""7004""
","
",,367.9,run_exp/static/images/task_images/land.jpg,65,,,,,,,49,,,8,,,,,,,,230891,1,3,FALSE,,,
dig,179,578210,0.0-54.0-0.0,"""event"",""trial"",""time""
""fullscreenenter"",""1"",""7004""
","
","
","""event"",""trial"",""time""
""fullscreenenter"",""1"",""7004""
","
",,,,,,,,,,,,"[{""stimulus"":""run_exp/static/images/task_images/dig.jpg"",""time"":0.30000001192092896},{""stimulus"":""run_exp/static/images/task_images/land.jpg"",""time"":882.6000000238419},{""stimulus"":""run_exp/static/images/task_images/dig.jpg"",""time"":1756}]",[],8,,,,,,,,,,,,,,
harvest,180,579215,0.0-54.0-1.0,"""event"",""trial"",""time""
""fullscreenenter"",""1"",""7004""
","
","
","""event"",""trial"",""time""
""fullscreenenter"",""1"",""7004""
","
",,null,run_exp/static/images/task_images/gems/49.jpg,null,,,,,,,43,,,8,,,,,49,0.876847302,0.87755102,,,,,,,
decision,181,579556,0.0-54.0-2.0,"""event"",""trial"",""time""
""fullscreenenter"",""1"",""7004""
","
","
","""event"",""trial"",""time""
""fullscreenenter"",""1"",""7004""
","
",,338,run_exp/static/images/task_images/land.jpg,65,,,,,,,43,,,8,,,,,,,,234877,1,4,FALSE,,,
dig,182,582226,0.0-55.0-0.0,"""event"",""trial"",""time""
""fullscreenenter"",""1"",""7004""
","
","
","""event"",""trial"",""time""
""fullscreenenter"",""1"",""7004""
","
",,,,,,,,,,,,"[{""stimulus"":""run_exp/static/images/task_images/dig.jpg"",""time"":0.09999996423721313},{""stimulus"":""run_exp/static/images/task_images/land.jpg"",""time"":892},{""stimulus"":""run_exp/static/images/task_images/dig.jpg"",""time"":1776.199999988079}]",[],8,,,,,,,,,,,,,,
harvest,183,583232,0.0-55.0-1.0,"""event"",""trial"",""time""
""fullscreenenter"",""1"",""7004""
","
","
","""event"",""trial"",""time""
""fullscreenenter"",""1"",""7004""
","
",,null,run_exp/static/images/task_images/gems/43.jpg,null,,,,,,,35,,,8,,,,,43,0.802759543,0.813953488,,,,,,,
decision,184,583639,0.0-55.0-2.0,"""event"",""trial"",""time""
""fullscreenenter"",""1"",""7004""
","
","
","""event"",""trial"",""time""
""fullscreenenter"",""1"",""7004""
","
",,404.8,run_exp/static/images/task_images/land.jpg,65,,,,,,,35,,,8,,,,,,,,238960,1,5,FALSE,,,
dig,185,586239,0.0-56.0-0.0,"""event"",""trial"",""time""
""fullscreenenter"",""1"",""7004""
","
","
","""event"",""trial"",""time""
""fullscreenenter"",""1"",""7004""
","
",,,,,,,,,,,,"[{""stimulus"":""run_exp/static/images/task_images/dig.jpg"",""time"":0.19999998807907104},{""stimulus"":""run_exp/static/images/task_images/land.jpg"",""time"":866.6000000238419},{""stimulus"":""run_exp/static/images/task_images/dig.jpg"",""time"":1731.6000000238419}]",[],8,,,,,,,,,,,,,,
harvest,186,587245,0.0-56.0-1.0,"""event"",""trial"",""time""
""fullscreenenter"",""1"",""7004""
","
","
","""event"",""trial"",""time""
""fullscreenenter"",""1"",""7004""
","
",,null,run_exp/static/images/task_images/gems/35.jpg,null,,,,,,,28,,,8,,,,,35,0.789979297,0.8,,,,,,,
decision,187,587525,0.0-56.0-2.0,"""event"",""trial"",""time""
""fullscreenenter"",""1"",""7004""
","
","
","""event"",""trial"",""time""
""fullscreenenter"",""1"",""7004""
","
",,277.5,run_exp/static/images/task_images/land.jpg,76,,,,,,,28,,,8,,,,,,,,242846,1,6,TRUE,,,
travel,188,597251,0.0-57.0-0.0,"""event"",""trial"",""time""
""fullscreenenter"",""1"",""7004""
","
","
","""event"",""trial"",""time""
""fullscreenenter"",""1"",""7004""
","
",,,,,,,,,,,,"[{""stimulus"":""run_exp/static/images/task_images/rocket-01.jpg"",""time"":0.19999998807907104},{""stimulus"":""run_exp/static/images/task_images/rocket-02.jpg"",""time"":1082.300000011921},{""stimulus"":""run_exp/static/images/task_images/rocket-03.jpg"",""time"":2165.699999988079},{""stimulus"":""run_exp/static/images/task_images/rocket-04.jpg"",""time"":3244},{""stimulus"":""run_exp/static/images/task_images/rocket-05.jpg"",""time"":4325.800000011921},{""stimulus"":""run_exp/static/images/task_images/rocket-06.jpg"",""time"":5404.899999976158},{""stimulus"":""run_exp/static/images/task_images/rocket-07.jpg"",""time"":6484.5},{""stimulus"":""run_exp/static/images/task_images/rocket-08.jpg"",""time"":7565},{""stimulus"":""run_exp/static/images/task_images/rocket-09.jpg"",""time"":8644.5}]",[],8,,,,,,,,,,,,,,
alien_welcome,189,602257,0.0-57.0-1.0,"""event"",""trial"",""time""
""fullscreenenter"",""1"",""7004""
","
","
","""event"",""trial"",""time""
""fullscreenenter"",""1"",""7004""
","
",,null,run_exp/static/images/task_images/aliens/old_aliens/planet/alien_planet-72.jpg,null,,,,,,,,,,,,,72,"46,18,55,27,71,13,65,4,72,14,6,8,53,24,41,61,66,22,70,64,58,2,49,3,5,59,69,44,7,43,78,79,52,21,76,57,45,12,37,28,74,26,56",,,,,,,,,,
land,190,602765,0.0-57.0-2.0,"""event"",""trial"",""time""
""fullscreenenter"",""1"",""7004""
","
","
","""event"",""trial"",""time""
""fullscreenenter"",""1"",""7004""
","
",,null,run_exp/static/images/task_images/land.jpg,null,,,,,,,90,,,9,,,,,,,,,,,,,,
dig,191,604774,0.0-57.0-3.0,"""event"",""trial"",""time""
""fullscreenenter"",""1"",""7004""
","
","
","""event"",""trial"",""time""
""fullscreenenter"",""1"",""7004""
","
",,,,,,,,,,,,"[{""stimulus"":""run_exp/static/images/task_images/dig.jpg"",""time"":0.5},{""stimulus"":""run_exp/static/images/task_images/land.jpg"",""time"":671.7999999523163},{""stimulus"":""run_exp/static/images/task_images/dig.jpg"",""time"":1339.7999999523163}]",[],9,,,,,,,,,,,,,,
harvest,192,605778,0.0-57.0-4.0,"""event"",""trial"",""time""
""fullscreenenter"",""1"",""7004""
","
","
","""event"",""trial"",""time""
""fullscreenenter"",""1"",""7004""
","
",,null,run_exp/static/images/task_images/gems/90.jpg,null,,,,,,,21,,,9,,,,,90,0.23684982,0.233333333,,,,,,,
decision,193,606109,0.0-57.0-5.0,"""event"",""trial"",""time""
""fullscreenenter"",""1"",""7004""
","
","
","""event"",""trial"",""time""
""fullscreenenter"",""1"",""7004""
","
",,328.9,run_exp/static/images/task_images/land.jpg,65,,,,,,,21,,,9,,,,,,,,261430,1,0,FALSE,,,
dig,194,608785,0.0-58.0-0.0,"""event"",""trial"",""time""
""fullscreenenter"",""1"",""7004""
","
","
","""event"",""trial"",""time""
""fullscreenenter"",""1"",""7004""
","
",,,,,,,,,,,,"[{""stimulus"":""run_exp/static/images/task_images/dig.jpg"",""time"":0.10000002384185791},{""stimulus"":""run_exp/static/images/task_images/land.jpg"",""time"":891.5},{""stimulus"":""run_exp/static/images/task_images/dig.jpg"",""time"":1785}]",[],9,,,,,,,,,,,,,,
harvest,195,609789,0.0-58.0-1.0,"""event"",""trial"",""time""
""fullscreenenter"",""1"",""7004""
","
","
","""event"",""trial"",""time""
""fullscreenenter"",""1"",""7004""
","
",,null,run_exp/static/images/task_images/gems/21.jpg,null,,,,,,,6,,,9,,,,,21,0.294235477,0.285714286,,,,,,,
decision,196,610210,0.0-58.0-2.0,"""event"",""trial"",""time""
""fullscreenenter"",""1"",""7004""
","
","
","""event"",""trial"",""time""
""fullscreenenter"",""1"",""7004""
","
",,418.7,run_exp/static/images/task_images/land.jpg,76,,,,,,,6,,,9,,,,,,,,265532,1,1,TRUE,,,
travel,197,619795,0.0-59.0-0.0,"""event"",""trial"",""time""
""fullscreenenter"",""1"",""7004""
","
","
","""event"",""trial"",""time""
""fullscreenenter"",""1"",""7004""
","
",,,,,,,,,,,,"[{""stimulus"":""run_exp/static/images/task_images/rocket-01.jpg"",""time"":0.09999996423721313},{""stimulus"":""run_exp/static/images/task_images/rocket-02.jpg"",""time"":1065.300000011921},{""stimulus"":""run_exp/static/images/task_images/rocket-03.jpg"",""time"":2129.199999988079},{""stimulus"":""run_exp/static/images/task_images/rocket-04.jpg"",""time"":3197.5},{""stimulus"":""run_exp/static/images/task_images/rocket-05.jpg"",""time"":4259.800000011921},{""stimulus"":""run_exp/static/images/task_images/rocket-06.jpg"",""time"":5322.099999964237},{""stimulus"":""run_exp/static/images/task_images/rocket-07.jpg"",""time"":6384.800000011921},{""stimulus"":""run_exp/static/images/task_images/rocket-08.jpg"",""time"":7449.300000011921},{""stimulus"":""run_exp/static/images/task_images/rocket-09.jpg"",""time"":8513.800000011921}]",[],9,,,,,,,,,,,,,,
alien_welcome,198,624800,0.0-59.0-1.0,"""event"",""trial"",""time""
""fullscreenenter"",""1"",""7004""
","
","
","""event"",""trial"",""time""
""fullscreenenter"",""1"",""7004""
","
",,null,run_exp/static/images/task_images/aliens/old_aliens/planet/alien_planet-14.jpg,null,,,,,,,,,,,,,14,"46,18,55,27,71,13,65,4,72,14,6,8,53,24,41,61,66,22,70,64,58,2,49,3,5,59,69,44,7,43,78,79,52,21,76,57,45,12,37,28,74,26,56",,,,,,,,,,
land,199,625306,0.0-59.0-2.0,"""event"",""trial"",""time""
""fullscreenenter"",""1"",""7004""
","
","
","""event"",""trial"",""time""
""fullscreenenter"",""1"",""7004""
","
",,null,run_exp/static/images/task_images/land.jpg,null,,,,,,,99,,,10,,,,,,,,,,,,,,
dig,200,627314,0.0-59.0-3.0,"""event"",""trial"",""time""
""fullscreenenter"",""1"",""7004""
","
","
","""event"",""trial"",""time""
""fullscreenenter"",""1"",""7004""
","
",,,,,,,,,,,,"[{""stimulus"":""run_exp/static/images/task_images/dig.jpg"",""time"":0.3999999761581421},{""stimulus"":""run_exp/static/images/task_images/land.jpg"",""time"":672.3999999761581},{""stimulus"":""run_exp/static/images/task_images/dig.jpg"",""time"":1337}]",[],10,,,,,,,,,,,,,,
harvest,201,628319,0.0-59.0-4.0,"""event"",""trial"",""time""
""fullscreenenter"",""1"",""7004""
","
","
","""event"",""trial"",""time""
""fullscreenenter"",""1"",""7004""
","
",,null,run_exp/static/images/task_images/gems/99.jpg,null,,,,,,,21,,,10,,,,,99,0.210357774,0.212121212,,,,,,,
decision,202,628597,0.0-59.0-5.0,"""event"",""trial"",""time""
""fullscreenenter"",""1"",""7004""
","
","
","""event"",""trial"",""time""
""fullscreenenter"",""1"",""7004""
","
",,275.8,run_exp/static/images/task_images/land.jpg,65,,,,,,,21,,,10,,,,,,,,283918,1,0,FALSE,,,
dig,203,631330,0.0-60.0-0.0,"""event"",""trial"",""time""
""fullscreenenter"",""1"",""7004""
","
","
","""event"",""trial"",""time""
""fullscreenenter"",""1"",""7004""
","
",,,,,,,,,,,,"[{""stimulus"":""run_exp/static/images/task_images/dig.jpg"",""time"":0.09999996423721313},{""stimulus"":""run_exp/static/images/task_images/land.jpg"",""time"":913},{""stimulus"":""run_exp/static/images/task_images/dig.jpg"",""time"":1819.2999999523163}]",[],10,,,,,,,,,,,,,,
harvest,204,632335,0.0-60.0-1.0,"""event"",""trial"",""time""
""fullscreenenter"",""1"",""7004""
","
","
","""event"",""trial"",""time""
""fullscreenenter"",""1"",""7004""
","
",,null,run_exp/static/images/task_images/gems/21.jpg,null,,,,,,,5,,,10,,,,,21,0.244348453,0.238095238,,,,,,,
decision,205,632644,0.0-60.0-2.0,"""event"",""trial"",""time""
""fullscreenenter"",""1"",""7004""
","
","
","""event"",""trial"",""time""
""fullscreenenter"",""1"",""7004""
","
",,307.8,run_exp/static/images/task_images/land.jpg,76,,,,,,,5,,,10,,,,,,,,287965,1,1,TRUE,,,
travel,206,642334,0.0-61.0-0.0,"""event"",""trial"",""time""
""fullscreenenter"",""1"",""7004""
","
","
","""event"",""trial"",""time""
""fullscreenenter"",""1"",""7004""
","
",,,,,,,,,,,,"[{""stimulus"":""run_exp/static/images/task_images/rocket-01.jpg"",""time"":0.09999996423721313},{""stimulus"":""run_exp/static/images/task_images/rocket-02.jpg"",""time"":1078},{""stimulus"":""run_exp/static/images/task_images/rocket-03.jpg"",""time"":2153.399999976158},{""stimulus"":""run_exp/static/images/task_images/rocket-04.jpg"",""time"":3233.2999999523163},{""stimulus"":""run_exp/static/images/task_images/rocket-05.jpg"",""time"":4307.099999964237},{""stimulus"":""run_exp/static/images/task_images/rocket-06.jpg"",""time"":5384.5},{""stimulus"":""run_exp/static/images/task_images/rocket-07.jpg"",""time"":6460.899999976158},{""stimulus"":""run_exp/static/images/task_images/rocket-08.jpg"",""time"":7534.599999964237},{""stimulus"":""run_exp/static/images/task_images/rocket-09.jpg"",""time"":8614.199999988079}]",[],10,,,,,,,,,,,,,,
alien_welcome,207,647338,0.0-61.0-1.0,"""event"",""trial"",""time""
""fullscreenenter"",""1"",""7004""
","
","
","""event"",""trial"",""time""
""fullscreenenter"",""1"",""7004""
","
",,null,run_exp/static/images/task_images/aliens/old_aliens/planet/alien_planet-6.jpg,null,,,,,,,,,,,,,6,"46,18,55,27,71,13,65,4,72,14,6,8,53,24,41,61,66,22,70,64,58,2,49,3,5,59,69,44,7,43,78,79,52,21,76,57,45,12,37,28,74,26,56",,,,,,,,,,
land,208,647844,0.0-61.0-2.0,"""event"",""trial"",""time""
""fullscreenenter"",""1"",""7004""
","
","
","""event"",""trial"",""time""
""fullscreenenter"",""1"",""7004""
","
",,null,run_exp/static/images/task_images/land.jpg,null,,,,,,,103,,,11,,,,,,,,,,,,,,
dig,209,649849,0.0-61.0-3.0,"""event"",""trial"",""time""
""fullscreenenter"",""1"",""7004""
","
","
","""event"",""trial"",""time""
""fullscreenenter"",""1"",""7004""
","
",,,,,,,,,,,,"[{""stimulus"":""run_exp/static/images/task_images/dig.jpg"",""time"":0.40000003576278687},{""stimulus"":""run_exp/static/images/task_images/land.jpg"",""time"":672.4000000357628},{""stimulus"":""run_exp/static/images/task_images/dig.jpg"",""time"":1336.9000000357628}]",[],11,,,,,,,,,,,,,,
harvest,210,650852,0.0-61.0-4.0,"""event"",""trial"",""time""
""fullscreenenter"",""1"",""7004""
","
","
","""event"",""trial"",""time""
""fullscreenenter"",""1"",""7004""
","
",,null,run_exp/static/images/task_images/gems/103.jpg,null,,,,,,,24,,,11,,,,,103,0.228983495,0.233009709,,,,,,,
decision,211,651131,0.0-61.0-5.0,"""event"",""trial"",""time""
""fullscreenenter"",""1"",""7004""
","
","
","""event"",""trial"",""time""
""fullscreenenter"",""1"",""7004""
","
",,276.6,run_exp/static/images/task_images/land.jpg,65,,,,,,,24,,,11,,,,,,,,306452,1,0,TRUE,,,
end_of_block_continue,212,654979,0.0-62.0-0.0,"""event"",""trial"",""time""
""fullscreenenter"",""1"",""7004""
","
","
","""event"",""trial"",""time""
""fullscreenenter"",""1"",""7004""
","
",,3844,run_exp/static/audio/clip_32_block_end.m4a,,,,,,,0,,,,,,,,,,,,,,,,,,
alien_welcome,213,659984,0.0-63.0-0.0,"""event"",""trial"",""time""
""fullscreenenter"",""1"",""7004""
","
","
","""event"",""trial"",""time""
""fullscreenenter"",""1"",""7004""
","
",,null,run_exp/static/images/task_images/aliens/old_aliens/planet/alien_planet-8.jpg,null,,,,,,,,,,,,,8,"46,18,55,27,71,13,65,4,72,14,6,8,53,24,41,61,66,22,70,64,58,2,49,3,5,59,69,44,7,43,78,79,52,21,76,57,45,12,37,28,74,26,56",,,,,,,,,,
land,214,660489,0.0-63.0-1.0,"""event"",""trial"",""time""
""fullscreenenter"",""1"",""7004""
","
","
","""event"",""trial"",""time""
""fullscreenenter"",""1"",""7004""
","
",,null,run_exp/static/images/task_images/land.jpg,null,,,,,,,96,,,12,,,,,,,,,,,,,,
dig,215,662497,0.0-63.0-2.0,"""event"",""trial"",""time""
""fullscreenenter"",""1"",""7004""
","
","
","""event"",""trial"",""time""
""fullscreenenter"",""1"",""7004""
","
",,,,,,,,,,,,"[{""stimulus"":""run_exp/static/images/task_images/dig.jpg"",""time"":0.40000003576278687},{""stimulus"":""run_exp/static/images/task_images/land.jpg"",""time"":673.7000000476837},{""stimulus"":""run_exp/static/images/task_images/dig.jpg"",""time"":1337.2000000476837}]",[],12,,,,,,,,,,,,,,
harvest,216,663501,0.0-63.0-3.0,"""event"",""trial"",""time""
""fullscreenenter"",""1"",""7004""
","
","
","""event"",""trial"",""time""
""fullscreenenter"",""1"",""7004""
","
",,null,run_exp/static/images/task_images/gems/96.jpg,null,,,,,,,23,,,12,,,,,96,0.23686133,0.239583333,,,,,,,
decision,217,663777,0.0-63.0-4.0,"""event"",""trial"",""time""
""fullscreenenter"",""1"",""7004""
","
","
","""event"",""trial"",""time""
""fullscreenenter"",""1"",""7004""
","
",,273.2,run_exp/static/images/task_images/land.jpg,65,,,,,,,23,,,12,,,,,,,,8795,2,0,FALSE,,,
dig,218,666510,0.0-64.0-0.0,"""event"",""trial"",""time""
""fullscreenenter"",""1"",""7004""
","
","
","""event"",""trial"",""time""
""fullscreenenter"",""1"",""7004""
","
",,,,,,,,,,,,"[{""stimulus"":""run_exp/static/images/task_images/dig.jpg"",""time"":0.09999996423721313},{""stimulus"":""run_exp/static/images/task_images/land.jpg"",""time"":912.8000000119209},{""stimulus"":""run_exp/static/images/task_images/dig.jpg"",""time"":1821.699999988079}]",[],12,,,,,,,,,,,,,,
harvest,219,667517,0.0-64.0-1.0,"""event"",""trial"",""time""
""fullscreenenter"",""1"",""7004""
","
","
","""event"",""trial"",""time""
""fullscreenenter"",""1"",""7004""
","
",,null,run_exp/static/images/task_images/gems/23.jpg,null,,,,,,,4,,,12,,,,,23,0.187180186,0.173913043,,,,,,,
decision,220,667832,0.0-64.0-2.0,"""event"",""trial"",""time""
""fullscreenenter"",""1"",""7004""
","
","
","""event"",""trial"",""time""
""fullscreenenter"",""1"",""7004""
","
",,313.1,run_exp/static/images/task_images/land.jpg,76,,,,,,,4,,,12,,,,,,,,12851,2,1,TRUE,,,
travel,221,677526,0.0-65.0-0.0,"""event"",""trial"",""time""
""fullscreenenter"",""1"",""7004""
","
","
","""event"",""trial"",""time""
""fullscreenenter"",""1"",""7004""
","
",,,,,,,,,,,,"[{""stimulus"":""run_exp/static/images/task_images/rocket-01.jpg"",""time"":0.30000001192092896},{""stimulus"":""run_exp/static/images/task_images/rocket-02.jpg"",""time"":1078.1000000238419},{""stimulus"":""run_exp/static/images/task_images/rocket-03.jpg"",""time"":2156.7000000476837},{""stimulus"":""run_exp/static/images/task_images/rocket-04.jpg"",""time"":3234.600000023842},{""stimulus"":""run_exp/static/images/task_images/rocket-05.jpg"",""time"":4310.400000035763},{""stimulus"":""run_exp/static/images/task_images/rocket-06.jpg"",""time"":5382.300000011921},{""stimulus"":""run_exp/static/images/task_images/rocket-07.jpg"",""time"":6462},{""stimulus"":""run_exp/static/images/task_images/rocket-08.jpg"",""time"":7535.900000035763},{""stimulus"":""run_exp/static/images/task_images/rocket-09.jpg"",""time"":8609.700000047684}]",[],12,,,,,,,,,,,,,,
alien_welcome,222,682529,0.0-65.0-1.0,"""event"",""trial"",""time""
""fullscreenenter"",""1"",""7004""
","
","
","""event"",""trial"",""time""
""fullscreenenter"",""1"",""7004""
","
",,null,run_exp/static/images/task_images/aliens/old_aliens/planet/alien_planet-53.jpg,null,,,,,,,,,,,,,53,"46,18,55,27,71,13,65,4,72,14,6,8,53,24,41,61,66,22,70,64,58,2,49,3,5,59,69,44,7,43,78,79,52,21,76,57,45,12,37,28,74,26,56",,,,,,,,,,
land,223,683034,0.0-65.0-2.0,"""event"",""trial"",""time""
""fullscreenenter"",""1"",""7004""
","
","
","""event"",""trial"",""time""
""fullscreenenter"",""1"",""7004""
","
",,null,run_exp/static/images/task_images/land.jpg,null,,,,,,,99,,,13,,,,,,,,,,,,,,
dig,224,685037,0.0-65.0-3.0,"""event"",""trial"",""time""
""fullscreenenter"",""1"",""7004""
","
","
","""event"",""trial"",""time""
""fullscreenenter"",""1"",""7004""
","
",,,,,,,,,,,,"[{""stimulus"":""run_exp/static/images/task_images/dig.jpg"",""time"":0.10000002384185791},{""stimulus"":""run_exp/static/images/task_images/land.jpg"",""time"":672.2000000476837},{""stimulus"":""run_exp/static/images/task_images/dig.jpg"",""time"":1336.1000000238419}]",[],13,,,,,,,,,,,,,,
harvest,225,686043,0.0-65.0-4.0,"""event"",""trial"",""time""
""fullscreenenter"",""1"",""7004""
","
","
","""event"",""trial"",""time""
""fullscreenenter"",""1"",""7004""
","
",,null,run_exp/static/images/task_images/gems/99.jpg,null,,,,,,,14,,,13,,,,,99,0.141255652,0.141414141,,,,,,,
decision,226,686310,0.0-65.0-5.0,"""event"",""trial"",""time""
""fullscreenenter"",""1"",""7004""
","
","
","""event"",""trial"",""time""
""fullscreenenter"",""1"",""7004""
","
",,265.8,run_exp/static/images/task_images/land.jpg,65,,,,,,,14,,,13,,,,,,,,31328,2,0,FALSE,,,
dig,227,689051,0.0-66.0-0.0,"""event"",""trial"",""time""
""fullscreenenter"",""1"",""7004""
","
","
","""event"",""trial"",""time""
""fullscreenenter"",""1"",""7004""
","
",,,,,,,,,,,,"[{""stimulus"":""run_exp/static/images/task_images/dig.jpg"",""time"":0.19999998807907104},{""stimulus"":""run_exp/static/images/task_images/land.jpg"",""time"":914.6999999880791},{""stimulus"":""run_exp/static/images/task_images/dig.jpg"",""time"":1823.800000011921}]",[],13,,,,,,,,,,,,,,
harvest,228,690055,0.0-66.0-1.0,"""event"",""trial"",""time""
""fullscreenenter"",""1"",""7004""
","
","
","""event"",""trial"",""time""
""fullscreenenter"",""1"",""7004""
","
",,null,run_exp/static/images/task_images/gems/14.jpg,null,,,,,,,2,,,13,,,,,14,0.173283025,0.142857143,,,,,,,
decision,229,690375,0.0-66.0-2.0,"""event"",""trial"",""time""
""fullscreenenter"",""1"",""7004""
","
","
","""event"",""trial"",""time""
""fullscreenenter"",""1"",""7004""
","
",,317.1,run_exp/static/images/task_images/land.jpg,76,,,,,,,2,,,13,,,,,,,,35393,2,1,TRUE,,,
travel,230,700060,0.0-67.0-0.0,"""event"",""trial"",""time""
""fullscreenenter"",""1"",""7004""
","
","
","""event"",""trial"",""time""
""fullscreenenter"",""1"",""7004""
","
",,,,,,,,,,,,"[{""stimulus"":""run_exp/static/images/task_images/rocket-01.jpg"",""time"":0.09999996423721313},{""stimulus"":""run_exp/static/images/task_images/rocket-02.jpg"",""time"":1077.5},{""stimulus"":""run_exp/static/images/task_images/rocket-03.jpg"",""time"":2151.399999976158},{""stimulus"":""run_exp/static/images/task_images/rocket-04.jpg"",""time"":3230.300000011921},{""stimulus"":""run_exp/static/images/task_images/rocket-05.jpg"",""time"":4305},{""stimulus"":""run_exp/static/images/task_images/rocket-06.jpg"",""time"":5377.699999988079},{""stimulus"":""run_exp/static/images/task_images/rocket-07.jpg"",""time"":6452.399999976158},{""stimulus"":""run_exp/static/images/task_images/rocket-08.jpg"",""time"":7526.699999988079},{""stimulus"":""run_exp/static/images/task_images/rocket-09.jpg"",""time"":8606.199999988079}]",[],13,,,,,,,,,,,,,,
alien_welcome,231,705067,0.0-67.0-1.0,"""event"",""trial"",""time""
""fullscreenenter"",""1"",""7004""
","
","
","""event"",""trial"",""time""
""fullscreenenter"",""1"",""7004""
","
",,null,run_exp/static/images/task_images/aliens/old_aliens/planet/alien_planet-24.jpg,null,,,,,,,,,,,,,24,"46,18,55,27,71,13,65,4,72,14,6,8,53,24,41,61,66,22,70,64,58,2,49,3,5,59,69,44,7,43,78,79,52,21,76,57,45,12,37,28,74,26,56",,,,,,,,,,
land,232,705573,0.0-67.0-2.0,"""event"",""trial"",""time""
""fullscreenenter"",""1"",""7004""
","
","
","""event"",""trial"",""time""
""fullscreenenter"",""1"",""7004""
","
",,null,run_exp/static/images/task_images/land.jpg,null,,,,,,,96,,,14,,,,,,,,,,,,,,
dig,233,707583,0.0-67.0-3.0,"""event"",""trial"",""time""
""fullscreenenter"",""1"",""7004""
","
","
","""event"",""trial"",""time""
""fullscreenenter"",""1"",""7004""
","
",,,,,,,,,,,,"[{""stimulus"":""run_exp/static/images/task_images/dig.jpg"",""time"":0.40000003576278687},{""stimulus"":""run_exp/static/images/task_images/land.jpg"",""time"":672.5},{""stimulus"":""run_exp/static/images/task_images/dig.jpg"",""time"":1336}]",[],14,,,,,,,,,,,,,,
harvest,234,708587,0.0-67.0-4.0,"""event"",""trial"",""time""
""fullscreenenter"",""1"",""7004""
","
","
","""event"",""trial"",""time""
""fullscreenenter"",""1"",""7004""
","
",,null,run_exp/static/images/task_images/gems/96.jpg,null,,,,,,,29,,,14,,,,,96,0.307015756,0.302083333,,,,,,,
decision,235,709024,0.0-67.0-5.0,"""event"",""trial"",""time""
""fullscreenenter"",""1"",""7004""
","
","
","""event"",""trial"",""time""
""fullscreenenter"",""1"",""7004""
","
",,436.5,run_exp/static/images/task_images/land.jpg,65,,,,,,,29,,,14,,,,,,,,54042,2,0,FALSE,,,
dig,236,711595,0.0-68.0-0.0,"""event"",""trial"",""time""
""fullscreenenter"",""1"",""7004""
","
","
","""event"",""trial"",""time""
""fullscreenenter"",""1"",""7004""
","
",,,,,,,,,,,,"[{""stimulus"":""run_exp/static/images/task_images/dig.jpg"",""time"":0.10000002384185791},{""stimulus"":""run_exp/static/images/task_images/land.jpg"",""time"":856.1000000238419},{""stimulus"":""run_exp/static/images/task_images/dig.jpg"",""time"":1713.6000000238419}]",[],14,,,,,,,,,,,,,,
harvest,237,712598,0.0-68.0-1.0,"""event"",""trial"",""time""
""fullscreenenter"",""1"",""7004""
","
","
","""event"",""trial"",""time""
""fullscreenenter"",""1"",""7004""
","
",,null,run_exp/static/images/task_images/gems/29.jpg,null,,,,,,,5,,,14,,,,,29,0.171244318,0.172413793,,,,,,,
decision,238,713007,0.0-68.0-2.0,"""event"",""trial"",""time""
""fullscreenenter"",""1"",""7004""
","
","
","""event"",""trial"",""time""
""fullscreenenter"",""1"",""7004""
","
",,407,run_exp/static/images/task_images/land.jpg,76,,,,,,,5,,,14,,,,,,,,58025,2,1,TRUE,,,
travel,239,722600,0.0-69.0-0.0,"""event"",""trial"",""time""
""fullscreenenter"",""1"",""7004""
","
","
","""event"",""trial"",""time""
""fullscreenenter"",""1"",""7004""
","
