trial_type,trial_index,time_elapsed,internal_node_id,interactions,blur_events,focus_events,fullscreenenter_events,fullscreenexit_events,success,rt,stimulus,key_press,prompt,subject_id,participant_id,age,gender,button_pressed,next_reward,animation_sequence,responses,planet,curr_prac_trial,n_prac_rounds,alien,aliens,reward_received,decay_rate_actual,decay_rate_exp,time_in_block,block_num,prt,last_trial_on_planet,button_html,bonus,num_failures
pavlovia,0,9,0.0-0.0,"""event"",""trial"",""time""
""fullscreenenter"",""1"",""3172""
","
","
","""event"",""trial"",""time""
""fullscreenenter"",""1"",""3172""
","
",,,,,,,,,,,,,,,,,,,,,,,,,,,,
fullscreen,1,4172,0.0-1.0,"""event"",""trial"",""time""
""fullscreenenter"",""1"",""3172""
","
","
","""event"",""trial"",""time""
""fullscreenenter"",""1"",""3172""
","
",TRUE,,,,,,,,,,,,,,,,,,,,,,,,,,,
instruc_welcome,2,13967,0.0-2.0,"""event"",""trial"",""time""
""fullscreenenter"",""1"",""3172""
","
","
","""event"",""trial"",""time""
""fullscreenenter"",""1"",""3172""
","
",,null,run_exp/static/audio/clip_1_welcome.m4a,null,"<p>Howdy! In this experiment, you’ll be an explorer traveling through space to collect space treasure.</p><p>Your mission is to collect as much treasure as possible.</p><br><br><p><img src='run_exp/static/images/task_images/opening_img-01.jpg' height='300' width='auto'></p>",9201,1297,24.4,Female,,,,,,,,,,,,,,,,,,,
audio-keyboard-response,3,30584,0.0-3.0,"""event"",""trial"",""time""
""fullscreenenter"",""1"",""3172""
","
","
","""event"",""trial"",""time""
""fullscreenenter"",""1"",""3172""
","
",,null,run_exp/static/audio/clip_2_move.m4a,null,,,,,,,,,,,,,,,,,,,,,,,,
welcome_dec,4,37880,0.0-4.0,"""event"",""trial"",""time""
""fullscreenenter"",""1"",""3172""
","
","
","""event"",""trial"",""time""
""fullscreenenter"",""1"",""3172""
","
",,7293,"<p>Howdy! In this experiment, you’ll be an explorer traveling through space to collect space treasure.</p><p>Your mission is to collect as much treasure as possible.</p><br><br><p><img src='run_exp/static/images/task_images/opening_img-01.jpg' height='300' width='auto'></p>",,,,,,,1,,,,,,,,,,,,,,,,,,
html-keyboard-response,5,41391,0.0-5.0,"""event"",""trial"",""time""
""fullscreenenter"",""1"",""3172""
","
","
","""event"",""trial"",""time""
""fullscreenenter"",""1"",""3172""
","
",,3507.3,"<p>Howdy! In this experiment, you’ll be an explorer traveling through space to collect space treasure.</p><p>Your mission is to collect as much treasure as possible.</p><br><br><p><img src='run_exp/static/images/task_images/opening_img-01.jpg' height='300' width='auto'></p><button class=""jspsych-html-btn-unchosen""><img src=""run_exp/static/images/task_images/planet-01.jpg"" height=""50""></button><button class=""jspsych-html-btn-chosen""><img src=""run_exp/static/images/task_images/planet-02.jpg"" height=""50""></button><p><b>[press the space bar to lock in your answer]<b><br></p>",32,,,,,,,,,,,,,,,,,,,,,,,,
instruc_goal,6,51498,0.0-6.0-0.0,"""event"",""trial"",""time""
""fullscreenenter"",""1"",""3172""
","
","
","""event"",""trial"",""time""
""fullscreenenter"",""1"",""3172""
","
",,null,run_exp/static/audio/clip_3_goal.m4a,null,"<p> As a space explorer, you’ll visit different planets to dig for space treasure, these pink gems.</p> <p> The more treasure you dig up, the more bonus money you’ll win! </p><br><br><p><img src='run_exp/static/images/task_images/pink_gem.jpg' height='300' width='auto'></p>",,,,,,,,,,,,,,,,,,,,,,,
instruc_goal,7,53063,0.0-6.0-1.0,"""event"",""trial"",""time""
""fullscreenenter"",""1"",""3172""
","
","
","""event"",""trial"",""time""
""fullscreenenter"",""1"",""3172""
","
",,1561.4,"<p> As a space explorer, you’ll visit different planets to dig for space treasure, these pink gems.</p> <p> The more treasure you dig up, the more bonus money you’ll win! </p><br><br><p><img src='run_exp/static/images/task_images/pink_gem.jpg' height='300' width='auto'></p>",,,,,,,1,,,,,,,,,,,,,,,,,,
html-keyboard-response,8,53537,0.0-6.0-2.0,"""event"",""trial"",""time""
""fullscreenenter"",""1"",""3172""
","
","
","""event"",""trial"",""time""
""fullscreenenter"",""1"",""3172""
","
",,470.6,"<p> As a space explorer, you’ll visit different planets to dig for space treasure, these pink gems.</p> <p> The more treasure you dig up, the more bonus money you’ll win! </p><br><br><p><img src='run_exp/static/images/task_images/pink_gem.jpg' height='300' width='auto'></p><button class=""jspsych-html-btn-unchosen""><img src=""run_exp/static/images/task_images/planet-01.jpg"" height=""50""></button><button class=""jspsych-html-btn-chosen""><img src=""run_exp/static/images/task_images/planet-02.jpg"" height=""50""></button><p><b>[press the space bar to lock in your answer]<b><br></p>",32,,,,,,,,,,,,,,,,,,,,,,,,
instruc_dig,9,69589,0.0-7.0-0.0,"""event"",""trial"",""time""
""fullscreenenter"",""1"",""3172""
","
","
","""event"",""trial"",""time""
""fullscreenenter"",""1"",""3172""
","
",,null,run_exp/static/audio/clip_4_dig.m4a,null,,,,,,,100,,,,,,,,,,,,,,,,,
instruc_dig_try,10,83244,0.0-7.0-1.0,"""event"",""trial"",""time""
""fullscreenenter"",""1"",""3172""
","
","
","""event"",""trial"",""time""
""fullscreenenter"",""1"",""3172""
","
",,13654,"<p> When you’ve arrived at a new planet, you will dig once. </p> <p>Then, you get to decide if you want to stay on the planet and dig again or travel to a new planet and dig there.</p> <p> To stay and dig, press the letter <strong>‘A’</strong> on your keyboard. Try pressing it now! </p><p><img src='run_exp/static/images/task_images/land.jpg'  height='700' width='auto'></p>",65,"<p> When you’ve arrived at a new planet, you will dig once. </p> <p>Then, you get to decide if you want to stay on the planet and dig again or travel to a new planet and dig there.</p> <p> To stay and dig, press the letter <strong>‘A’</strong> on your keyboard. Try pressing it now! </p><p><img src='run_exp/static/images/task_images/land.jpg'  height='700' width='auto'></p>",,,,,,100,,,,,,,,,,,,,,,,,
dig_prac,11,85266,0.0-7.0-2.0,"""event"",""trial"",""time""
""fullscreenenter"",""1"",""3172""
","
","
","""event"",""trial"",""time""
""fullscreenenter"",""1"",""3172""
","
",,,,,,,,,,,,"[{""stimulus"":""run_exp/static/images/task_images/dig.jpg"",""time"":0.5},{""stimulus"":""run_exp/static/images/task_images/land.jpg"",""time"":678.0999999977648},{""stimulus"":""run_exp/static/images/task_images/dig.jpg"",""time"":1342}]",[],,,,,,,,,,,,,,,
instruc_travel,12,121514,0.0-7.0-3.0,"""event"",""trial"",""time""
""fullscreenenter"",""1"",""3172""
","
","
","""event"",""trial"",""time""
""fullscreenenter"",""1"",""3172""
","
",,null,run_exp/static/audio/clip_5_travel.m4a,null,"<p>Every time you dig up gems, there are less gems on the planet, so the more you dig on a planet the fewer gems you’ll get with each dig.</p><p>When gems are running low, you may want to travel to a new planet. </p> <p>  Planets are very far apart in this galaxy, so it will take some time to travel between them. </p> <br><p>There are lots and lots of planets for you to visit, so you won’t be able to return to any planets you’ve seen before. </p><br><p>To leave this planet and travel to a new one, press the letter <strong>‘L’</strong> on your keyboard. Try pressing it now! </p><p><img src='run_exp/static/images/task_images/rocket-01.jpg'  height='600' width='auto'></p>",,,,,,,,,,,,,,,,,,,,,,,
instruc_travel_try,13,122411,0.0-7.0-4.0,"""event"",""trial"",""time""
""fullscreenenter"",""1"",""3172""
","
","
","""event"",""trial"",""time""
""fullscreenenter"",""1"",""3172""
","
",,895.1,"<p>Every time you dig up gems, there are less gems on the planet, so the more you dig on a planet the fewer gems you’ll get with each dig.</p><p>When gems are running low, you may want to travel to a new planet. </p> <p>  Planets are very far apart in this galaxy, so it will take some time to travel between them. </p> <br><p>There are lots and lots of planets for you to visit, so you won’t be able to return to any planets you’ve seen before. </p><br><p>To leave this planet and travel to a new one, press the letter <strong>‘L’</strong> on your keyboard. Try pressing it now! </p><p><img src='run_exp/static/images/task_images/rocket-01.jpg'  height='600' width='auto'></p>",76,"<p>Every time you dig up gems, there are less gems on the planet, so the more you dig on a planet the fewer gems you’ll get with each dig.</p><p>When gems are running low, you may want to travel to a new planet. </p> <p>  Planets are very far apart in this galaxy, so it will take some time to travel between them. </p> <br><p>There are lots and lots of planets for you to visit, so you won’t be able to return to any planets you’ve seen before. </p><br><p>To leave this planet and travel to a new one, press the letter <strong>‘L’</strong> on your keyboard. Try pressing it now! </p><p><img src='run_exp/static/images/task_images/rocket-01.jpg'  height='600' width='auto'></p>",,,,,,,,,,,,,,,,,,,,,,,
travel_prac,14,132415,0.0-7.0-5.0,"""event"",""trial"",""time""
""fullscreenenter"",""1"",""3172""
","
","
","""event"",""trial"",""time""
""fullscreenenter"",""1"",""3172""
","
",,,,,,,,,,,,"[{""stimulus"":""run_exp/static/images/task_images/rocket-01.jpg"",""time"":0.30000000074505806},{""stimulus"":""run_exp/static/images/task_images/rocket-02.jpg"",""time"":1114.3999999985099},{""stimulus"":""run_exp/static/images/task_images/rocket-03.jpg"",""time"":2229.699999999255},{""stimulus"":""run_exp/static/images/task_images/rocket-04.jpg"",""time"":3337.800000000745},{""stimulus"":""run_exp/static/images/task_images/rocket-05.jpg"",""time"":4453.800000000745},{""stimulus"":""run_exp/static/images/task_images/rocket-06.jpg"",""time"":5565.89999999851},{""stimulus"":""run_exp/static/images/task_images/rocket-07.jpg"",""time"":6676.599999997765},{""stimulus"":""run_exp/static/images/task_images/rocket-08.jpg"",""time"":7789.800000000745},{""stimulus"":""run_exp/static/images/task_images/rocket-09.jpg"",""time"":8897.699999999255}]",[],0,,,,,,,,,,,,,,
instruc_alien_greet,15,159637,0.0-7.0-6.0,"""event"",""trial"",""time""
""fullscreenenter"",""1"",""3172""
","
","
","""event"",""trial"",""time""
""fullscreenenter"",""1"",""3172""
","
",,null,run_exp/static/audio/clip_6_alien.m4a,null,"<p>When you arrive at a new planet, the alien who owns the treasure mine on that planet will greet you!</p><p>The better an alien takes care of their mine the easier it is to dig for gems. Some aliens take better care of their mine than others. So, you won’t get exactly the same amount of gems on each planet.</p><p>What the alien looks like does not tell you anything about how many gems there are on the planet.</p><br><p><img src=""run_exp/static/images/task_images/aliens/instructions_aliens/planet/alien_planet-1.jpg""  height=""600"" width=""auto""></p>",,,,,,,,,,,,,,,,,,,,,,,
instruc_alien_greet,16,162963,0.0-7.0-7.0,"""event"",""trial"",""time""
""fullscreenenter"",""1"",""3172""
","
","
","""event"",""trial"",""time""
""fullscreenenter"",""1"",""3172""
","
",,3323.6,"<p>When you arrive at a new planet, the alien who owns the treasure mine on that planet will greet you!</p><p>The better an alien takes care of their mine the easier it is to dig for gems. Some aliens take better care of their mine than others. So, you won’t get exactly the same amount of gems on each planet.</p><p>What the alien looks like does not tell you anything about how many gems there are on the planet.</p><br><p><img src=""run_exp/static/images/task_images/aliens/instructions_aliens/planet/alien_planet-1.jpg""  height=""600"" width=""auto""></p>",,,,,,,1,,,,,,,,,,,,,,,,,,
html-keyboard-response,17,163868,0.0-7.0-8.0,"""event"",""trial"",""time""
""fullscreenenter"",""1"",""3172""
","
","
","""event"",""trial"",""time""
""fullscreenenter"",""1"",""3172""
","
",,902.4,"<p>When you arrive at a new planet, the alien who owns the treasure mine on that planet will greet you!</p><p>The better an alien takes care of their mine the easier it is to dig for gems. Some aliens take better care of their mine than others. So, you won’t get exactly the same amount of gems on each planet.</p><p>What the alien looks like does not tell you anything about how many gems there are on the planet.</p><br><p><img src=""run_exp/static/images/task_images/aliens/instructions_aliens/planet/alien_planet-1.jpg""  height=""600"" width=""auto""></p><button class=""jspsych-html-btn-unchosen""><img src=""run_exp/static/images/task_images/planet-01.jpg"" height=""50""></button><button class=""jspsych-html-btn-chosen""><img src=""run_exp/static/images/task_images/planet-02.jpg"" height=""50""></button><p><b>[press the space bar to lock in your answer]<b><br></p>",32,,,,,,,,,,,,,,,,,,,,,,,,
time_out,18,174975,0.0-8.0-0.0,"""event"",""trial"",""time""
""fullscreenenter"",""1"",""3172""
","
","
","""event"",""trial"",""time""
""fullscreenenter"",""1"",""3172""
","
",,null,run_exp/static/audio/clip_7_timeout.m4a,null,"<p>If you don't make your choice fast enough, you’ll have to wait a few seconds before you can make another one.</p><p>You can’t dig for more gems or travel to new planets. You just have to sit and wait.</p><br><p><img src='run_exp/static/images/task_images/time_out.jpg'  height='600' width='auto'></p>",,,,,,,,,,,,,,,,,,,,,,,
time_out,19,177147,0.0-8.0-1.0,"""event"",""trial"",""time""
""fullscreenenter"",""1"",""3172""
","
","
","""event"",""trial"",""time""
""fullscreenenter"",""1"",""3172""
","
",,2168.4,"<p>If you don't make your choice fast enough, you’ll have to wait a few seconds before you can make another one.</p><p>You can’t dig for more gems or travel to new planets. You just have to sit and wait.</p><br><p><img src='run_exp/static/images/task_images/time_out.jpg'  height='600' width='auto'></p>",,,,,,,1,,,,,,,,,,,,,,,,,,
html-keyboard-response,20,179782,0.0-8.0-2.0,"""event"",""trial"",""time""
""fullscreenenter"",""1"",""3172""
","
","
","""event"",""trial"",""time""
""fullscreenenter"",""1"",""3172""
","
",,2632.1,"<p>If you don't make your choice fast enough, you’ll have to wait a few seconds before you can make another one.</p><p>You can’t dig for more gems or travel to new planets. You just have to sit and wait.</p><br><p><img src='run_exp/static/images/task_images/time_out.jpg'  height='600' width='auto'></p><button class=""jspsych-html-btn-unchosen""><img src=""run_exp/static/images/task_images/planet-01.jpg"" height=""50""></button><button class=""jspsych-html-btn-chosen""><img src=""run_exp/static/images/task_images/planet-02.jpg"" height=""50""></button><p><b>[press the space bar to lock in your answer]<b><br></p>",32,,,,,,,,,,,,,,,,,,,,,,,,
instruc_break,21,195455,0.0-9.0-0.0,"""event"",""trial"",""time""
""fullscreenenter"",""1"",""3172""
","
","
","""event"",""trial"",""time""
""fullscreenenter"",""1"",""3172""
","
",,null,run_exp/static/audio/clip_8_break.m4a,null,"<p> After digging and traveling for a while, you’ll be able to take a break at home base. </p><p>The game will last 20 minutes no matter what.</p><p>You will visit home base every 5 minutes, so, you will visit home base three times during the game.</p><br><p><img src='run_exp/static/images/task_images/home_base.jpg' height='600' width='auto'></p>",,,,,,,,,,,,,,,,,,,,,,,
instruc_break,22,358730,0.0-9.0-1.0,"""event"",""trial"",""time""
""fullscreenenter"",""1"",""3172""
","
","
","""event"",""trial"",""time""
""fullscreenenter"",""1"",""3172""
","
",,163275,"<p> After digging and traveling for a while, you’ll be able to take a break at home base. </p><p>The game will last 20 minutes no matter what.</p><p>You will visit home base every 5 minutes, so, you will visit home base three times during the game.</p><br><p><img src='run_exp/static/images/task_images/home_base.jpg' height='600' width='auto'></p>",,,,,,,1,,,,,,,,,,,,,,,,,,
html-keyboard-response,23,359131,0.0-9.0-2.0,"""event"",""trial"",""time""
""fullscreenenter"",""1"",""3172""
","
","
","""event"",""trial"",""time""
""fullscreenenter"",""1"",""3172""
","
",,397.7,"<p> After digging and traveling for a while, you’ll be able to take a break at home base. </p><p>The game will last 20 minutes no matter what.</p><p>You will visit home base every 5 minutes, so, you will visit home base three times during the game.</p><br><p><img src='run_exp/static/images/task_images/home_base.jpg' height='600' width='auto'></p><button class=""jspsych-html-btn-unchosen""><img src=""run_exp/static/images/task_images/planet-01.jpg"" height=""50""></button><button class=""jspsych-html-btn-chosen""><img src=""run_exp/static/images/task_images/planet-02.jpg"" height=""50""></button><p><b>[press the space bar to lock in your answer]<b><br></p>",32,,,,,,,,,,,,,,,,,,,,,,,,
instruc_prac_game,24,369311,0.0-10.0-0.0,"""event"",""trial"",""time""
""fullscreenenter"",""1"",""3172""
","
","
","""event"",""trial"",""time""
""fullscreenenter"",""1"",""3172""
","
",,null,run_exp/static/audio/clip_9_practice.m4a,null,"<p> Are you ready to play a practice game? </p> <p>In this practice game, you'll be digging up barrels of gems. But, in the real game, you'll be digging up the gems themselves. </p>",,,,,,,,,,,,,,,,,,,,,,,
html-button-response,25,390564,0.0-10.0-1.0,"""event"",""trial"",""time""
""fullscreenenter"",""1"",""3172""
","
","
","""event"",""trial"",""time""
""fullscreenenter"",""1"",""3172""
","
",,21250.8,"<p> Are you ready to play a practice game? </p> <p>In this practice game, you'll be digging up barrels of gems. But, in the real game, you'll be digging up the gems themselves. </p>",,,,,,,0,,,,,,,,,,,,,,,,,,
alien_welcome_prac,26,395582,0.0-11.0-0.0,"""event"",""trial"",""time""
""fullscreenenter"",""1"",""3172""
","
","
","""event"",""trial"",""time""
""fullscreenenter"",""1"",""3172""
","
",,null,run_exp/static/images/task_images/aliens/practice_aliens/planet/alien_planet-5.jpg,null,,,,,,,,,,,,,,,,,,,,,,,,
land_prac,27,396093,0.0-11.0-1.0,"""event"",""trial"",""time""
""fullscreenenter"",""1"",""3172""
","
","
","""event"",""trial"",""time""
""fullscreenenter"",""1"",""3172""
","
",,null,run_exp/static/images/task_images/land.jpg,null,,,,,,,96,,,0,,,,,,,,,,,,,,
dig_prac,28,398105,0.0-11.0-2.0,"""event"",""trial"",""time""
""fullscreenenter"",""1"",""3172""
","
","
","""event"",""trial"",""time""
""fullscreenenter"",""1"",""3172""
","
",,,,,,,,,,,,"[{""stimulus"":""run_exp/static/images/task_images/dig.jpg"",""time"":0.5},{""stimulus"":""run_exp/static/images/task_images/land.jpg"",""time"":677.8000000007451},{""stimulus"":""run_exp/static/images/task_images/dig.jpg"",""time"":1337.5999999977648}]",[],,,,,,,,,,,,,,,
harvest_prac,29,399117,0.0-11.0-3.0,"""event"",""trial"",""time""
""fullscreenenter"",""1"",""3172""
","
","
","""event"",""trial"",""time""
""fullscreenenter"",""1"",""3172""
","
",,null,run_exp/static/images/task_images/barrel_text.jpg,null,,,,,,,,,,,,,,,,,,,,,,,,
decision_prac,30,402121,0.0-11.0-4.0,"""event"",""trial"",""time""
""fullscreenenter"",""1"",""3172""
","
","
","""event"",""trial"",""time""
""fullscreenenter"",""1"",""3172""
","
",,null,run_exp/static/images/task_images/land.jpg,null,,,,,,,,,,,1,,,,,,,,,,,,,
time_out,31,404133,0.0-12.0-0.0,"""event"",""trial"",""time""
""fullscreenenter"",""1"",""3172""
","
","
","""event"",""trial"",""time""
""fullscreenenter"",""1"",""3172""
","
",,null,run_exp/static/images/task_images/time_out.jpg,null,,,,,,,,,,,,,,,,,,,,,,,,
decision_prac,32,404992,0.0-12.0-1.0,"""event"",""trial"",""time""
""fullscreenenter"",""1"",""3172""
","
","
","""event"",""trial"",""time""
""fullscreenenter"",""1"",""3172""
","
",,855.6,run_exp/static/images/task_images/land.jpg,65,,,,,,,,,,,2,,,,,,,,,,,,,
dig_prac,33,407005,0.0-13.0-0.0,"""event"",""trial"",""time""
""fullscreenenter"",""1"",""3172""
","
","
","""event"",""trial"",""time""
""fullscreenenter"",""1"",""3172""
","
",,,,,,,,,,,,"[{""stimulus"":""run_exp/static/images/task_images/dig.jpg"",""time"":0.3999999985098839},{""stimulus"":""run_exp/static/images/task_images/land.jpg"",""time"":674},{""stimulus"":""run_exp/static/images/task_images/dig.jpg"",""time"":1342}]",[],,,,,,,,,,,,,,,
harvest_prac,34,408009,0.0-13.0-1.0,"""event"",""trial"",""time""
""fullscreenenter"",""1"",""3172""
","
","
","""event"",""trial"",""time""
""fullscreenenter"",""1"",""3172""
","
",,null,run_exp/static/images/task_images/barrel_text.jpg,null,,,,,,,,,,,,,,,,,,,,,,,,
decision_prac,35,409904,0.0-13.0-2.0,"""event"",""trial"",""time""
""fullscreenenter"",""1"",""3172""
","
","
","""event"",""trial"",""time""
""fullscreenenter"",""1"",""3172""
","
",,1894.1,run_exp/static/images/task_images/land.jpg,65,,,,,,,,,,,3,,,,,,,,,,,,,
dig_prac,36,411913,0.0-14.0-0.0,"""event"",""trial"",""time""
""fullscreenenter"",""1"",""3172""
","
","
","""event"",""trial"",""time""
""fullscreenenter"",""1"",""3172""
","
",,,,,,,,,,,,"[{""stimulus"":""run_exp/static/images/task_images/dig.jpg"",""time"":0.19999999925494194},{""stimulus"":""run_exp/static/images/task_images/land.jpg"",""time"":674},{""stimulus"":""run_exp/static/images/task_images/dig.jpg"",""time"":1346}]",[],,,,,,,,,,,,,,,
harvest_prac,37,412921,0.0-14.0-1.0,"""event"",""trial"",""time""
""fullscreenenter"",""1"",""3172""
","
","
","""event"",""trial"",""time""
""fullscreenenter"",""1"",""3172""
","
",,null,run_exp/static/images/task_images/barrel_text.jpg,null,,,,,,,,,,,,,,,,,,,,,,,,
decision_prac,38,415351,0.0-14.0-2.0,"""event"",""trial"",""time""
""fullscreenenter"",""1"",""3172""
","
","
","""event"",""trial"",""time""
""fullscreenenter"",""1"",""3172""
","
",,2427.9,run_exp/static/images/task_images/land.jpg,76,,,,,,,,,,,4,,,,,,,,,,,,,
travel,39,422933,0.0-15.0-0.0,"""event"",""trial"",""time""
""fullscreenenter"",""1"",""3172""
","
","
","""event"",""trial"",""time""
""fullscreenenter"",""1"",""3172""
","
",,,,,,,,,,,,"[{""stimulus"":""run_exp/static/images/task_images/rocket-01.jpg"",""time"":0.30000000074505806},{""stimulus"":""run_exp/static/images/task_images/rocket-02.jpg"",""time"":850.3000000007451},{""stimulus"":""run_exp/static/images/task_images/rocket-03.jpg"",""time"":1690.199999999255},{""stimulus"":""run_exp/static/images/task_images/rocket-04.jpg"",""time"":2526},{""stimulus"":""run_exp/static/images/task_images/rocket-05.jpg"",""time"":3378.300000000745},{""stimulus"":""run_exp/static/images/task_images/rocket-06.jpg"",""time"":4218.199999999255},{""stimulus"":""run_exp/static/images/task_images/rocket-07.jpg"",""time"":5056.400000002235},{""stimulus"":""run_exp/static/images/task_images/rocket-08.jpg"",""time"":5894.199999999255},{""stimulus"":""run_exp/static/images/task_images/rocket-09.jpg"",""time"":6738.199999999255}]",[],0,,,,,,,,,,,,,,
alien_welcome_prac,40,427941,0.0-15.0-1.0,"""event"",""trial"",""time""
""fullscreenenter"",""1"",""3172""
","
","
","""event"",""trial"",""time""
""fullscreenenter"",""1"",""3172""
","
",,null,run_exp/static/images/task_images/aliens/practice_aliens/planet/alien_planet-4.jpg,null,,,,,,,,,,,,,,,,,,,,,,,,
land_prac,41,428452,0.0-15.0-2.0,"""event"",""trial"",""time""
""fullscreenenter"",""1"",""3172""
","
","
","""event"",""trial"",""time""
""fullscreenenter"",""1"",""3172""
","
",,null,run_exp/static/images/task_images/land.jpg,null,,,,,,,93,,,0,,,,,,,,,,,,,,
dig_prac,42,430469,0.0-15.0-3.0,"""event"",""trial"",""time""
""fullscreenenter"",""1"",""3172""
","
","
","""event"",""trial"",""time""
""fullscreenenter"",""1"",""3172""
","
",,,,,,,,,,,,"[{""stimulus"":""run_exp/static/images/task_images/dig.jpg"",""time"":0.6000000014901161},{""stimulus"":""run_exp/static/images/task_images/land.jpg"",""time"":670.7000000029802},{""stimulus"":""run_exp/static/images/task_images/dig.jpg"",""time"":1339.7000000029802}]",[],,,,,,,,,,,,,,,
harvest_prac,43,431473,0.0-15.0-4.0,"""event"",""trial"",""time""
""fullscreenenter"",""1"",""3172""
","
","
","""event"",""trial"",""time""
""fullscreenenter"",""1"",""3172""
","
",,null,run_exp/static/images/task_images/barrel_text.jpg,null,,,,,,,,,,,,,,,,,,,,,,,,
decision_prac,44,431966,0.0-15.0-5.0,"""event"",""trial"",""time""
""fullscreenenter"",""1"",""3172""
","
","
","""event"",""trial"",""time""
""fullscreenenter"",""1"",""3172""
","
",,491,run_exp/static/images/task_images/land.jpg,65,,,,,,,,,,,,1,,,,,,,,,,,,
quiz_instruc,45,442281,0.0-16.0-0.0,"""event"",""trial"",""time""
""fullscreenenter"",""1"",""3172""
","
","
","""event"",""trial"",""time""
""fullscreenenter"",""1"",""3172""
","
",,10309.9,run_exp/static/audio/clip_10_quiz.m4a,,,,,,,0,,,,,,,,,,,,,,,,,,
instruc_repeat,46,485084,0.0-16.0-1.0,"""event"",""trial"",""time""
""fullscreenenter"",""1"",""3172""
","
","
","""event"",""trial"",""time""
""fullscreenenter"",""1"",""3172""
","
",,null,"<p> Are you ready to play a practice game? </p> <p>In this practice game, you'll be digging up barrels of gems. But, in the real game, you'll be digging up the gems themselves. </p>",null,"<p>In this game, your goal is to collect as many gems as you can. That’s how you will win bonus money. </p> <p>The entire game will last 20 minutes no matter how many gems you collect or how many planets you visit. </p><p>To stay on a planet and dig again, press the letter A on your keyboard. To leave for a new planet, press the letter L.</p><p>The more you dig on a planet, the fewer gems you’ll get with each dig which is why you might consider leaving for a new planet. </p><p>When you arrive at a new planet, you’ll be greeted by an alien. What the alien looks like does not tell you anything about how much treasure is on the planet. </p>",,,,,,,,,,,,,,,,,,,,,,,
instruc_repeat_continue,47,510514,0.0-16.0-2.0,"""event"",""trial"",""time""
""fullscreenenter"",""1"",""3172""
","
","
","""event"",""trial"",""time""
""fullscreenenter"",""1"",""3172""
","
",,25428,"<p> Are you ready to play a practice game? </p> <p>In this practice game, you'll be digging up barrels of gems. But, in the real game, you'll be digging up the gems themselves. </p>",,,,,,,0,,,,,,,,,,,,,,,,,,
quiz_q_1_ask,48,521314,0.0-16.0-3.0,"""event"",""trial"",""time""
""fullscreenenter"",""1"",""3172""
","
","
","""event"",""trial"",""time""
""fullscreenenter"",""1"",""3172""
","
",,10796.8,run_exp/static/audio/clip_11_q1_ask.m4a,,,,,,,2,,,,,,,,,,,,,,,,,,
quiz_q_1_fb_correct,49,525150,0.0-17.0-0.0,"""event"",""trial"",""time""
""fullscreenenter"",""1"",""3172""
","
","
","""event"",""trial"",""time""
""fullscreenenter"",""1"",""3172""
","
",,null,run_exp/static/audio/clip_12_q1_correct.m4a,null,<p>That’s correct. You win extra money by collecting more gems.</p>,,,,,,,,,,,,,,,,,,,,,,,
quiz_q_2_ask,50,528597,0.0-17.0-1.0,"""event"",""trial"",""time""
""fullscreenenter"",""1"",""3172""
","
","
","""event"",""trial"",""time""
""fullscreenenter"",""1"",""3172""
","
",,3444.9,run_exp/static/audio/clip_14_q2_ask.m4a,,,,,,,1,,,,,,,,,,,,,,,,,,
quiz_q_2_fb_correct,51,532617,0.0-18.0-0.0,"""event"",""trial"",""time""
""fullscreenenter"",""1"",""3172""
","
","
","""event"",""trial"",""time""
""fullscreenenter"",""1"",""3172""
","
",,null,run_exp/static/audio/clip_15_q2_correct.m4a,null,<p>That’s correct. The experiment is 20 minutes no matter what.</p>,,,,,,,,,,,,,,,,,,,,,,,
quiz_q_3_ask,52,536547,0.0-18.0-1.0,"""event"",""trial"",""time""
""fullscreenenter"",""1"",""3172""
","
","
","""event"",""trial"",""time""
""fullscreenenter"",""1"",""3172""
","
",,3928.2,run_exp/static/audio/clip_17_q3_ask.m4a,,,,,,,1,,,,,,,,,,,,,,,,,,
quiz_q_3_fb_correct,53,540510,0.0-19.0-0.0,"""event"",""trial"",""time""
""fullscreenenter"",""1"",""3172""
","
","
","""event"",""trial"",""time""
""fullscreenenter"",""1"",""3172""
","
",,null,run_exp/static/audio/clip_18_q3_correct.m4a,null,<p> That’s correct. You press the letter L to travel to a new planet.</p>,,,,,,,,,,,,,,,,,,,,,,,
quiz_q_4_ask,54,545180,0.0-19.0-1.0,"""event"",""trial"",""time""
""fullscreenenter"",""1"",""3172""
","
","
","""event"",""trial"",""time""
""fullscreenenter"",""1"",""3172""
","
",,4667.5,run_exp/static/audio/clip_20_q4_ask.m4a,,,,,,,0,,,,,,,,,,,,,,,,,,
quiz_q_4_fb_correct,55,550494,0.0-20.0-0.0,"""event"",""trial"",""time""
""fullscreenenter"",""1"",""3172""
","
","
","""event"",""trial"",""time""
""fullscreenenter"",""1"",""3172""
","
",,null,run_exp/static/audio/clip_21_q4_correct.m4a,null,<p> That’s correct. The more you dig on a planet the fewer gems you’ll get with each dig. </p>,,,,,,,,,,,,,,,,,,,,,,,
quiz_q_5_ask,56,554464,0.0-20.0-1.0,"""event"",""trial"",""time""
""fullscreenenter"",""1"",""3172""
","
","
","""event"",""trial"",""time""
""fullscreenenter"",""1"",""3172""
","
",,3967.7,run_exp/static/audio/clip_23_q5_ask.m4a,,,,,,,1,,,,,,,,,,,,,,,,,,
quiz_q_5_fb_correct,57,559454,0.0-21.0-0.0,"""event"",""trial"",""time""
""fullscreenenter"",""1"",""3172""
","
","
","""event"",""trial"",""time""
""fullscreenenter"",""1"",""3172""
","
",,null,run_exp/static/audio/clip_24_q5_correct.m4a,null,<p> That’s correct. The alien tells you nothing about how much treasure is on the planet.</p>,,,,,,,,,,,,,,,,,,,,,,,
quiz_correct,58,562910,0.0-22.0-0.0,"""event"",""trial"",""time""
""fullscreenenter"",""1"",""3172""
","
","
","""event"",""trial"",""time""
""fullscreenenter"",""1"",""3172""
","
",,null,run_exp/static/audio/clip_26_correct_quiz.m4a,null,,,,,,,,,,,,,,,,,,,,,,,,
quiz_correct_continue,59,563997,0.0-22.0-1.0,"""event"",""trial"",""time""
""fullscreenenter"",""1"",""3172""
","
","
","""event"",""trial"",""time""
""fullscreenenter"",""1"",""3172""
","
",,1085.3,<p>Good job! You're now ready to move on to the real game!</p>,,,,,,,0,,,,,,,,,,,,,,,,,,
audio-keyboard-response,60,574110,0.0-22.0-2.0,"""event"",""trial"",""time""
""fullscreenenter"",""1"",""3172""
","
","
","""event"",""trial"",""time""
""fullscreenenter"",""1"",""3172""
","
",,null,run_exp/static/audio/clip_28_real_game.m4a,null,,,,,,,,,,,,,,,,,,,,,,,,
instruc_begin_exp_contine,61,575397,0.0-22.0-3.0,"""event"",""trial"",""time""
""fullscreenenter"",""1"",""3172""
","
","
","""event"",""trial"",""time""
""fullscreenenter"",""1"",""3172""
","
",,1285.3,"<p>Now that you know how  to dig for space treasure and travel to new planets,you can start exploring! </p><p>Do you want to go over the instructions again or get started with the real game?</p>",,,,,,,1,,,,,,1,,,,,,,,,,,,
alien_welcome,62,580406,0.0-23.0-0.0,"""event"",""trial"",""time""
""fullscreenenter"",""1"",""3172""
","
","
","""event"",""trial"",""time""
""fullscreenenter"",""1"",""3172""
","
",,null,run_exp/static/images/task_images/aliens/old_aliens/planet/alien_planet-52.jpg,null,,,,,,,,,,,,,52,"52,8,6,38,20,42,79,2,18,14,56,46,72,22,55,23,5,21,63,80,3,45,73,64,9,77,16,44,47,62,68,26,30,34,1,74,75,11,12,28,4",,,,,,,,,,
land,63,580911,0.0-23.0-1.0,"""event"",""trial"",""time""
""fullscreenenter"",""1"",""3172""
","
","
","""event"",""trial"",""time""
""fullscreenenter"",""1"",""3172""
","
",,null,run_exp/static/images/task_images/land.jpg,null,,,,,,,99,,,1,,,,,,,,,,,,,,
dig,64,582918,0.0-23.0-2.0,"""event"",""trial"",""time""
""fullscreenenter"",""1"",""3172""
","
","
","""event"",""trial"",""time""
""fullscreenenter"",""1"",""3172""
","
",,,,,,,,,,,,"[{""stimulus"":""run_exp/static/images/task_images/dig.jpg"",""time"":0.4000000022351742},{""stimulus"":""run_exp/static/images/task_images/land.jpg"",""time"":675.9000000022352},{""stimulus"":""run_exp/static/images/task_images/dig.jpg"",""time"":1337.1000000014901}]",[],1,,,,,,,,,,,,,,
harvest,65,583930,0.0-23.0-3.0,"""event"",""trial"",""time""
""fullscreenenter"",""1"",""3172""
","
","
","""event"",""trial"",""time""
""fullscreenenter"",""1"",""3172""
","
",,null,run_exp/static/images/task_images/gems/99.jpg,null,,,,,,,25,,,1,,,,,99,0.248960503,0.252525253,,,,,,,
decision,66,584176,0.0-23.0-4.0,"""event"",""trial"",""time""
""fullscreenenter"",""1"",""3172""
","
","
","""event"",""trial"",""time""
""fullscreenenter"",""1"",""3172""
","
",,243.6,run_exp/static/images/task_images/land.jpg,65,,,,,,,25,,,1,,,,,,,,8778,1,0,FALSE,,,
dig,67,586943,0.0-24.0-0.0,"""event"",""trial"",""time""
""fullscreenenter"",""1"",""3172""
","
","
","""event"",""trial"",""time""
""fullscreenenter"",""1"",""3172""
","
",,,,,,,,,,,,"[{""stimulus"":""run_exp/static/images/task_images/dig.jpg"",""time"":0.10000000149011612},{""stimulus"":""run_exp/static/images/task_images/land.jpg"",""time"":920},{""stimulus"":""run_exp/static/images/task_images/dig.jpg"",""time"":1844.4000000022352}]",[],1,,,,,,,,,,,,,,
harvest,68,587954,0.0-24.0-1.0,"""event"",""trial"",""time""
""fullscreenenter"",""1"",""3172""
","
","
","""event"",""trial"",""time""
""fullscreenenter"",""1"",""3172""
","
",,null,run_exp/static/images/task_images/gems/25.jpg,null,,,,,,,5,,,1,,,,,25,0.189272548,0.2,,,,,,,
decision,69,589219,0.0-24.0-2.0,"""event"",""trial"",""time""
""fullscreenenter"",""1"",""3172""
","
","
","""event"",""trial"",""time""
""fullscreenenter"",""1"",""3172""
","
",,1262.9,run_exp/static/images/task_images/land.jpg,65,,,,,,,5,,,1,,,,,,,,13820,1,1,FALSE,,,
dig,70,590970,0.0-25.0-0.0,"""event"",""trial"",""time""
""fullscreenenter"",""1"",""3172""
","
","
","""event"",""trial"",""time""
""fullscreenenter"",""1"",""3172""
","
",,,,,,,,,,,,"[{""stimulus"":""run_exp/static/images/task_images/dig.jpg"",""time"":0.4000000022351742},{""stimulus"":""run_exp/static/images/task_images/land.jpg"",""time"":585.5},{""stimulus"":""run_exp/static/images/task_images/dig.jpg"",""time"":1169.6000000014901}]",[],1,,,,,,,,,,,,,,
harvest,71,591978,0.0-25.0-1.0,"""event"",""trial"",""time""
""fullscreenenter"",""1"",""3172""
","
","
","""event"",""trial"",""time""
""fullscreenenter"",""1"",""3172""
","
",,null,run_exp/static/images/task_images/gems/5.jpg,null,,,,,,,1,,,1,,,,,5,0.131268253,0.2,,,,,,,
decision,72,592718,0.0-25.0-2.0,"""event"",""trial"",""time""
""fullscreenenter"",""1"",""3172""
","
","
","""event"",""trial"",""time""
""fullscreenenter"",""1"",""3172""
","
",,738.1,run_exp/static/images/task_images/land.jpg,65,,,,,,,1,,,1,,,,,,,,17320,1,2,FALSE,,,
dig,73,594994,0.0-26.0-0.0,"""event"",""trial"",""time""
""fullscreenenter"",""1"",""3172""
","
","
","""event"",""trial"",""time""
""fullscreenenter"",""1"",""3172""
","
",,,,,,,,,,,,"[{""stimulus"":""run_exp/static/images/task_images/dig.jpg"",""time"":0.10000000149011612},{""stimulus"":""run_exp/static/images/task_images/land.jpg"",""time"":767},{""stimulus"":""run_exp/static/images/task_images/dig.jpg"",""time"":1519}]",[],1,,,,,,,,,,,,,,
harvest,74,596002,0.0-26.0-1.0,"""event"",""trial"",""time""
""fullscreenenter"",""1"",""3172""
","
","
","""event"",""trial"",""time""
""fullscreenenter"",""1"",""3172""
","
",,null,run_exp/static/images/task_images/gems/1.jpg,null,,,,,,,0,,,1,,,,,1,0.146199709,0,,,,,,,
decision,75,596464,0.0-26.0-2.0,"""event"",""trial"",""time""
""fullscreenenter"",""1"",""3172""
","
","
","""event"",""trial"",""time""
""fullscreenenter"",""1"",""3172""
","
",,459.9,run_exp/static/images/task_images/land.jpg,76,,,,,,,0,,,1,,,,,,,,21065,1,3,TRUE,,,
travel,76,606015,0.0-27.0-0.0,"""event"",""trial"",""time""
""fullscreenenter"",""1"",""3172""
","
","
","""event"",""trial"",""time""
""fullscreenenter"",""1"",""3172""
","
",,,,,,,,,,,,"[{""stimulus"":""run_exp/static/images/task_images/rocket-01.jpg"",""time"":0.19999999925494194},{""stimulus"":""run_exp/static/images/task_images/rocket-02.jpg"",""time"":1072.1000000014901},{""stimulus"":""run_exp/static/images/task_images/rocket-03.jpg"",""time"":2130},{""stimulus"":""run_exp/static/images/task_images/rocket-04.jpg"",""time"":3189.89999999851},{""stimulus"":""run_exp/static/images/task_images/rocket-05.jpg"",""time"":4254},{""stimulus"":""run_exp/static/images/task_images/rocket-06.jpg"",""time"":5302},{""stimulus"":""run_exp/static/images/task_images/rocket-07.jpg"",""time"":6372.300000000745},{""stimulus"":""run_exp/static/images/task_images/rocket-08.jpg"",""time"":7426},{""stimulus"":""run_exp/static/images/task_images/rocket-09.jpg"",""time"":8493.89999999851}]",[],1,,,,,,,,,,,,,,
alien_welcome,77,611021,0.0-27.0-1.0,"""event"",""trial"",""time""
""fullscreenenter"",""1"",""3172""
","
","
","""event"",""trial"",""time""
""fullscreenenter"",""1"",""3172""
","
",,null,run_exp/static/images/task_images/aliens/old_aliens/planet/alien_planet-8.jpg,null,,,,,,,,,,,,,8,"52,8,6,38,20,42,79,2,18,14,56,46,72,22,55,23,5,21,63,80,3,45,73,64,9,77,16,44,47,62,68,26,30,34,1,74,75,11,12,28,4",,,,,,,,,,
land,78,611525,0.0-27.0-2.0,"""event"",""trial"",""time""
""fullscreenenter"",""1"",""3172""
","
","
","""event"",""trial"",""time""
""fullscreenenter"",""1"",""3172""
","
",,null,run_exp/static/images/task_images/land.jpg,null,,,,,,,112,,,2,,,,,,,,,,,,,,
dig,79,613533,0.0-27.0-3.0,"""event"",""trial"",""time""
""fullscreenenter"",""1"",""3172""
","
","
","""event"",""trial"",""time""
""fullscreenenter"",""1"",""3172""
","
",,,,,,,,,,,,"[{""stimulus"":""run_exp/static/images/task_images/dig.jpg"",""time"":0.3999999985098839},{""stimulus"":""run_exp/static/images/task_images/land.jpg"",""time"":674.0999999977648},{""stimulus"":""run_exp/static/images/task_images/dig.jpg"",""time"":1346.199999999255}]",[],2,,,,,,,,,,,,,,
harvest,80,614541,0.0-27.0-4.0,"""event"",""trial"",""time""
""fullscreenenter"",""1"",""3172""
","
","
","""event"",""trial"",""time""
""fullscreenenter"",""1"",""3172""
","
",,null,run_exp/static/images/task_images/gems/112.jpg,null,,,,,,,16,,,2,,,,,112,0.14695861,0.142857143,,,,,,,
decision,81,614909,0.0-27.0-5.0,"""event"",""trial"",""time""
""fullscreenenter"",""1"",""3172""
","
","
","""event"",""trial"",""time""
""fullscreenenter"",""1"",""3172""
","
",,365.6,run_exp/static/images/task_images/land.jpg,65,,,,,,,16,,,2,,,,,,,,39510,1,0,FALSE,,,
dig,82,617561,0.0-28.0-0.0,"""event"",""trial"",""time""
""fullscreenenter"",""1"",""3172""
","
","
","""event"",""trial"",""time""
""fullscreenenter"",""1"",""3172""
","
",,,,,,,,,,,,"[{""stimulus"":""run_exp/static/images/task_images/dig.jpg"",""time"":0.19999999925494194},{""stimulus"":""run_exp/static/images/task_images/land.jpg"",""time"":888.1999999992549},{""stimulus"":""run_exp/static/images/task_images/dig.jpg"",""time"":1767.800000000745}]",[],2,,,,,,,,,,,,,,
harvest,83,618569,0.0-28.0-1.0,"""event"",""trial"",""time""
""fullscreenenter"",""1"",""3172""
","
","
","""event"",""trial"",""time""
""fullscreenenter"",""1"",""3172""
","
",,null,run_exp/static/images/task_images/gems/16.jpg,null,,,,,,,2,,,2,,,,,16,0.097999876,0.125,,,,,,,
decision,84,618989,0.0-28.0-2.0,"""event"",""trial"",""time""
""fullscreenenter"",""1"",""3172""
","
","
","""event"",""trial"",""time""
""fullscreenenter"",""1"",""3172""
","
",,417.4,run_exp/static/images/task_images/land.jpg,65,,,,,,,2,,,2,,,,,,,,43590,1,1,FALSE,,,
dig,85,621581,0.0-29.0-0.0,"""event"",""trial"",""time""
""fullscreenenter"",""1"",""3172""
","
","
","""event"",""trial"",""time""
""fullscreenenter"",""1"",""3172""
","
",,,,,,,,,,,,"[{""stimulus"":""run_exp/static/images/task_images/dig.jpg"",""time"":0.10000000149011612},{""stimulus"":""run_exp/static/images/task_images/land.jpg"",""time"":868.5},{""stimulus"":""run_exp/static/images/task_images/dig.jpg"",""time"":1728.6000000014901}]",[],2,,,,,,,,,,,,,,
harvest,86,622589,0.0-29.0-1.0,"""event"",""trial"",""time""
""fullscreenenter"",""1"",""3172""
","
","
","""event"",""trial"",""time""
""fullscreenenter"",""1"",""3172""
","
",,null,run_exp/static/images/task_images/gems/2.jpg,null,,,,,,,0,,,2,,,,,2,0.128461202,0,,,,,,,
decision,87,622812,0.0-29.0-2.0,"""event"",""trial"",""time""
""fullscreenenter"",""1"",""3172""
","
","
","""event"",""trial"",""time""
""fullscreenenter"",""1"",""3172""
","
",,220.8,run_exp/static/images/task_images/land.jpg,65,,,,,,,0,,,2,,,,,,,,47413,1,2,FALSE,,,
dig,88,625601,0.0-30.0-0.0,"""event"",""trial"",""time""
""fullscreenenter"",""1"",""3172""
","
","
","""event"",""trial"",""time""
""fullscreenenter"",""1"",""3172""
","
",,,,,,,,,,,,"[{""stimulus"":""run_exp/static/images/task_images/dig.jpg"",""time"":0.19999999925494194},{""stimulus"":""run_exp/static/images/task_images/land.jpg"",""time"":937.1999999992549},{""stimulus"":""run_exp/static/images/task_images/dig.jpg"",""time"":1865.199999999255}]",[],2,,,,,,,,,,,,,,
harvest,89,626605,0.0-30.0-1.0,"""event"",""trial"",""time""
""fullscreenenter"",""1"",""3172""
","
","
","""event"",""trial"",""time""
""fullscreenenter"",""1"",""3172""
","
",,null,run_exp/static/images/task_images/gems/0.jpg,null,,,,,,,0,,,2,,,,,0,0.210372828,NaN,,,,,,,
decision,90,627260,0.0-30.0-2.0,"""event"",""trial"",""time""
""fullscreenenter"",""1"",""3172""
","
","
","""event"",""trial"",""time""
""fullscreenenter"",""1"",""3172""
","
",,653,run_exp/static/images/task_images/land.jpg,76,,,,,,,0,,,2,,,,,,,,51861,1,3,TRUE,,,
travel,91,636617,0.0-31.0-0.0,"""event"",""trial"",""time""
""fullscreenenter"",""1"",""3172""
","
","
","""event"",""trial"",""time""
""fullscreenenter"",""1"",""3172""
","
",,,,,,,,,,,,"[{""stimulus"":""run_exp/static/images/task_images/rocket-01.jpg"",""time"":0.09999999776482582},{""stimulus"":""run_exp/static/images/task_images/rocket-02.jpg"",""time"":1045.3999999985099},{""stimulus"":""run_exp/static/images/task_images/rocket-03.jpg"",""time"":2080.699999999255},{""stimulus"":""run_exp/static/images/task_images/rocket-04.jpg"",""time"":3116.599999997765},{""stimulus"":""run_exp/static/images/task_images/rocket-05.jpg"",""time"":4160.699999999255},{""stimulus"":""run_exp/static/images/task_images/rocket-06.jpg"",""time"":5196.099999997765},{""stimulus"":""run_exp/static/images/task_images/rocket-07.jpg"",""time"":6238.599999997765},{""stimulus"":""run_exp/static/images/task_images/rocket-08.jpg"",""time"":7272.599999997765},{""stimulus"":""run_exp/static/images/task_images/rocket-09.jpg"",""time"":8312.599999997765}]",[],2,,,,,,,,,,,,,,
alien_welcome,92,641625,0.0-31.0-1.0,"""event"",""trial"",""time""
""fullscreenenter"",""1"",""3172""
","
","
","""event"",""trial"",""time""
""fullscreenenter"",""1"",""3172""
","
",,null,run_exp/static/images/task_images/aliens/old_aliens/planet/alien_planet-6.jpg,null,,,,,,,,,,,,,6,"52,8,6,38,20,42,79,2,18,14,56,46,72,22,55,23,5,21,63,80,3,45,73,64,9,77,16,44,47,62,68,26,30,34,1,74,75,11,12,28,4",,,,,,,,,,
land,93,642137,0.0-31.0-2.0,"""event"",""trial"",""time""
""fullscreenenter"",""1"",""3172""
","
","
","""event"",""trial"",""time""
""fullscreenenter"",""1"",""3172""
","
",,null,run_exp/static/images/task_images/land.jpg,null,,,,,,,105,,,3,,,,,,,,,,,,,,
dig,94,644153,0.0-31.0-3.0,"""event"",""trial"",""time""
""fullscreenenter"",""1"",""3172""
","
","
","""event"",""trial"",""time""
""fullscreenenter"",""1"",""3172""
","
",,,,,,,,,,,,"[{""stimulus"":""run_exp/static/images/task_images/dig.jpg"",""time"":0.4000000022351742},{""stimulus"":""run_exp/static/images/task_images/land.jpg"",""time"":674.4000000022352},{""stimulus"":""run_exp/static/images/task_images/dig.jpg"",""time"":1338}]",[],3,,,,,,,,,,,,,,
harvest,95,645161,0.0-31.0-4.0,"""event"",""trial"",""time""
""fullscreenenter"",""1"",""3172""
","
","
","""event"",""trial"",""time""
""fullscreenenter"",""1"",""3172""
","
",,null,run_exp/static/images/task_images/gems/105.jpg,null,,,,,,,46,,,3,,,,,105,0.44187848,0.438095238,,,,,,,
decision,96,645491,0.0-31.0-5.0,"""event"",""trial"",""time""
""fullscreenenter"",""1"",""3172""
","
","
","""event"",""trial"",""time""
""fullscreenenter"",""1"",""3172""
","
",,328.4,run_exp/static/images/task_images/land.jpg,65,,,,,,,46,,,3,,,,,,,,70092,1,0,FALSE,,,
dig,97,648173,0.0-32.0-0.0,"""event"",""trial"",""time""
""fullscreenenter"",""1"",""3172""
","
","
","""event"",""trial"",""time""
""fullscreenenter"",""1"",""3172""
","
",,,,,,,,,,,,"[{""stimulus"":""run_exp/static/images/task_images/dig.jpg"",""time"":0.09999999776482582},{""stimulus"":""run_exp/static/images/task_images/land.jpg"",""time"":897.8999999985099},{""stimulus"":""run_exp/static/images/task_images/dig.jpg"",""time"":1791.5999999977648}]",[],3,,,,,,,,,,,,,,
harvest,98,649183,0.0-32.0-1.0,"""event"",""trial"",""time""
""fullscreenenter"",""1"",""3172""
","
","
","""event"",""trial"",""time""
""fullscreenenter"",""1"",""3172""
","
",,null,run_exp/static/images/task_images/gems/46.jpg,null,,,,,,,23,,,3,,,,,46,0.502671282,0.5,,,,,,,
decision,99,649974,0.0-32.0-2.0,"""event"",""trial"",""time""
""fullscreenenter"",""1"",""3172""
","
","
","""event"",""trial"",""time""
""fullscreenenter"",""1"",""3172""
","
",,788.7,run_exp/static/images/task_images/land.jpg,65,,,,,,,23,,,3,,,,,,,,74575,1,1,FALSE,,,
dig,100,652196,0.0-33.0-0.0,"""event"",""trial"",""time""
""fullscreenenter"",""1"",""3172""
","
","
","""event"",""trial"",""time""
""fullscreenenter"",""1"",""3172""
","
",,,,,,,,,,,,"[{""stimulus"":""run_exp/static/images/task_images/dig.jpg"",""time"":0.20000000298023224},{""stimulus"":""run_exp/static/images/task_images/land.jpg"",""time"":749.5},{""stimulus"":""run_exp/static/images/task_images/dig.jpg"",""time"":1485.5}]",[],3,,,,,,,,,,,,,,
harvest,101,653204,0.0-33.0-1.0,"""event"",""trial"",""time""
""fullscreenenter"",""1"",""3172""
","
","
","""event"",""trial"",""time""
""fullscreenenter"",""1"",""3172""
","
",,null,run_exp/static/images/task_images/gems/23.jpg,null,,,,,,,13,,,3,,,,,23,0.586242604,0.565217391,,,,,,,
decision,102,653468,0.0-33.0-2.0,"""event"",""trial"",""time""
""fullscreenenter"",""1"",""3172""
","
","
","""event"",""trial"",""time""
""fullscreenenter"",""1"",""3172""
","
",,260.9,run_exp/static/images/task_images/land.jpg,65,,,,,,,13,,,3,,,,,,,,78069,1,2,FALSE,,,
dig,103,656222,0.0-34.0-0.0,"""event"",""trial"",""time""
""fullscreenenter"",""1"",""3172""
","
","
","""event"",""trial"",""time""
""fullscreenenter"",""1"",""3172""
","
",,,,,,,,,,,,"[{""stimulus"":""run_exp/static/images/task_images/dig.jpg"",""time"":0.10000000149011612},{""stimulus"":""run_exp/static/images/task_images/land.jpg"",""time"":920.8000000007451},{""stimulus"":""run_exp/static/images/task_images/dig.jpg"",""time"":1832.699999999255}]",[],3,,,,,,,,,,,,,,
harvest,104,657232,0.0-34.0-1.0,"""event"",""trial"",""time""
""fullscreenenter"",""1"",""3172""
","
","
","""event"",""trial"",""time""
""fullscreenenter"",""1"",""3172""
","
",,null,run_exp/static/images/task_images/gems/13.jpg,null,,,,,,,6,,,3,,,,,13,0.496116668,0.461538462,,,,,,,
decision,105,657754,0.0-34.0-2.0,"""event"",""trial"",""time""
""fullscreenenter"",""1"",""3172""
","
","
","""event"",""trial"",""time""
""fullscreenenter"",""1"",""3172""
","
",,519.7,run_exp/static/images/task_images/land.jpg,65,,,,,,,6,,,3,,,,,,,,82355,1,3,FALSE,,,
dig,106,660248,0.0-35.0-0.0,"""event"",""trial"",""time""
""fullscreenenter"",""1"",""3172""
","
","
","""event"",""trial"",""time""
""fullscreenenter"",""1"",""3172""
","
",,,,,,,,,,,,"[{""stimulus"":""run_exp/static/images/task_images/dig.jpg"",""time"":0.19999999925494194},{""stimulus"":""run_exp/static/images/task_images/land.jpg"",""time"":834.8000000007451},{""stimulus"":""run_exp/static/images/task_images/dig.jpg"",""time"":1658.800000000745}]",[],3,,,,,,,,,,,,,,
harvest,107,661256,0.0-35.0-1.0,"""event"",""trial"",""time""
""fullscreenenter"",""1"",""3172""
","
","
","""event"",""trial"",""time""
""fullscreenenter"",""1"",""3172""
","
",,null,run_exp/static/images/task_images/gems/6.jpg,null,,,,,,,3,,,3,,,,,6,0.536623774,0.5,,,,,,,
decision,108,661585,0.0-35.0-2.0,"""event"",""trial"",""time""
""fullscreenenter"",""1"",""3172""
","
","
","""event"",""trial"",""time""
""fullscreenenter"",""1"",""3172""
","
",,326.5,run_exp/static/images/task_images/land.jpg,65,,,,,,,3,,,3,,,,,,,,86186,1,4,FALSE,,,
dig,109,664272,0.0-36.0-0.0,"""event"",""trial"",""time""
""fullscreenenter"",""1"",""3172""
","
","
","""event"",""trial"",""time""
""fullscreenenter"",""1"",""3172""
","
",,,,,,,,,,,,"[{""stimulus"":""run_exp/static/images/task_images/dig.jpg"",""time"":0.10000000149011612},{""stimulus"":""run_exp/static/images/task_images/land.jpg"",""time"":899.3999999985099},{""stimulus"":""run_exp/static/images/task_images/dig.jpg"",""time"":1795.5}]",[],3,,,,,,,,,,,,,,
harvest,110,665280,0.0-36.0-1.0,"""event"",""trial"",""time""
""fullscreenenter"",""1"",""3172""
","
","
","""event"",""trial"",""time""
""fullscreenenter"",""1"",""3172""
","
",,null,run_exp/static/images/task_images/gems/3.jpg,null,,,,,,,2,,,3,,,,,3,0.562902442,0.666666667,,,,,,,
decision,111,665817,0.0-36.0-2.0,"""event"",""trial"",""time""
""fullscreenenter"",""1"",""3172""
","
","
","""event"",""trial"",""time""
""fullscreenenter"",""1"",""3172""
","
",,534.4,run_exp/static/images/task_images/land.jpg,76,,,,,,,2,,,3,,,,,,,,90418,1,5,TRUE,,,
travel,112,675284,0.0-37.0-0.0,"""event"",""trial"",""time""
""fullscreenenter"",""1"",""3172""
","
","
","""event"",""trial"",""time""
""fullscreenenter"",""1"",""3172""
","
",,,,,,,,,,,,"[{""stimulus"":""run_exp/static/images/task_images/rocket-01.jpg"",""time"":0.19999999925494194},{""stimulus"":""run_exp/static/images/task_images/rocket-02.jpg"",""time"":1059.0999999977648},{""stimulus"":""run_exp/static/images/task_images/rocket-03.jpg"",""time"":2114.89999999851},{""stimulus"":""run_exp/static/images/task_images/rocket-04.jpg"",""time"":3160.800000000745},{""stimulus"":""run_exp/static/images/task_images/rocket-05.jpg"",""time"":4211.199999999255},{""stimulus"":""run_exp/static/images/task_images/rocket-06.jpg"",""time"":5267.300000000745},{""stimulus"":""run_exp/static/images/task_images/rocket-07.jpg"",""time"":6311.099999997765},{""stimulus"":""run_exp/static/images/task_images/rocket-08.jpg"",""time"":7370.800000000745},{""stimulus"":""run_exp/static/images/task_images/rocket-09.jpg"",""time"":8419.099999997765}]",[],3,,,,,,,,,,,,,,
alien_welcome,113,680291,0.0-37.0-1.0,"""event"",""trial"",""time""
""fullscreenenter"",""1"",""3172""
","
","
","""event"",""trial"",""time""
""fullscreenenter"",""1"",""3172""
","
",,null,run_exp/static/images/task_images/aliens/old_aliens/planet/alien_planet-38.jpg,null,,,,,,,,,,,,,38,"52,8,6,38,20,42,79,2,18,14,56,46,72,22,55,23,5,21,63,80,3,45,73,64,9,77,16,44,47,62,68,26,30,34,1,74,75,11,12,28,4",,,,,,,,,,
land,114,680800,0.0-37.0-2.0,"""event"",""trial"",""time""
""fullscreenenter"",""1"",""3172""
","
","
","""event"",""trial"",""time""
""fullscreenenter"",""1"",""3172""
","
",,null,run_exp/static/images/task_images/land.jpg,null,,,,,,,100,,,4,,,,,,,,,,,,,,
dig,115,682816,0.0-37.0-3.0,"""event"",""trial"",""time""
""fullscreenenter"",""1"",""3172""
","
","
","""event"",""trial"",""time""
""fullscreenenter"",""1"",""3172""
","
",,,,,,,,,,,,"[{""stimulus"":""run_exp/static/images/task_images/dig.jpg"",""time"":0.5},{""stimulus"":""run_exp/static/images/task_images/land.jpg"",""time"":678.1000000014901},{""stimulus"":""run_exp/static/images/task_images/dig.jpg"",""time"":1337.800000000745}]",[],4,,,,,,,,,,,,,,
harvest,116,683824,0.0-37.0-4.0,"""event"",""trial"",""time""
""fullscreenenter"",""1"",""3172""
","
","
","""event"",""trial"",""time""
""fullscreenenter"",""1"",""3172""
","
",,null,run_exp/static/images/task_images/gems/100.jpg,null,,,,,,,46,,,4,,,,,100,0.46076485,0.46,,,,,,,
decision,117,684188,0.0-37.0-5.0,"""event"",""trial"",""time""
""fullscreenenter"",""1"",""3172""
","
","
","""event"",""trial"",""time""
""fullscreenenter"",""1"",""3172""
","
",,362.1,run_exp/static/images/task_images/land.jpg,65,,,,,,,46,,,4,,,,,,,,108790,1,0,FALSE,,,
dig,118,686838,0.0-38.0-0.0,"""event"",""trial"",""time""
""fullscreenenter"",""1"",""3172""
","
","
","""event"",""trial"",""time""
""fullscreenenter"",""1"",""3172""
","
",,,,,,,,,,,,"[{""stimulus"":""run_exp/static/images/task_images/dig.jpg"",""time"":0.19999999925494194},{""stimulus"":""run_exp/static/images/task_images/land.jpg"",""time"":888},{""stimulus"":""run_exp/static/images/task_images/dig.jpg"",""time"":1764.1000000014901}]",[],4,,,,,,,,,,,,,,
harvest,119,687844,0.0-38.0-1.0,"""event"",""trial"",""time""
""fullscreenenter"",""1"",""3172""
","
","
","""event"",""trial"",""time""
""fullscreenenter"",""1"",""3172""
","
",,null,run_exp/static/images/task_images/gems/46.jpg,null,,,,,,,24,,,4,,,,,46,0.511006253,0.52173913,,,,,,,
decision,120,689703,0.0-38.0-2.0,"""event"",""trial"",""time""
""fullscreenenter"",""1"",""3172""
","
","
","""event"",""trial"",""time""
""fullscreenenter"",""1"",""3172""
","
",,1856.3,run_exp/static/images/task_images/land.jpg,65,,,,,,,24,,,4,,,,,,,,114304,1,1,FALSE,,,
dig,121,690860,0.0-39.0-0.0,"""event"",""trial"",""time""
""fullscreenenter"",""1"",""3172""
","
","
","""event"",""trial"",""time""
""fullscreenenter"",""1"",""3172""
","
",,,,,,,,,,,,"[{""stimulus"":""run_exp/static/images/task_images/dig.jpg"",""time"":0.19999999925494194},{""stimulus"":""run_exp/static/images/task_images/land.jpg"",""time"":389.30000000074506},{""stimulus"":""run_exp/static/images/task_images/dig.jpg"",""time"":765.1999999992549}]",[],4,,,,,,,,,,,,,,
harvest,122,691868,0.0-39.0-1.0,"""event"",""trial"",""time""
""fullscreenenter"",""1"",""3172""
","
","
","""event"",""trial"",""time""
""fullscreenenter"",""1"",""3172""
","
",,null,run_exp/static/images/task_images/gems/24.jpg,null,,,,,,,11,,,4,,,,,24,0.452416468,0.458333333,,,,,,,
decision,123,693198,0.0-39.0-2.0,"""event"",""trial"",""time""
""fullscreenenter"",""1"",""3172""
","
","
","""event"",""trial"",""time""
""fullscreenenter"",""1"",""3172""
","
",,1327.6,run_exp/static/images/task_images/land.jpg,65,,,,,,,11,,,4,,,,,,,,117799,1,2,FALSE,,,
dig,124,694877,0.0-40.0-0.0,"""event"",""trial"",""time""
""fullscreenenter"",""1"",""3172""
","
","
","""event"",""trial"",""time""
""fullscreenenter"",""1"",""3172""
","
",,,,,,,,,,,,"[{""stimulus"":""run_exp/static/images/task_images/dig.jpg"",""time"":0.10000000149011612},{""stimulus"":""run_exp/static/images/task_images/land.jpg"",""time"":566.3000000007451},{""stimulus"":""run_exp/static/images/task_images/dig.jpg"",""time"":1121.300000000745}]",[],4,,,,,,,,,,,,,,
harvest,125,695888,0.0-40.0-1.0,"""event"",""trial"",""time""
""fullscreenenter"",""1"",""3172""
","
","
","""event"",""trial"",""time""
""fullscreenenter"",""1"",""3172""
","
",,null,run_exp/static/images/task_images/gems/11.jpg,null,,,,,,,6,,,4,,,,,11,0.58620712,0.545454545,,,,,,,
decision,126,695942,0.0-40.0-2.0,"""event"",""trial"",""time""
""fullscreenenter"",""1"",""3172""
","
","
","""event"",""trial"",""time""
""fullscreenenter"",""1"",""3172""
","
",,52.1,run_exp/static/images/task_images/land.jpg,65,,,,,,,6,,,4,,,,,,,,120543,1,3,FALSE,,,
dig,127,698904,0.0-41.0-0.0,"""event"",""trial"",""time""
""fullscreenenter"",""1"",""3172""
","
","
","""event"",""trial"",""time""
""fullscreenenter"",""1"",""3172""
","
",,,,,,,,,,,,"[{""stimulus"":""run_exp/static/images/task_images/dig.jpg"",""time"":0.09999999776482582},{""stimulus"":""run_exp/static/images/task_images/land.jpg"",""time"":989.6999999992549},{""stimulus"":""run_exp/static/images/task_images/dig.jpg"",""time"":1969.5999999977648}]",[],4,,,,,,,,,,,,,,
harvest,128,699910,0.0-41.0-1.0,"""event"",""trial"",""time""
""fullscreenenter"",""1"",""3172""
","
","
","""event"",""trial"",""time""
""fullscreenenter"",""1"",""3172""
","
",,null,run_exp/static/images/task_images/gems/6.jpg,null,,,,,,,3,,,4,,,,,6,0.440266349,0.5,,,,,,,
decision,129,701973,0.0-41.0-2.0,"""event"",""trial"",""time""
""fullscreenenter"",""1"",""3172""
","
","
","""event"",""trial"",""time""
""fullscreenenter"",""1"",""3172""
","
",,2060.5,run_exp/static/images/task_images/land.jpg,65,,,,,,,3,,,4,,,,,,,,126574,1,4,FALSE,,,
dig,130,702923,0.0-42.0-0.0,"""event"",""trial"",""time""
""fullscreenenter"",""1"",""3172""
","
","
","""event"",""trial"",""time""
""fullscreenenter"",""1"",""3172""
","
",,,,,,,,,,,,"[{""stimulus"":""run_exp/static/images/task_images/dig.jpg"",""time"":0.20000000298023224},{""stimulus"":""run_exp/static/images/task_images/land.jpg"",""time"":324.70000000298023},{""stimulus"":""run_exp/static/images/task_images/dig.jpg"",""time"":637.7000000029802}]",[],4,,,,,,,,,,,,,,
harvest,131,703935,0.0-42.0-1.0,"""event"",""trial"",""time""
""fullscreenenter"",""1"",""3172""
","
","
","""event"",""trial"",""time""
""fullscreenenter"",""1"",""3172""
","
",,null,run_exp/static/images/task_images/gems/3.jpg,null,,,,,,,1,,,4,,,,,3,0.478011441,0.333333333,,,,,,,
decision,132,704272,0.0-42.0-2.0,"""event"",""trial"",""time""
""fullscreenenter"",""1"",""3172""
","
","
","""event"",""trial"",""time""
""fullscreenenter"",""1"",""3172""
","
",,333.8,run_exp/static/images/task_images/land.jpg,65,,,,,,,1,,,4,,,,,,,,128873,1,5,FALSE,,,
dig,133,706951,0.0-43.0-0.0,"""event"",""trial"",""time""
""fullscreenenter"",""1"",""3172""
","
","
","""event"",""trial"",""time""
""fullscreenenter"",""1"",""3172""
","
",,,,,,,,,,,,"[{""stimulus"":""run_exp/static/images/task_images/dig.jpg"",""time"":0.10000000149011612},{""stimulus"":""run_exp/static/images/task_images/land.jpg"",""time"":896.7000000029802},{""stimulus"":""run_exp/static/images/task_images/dig.jpg"",""time"":1787.2000000029802}]",[],4,,,,,,,,,,,,,,
harvest,134,707959,0.0-43.0-1.0,"""event"",""trial"",""time""
""fullscreenenter"",""1"",""3172""
","
","
","""event"",""trial"",""time""
""fullscreenenter"",""1"",""3172""
","
",,null,run_exp/static/images/task_images/gems/1.jpg,null,,,,,,,0,,,4,,,,,1,0.456030667,0,,,,,,,
decision,135,708487,0.0-43.0-2.0,"""event"",""trial"",""time""
""fullscreenenter"",""1"",""3172""
","
","
","""event"",""trial"",""time""
""fullscreenenter"",""1"",""3172""
","
",,525.9,run_exp/static/images/task_images/land.jpg,76,,,,,,,0,,,4,,,,,,,,133088,1,6,TRUE,,,
travel,136,717964,0.0-44.0-0.0,"""event"",""trial"",""time""
""fullscreenenter"",""1"",""3172""
","
","
","""event"",""trial"",""time""
""fullscreenenter"",""1"",""3172""
","
",,,,,,,,,,,,"[{""stimulus"":""run_exp/static/images/task_images/rocket-01.jpg"",""time"":0.09999999776482582},{""stimulus"":""run_exp/static/images/task_images/rocket-02.jpg"",""time"":1061.5},{""stimulus"":""run_exp/static/images/task_images/rocket-03.jpg"",""time"":2112.699999999255},{""stimulus"":""run_exp/static/images/task_images/rocket-04.jpg"",""time"":3165.699999999255},{""stimulus"":""run_exp/static/images/task_images/rocket-05.jpg"",""time"":4221.39999999851},{""stimulus"":""run_exp/static/images/task_images/rocket-06.jpg"",""time"":5261.699999999255},{""stimulus"":""run_exp/static/images/task_images/rocket-07.jpg"",""time"":6325.699999999255},{""stimulus"":""run_exp/static/images/task_images/rocket-08.jpg"",""time"":7369.699999999255},{""stimulus"":""run_exp/static/images/task_images/rocket-09.jpg"",""time"":8429.699999999255}]",[],4,,,,,,,,,,,,,,
alien_welcome,137,722971,0.0-44.0-1.0,"""event"",""trial"",""time""
""fullscreenenter"",""1"",""3172""
","
","
","""event"",""trial"",""time""
""fullscreenenter"",""1"",""3172""
","
",,null,run_exp/static/images/task_images/aliens/old_aliens/planet/alien_planet-20.jpg,null,,,,,,,,,,,,,20,"52,8,6,38,20,42,79,2,18,14,56,46,72,22,55,23,5,21,63,80,3,45,73,64,9,77,16,44,47,62,68,26,30,34,1,74,75,11,12,28,4",,,,,,,,,,
land,138,723475,0.0-44.0-2.0,"""event"",""trial"",""time""
""fullscreenenter"",""1"",""3172""
","
","
","""event"",""trial"",""time""
""fullscreenenter"",""1"",""3172""
","
",,null,run_exp/static/images/task_images/land.jpg,null,,,,,,,99,,,5,,,,,,,,,,,,,,
dig,139,725487,0.0-44.0-3.0,"""event"",""trial"",""time""
""fullscreenenter"",""1"",""3172""
","
","
","""event"",""trial"",""time""
""fullscreenenter"",""1"",""3172""
","
",,,,,,,,,,,,"[{""stimulus"":""run_exp/static/images/task_images/dig.jpg"",""time"":0.5},{""stimulus"":""run_exp/static/images/task_images/land.jpg"",""time"":672.1000000014901},{""stimulus"":""run_exp/static/images/task_images/dig.jpg"",""time"":1343.699999999255}]",[],5,,,,,,,,,,,,,,
harvest,140,726495,0.0-44.0-4.0,"""event"",""trial"",""time""
""fullscreenenter"",""1"",""3172""
","
","
","""event"",""trial"",""time""
""fullscreenenter"",""1"",""3172""
","
",,null,run_exp/static/images/task_images/gems/99.jpg,null,,,,,,,51,,,5,,,,,99,0.517574981,0.515151515,,,,,,,
decision,141,726626,0.0-44.0-5.0,"""event"",""trial"",""time""
""fullscreenenter"",""1"",""3172""
","
","
","""event"",""trial"",""time""
""fullscreenenter"",""1"",""3172""
","
",,129,run_exp/static/images/task_images/land.jpg,65,,,,,,,51,,,5,,,,,,,,151228,1,0,FALSE,,,
dig,142,729511,0.0-45.0-0.0,"""event"",""trial"",""time""
""fullscreenenter"",""1"",""3172""
","
","
","""event"",""trial"",""time""
""fullscreenenter"",""1"",""3172""
","
",,,,,,,,,,,,"[{""stimulus"":""run_exp/static/images/task_images/dig.jpg"",""time"":0.10000000149011612},{""stimulus"":""run_exp/static/images/task_images/land.jpg"",""time"":964.1999999992549},{""stimulus"":""run_exp/static/images/task_images/dig.jpg"",""time"":1920.800000000745}]",[],5,,,,,,,,,,,,,,
harvest,143,730517,0.0-45.0-1.0,"""event"",""trial"",""time""
""fullscreenenter"",""1"",""3172""
","
","
","""event"",""trial"",""time""
""fullscreenenter"",""1"",""3172""
","
",,null,run_exp/static/images/task_images/gems/51.jpg,null,,,,,,,26,,,5,,,,,51,0.513790139,0.509803922,,,,,,,
decision,144,730988,0.0-45.0-2.0,"""event"",""trial"",""time""
""fullscreenenter"",""1"",""3172""
","
","
","""event"",""trial"",""time""
""fullscreenenter"",""1"",""3172""
","
",,468.4,run_exp/static/images/task_images/land.jpg,65,,,,,,,26,,,5,,,,,,,,155589,1,1,FALSE,,,
dig,145,733535,0.0-46.0-0.0,"""event"",""trial"",""time""
""fullscreenenter"",""1"",""3172""
","
","
","""event"",""trial"",""time""
""fullscreenenter"",""1"",""3172""
","
",,,,,,,,,,,,"[{""stimulus"":""run_exp/static/images/task_images/dig.jpg"",""time"":0.10000000149011612},{""stimulus"":""run_exp/static/images/task_images/land.jpg"",""time"":854.1999999992549},{""stimulus"":""run_exp/static/images/task_images/dig.jpg"",""time"":1690.300000000745}]",[],5,,,,,,,,,,,,,,
harvest,146,734543,0.0-46.0-1.0,"""event"",""trial"",""time""
""fullscreenenter"",""1"",""3172""
","
","
","""event"",""trial"",""time""
""fullscreenenter"",""1"",""3172""
","
",,null,run_exp/static/images/task_images/gems/26.jpg,null,,,,,,,13,,,5,,,,,26,0.501214942,0.5,,,,,,,
decision,147,734978,0.0-46.0-2.0,"""event"",""trial"",""time""
""fullscreenenter"",""1"",""3172""
","
","
","""event"",""trial"",""time""
""fullscreenenter"",""1"",""3172""
","
",,433.1,run_exp/static/images/task_images/land.jpg,65,,,,,,,13,,,5,,,,,,,,159579,1,2,FALSE,,,
dig,148,737555,0.0-47.0-0.0,"""event"",""trial"",""time""
""fullscreenenter"",""1"",""3172""
","
","
","""event"",""trial"",""time""
""fullscreenenter"",""1"",""3172""
","
",,,,,,,,,,,,"[{""stimulus"":""run_exp/static/images/task_images/dig.jpg"",""time"":0},{""stimulus"":""run_exp/static/images/task_images/land.jpg"",""time"":866.3999999985099},{""stimulus"":""run_exp/static/images/task_images/dig.jpg"",""time"":1718.3999999985099}]",[],5,,,,,,,,,,,,,,
harvest,149,738567,0.0-47.0-1.0,"""event"",""trial"",""time""
""fullscreenenter"",""1"",""3172""
","
","
","""event"",""trial"",""time""
""fullscreenenter"",""1"",""3172""
","
",,null,run_exp/static/images/task_images/gems/13.jpg,null,,,,,,,7,,,5,,,,,13,0.500825514,0.538461538,,,,,,,
decision,150,738948,0.0-47.0-2.0,"""event"",""trial"",""time""
""fullscreenenter"",""1"",""3172""
","
","
","""event"",""trial"",""time""
""fullscreenenter"",""1"",""3172""
","
",,378.8,run_exp/static/images/task_images/land.jpg,65,,,,,,,7,,,5,,,,,,,,163549,1,3,FALSE,,,
dig,151,741583,0.0-48.0-0.0,"""event"",""trial"",""time""
""fullscreenenter"",""1"",""3172""
","
","
","""event"",""trial"",""time""
""fullscreenenter"",""1"",""3172""
","
",,,,,,,,,,,,"[{""stimulus"":""run_exp/static/images/task_images/dig.jpg"",""time"":0.20000000298023224},{""stimulus"":""run_exp/static/images/task_images/land.jpg"",""time"":883.4000000022352},{""stimulus"":""run_exp/static/images/task_images/dig.jpg"",""time"":1758.1000000014901}]",[],5,,,,,,,,,,,,,,
harvest,152,742591,0.0-48.0-1.0,"""event"",""trial"",""time""
""fullscreenenter"",""1"",""3172""
","
","
","""event"",""trial"",""time""
""fullscreenenter"",""1"",""3172""
","
",,null,run_exp/static/images/task_images/gems/7.jpg,null,,,,,,,4,,,5,,,,,7,0.539953705,0.571428571,,,,,,,
decision,153,742891,0.0-48.0-2.0,"""event"",""trial"",""time""
""fullscreenenter"",""1"",""3172""
","
","
","""event"",""trial"",""time""
""fullscreenenter"",""1"",""3172""
","
",,297.8,run_exp/static/images/task_images/land.jpg,65,,,,,,,4,,,5,,,,,,,,167492,1,4,FALSE,,,
dig,154,745607,0.0-49.0-0.0,"""event"",""trial"",""time""
""fullscreenenter"",""1"",""3172""
","
","
","""event"",""trial"",""time""
""fullscreenenter"",""1"",""3172""
","
",,,,,,,,,,,,"[{""stimulus"":""run_exp/static/images/task_images/dig.jpg"",""time"":0.10000000149011612},{""stimulus"":""run_exp/static/images/task_images/land.jpg"",""time"":911.8000000007451},{""stimulus"":""run_exp/static/images/task_images/dig.jpg"",""time"":1807.800000000745}]",[],5,,,,,,,,,,,,,,
harvest,155,746611,0.0-49.0-1.0,"""event"",""trial"",""time""
""fullscreenenter"",""1"",""3172""
","
","
","""event"",""trial"",""time""
""fullscreenenter"",""1"",""3172""
","
",,null,run_exp/static/images/task_images/gems/4.jpg,null,,,,,,,2,,,5,,,,,4,0.46116808,0.5,,,,,,,
decision,156,746622,0.0-49.0-2.0,"""event"",""trial"",""time""
""fullscreenenter"",""1"",""3172""
","
","
","""event"",""trial"",""time""
""fullscreenenter"",""1"",""3172""
","
",,8.699999999,run_exp/static/images/task_images/land.jpg,65,,,,,,,2,,,5,,,,,,,,171223,1,5,FALSE,,,
dig,157,749619,0.0-50.0-0.0,"""event"",""trial"",""time""
""fullscreenenter"",""1"",""3172""
","
","
","""event"",""trial"",""time""
""fullscreenenter"",""1"",""3172""
","
",,,,,,,,,,,,"[{""stimulus"":""run_exp/static/images/task_images/dig.jpg"",""time"":0.09999999776482582},{""stimulus"":""run_exp/static/images/task_images/land.jpg"",""time"":1005.8999999985099},{""stimulus"":""run_exp/static/images/task_images/dig.jpg"",""time"":2003.0999999977648}]",[],5,,,,,,,,,,,,,,
harvest,158,750631,0.0-50.0-1.0,"""event"",""trial"",""time""
""fullscreenenter"",""1"",""3172""
","
","
","""event"",""trial"",""time""
""fullscreenenter"",""1"",""3172""
","
",,null,run_exp/static/images/task_images/gems/2.jpg,null,,,,,,,1,,,5,,,,,2,0.606219209,0.5,,,,,,,
decision,159,751163,0.0-50.0-2.0,"""event"",""trial"",""time""
""fullscreenenter"",""1"",""3172""
","
","
","""event"",""trial"",""time""
""fullscreenenter"",""1"",""3172""
","
",,530.1,run_exp/static/images/task_images/land.jpg,76,,,,,,,1,,,5,,,,,,,,175764,1,6,TRUE,,,
travel,160,760646,0.0-51.0-0.0,"""event"",""trial"",""time""
""fullscreenenter"",""1"",""3172""
","
","
","""event"",""trial"",""time""
""fullscreenenter"",""1"",""3172""
","
",,,,,,,,,,,,"[{""stimulus"":""run_exp/static/images/task_images/rocket-01.jpg"",""time"":0.19999999925494194},{""stimulus"":""run_exp/static/images/task_images/rocket-02.jpg"",""time"":1063.300000000745},{""stimulus"":""run_exp/static/images/task_images/rocket-03.jpg"",""time"":2109.199999999255},{""stimulus"":""run_exp/static/images/task_images/rocket-04.jpg"",""time"":3167.300000000745},{""stimulus"":""run_exp/static/images/task_images/rocket-05.jpg"",""time"":4214.300000000745},{""stimulus"":""run_exp/static/images/task_images/rocket-06.jpg"",""time"":5267.699999999255},{""stimulus"":""run_exp/static/images/task_images/rocket-07.jpg"",""time"":6315.199999999255},{""stimulus"":""run_exp/static/images/task_images/rocket-08.jpg"",""time"":7375.599999997765},{""stimulus"":""run_exp/static/images/task_images/rocket-09.jpg"",""time"":8423.699999999255}]",[],5,,,,,,,,,,,,,,
alien_welcome,161,765650,0.0-51.0-1.0,"""event"",""trial"",""time""
""fullscreenenter"",""1"",""3172""
","
","
","""event"",""trial"",""time""
""fullscreenenter"",""1"",""3172""
","
",,null,run_exp/static/images/task_images/aliens/old_aliens/planet/alien_planet-42.jpg,null,,,,,,,,,,,,,42,"52,8,6,38,20,42,79,2,18,14,56,46,72,22,55,23,5,21,63,80,3,45,73,64,9,77,16,44,47,62,68,26,30,34,1,74,75,11,12,28,4",,,,,,,,,,
land,162,766154,0.0-51.0-2.0,"""event"",""trial"",""time""
""fullscreenenter"",""1"",""3172""
","
","
","""event"",""trial"",""time""
""fullscreenenter"",""1"",""3172""
","
",,null,run_exp/static/images/task_images/land.jpg,null,,,,,,,98,,,6,,,,,,,,,,,,,,
dig,163,768166,0.0-51.0-3.0,"""event"",""trial"",""time""
""fullscreenenter"",""1"",""3172""
","
","
","""event"",""trial"",""time""
""fullscreenenter"",""1"",""3172""
","
",,,,,,,,,,,,"[{""stimulus"":""run_exp/static/images/task_images/dig.jpg"",""time"":0.5},{""stimulus"":""run_exp/static/images/task_images/land.jpg"",""time"":672.5},{""stimulus"":""run_exp/static/images/task_images/dig.jpg"",""time"":1342.8999999985099}]",[],6,,,,,,,,,,,,,,
harvest,164,769170,0.0-51.0-4.0,"""event"",""trial"",""time""
""fullscreenenter"",""1"",""3172""
","
","
","""event"",""trial"",""time""
""fullscreenenter"",""1"",""3172""
","
",,null,run_exp/static/images/task_images/gems/98.jpg,null,,,,,,,87,,,6,,,,,98,0.887233616,0.887755102,,,,,,,
decision,165,769710,0.0-51.0-5.0,"""event"",""trial"",""time""
""fullscreenenter"",""1"",""3172""
","
","
","""event"",""trial"",""time""
""fullscreenenter"",""1"",""3172""
","
",,538,run_exp/static/images/task_images/land.jpg,65,,,,,,,87,,,6,,,,,,,,194312,1,0,FALSE,,,
dig,166,772180,0.0-52.0-0.0,"""event"",""trial"",""time""
""fullscreenenter"",""1"",""3172""
","
","
","""event"",""trial"",""time""
""fullscreenenter"",""1"",""3172""
","
",,,,,,,,,,,,"[{""stimulus"":""run_exp/static/images/task_images/dig.jpg"",""time"":0.19999999925494194},{""stimulus"":""run_exp/static/images/task_images/land.jpg"",""time"":824.7999999970198},{""stimulus"":""run_exp/static/images/task_images/dig.jpg"",""time"":1650.8999999985099}]",[],6,,,,,,,,,,,,,,
harvest,167,773186,0.0-52.0-1.0,"""event"",""trial"",""time""
""fullscreenenter"",""1"",""3172""
","
","
","""event"",""trial"",""time""
""fullscreenenter"",""1"",""3172""
","
",,null,run_exp/static/images/task_images/gems/87.jpg,null,,,,,,,76,,,6,,,,,87,0.875643673,0.873563218,,,,,,,
decision,168,774370,0.0-52.0-2.0,"""event"",""trial"",""time""
""fullscreenenter"",""1"",""3172""
","
","
","""event"",""trial"",""time""
""fullscreenenter"",""1"",""3172""
","
",,1182,run_exp/static/images/task_images/land.jpg,65,,,,,,,76,,,6,,,,,,,,198972,1,1,FALSE,,,
dig,169,776202,0.0-53.0-0.0,"""event"",""trial"",""time""
""fullscreenenter"",""1"",""3172""
","
","
","""event"",""trial"",""time""
""fullscreenenter"",""1"",""3172""
","
",,,,,,,,,,,,"[{""stimulus"":""run_exp/static/images/task_images/dig.jpg"",""time"":0.19999999925494194},{""stimulus"":""run_exp/static/images/task_images/land.jpg"",""time"":615.7999999970198},{""stimulus"":""run_exp/static/images/task_images/dig.jpg"",""time"":1223.7999999970198}]",[],6,,,,,,,,,,,,,,
harvest,170,777206,0.0-53.0-1.0,"""event"",""trial"",""time""
""fullscreenenter"",""1"",""3172""
","
","
","""event"",""trial"",""time""
""fullscreenenter"",""1"",""3172""
","
",,null,run_exp/static/images/task_images/gems/76.jpg,null,,,,,,,57,,,6,,,,,76,0.746595935,0.75,,,,,,,
decision,171,779135,0.0-53.0-2.0,"""event"",""trial"",""time""
""fullscreenenter"",""1"",""3172""
","
","
","""event"",""trial"",""time""
""fullscreenenter"",""1"",""3172""
","
",,1926.8,run_exp/static/images/task_images/land.jpg,65,,,,,,,57,,,6,,,,,,,,203737,1,2,FALSE,,,
dig,172,780220,0.0-54.0-0.0,"""event"",""trial"",""time""
""fullscreenenter"",""1"",""3172""
","
","
","""event"",""trial"",""time""
""fullscreenenter"",""1"",""3172""
","
",,,,,,,,,,,,"[{""stimulus"":""run_exp/static/images/task_images/dig.jpg"",""time"":0.19999999925494194},{""stimulus"":""run_exp/static/images/task_images/land.jpg"",""time"":370.5999999977648},{""stimulus"":""run_exp/static/images/task_images/dig.jpg"",""time"":722.6999999992549}]",[],6,,,,,,,,,,,,,,
harvest,173,781229,0.0-54.0-1.0,"""event"",""trial"",""time""
""fullscreenenter"",""1"",""3172""
","
","
","""event"",""trial"",""time""
""fullscreenenter"",""1"",""3172""
","
",,null,run_exp/static/images/task_images/gems/57.jpg,null,,,,,,,46,,,6,,,,,57,0.800559866,0.807017544,,,,,,,
decision,174,781342,0.0-54.0-2.0,"""event"",""trial"",""time""
""fullscreenenter"",""1"",""3172""
","
","
","""event"",""trial"",""time""
""fullscreenenter"",""1"",""3172""
","
",,111,run_exp/static/images/task_images/land.jpg,65,,,,,,,46,,,6,,,,,,,,205943,1,3,FALSE,,,
dig,175,784243,0.0-55.0-0.0,"""event"",""trial"",""time""
""fullscreenenter"",""1"",""3172""
","
","
","""event"",""trial"",""time""
""fullscreenenter"",""1"",""3172""
","
",,,,,,,,,,,,"[{""stimulus"":""run_exp/static/images/task_images/dig.jpg"",""time"":0.10000000149011612},{""stimulus"":""run_exp/static/images/task_images/land.jpg"",""time"":972.1000000014901},{""stimulus"":""run_exp/static/images/task_images/dig.jpg"",""time"":1936.800000000745}]",[],6,,,,,,,,,,,,,,
harvest,176,785254,0.0-55.0-1.0,"""event"",""trial"",""time""
""fullscreenenter"",""1"",""3172""
","
","
","""event"",""trial"",""time""
""fullscreenenter"",""1"",""3172""
","
",,null,run_exp/static/images/task_images/gems/46.jpg,null,,,,,,,36,,,6,,,,,46,0.778600458,0.782608696,,,,,,,
decision,177,785546,0.0-55.0-2.0,"""event"",""trial"",""time""
""fullscreenenter"",""1"",""3172""
","
","
","""event"",""trial"",""time""
""fullscreenenter"",""1"",""3172""
","
",,289.2,run_exp/static/images/task_images/land.jpg,65,,,,,,,36,,,6,,,,,,,,210147,1,4,FALSE,,,
dig,178,788270,0.0-56.0-0.0,"""event"",""trial"",""time""
""fullscreenenter"",""1"",""3172""
","
","
","""event"",""trial"",""time""
""fullscreenenter"",""1"",""3172""
","
",,,,,,,,,,,,"[{""stimulus"":""run_exp/static/images/task_images/dig.jpg"",""time"":0.10000000149011612},{""stimulus"":""run_exp/static/images/task_images/land.jpg"",""time"":908.6000000014901},{""stimulus"":""run_exp/static/images/task_images/dig.jpg"",""time"":1816.5}]",[],6,,,,,,,,,,,,,,
harvest,179,789278,0.0-56.0-1.0,"""event"",""trial"",""time""
""fullscreenenter"",""1"",""3172""
","
","
","""event"",""trial"",""time""
""fullscreenenter"",""1"",""3172""
","
",,null,run_exp/static/images/task_images/gems/36.jpg,null,,,,,,,30,,,6,,,,,36,0.834788277,0.833333333,,,,,,,
decision,180,789683,0.0-56.0-2.0,"""event"",""trial"",""time""
""fullscreenenter"",""1"",""3172""
","
","
","""event"",""trial"",""time""
""fullscreenenter"",""1"",""3172""
","
",,402.3,run_exp/static/images/task_images/land.jpg,65,,,,,,,30,,,6,,,,,,,,214284,1,5,FALSE,,,
dig,181,792290,0.0-57.0-0.0,"""event"",""trial"",""time""
""fullscreenenter"",""1"",""3172""
","
","
","""event"",""trial"",""time""
""fullscreenenter"",""1"",""3172""
","
",,,,,,,,,,,,"[{""stimulus"":""run_exp/static/images/task_images/dig.jpg"",""time"":0.10000000149011612},{""stimulus"":""run_exp/static/images/task_images/land.jpg"",""time"":871.1000000014901},{""stimulus"":""run_exp/static/images/task_images/dig.jpg"",""time"":1739.300000000745}]",[],6,,,,,,,,,,,,,,
harvest,182,793298,0.0-57.0-1.0,"""event"",""trial"",""time""
""fullscreenenter"",""1"",""3172""
","
","
","""event"",""trial"",""time""
""fullscreenenter"",""1"",""3172""
","
",,null,run_exp/static/images/task_images/gems/30.jpg,null,,,,,,,23,,,6,,,,,30,0.751145531,0.766666667,,,,,,,
decision,183,793678,0.0-57.0-2.0,"""event"",""trial"",""time""
""fullscreenenter"",""1"",""3172""
","
","
","""event"",""trial"",""time""
""fullscreenenter"",""1"",""3172""
","
",,377.3,run_exp/static/images/task_images/land.jpg,65,,,,,,,23,,,6,,,,,,,,218279,1,6,FALSE,,,
dig,184,796314,0.0-58.0-0.0,"""event"",""trial"",""time""
""fullscreenenter"",""1"",""3172""
","
","
","""event"",""trial"",""time""
""fullscreenenter"",""1"",""3172""
","
",,,,,,,,,,,,"[{""stimulus"":""run_exp/static/images/task_images/dig.jpg"",""time"":0.10000000149011612},{""stimulus"":""run_exp/static/images/task_images/land.jpg"",""time"":883},{""stimulus"":""run_exp/static/images/task_images/dig.jpg"",""time"":1752.7000000029802}]",[],6,,,,,,,,,,,,,,
harvest,185,797322,0.0-58.0-1.0,"""event"",""trial"",""time""
""fullscreenenter"",""1"",""3172""
","
","
","""event"",""trial"",""time""
""fullscreenenter"",""1"",""3172""
","
",,null,run_exp/static/images/task_images/gems/23.jpg,null,,,,,,,19,,,6,,,,,23,0.83417099,0.826086957,,,,,,,
decision,186,797542,0.0-58.0-2.0,"""event"",""trial"",""time""
""fullscreenenter"",""1"",""3172""
","
","
","""event"",""trial"",""time""
""fullscreenenter"",""1"",""3172""
","
",,217.8,run_exp/static/images/task_images/land.jpg,65,,,,,,,19,,,6,,,,,,,,222144,1,7,FALSE,,,
dig,187,800342,0.0-59.0-0.0,"""event"",""trial"",""time""
""fullscreenenter"",""1"",""3172""
","
","
","""event"",""trial"",""time""
""fullscreenenter"",""1"",""3172""
","
",,,,,,,,,,,,"[{""stimulus"":""run_exp/static/images/task_images/dig.jpg"",""time"":0.30000000074505806},{""stimulus"":""run_exp/static/images/task_images/land.jpg"",""time"":934.5999999977648},{""stimulus"":""run_exp/static/images/task_images/dig.jpg"",""time"":1866.5999999977648}]",[],6,,,,,,,,,,,,,,
harvest,188,801348,0.0-59.0-1.0,"""event"",""trial"",""time""
""fullscreenenter"",""1"",""3172""
","
","
","""event"",""trial"",""time""
""fullscreenenter"",""1"",""3172""
","
",,null,run_exp/static/images/task_images/gems/19.jpg,null,,,,,,,15,,,6,,,,,19,0.785417712,0.789473684,,,,,,,
decision,189,801491,0.0-59.0-2.0,"""event"",""trial"",""time""
""fullscreenenter"",""1"",""3172""
","
","
","""event"",""trial"",""time""
""fullscreenenter"",""1"",""3172""
","
",,140.2,run_exp/static/images/task_images/land.jpg,65,,,,,,,15,,,6,,,,,,,,226092,1,8,FALSE,,,
dig,190,804365,0.0-60.0-0.0,"""event"",""trial"",""time""
""fullscreenenter"",""1"",""3172""
","
","
","""event"",""trial"",""time""
""fullscreenenter"",""1"",""3172""
","
",,,,,,,,,,,,"[{""stimulus"":""run_exp/static/images/task_images/dig.jpg"",""time"":0.30000000074505806},{""stimulus"":""run_exp/static/images/task_images/land.jpg"",""time"":963.4000000022352},{""stimulus"":""run_exp/static/images/task_images/dig.jpg"",""time"":1917.1000000014901}]",[],6,,,,,,,,,,,,,,
harvest,191,805370,0.0-60.0-1.0,"""event"",""trial"",""time""
""fullscreenenter"",""1"",""3172""
","
","
","""event"",""trial"",""time""
""fullscreenenter"",""1"",""3172""
","
",,null,run_exp/static/images/task_images/gems/15.jpg,null,,,,,,,13,,,6,,,,,15,0.844255605,0.866666667,,,,,,,
decision,192,806545,0.0-60.0-2.0,"""event"",""trial"",""time""
""fullscreenenter"",""1"",""3172""
","
","
","""event"",""trial"",""time""
""fullscreenenter"",""1"",""3172""
","
",,1172.5,run_exp/static/images/task_images/land.jpg,65,,,,,,,13,,,6,,,,,,,,231146,1,9,FALSE,,,
dig,193,808389,0.0-61.0-0.0,"""event"",""trial"",""time""
""fullscreenenter"",""1"",""3172""
","
","
","""event"",""trial"",""time""
""fullscreenenter"",""1"",""3172""
","
",,,,,,,,,,,,"[{""stimulus"":""run_exp/static/images/task_images/dig.jpg"",""time"":0.10000000149011612},{""stimulus"":""run_exp/static/images/task_images/land.jpg"",""time"":617.1000000014901},{""stimulus"":""run_exp/static/images/task_images/dig.jpg"",""time"":1220.8999999985099}]",[],6,,,,,,,,,,,,,,
harvest,194,809397,0.0-61.0-1.0,"""event"",""trial"",""time""
""fullscreenenter"",""1"",""3172""
","
","
","""event"",""trial"",""time""
""fullscreenenter"",""1"",""3172""
","
",,null,run_exp/static/images/task_images/gems/13.jpg,null,,,,,,,11,,,6,,,,,13,0.830649414,0.846153846,,,,,,,
decision,195,809433,0.0-61.0-2.0,"""event"",""trial"",""time""
""fullscreenenter"",""1"",""3172""
","
","
","""event"",""trial"",""time""
""fullscreenenter"",""1"",""3172""
","
",,33,run_exp/static/images/task_images/land.jpg,65,,,,,,,11,,,6,,,,,,,,234034,1,10,FALSE,,,
dig,196,812411,0.0-62.0-0.0,"""event"",""trial"",""time""
""fullscreenenter"",""1"",""3172""
","
","
","""event"",""trial"",""time""
""fullscreenenter"",""1"",""3172""
","
",,,,,,,,,,,,"[{""stimulus"":""run_exp/static/images/task_images/dig.jpg"",""time"":0},{""stimulus"":""run_exp/static/images/task_images/land.jpg"",""time"":997.2000000029802},{""stimulus"":""run_exp/static/images/task_images/dig.jpg"",""time"":1984}]",[],6,,,,,,,,,,,,,,
harvest,197,813419,0.0-62.0-1.0,"""event"",""trial"",""time""
""fullscreenenter"",""1"",""3172""
","
","
","""event"",""trial"",""time""
""fullscreenenter"",""1"",""3172""
","
",,null,run_exp/static/images/task_images/gems/11.jpg,null,,,,,,,9,,,6,,,,,11,0.820163053,0.818181818,,,,,,,
decision,198,813797,0.0-62.0-2.0,"""event"",""trial"",""time""
""fullscreenenter"",""1"",""3172""
","
","
","""event"",""trial"",""time""
""fullscreenenter"",""1"",""3172""
","
",,374.8,run_exp/static/images/task_images/land.jpg,65,,,,,,,9,,,6,,,,,,,,238398,1,11,FALSE,,,
dig,199,816429,0.0-63.0-0.0,"""event"",""trial"",""time""
""fullscreenenter"",""1"",""3172""
","
","
","""event"",""trial"",""time""
""fullscreenenter"",""1"",""3172""
","
",,,,,,,,,,,,"[{""stimulus"":""run_exp/static/images/task_images/dig.jpg"",""time"":0},{""stimulus"":""run_exp/static/images/task_images/land.jpg"",""time"":880.6999999992549},{""stimulus"":""run_exp/static/images/task_images/dig.jpg"",""time"":1753.199999999255}]",[],6,,,,,,,,,,,,,,
harvest,200,817437,0.0-63.0-1.0,"""event"",""trial"",""time""
""fullscreenenter"",""1"",""3172""
","
","
","""event"",""trial"",""time""
""fullscreenenter"",""1"",""3172""
","
",,null,run_exp/static/images/task_images/gems/9.jpg,null,,,,,,,8,,,6,,,,,9,0.896232174,0.888888889,,,,,,,
decision,201,817477,0.0-63.0-2.0,"""event"",""trial"",""time""
""fullscreenenter"",""1"",""3172""
","
","
","""event"",""trial"",""time""
""fullscreenenter"",""1"",""3172""
","
",,37,run_exp/static/images/task_images/land.jpg,65,,,,,,,8,,,6,,,,,,,,242078,1,12,FALSE,,,
dig,202,820453,0.0-64.0-0.0,"""event"",""trial"",""time""
""fullscreenenter"",""1"",""3172""
","
","
","""event"",""trial"",""time""
""fullscreenenter"",""1"",""3172""
","
",,,,,,,,,,,,"[{""stimulus"":""run_exp/static/images/task_images/dig.jpg"",""time"":0.30000000074505806},{""stimulus"":""run_exp/static/images/task_images/land.jpg"",""time"":996.6000000014901},{""stimulus"":""run_exp/static/images/task_images/dig.jpg"",""time"":1977}]",[],6,,,,,,,,,,,,,,
harvest,203,821462,0.0-64.0-1.0,"""event"",""trial"",""time""
""fullscreenenter"",""1"",""3172""
","
","
","""event"",""trial"",""time""
""fullscreenenter"",""1"",""3172""
","
",,null,run_exp/static/images/task_images/gems/8.jpg,null,,,,,,,6,,,6,,,,,8,0.755896536,0.75,,,,,,,
decision,204,822704,0.0-64.0-2.0,"""event"",""trial"",""time""
""fullscreenenter"",""1"",""3172""
","
","
","""event"",""trial"",""time""
""fullscreenenter"",""1"",""3172""
","
",,1240.3,run_exp/static/images/task_images/land.jpg,65,,,,,,,6,,,6,,,,,,,,247306,1,13,FALSE,,,
dig,205,824473,0.0-65.0-0.0,"""event"",""trial"",""time""
""fullscreenenter"",""1"",""3172""
","
","
","""event"",""trial"",""time""
""fullscreenenter"",""1"",""3172""
","
",,,,,,,,,,,,"[{""stimulus"":""run_exp/static/images/task_images/dig.jpg"",""time"":0.09999999776482582},{""stimulus"":""run_exp/static/images/task_images/land.jpg"",""time"":592.7999999970198},{""stimulus"":""run_exp/static/images/task_images/dig.jpg"",""time"":1184.8999999985099}]",[],6,,,,,,,,,,,,,,
harvest,206,825481,0.0-65.0-1.0,"""event"",""trial"",""time""
""fullscreenenter"",""1"",""3172""
","
","
","""event"",""trial"",""time""
""fullscreenenter"",""1"",""3172""
","
",,null,run_exp/static/images/task_images/gems/6.jpg,null,,,,,,,5,,,6,,,,,6,0.773092502,0.833333333,,,,,,,
decision,207,826166,0.0-65.0-2.0,"""event"",""trial"",""time""
""fullscreenenter"",""1"",""3172""
","
","
","""event"",""trial"",""time""
""fullscreenenter"",""1"",""3172""
","
",,682.3,run_exp/static/images/task_images/land.jpg,65,,,,,,,5,,,6,,,,,,,,250767,1,14,FALSE,,,
dig,208,828501,0.0-66.0-0.0,"""event"",""trial"",""time""
""fullscreenenter"",""1"",""3172""
","
","
","""event"",""trial"",""time""
""fullscreenenter"",""1"",""3172""
","
",,,,,,,,,,,,"[{""stimulus"":""run_exp/static/images/task_images/dig.jpg"",""time"":0.10000000149011612},{""stimulus"":""run_exp/static/images/task_images/land.jpg"",""time"":785.6999999992549},{""stimulus"":""run_exp/static/images/task_images/dig.jpg"",""time"":1553}]",[],6,,,,,,,,,,,,,,
harvest,209,829505,0.0-66.0-1.0,"""event"",""trial"",""time""
""fullscreenenter"",""1"",""3172""
","
","
","""event"",""trial"",""time""
""fullscreenenter"",""1"",""3172""
","
",,null,run_exp/static/images/task_images/gems/5.jpg,null,,,,,,,4,,,6,,,,,5,0.8300719,0.8,,,,,,,
decision,210,829849,0.0-66.0-2.0,"""event"",""trial"",""time""
""fullscreenenter"",""1"",""3172""
","
","
","""event"",""trial"",""time""
""fullscreenenter"",""1"",""3172""
","
",,342.2,run_exp/static/images/task_images/land.jpg,65,,,,,,,4,,,6,,,,,,,,254450,1,15,FALSE,,,
dig,211,832513,0.0-67.0-0.0,"""event"",""trial"",""time""
""fullscreenenter"",""1"",""3172""
","
","
","""event"",""trial"",""time""
""fullscreenenter"",""1"",""3172""
","
",,,,,,,,,,,,"[{""stimulus"":""run_exp/static/images/task_images/dig.jpg"",""time"":0.19999999925494194},{""stimulus"":""run_exp/static/images/task_images/land.jpg"",""time"":892},{""stimulus"":""run_exp/static/images/task_images/dig.jpg"",""time"":1784.199999999255}]",[],6,,,,,,,,,,,,,,
harvest,212,833525,0.0-67.0-1.0,"""event"",""trial"",""time""
""fullscreenenter"",""1"",""3172""
","
","
","""event"",""trial"",""time""
""fullscreenenter"",""1"",""3172""
","
",,null,run_exp/static/images/task_images/gems/4.jpg,null,,,,,,,3,,,6,,,,,4,0.723189762,0.75,,,,,,,
decision,213,834336,0.0-67.0-2.0,"""event"",""trial"",""time""
""fullscreenenter"",""1"",""3172""
","
","
","""event"",""trial"",""time""
""fullscreenenter"",""1"",""3172""
","
",,808.4,run_exp/static/images/task_images/land.jpg,76,,,,,,,3,,,6,,,,,,,,258937,1,16,TRUE,,,
travel,214,843540,0.0-68.0-0.0,"""event"",""trial"",""time""
""fullscreenenter"",""1"",""3172""
","
","
","""event"",""trial"",""time""
""fullscreenenter"",""1"",""3172""
","
",,,,,,,,,,,,"[{""stimulus"":""run_exp/static/images/task_images/rocket-01.jpg"",""time"":0.30000000074505806},{""stimulus"":""run_exp/static/images/task_images/rocket-02.jpg"",""time"":1030.300000000745},{""stimulus"":""run_exp/static/images/task_images/rocket-03.jpg"",""time"":2055.800000000745},{""stimulus"":""run_exp/static/images/task_images/rocket-04.jpg"",""time"":3071.699999999255},{""stimulus"":""run_exp/static/images/task_images/rocket-05.jpg"",""time"":4091.800000000745},{""stimulus"":""run_exp/static/images/task_images/rocket-06.jpg"",""time"":5107.699999999255},{""stimulus"":""run_exp/static/images/task_images/rocket-07.jpg"",""time"":6134.10000000149},{""stimulus"":""run_exp/static/images/task_images/rocket-08.jpg"",""time"":7159.699999999255},{""stimulus"":""run_exp/static/images/task_images/rocket-09.jpg"",""time"":8175.699999999255}]",[],6,,,,,,,,,,,,,,
alien_welcome,215,848549,0.0-68.0-1.0,"""event"",""trial"",""time""
""fullscreenenter"",""1"",""3172""
","
","
","""event"",""trial"",""time""
""fullscreenenter"",""1"",""3172""
","
",,null,run_exp/static/images/task_images/aliens/old_aliens/planet/alien_planet-79.jpg,null,,,,,,,,,,,,,79,"52,8,6,38,20,42,79,2,18,14,56,46,72,22,55,23,5,21,63,80,3,45,73,64,9,77,16,44,47,62,68,26,30,34,1,74,75,11,12,28,4",,,,,,,,,,
land,216,849061,0.0-68.0-2.0,"""event"",""trial"",""time""
""fullscreenenter"",""1"",""3172""
","
","
","""event"",""trial"",""time""
""fullscreenenter"",""1"",""3172""
","
",,null,run_exp/static/images/task_images/land.jpg,null,,,,,,,98,,,7,,,,,,,,,,,,,,
dig,217,851077,0.0-68.0-3.0,"""event"",""trial"",""time""
""fullscreenenter"",""1"",""3172""
","
","
","""event"",""trial"",""time""
""fullscreenenter"",""1"",""3172""
","
",,,,,,,,,,,,"[{""stimulus"":""run_exp/static/images/task_images/dig.jpg"",""time"":0.3999999985098839},{""stimulus"":""run_exp/static/images/task_images/land.jpg"",""time"":677.6999999992549},{""stimulus"":""run_exp/static/images/task_images/dig.jpg"",""time"":1337.800000000745}]",[],7,,,,,,,,,,,,,,
harvest,218,852083,0.0-68.0-4.0,"""event"",""trial"",""time""
""fullscreenenter"",""1"",""3172""
","
","
","""event"",""trial"",""time""
""fullscreenenter"",""1"",""3172""
","
",,null,run_exp/static/images/task_images/gems/98.jpg,null,,,,,,,84,,,7,,,,,98,0.857804106,0.857142857,,,,,,,
decision,219,852555,0.0-68.0-5.0,"""event"",""trial"",""time""
""fullscreenenter"",""1"",""3172""
","
","
","""event"",""trial"",""time""
""fullscreenenter"",""1"",""3172""
","
",,470.2,run_exp/static/images/task_images/land.jpg,65,,,,,,,84,,,7,,,,,,,,277157,1,0,FALSE,,,
dig,220,855101,0.0-69.0-0.0,"""event"",""trial"",""time""
""fullscreenenter"",""1"",""3172""
","
","
","""event"",""trial"",""time""
""fullscreenenter"",""1"",""3172""
","
",,,,,,,,,,,,"[{""stimulus"":""run_exp/static/images/task_images/dig.jpg"",""time"":0.19999999925494194},{""stimulus"":""run_exp/static/images/task_images/land.jpg"",""time"":851.5999999977648},{""stimulus"":""run_exp/static/images/task_images/dig.jpg"",""time"":1693.2999999970198}]",[],7,,,,,,,,,,,,,,
harvest,221,856104,0.0-69.0-1.0,"""event"",""trial"",""time""
""fullscreenenter"",""1"",""3172""
","
","
","""event"",""trial"",""time""
""fullscreenenter"",""1"",""3172""
","
",,null,run_exp/static/images/task_images/gems/84.jpg,null,,,,,,,67,,,7,,,,,84,0.795258447,0.797619048,,,,,,,
decision,222,857136,0.0-69.0-2.0,"""event"",""trial"",""time""
""fullscreenenter"",""1"",""3172""
","
","
","""event"",""trial"",""time""
""fullscreenenter"",""1"",""3172""
","
",,1029.1,run_exp/static/images/task_images/land.jpg,65,,,,,,,67,,,7,,,,,,,,281737,1,1,FALSE,,,
dig,223,859117,0.0-70.0-0.0,"""event"",""trial"",""time""
""fullscreenenter"",""1"",""3172""
","
","
","""event"",""trial"",""time""
""fullscreenenter"",""1"",""3172""
","
",,,,,,,,,,,,"[{""stimulus"":""run_exp/static/images/task_images/dig.jpg"",""time"":0.19999999925494194},{""stimulus"":""run_exp/static/images/task_images/land.jpg"",""time"":664.5999999977648},{""stimulus"":""run_exp/static/images/task_images/dig.jpg"",""time"":1316.5999999977648}]",[],7,,,,,,,,,,,,,,
harvest,224,860125,0.0-70.0-1.0,"""event"",""trial"",""time""
""fullscreenenter"",""1"",""3172""
","
","
","""event"",""trial"",""time""
""fullscreenenter"",""1"",""3172""
","
",,null,run_exp/static/images/task_images/gems/67.jpg,null,,,,,,,53,,,7,,,,,67,0.798084708,0.791044776,,,,,,,
decision,225,860459,0.0-70.0-2.0,"""event"",""trial"",""time""
""fullscreenenter"",""1"",""3172""
","
","
","""event"",""trial"",""time""
""fullscreenenter"",""1"",""3172""
","
",,331.6,run_exp/static/images/task_images/land.jpg,65,,,,,,,53,,,7,,,,,,,,285060,1,2,FALSE,,,
dig,226,863138,0.0-71.0-0.0,"""event"",""trial"",""time""
""fullscreenenter"",""1"",""3172""
","
","
","""event"",""trial"",""time""
""fullscreenenter"",""1"",""3172""
","
",,,,,,,,,,,,"[{""stimulus"":""run_exp/static/images/task_images/dig.jpg"",""time"":0.20000000298023224},{""stimulus"":""run_exp/static/images/task_images/land.jpg"",""time"":897.7000000029802},{""stimulus"":""run_exp/static/images/task_images/dig.jpg"",""time"":1787.5}]",[],7,,,,,,,,,,,,,,
harvest,227,864145,0.0-71.0-1.0,"""event"",""trial"",""time""
""fullscreenenter"",""1"",""3172""
","
","
","""event"",""trial"",""time""
""fullscreenenter"",""1"",""3172""
","
",,null,run_exp/static/images/task_images/gems/53.jpg,null,,,,,,,48,,,7,,,,,53,0.901308782,0.905660377,,,,,,,
decision,228,865054,0.0-71.0-2.0,"""event"",""trial"",""time""
""fullscreenenter"",""1"",""3172""
","
","
","""event"",""trial"",""time""
""fullscreenenter"",""1"",""3172""
","
",,906.4,run_exp/static/images/task_images/land.jpg,65,,,,,,,48,,,7,,,,,,,,289655,1,3,FALSE,,,
dig,229,867154,0.0-72.0-0.0,"""event"",""trial"",""time""
""fullscreenenter"",""1"",""3172""
","
","
","""event"",""trial"",""time""
""fullscreenenter"",""1"",""3172""
","
",,,,,,,,,,,,"[{""stimulus"":""run_exp/static/images/task_images/dig.jpg"",""time"":0.10000000149011612},{""stimulus"":""run_exp/static/images/task_images/land.jpg"",""time"":706.5},{""stimulus"":""run_exp/static/images/task_images/dig.jpg"",""time"":1400.5}]",[],7,,,,,,,,,,,,,,
harvest,230,868164,0.0-72.0-1.0,"""event"",""trial"",""time""
""fullscreenenter"",""1"",""3172""
","
","
","""event"",""trial"",""time""
""fullscreenenter"",""1"",""3172""
","
",,null,run_exp/static/images/task_images/gems/48.jpg,null,,,,,,,37,,,7,,,,,48,0.773617993,0.770833333,,,,,,,
decision,231,868428,0.0-72.0-2.0,"""event"",""trial"",""time""
""fullscreenenter"",""1"",""3172""
","
","
","""event"",""trial"",""time""
""fullscreenenter"",""1"",""3172""
","
",,261.2,run_exp/static/images/task_images/land.jpg,65,,,,,,,37,,,7,,,,,,,,293030,1,4,FALSE,,,
dig,232,871178,0.0-73.0-0.0,"""event"",""trial"",""time""
""fullscreenenter"",""1"",""3172""
","
","
","""event"",""trial"",""time""
""fullscreenenter"",""1"",""3172""
","
",,,,,,,,,,,,"[{""stimulus"":""run_exp/static/images/task_images/dig.jpg"",""time"":0.4000000022351742},{""stimulus"":""run_exp/static/images/task_images/land.jpg"",""time"":923.8000000007451},{""stimulus"":""run_exp/static/images/task_images/dig.jpg"",""time"":1831.699999999255}]",[],7,,,,,,,,,,,,,,
harvest,233,872188,0.0-73.0-1.0,"""event"",""trial"",""time""
""fullscreenenter"",""1"",""3172""
","
","
","""event"",""trial"",""time""
""fullscreenenter"",""1"",""3172""
","
",,null,run_exp/static/images/task_images/gems/37.jpg,null,,,,,,,29,,,7,,,,,37,0.79465323,0.783783784,,,,,,,
decision,234,872879,0.0-73.0-2.0,"""event"",""trial"",""time""
""fullscreenenter"",""1"",""3172""
","
","
","""event"",""trial"",""time""
""fullscreenenter"",""1"",""3172""
","
",,688.7,run_exp/static/images/task_images/land.jpg,76,,,,,,,29,,,7,,,,,,,,297481,1,5,TRUE,,,
travel,235,882196,0.0-74.0-0.0,"""event"",""trial"",""time""
""fullscreenenter"",""1"",""3172""
","
","
","""event"",""trial"",""time""
""fullscreenenter"",""1"",""3172""
","
",,,,,,,,,,,,"[{""stimulus"":""run_exp/static/images/task_images/rocket-01.jpg"",""time"":0.19999999925494194},{""stimulus"":""run_exp/static/images/task_images/rocket-02.jpg"",""time"":1036.699999999255},{""stimulus"":""run_exp/static/images/task_images/rocket-03.jpg"",""time"":2076.800000000745},{""stimulus"":""run_exp/static/images/task_images/rocket-04.jpg"",""time"":3112.699999999255},{""stimulus"":""run_exp/static/images/task_images/rocket-05.jpg"",""time"":4144.800000000745},{""stimulus"":""run_exp/static/images/task_images/rocket-06.jpg"",""time"":5172.400000002235},{""stimulus"":""run_exp/static/images/task_images/rocket-07.jpg"",""time"":6216.60000000149},{""stimulus"":""run_exp/static/images/task_images/rocket-08.jpg"",""time"":7244.60000000149},{""stimulus"":""run_exp/static/images/task_images/rocket-09.jpg"",""time"":8280.10000000149}]",[],7,,,,,,,,,,,,,,
alien_welcome,236,887204,0.0-74.0-1.0,"""event"",""trial"",""time""
""fullscreenenter"",""1"",""3172""
","
","
","""event"",""trial"",""time""
""fullscreenenter"",""1"",""3172""
","
",,null,run_exp/static/images/task_images/aliens/old_aliens/planet/alien_planet-2.jpg,null,,,,,,,,,,,,,2,"52,8,6,38,20,42,79,2,18,14,56,46,72,22,55,23,5,21,63,80,3,45,73,64,9,77,16,44,47,62,68,26,30,34,1,74,75,11,12,28,4",,,,,,,,,,
land,237,887711,0.0-74.0-2.0,"""event"",""trial"",""time""
""fullscreenenter"",""1"",""3172""
","
","
","""event"",""trial"",""time""
""fullscreenenter"",""1"",""3172""
","
",,null,run_exp/static/images/task_images/land.jpg,null,,,,,,,95,,,8,,,,,,,,,,,,,,
dig,238,889724,0.0-74.0-3.0,"""event"",""trial"",""time""
""fullscreenenter"",""1"",""3172""
","
","
","""event"",""trial"",""time""
""fullscreenenter"",""1"",""3172""
","
",,,,,,,,,,,,"[{""stimulus"":""run_exp/static/images/task_images/dig.jpg"",""time"":0.3999999985098839},{""stimulus"":""run_exp/static/images/task_images/land.jpg"",""time"":674.8000000007451},{""stimulus"":""run_exp/static/images/task_images/dig.jpg"",""time"":1342.699999999255}]",[],8,,,,,,,,,,,,,,
harvest,239,890728,0.0-74.0-4.0,"""event"",""trial"",""time""
""fullscreenenter"",""1"",""3172""
","
","
","""event"",""trial"",""time""
""fullscreenenter"",""1"",""3172""
","
",,null,run_exp/static/images/task_images/gems/95.jpg,null,,,,,,,85,,,8,,,,,95,0.889780826,0.894736842,,,,,,,
decision,240,890856,0.0-74.0-5.0,"""event"",""trial"",""time""
""fullscreenenter"",""1"",""3172""
","
","
","""event"",""trial"",""time""
""fullscreenenter"",""1"",""3172""
","
",,125,run_exp/static/images/task_images/land.jpg,65,,,,,,,85,,,8,,,,,,,,315457,1,0,TRUE,,,
end_of_block_continue,241,896415,0.0-75.0-0.0,"""event"",""trial"",""time""
""fullscreenenter"",""1"",""3172""
","
","
","""event"",""trial"",""time""
""fullscreenenter"",""1"",""3172""
","
",,5553.1,run_exp/static/audio/clip_32_block_end.m4a,,,,,,,0,,,,,,,,,,,,,,,,,,
alien_welcome,242,901428,0.0-76.0-0.0,"""event"",""trial"",""time""
""fullscreenenter"",""1"",""3172""
","
","
","""event"",""trial"",""time""
""fullscreenenter"",""1"",""3172""
","
",,null,run_exp/static/images/task_images/aliens/old_aliens/planet/alien_planet-18.jpg,null,,,,,,,,,,,,,18,"52,8,6,38,20,42,79,2,18,14,56,46,72,22,55,23,5,21,63,80,3,45,73,64,9,77,16,44,47,62,68,26,30,34,1,74,75,11,12,28,4",,,,,,,,,,
land,243,901940,0.0-76.0-1.0,"""event"",""trial"",""time""
""fullscreenenter"",""1"",""3172""
","
","
","""event"",""trial"",""time""
""fullscreenenter"",""1"",""3172""
","
",,null,run_exp/static/images/task_images/land.jpg,null,,,,,,,100,,,9,,,,,,,,,,,,,,
dig,244,903956,0.0-76.0-2.0,"""event"",""trial"",""time""
""fullscreenenter"",""1"",""3172""
","
","
","""event"",""trial"",""time""
""fullscreenenter"",""1"",""3172""
","
",,,,,,,,,,,,"[{""stimulus"":""run_exp/static/images/task_images/dig.jpg"",""time"":0.5},{""stimulus"":""run_exp/static/images/task_images/land.jpg"",""time"":673.6000000014901},{""stimulus"":""run_exp/static/images/task_images/dig.jpg"",""time"":1340.199999999255}]",[],9,,,,,,,,,,,,,,
harvest,245,904964,0.0-76.0-3.0,"""event"",""trial"",""time""
""fullscreenenter"",""1"",""3172""
","
","
","""event"",""trial"",""time""
""fullscreenenter"",""1"",""3172""
","
",,null,run_exp/static/images/task_images/gems/100.jpg,null,,,,,,,10,,,9,,,,,100,0.103956728,0.1,,,,,,,
decision,246,905030,0.0-76.0-4.0,"""event"",""trial"",""time""
""fullscreenenter"",""1"",""3172""
","
","
","""event"",""trial"",""time""
""fullscreenenter"",""1"",""3172""
","
",,63.4,run_exp/static/images/task_images/land.jpg,65,,,,,,,10,,,9,,,,,,,,8610,2,0,FALSE,,,
dig,247,907976,0.0-77.0-0.0,"""event"",""trial"",""time""
""fullscreenenter"",""1"",""3172""
","
","
","""event"",""trial"",""time""
""fullscreenenter"",""1"",""3172""
","
",,,,,,,,,,,,"[{""stimulus"":""run_exp/static/images/task_images/dig.jpg"",""time"":0.09999999776482582},{""stimulus"":""run_exp/static/images/task_images/land.jpg"",""time"":984.8999999985099},{""stimulus"":""run_exp/static/images/task_images/dig.jpg"",""time"":1960.5}]",[],9,,,,,,,,,,,,,,
harvest,248,908988,0.0-77.0-1.0,"""event"",""trial"",""time""
""fullscreenenter"",""1"",""3172""
","
","
","""event"",""trial"",""time""
""fullscreenenter"",""1"",""3172""
","
",,null,run_exp/static/images/task_images/gems/10.jpg,null,,,,,,,2,,,9,,,,,10,0.233176296,0.2,,,,,,,
decision,249,909453,0.0-77.0-2.0,"""event"",""trial"",""time""
""fullscreenenter"",""1"",""3172""
","
","
","""event"",""trial"",""time""
""fullscreenenter"",""1"",""3172""
","
",,462.2,run_exp/static/images/task_images/land.jpg,76,,,,,,,2,,,9,,,,,,,,13033,2,1,TRUE,,,
travel,250,918991,0.0-78.0-0.0,"""event"",""trial"",""time""
""fullscreenenter"",""1"",""3172""
","
","
","""event"",""trial"",""time""
""fullscreenenter"",""1"",""3172""
","
