trial_type,trial_index,time_elapsed,internal_node_id,interactions,blur_events,focus_events,fullscreenenter_events,fullscreenexit_events,success,rt,stimulus,key_press,prompt,subject_id,participant_id,age,gender,button_pressed,next_reward,animation_sequence,responses,planet,curr_prac_trial,n_prac_rounds,alien,aliens,reward_received,decay_rate_actual,decay_rate_exp,time_in_block,block_num,prt,last_trial_on_planet,button_html,bonus,num_failures
pavlovia,0,5,0.0-0.0,"""event"",""trial"",""time""
""fullscreenenter"",""1"",""8509""
","
","
","""event"",""trial"",""time""
""fullscreenenter"",""1"",""8509""
","
",,,,,,,,,,,,,,,,,,,,,,,,,,,,
fullscreen,1,9486,0.0-1.0,"""event"",""trial"",""time""
""fullscreenenter"",""1"",""8509""
","
","
","""event"",""trial"",""time""
""fullscreenenter"",""1"",""8509""
","
",TRUE,,,,,,,,,,,,,,,,,,,,,,,,,,,
instruc_welcome,2,19653,0.0-2.0,"""event"",""trial"",""time""
""fullscreenenter"",""1"",""8509""
","
","
","""event"",""trial"",""time""
""fullscreenenter"",""1"",""8509""
","
",,null,run_exp/static/audio/clip_1_welcome.m4a,null,"<p>Howdy! In this experiment, you’ll be an explorer traveling through space to collect space treasure.</p><p>Your mission is to collect as much treasure as possible.</p><br><br><p><img src='run_exp/static/images/task_images/opening_img-01.jpg' height='300' width='auto'></p>",9880,2903,24.25,Female,,,,,,,,,,,,,,,,,,,
audio-keyboard-response,3,36269,0.0-3.0,"""event"",""trial"",""time""
""fullscreenenter"",""1"",""8509""
","
","
","""event"",""trial"",""time""
""fullscreenenter"",""1"",""8509""
","
",,null,run_exp/static/audio/clip_2_move.m4a,null,,,,,,,,,,,,,,,,,,,,,,,,
welcome_dec,4,39099,0.0-4.0,"""event"",""trial"",""time""
""fullscreenenter"",""1"",""8509""
","
","
","""event"",""trial"",""time""
""fullscreenenter"",""1"",""8509""
","
",,2827.3,"<p>Howdy! In this experiment, you’ll be an explorer traveling through space to collect space treasure.</p><p>Your mission is to collect as much treasure as possible.</p><br><br><p><img src='run_exp/static/images/task_images/opening_img-01.jpg' height='300' width='auto'></p>",,,,,,,0,,,,,,,,,,,,,,,,,,
html-keyboard-response,5,39978,0.0-5.0,"""event"",""trial"",""time""
""fullscreenenter"",""1"",""8509""
","
","
","""event"",""trial"",""time""
""fullscreenenter"",""1"",""8509""
","
",,876.5999999,"<p>Howdy! In this experiment, you’ll be an explorer traveling through space to collect space treasure.</p><p>Your mission is to collect as much treasure as possible.</p><br><br><p><img src='run_exp/static/images/task_images/opening_img-01.jpg' height='300' width='auto'></p><button class=""jspsych-html-btn-chosen""><img src=""run_exp/static/images/task_images/planet-01.jpg"" height=""50""></button><button class=""jspsych-html-btn-unchosen""><img src=""run_exp/static/images/task_images/planet-02.jpg"" height=""50""></button><p><b>[press the space bar to lock in your answer]<b><br></p>",32,,,,,,,,,,,,,,,,,,,,,,,,
instruc_welcome,6,49730,0.0-6.0-0.0,"""event"",""trial"",""time""
""fullscreenenter"",""1"",""8509""
","
","
","""event"",""trial"",""time""
""fullscreenenter"",""1"",""8509""
","
",,null,run_exp/static/audio/clip_1_welcome.m4a,null,"<p>Howdy! In this experiment, you’ll be an explorer traveling through space to collect space treasure.</p><p>Your mission is to collect as much treasure as possible.</p><br><br><p><img src='run_exp/static/images/task_images/opening_img-01.jpg' height='300' width='auto'></p>",9880,2903,24,Female,,,,,,,,,,,,,,,,,,,
audio-keyboard-response,7,66314,0.0-6.0-1.0,"""event"",""trial"",""time""
""fullscreenenter"",""1"",""8509""
","
","
","""event"",""trial"",""time""
""fullscreenenter"",""1"",""8509""
","
",,null,run_exp/static/audio/clip_2_move.m4a,null,,,,,,,,,,,,,,,,,,,,,,,,
welcome_dec,8,67614,0.0-6.0-2.0,"""event"",""trial"",""time""
""fullscreenenter"",""1"",""8509""
","
","
","""event"",""trial"",""time""
""fullscreenenter"",""1"",""8509""
","
",,1292.6,"<p>Howdy! In this experiment, you’ll be an explorer traveling through space to collect space treasure.</p><p>Your mission is to collect as much treasure as possible.</p><br><br><p><img src='run_exp/static/images/task_images/opening_img-01.jpg' height='300' width='auto'></p>",,,,,,,1,,,,,,,,,,,,,,,,,,
html-keyboard-response,9,68335,0.0-6.0-3.0,"""event"",""trial"",""time""
""fullscreenenter"",""1"",""8509""
","
","
","""event"",""trial"",""time""
""fullscreenenter"",""1"",""8509""
","
",,716.9000001,"<p>Howdy! In this experiment, you’ll be an explorer traveling through space to collect space treasure.</p><p>Your mission is to collect as much treasure as possible.</p><br><br><p><img src='run_exp/static/images/task_images/opening_img-01.jpg' height='300' width='auto'></p><button class=""jspsych-html-btn-unchosen""><img src=""run_exp/static/images/task_images/planet-01.jpg"" height=""50""></button><button class=""jspsych-html-btn-chosen""><img src=""run_exp/static/images/task_images/planet-02.jpg"" height=""50""></button><p><b>[press the space bar to lock in your answer]<b><br></p>",32,,,,,,,,,,,,,,,,,,,,,,,,
instruc_goal,10,78411,0.0-7.0-0.0,"""event"",""trial"",""time""
""fullscreenenter"",""1"",""8509""
","
","
","""event"",""trial"",""time""
""fullscreenenter"",""1"",""8509""
","
",,null,run_exp/static/audio/clip_3_goal.m4a,null,"<p> As a space explorer, you’ll visit different planets to dig for space treasure, these pink gems.</p> <p> The more treasure you dig up, the more bonus money you’ll win! </p><br><br><p><img src='run_exp/static/images/task_images/pink_gem.jpg' height='300' width='auto'></p>",,,,,,,,,,,,,,,,,,,,,,,
instruc_goal,11,79863,0.0-7.0-1.0,"""event"",""trial"",""time""
""fullscreenenter"",""1"",""8509""
","
","
","""event"",""trial"",""time""
""fullscreenenter"",""1"",""8509""
","
",,1446.8,"<p> As a space explorer, you’ll visit different planets to dig for space treasure, these pink gems.</p> <p> The more treasure you dig up, the more bonus money you’ll win! </p><br><br><p><img src='run_exp/static/images/task_images/pink_gem.jpg' height='300' width='auto'></p>",,,,,,,1,,,,,,,,,,,,,,,,,,
html-keyboard-response,12,80220,0.0-7.0-2.0,"""event"",""trial"",""time""
""fullscreenenter"",""1"",""8509""
","
","
","""event"",""trial"",""time""
""fullscreenenter"",""1"",""8509""
","
",,354.7999997,"<p> As a space explorer, you’ll visit different planets to dig for space treasure, these pink gems.</p> <p> The more treasure you dig up, the more bonus money you’ll win! </p><br><br><p><img src='run_exp/static/images/task_images/pink_gem.jpg' height='300' width='auto'></p><button class=""jspsych-html-btn-unchosen""><img src=""run_exp/static/images/task_images/planet-01.jpg"" height=""50""></button><button class=""jspsych-html-btn-chosen""><img src=""run_exp/static/images/task_images/planet-02.jpg"" height=""50""></button><p><b>[press the space bar to lock in your answer]<b><br></p>",32,,,,,,,,,,,,,,,,,,,,,,,,
instruc_dig,13,96253,0.0-8.0-0.0,"""event"",""trial"",""time""
""fullscreenenter"",""1"",""8509""
","
","
","""event"",""trial"",""time""
""fullscreenenter"",""1"",""8509""
","
",,null,run_exp/static/audio/clip_4_dig.m4a,null,,,,,,,100,,,,,,,,,,,,,,,,,
instruc_dig_try,14,97310,0.0-8.0-1.0,"""event"",""trial"",""time""
""fullscreenenter"",""1"",""8509""
","
","
","""event"",""trial"",""time""
""fullscreenenter"",""1"",""8509""
","
",,1050.1,"<p> When you’ve arrived at a new planet, you will dig once. </p> <p>Then, you get to decide if you want to stay on the planet and dig again or travel to a new planet and dig there.</p> <p> To stay and dig, press the letter <strong>‘A’</strong> on your keyboard. Try pressing it now! </p><p><img src='run_exp/static/images/task_images/land.jpg'  height='700' width='auto'></p>",65,"<p> When you’ve arrived at a new planet, you will dig once. </p> <p>Then, you get to decide if you want to stay on the planet and dig again or travel to a new planet and dig there.</p> <p> To stay and dig, press the letter <strong>‘A’</strong> on your keyboard. Try pressing it now! </p><p><img src='run_exp/static/images/task_images/land.jpg'  height='700' width='auto'></p>",,,,,,100,,,,,,,,,,,,,,,,,
dig_prac,15,99339,0.0-8.0-2.0,"""event"",""trial"",""time""
""fullscreenenter"",""1"",""8509""
","
","
","""event"",""trial"",""time""
""fullscreenenter"",""1"",""8509""
","
",,,,,,,,,,,,"[{""stimulus"":""run_exp/static/images/task_images/dig.jpg"",""time"":0.2999997138977051},{""stimulus"":""run_exp/static/images/task_images/land.jpg"",""time"":672.0999999046326},{""stimulus"":""run_exp/static/images/task_images/dig.jpg"",""time"":1350.2999997138977}]",[],,,,,,,,,,,,,,,
instruc_travel,16,135609,0.0-8.0-3.0,"""event"",""trial"",""time""
""fullscreenenter"",""1"",""8509""
","
","
","""event"",""trial"",""time""
""fullscreenenter"",""1"",""8509""
","
",,null,run_exp/static/audio/clip_5_travel.m4a,null,"<p>Every time you dig up gems, there are less gems on the planet, so the more you dig on a planet the fewer gems you’ll get with each dig.</p><p>When gems are running low, you may want to travel to a new planet. </p> <p>  Planets are very far apart in this galaxy, so it will take some time to travel between them. </p> <br><p>There are lots and lots of planets for you to visit, so you won’t be able to return to any planets you’ve seen before. </p><br><p>To leave this planet and travel to a new one, press the letter <strong>‘L’</strong> on your keyboard. Try pressing it now! </p><p><img src='run_exp/static/images/task_images/rocket-01.jpg'  height='600' width='auto'></p>",,,,,,,,,,,,,,,,,,,,,,,
instruc_travel_try,17,135947,0.0-8.0-4.0,"""event"",""trial"",""time""
""fullscreenenter"",""1"",""8509""
","
","
","""event"",""trial"",""time""
""fullscreenenter"",""1"",""8509""
","
",,331.8999996,"<p>Every time you dig up gems, there are less gems on the planet, so the more you dig on a planet the fewer gems you’ll get with each dig.</p><p>When gems are running low, you may want to travel to a new planet. </p> <p>  Planets are very far apart in this galaxy, so it will take some time to travel between them. </p> <br><p>There are lots and lots of planets for you to visit, so you won’t be able to return to any planets you’ve seen before. </p><br><p>To leave this planet and travel to a new one, press the letter <strong>‘L’</strong> on your keyboard. Try pressing it now! </p><p><img src='run_exp/static/images/task_images/rocket-01.jpg'  height='600' width='auto'></p>",76,"<p>Every time you dig up gems, there are less gems on the planet, so the more you dig on a planet the fewer gems you’ll get with each dig.</p><p>When gems are running low, you may want to travel to a new planet. </p> <p>  Planets are very far apart in this galaxy, so it will take some time to travel between them. </p> <br><p>There are lots and lots of planets for you to visit, so you won’t be able to return to any planets you’ve seen before. </p><br><p>To leave this planet and travel to a new one, press the letter <strong>‘L’</strong> on your keyboard. Try pressing it now! </p><p><img src='run_exp/static/images/task_images/rocket-01.jpg'  height='600' width='auto'></p>",,,,,,,,,,,,,,,,,,,,,,,
travel_prac,18,145965,0.0-8.0-5.0,"""event"",""trial"",""time""
""fullscreenenter"",""1"",""8509""
","
","
","""event"",""trial"",""time""
""fullscreenenter"",""1"",""8509""
","
",,,,,,,,,,,,"[{""stimulus"":""run_exp/static/images/task_images/rocket-01.jpg"",""time"":0.8999996185302734},{""stimulus"":""run_exp/static/images/task_images/rocket-02.jpg"",""time"":1124.8999996185303},{""stimulus"":""run_exp/static/images/task_images/rocket-03.jpg"",""time"":2234.5999999046326},{""stimulus"":""run_exp/static/images/task_images/rocket-04.jpg"",""time"":3345},{""stimulus"":""run_exp/static/images/task_images/rocket-05.jpg"",""time"":4464.599999904633},{""stimulus"":""run_exp/static/images/task_images/rocket-06.jpg"",""time"":5565.099999904633},{""stimulus"":""run_exp/static/images/task_images/rocket-07.jpg"",""time"":6684.89999961853},{""stimulus"":""run_exp/static/images/task_images/rocket-08.jpg"",""time"":7784.89999961853},{""stimulus"":""run_exp/static/images/task_images/rocket-09.jpg"",""time"":8904.199999809265}]",[],0,,,,,,,,,,,,,,
instruc_alien_greet,19,173182,0.0-8.0-6.0,"""event"",""trial"",""time""
""fullscreenenter"",""1"",""8509""
","
","
","""event"",""trial"",""time""
""fullscreenenter"",""1"",""8509""
","
",,null,run_exp/static/audio/clip_6_alien.m4a,null,"<p>When you arrive at a new planet, the alien who owns the treasure mine on that planet will greet you!</p><p>The better an alien takes care of their mine the easier it is to dig for gems. Some aliens take better care of their mine than others. So, you won’t get exactly the same amount of gems on each planet.</p><p>What the alien looks like does not tell you anything about how many gems there are on the planet.</p><br><p><img src=""run_exp/static/images/task_images/aliens/instructions_aliens/planet/alien_planet-1.jpg""  height=""600"" width=""auto""></p>",,,,,,,,,,,,,,,,,,,,,,,
instruc_alien_greet,20,177373,0.0-8.0-7.0,"""event"",""trial"",""time""
""fullscreenenter"",""1"",""8509""
","
","
","""event"",""trial"",""time""
""fullscreenenter"",""1"",""8509""
","
",,4185.4,"<p>When you arrive at a new planet, the alien who owns the treasure mine on that planet will greet you!</p><p>The better an alien takes care of their mine the easier it is to dig for gems. Some aliens take better care of their mine than others. So, you won’t get exactly the same amount of gems on each planet.</p><p>What the alien looks like does not tell you anything about how many gems there are on the planet.</p><br><p><img src=""run_exp/static/images/task_images/aliens/instructions_aliens/planet/alien_planet-1.jpg""  height=""600"" width=""auto""></p>",,,,,,,1,,,,,,,,,,,,,,,,,,
html-keyboard-response,21,178020,0.0-8.0-8.0,"""event"",""trial"",""time""
""fullscreenenter"",""1"",""8509""
","
","
","""event"",""trial"",""time""
""fullscreenenter"",""1"",""8509""
","
",,644.9000001,"<p>When you arrive at a new planet, the alien who owns the treasure mine on that planet will greet you!</p><p>The better an alien takes care of their mine the easier it is to dig for gems. Some aliens take better care of their mine than others. So, you won’t get exactly the same amount of gems on each planet.</p><p>What the alien looks like does not tell you anything about how many gems there are on the planet.</p><br><p><img src=""run_exp/static/images/task_images/aliens/instructions_aliens/planet/alien_planet-1.jpg""  height=""600"" width=""auto""></p><button class=""jspsych-html-btn-unchosen""><img src=""run_exp/static/images/task_images/planet-01.jpg"" height=""50""></button><button class=""jspsych-html-btn-chosen""><img src=""run_exp/static/images/task_images/planet-02.jpg"" height=""50""></button><p><b>[press the space bar to lock in your answer]<b><br></p>",32,,,,,,,,,,,,,,,,,,,,,,,,
time_out,22,189123,0.0-9.0-0.0,"""event"",""trial"",""time""
""fullscreenenter"",""1"",""8509""
","
","
","""event"",""trial"",""time""
""fullscreenenter"",""1"",""8509""
","
",,null,run_exp/static/audio/clip_7_timeout.m4a,null,"<p>If you don't make your choice fast enough, you’ll have to wait a few seconds before you can make another one.</p><p>You can’t dig for more gems or travel to new planets. You just have to sit and wait.</p><br><p><img src='run_exp/static/images/task_images/time_out.jpg'  height='600' width='auto'></p>",,,,,,,,,,,,,,,,,,,,,,,
time_out,23,190413,0.0-9.0-1.0,"""event"",""trial"",""time""
""fullscreenenter"",""1"",""8509""
","
","
","""event"",""trial"",""time""
""fullscreenenter"",""1"",""8509""
","
",,1280.2,"<p>If you don't make your choice fast enough, you’ll have to wait a few seconds before you can make another one.</p><p>You can’t dig for more gems or travel to new planets. You just have to sit and wait.</p><br><p><img src='run_exp/static/images/task_images/time_out.jpg'  height='600' width='auto'></p>",,,,,,,1,,,,,,,,,,,,,,,,,,
html-keyboard-response,24,190772,0.0-9.0-2.0,"""event"",""trial"",""time""
""fullscreenenter"",""1"",""8509""
","
","
","""event"",""trial"",""time""
""fullscreenenter"",""1"",""8509""
","
",,354.5,"<p>If you don't make your choice fast enough, you’ll have to wait a few seconds before you can make another one.</p><p>You can’t dig for more gems or travel to new planets. You just have to sit and wait.</p><br><p><img src='run_exp/static/images/task_images/time_out.jpg'  height='600' width='auto'></p><button class=""jspsych-html-btn-unchosen""><img src=""run_exp/static/images/task_images/planet-01.jpg"" height=""50""></button><button class=""jspsych-html-btn-chosen""><img src=""run_exp/static/images/task_images/planet-02.jpg"" height=""50""></button><p><b>[press the space bar to lock in your answer]<b><br></p>",32,,,,,,,,,,,,,,,,,,,,,,,,
instruc_break,25,206442,0.0-10.0-0.0,"""event"",""trial"",""time""
""fullscreenenter"",""1"",""8509""
","
","
","""event"",""trial"",""time""
""fullscreenenter"",""1"",""8509""
","
",,null,run_exp/static/audio/clip_8_break.m4a,null,"<p> After digging and traveling for a while, you’ll be able to take a break at home base. </p><p>The game will last 20 minutes no matter what.</p><p>You will visit home base every 5 minutes, so, you will visit home base three times during the game.</p><br><p><img src='run_exp/static/images/task_images/home_base.jpg' height='600' width='auto'></p>",,,,,,,,,,,,,,,,,,,,,,,
instruc_break,26,208284,0.0-10.0-1.0,"""event"",""trial"",""time""
""fullscreenenter"",""1"",""8509""
","
","
","""event"",""trial"",""time""
""fullscreenenter"",""1"",""8509""
","
",,1829.9,"<p> After digging and traveling for a while, you’ll be able to take a break at home base. </p><p>The game will last 20 minutes no matter what.</p><p>You will visit home base every 5 minutes, so, you will visit home base three times during the game.</p><br><p><img src='run_exp/static/images/task_images/home_base.jpg' height='600' width='auto'></p>",,,,,,,1,,,,,,,,,,,,,,,,,,
html-keyboard-response,27,211934,0.0-10.0-2.0,"""event"",""trial"",""time""
""fullscreenenter"",""1"",""8509""
","
","
","""event"",""trial"",""time""
""fullscreenenter"",""1"",""8509""
","
",,3645.2,"<p> After digging and traveling for a while, you’ll be able to take a break at home base. </p><p>The game will last 20 minutes no matter what.</p><p>You will visit home base every 5 minutes, so, you will visit home base three times during the game.</p><br><p><img src='run_exp/static/images/task_images/home_base.jpg' height='600' width='auto'></p><button class=""jspsych-html-btn-unchosen""><img src=""run_exp/static/images/task_images/planet-01.jpg"" height=""50""></button><button class=""jspsych-html-btn-chosen""><img src=""run_exp/static/images/task_images/planet-02.jpg"" height=""50""></button><p><b>[press the space bar to lock in your answer]<b><br></p>",32,,,,,,,,,,,,,,,,,,,,,,,,
instruc_prac_game,28,222082,0.0-11.0-0.0,"""event"",""trial"",""time""
""fullscreenenter"",""1"",""8509""
","
","
","""event"",""trial"",""time""
""fullscreenenter"",""1"",""8509""
","
",,null,run_exp/static/audio/clip_9_practice.m4a,null,"<p> Are you ready to play a practice game? </p> <p>In this practice game, you'll be digging up barrels of gems. But, in the real game, you'll be digging up the gems themselves. </p>",,,,,,,,,,,,,,,,,,,,,,,
html-button-response,29,224892,0.0-11.0-1.0,"""event"",""trial"",""time""
""fullscreenenter"",""1"",""8509""
","
","
","""event"",""trial"",""time""
""fullscreenenter"",""1"",""8509""
","
",,2804.1,"<p> Are you ready to play a practice game? </p> <p>In this practice game, you'll be digging up barrels of gems. But, in the real game, you'll be digging up the gems themselves. </p>",,,,,,,0,,,,,,,,,,,,,,,,,,
alien_welcome_prac,30,229911,0.0-12.0-0.0,"""event"",""trial"",""time""
""fullscreenenter"",""1"",""8509""
","
","
","""event"",""trial"",""time""
""fullscreenenter"",""1"",""8509""
","
",,null,run_exp/static/images/task_images/aliens/practice_aliens/planet/alien_planet-5.jpg,null,,,,,,,,,,,,,,,,,,,,,,,,
land_prac,31,230415,0.0-12.0-1.0,"""event"",""trial"",""time""
""fullscreenenter"",""1"",""8509""
","
","
","""event"",""trial"",""time""
""fullscreenenter"",""1"",""8509""
","
",,null,run_exp/static/images/task_images/land.jpg,null,,,,,,,92,,,0,,,,,,,,,,,,,,
dig_prac,32,232419,0.0-12.0-2.0,"""event"",""trial"",""time""
""fullscreenenter"",""1"",""8509""
","
","
","""event"",""trial"",""time""
""fullscreenenter"",""1"",""8509""
","
",,,,,,,,,,,,"[{""stimulus"":""run_exp/static/images/task_images/dig.jpg"",""time"":0.3000001907348633},{""stimulus"":""run_exp/static/images/task_images/land.jpg"",""time"":678.3000001907349},{""stimulus"":""run_exp/static/images/task_images/dig.jpg"",""time"":1343.4000000953674}]",[],,,,,,,,,,,,,,,
harvest_prac,33,233429,0.0-12.0-3.0,"""event"",""trial"",""time""
""fullscreenenter"",""1"",""8509""
","
","
","""event"",""trial"",""time""
""fullscreenenter"",""1"",""8509""
","
",,null,run_exp/static/images/task_images/barrel_text.jpg,null,,,,,,,,,,,,,,,,,,,,,,,,
decision_prac,34,233992,0.0-12.0-4.0,"""event"",""trial"",""time""
""fullscreenenter"",""1"",""8509""
","
","
","""event"",""trial"",""time""
""fullscreenenter"",""1"",""8509""
","
",,558.4000001,run_exp/static/images/task_images/land.jpg,65,,,,,,,,,,,1,,,,,,,,,,,,,
dig_prac,35,236019,0.0-13.0-0.0,"""event"",""trial"",""time""
""fullscreenenter"",""1"",""8509""
","
","
","""event"",""trial"",""time""
""fullscreenenter"",""1"",""8509""
","
",,,,,,,,,,,,"[{""stimulus"":""run_exp/static/images/task_images/dig.jpg"",""time"":0.7000002861022949},{""stimulus"":""run_exp/static/images/task_images/land.jpg"",""time"":684.3000001907349},{""stimulus"":""run_exp/static/images/task_images/dig.jpg"",""time"":1344.3000001907349}]",[],,,,,,,,,,,,,,,
harvest_prac,36,237039,0.0-13.0-1.0,"""event"",""trial"",""time""
""fullscreenenter"",""1"",""8509""
","
","
","""event"",""trial"",""time""
""fullscreenenter"",""1"",""8509""
","
",,null,run_exp/static/images/task_images/barrel_text.jpg,null,,,,,,,,,,,,,,,,,,,,,,,,
decision_prac,37,240059,0.0-13.0-2.0,"""event"",""trial"",""time""
""fullscreenenter"",""1"",""8509""
","
","
","""event"",""trial"",""time""
""fullscreenenter"",""1"",""8509""
","
",,null,run_exp/static/images/task_images/land.jpg,null,,,,,,,,,,,2,,,,,,,,,,,,,
time_out,38,242080,0.0-14.0-0.0,"""event"",""trial"",""time""
""fullscreenenter"",""1"",""8509""
","
","
","""event"",""trial"",""time""
""fullscreenenter"",""1"",""8509""
","
",,null,run_exp/static/images/task_images/time_out.jpg,null,,,,,,,,,,,,,,,,,,,,,,,,
decision_prac,39,242645,0.0-14.0-1.0,"""event"",""trial"",""time""
""fullscreenenter"",""1"",""8509""
","
","
","""event"",""trial"",""time""
""fullscreenenter"",""1"",""8509""
","
",,560,run_exp/static/images/task_images/land.jpg,65,,,,,,,,,,,3,,,,,,,,,,,,,
dig_prac,40,244659,0.0-15.0-0.0,"""event"",""trial"",""time""
""fullscreenenter"",""1"",""8509""
","
","
","""event"",""trial"",""time""
""fullscreenenter"",""1"",""8509""
","
",,,,,,,,,,,,"[{""stimulus"":""run_exp/static/images/task_images/dig.jpg"",""time"":0.09999990463256836},{""stimulus"":""run_exp/static/images/task_images/land.jpg"",""time"":680.6999998092651},{""stimulus"":""run_exp/static/images/task_images/dig.jpg"",""time"":1351.5}]",[],,,,,,,,,,,,,,,
harvest_prac,41,245680,0.0-15.0-1.0,"""event"",""trial"",""time""
""fullscreenenter"",""1"",""8509""
","
","
","""event"",""trial"",""time""
""fullscreenenter"",""1"",""8509""
","
",,null,run_exp/static/images/task_images/barrel_text.jpg,null,,,,,,,,,,,,,,,,,,,,,,,,
decision_prac,42,246266,0.0-15.0-2.0,"""event"",""trial"",""time""
""fullscreenenter"",""1"",""8509""
","
","
","""event"",""trial"",""time""
""fullscreenenter"",""1"",""8509""
","
",,583.2999997,run_exp/static/images/task_images/land.jpg,65,,,,,,,,,,,4,,,,,,,,,,,,,
dig_prac,43,248278,0.0-16.0-0.0,"""event"",""trial"",""time""
""fullscreenenter"",""1"",""8509""
","
","
","""event"",""trial"",""time""
""fullscreenenter"",""1"",""8509""
","
",,,,,,,,,,,,"[{""stimulus"":""run_exp/static/images/task_images/dig.jpg"",""time"":0.40000009536743164},{""stimulus"":""run_exp/static/images/task_images/land.jpg"",""time"":678.2999997138977},{""stimulus"":""run_exp/static/images/task_images/dig.jpg"",""time"":1349}]",[],,,,,,,,,,,,,,,
harvest_prac,44,249299,0.0-16.0-1.0,"""event"",""trial"",""time""
""fullscreenenter"",""1"",""8509""
","
","
","""event"",""trial"",""time""
""fullscreenenter"",""1"",""8509""
","
",,null,run_exp/static/images/task_images/barrel_text.jpg,null,,,,,,,,,,,,,,,,,,,,,,,,
decision_prac,45,250104,0.0-16.0-2.0,"""event"",""trial"",""time""
""fullscreenenter"",""1"",""8509""
","
","
","""event"",""trial"",""time""
""fullscreenenter"",""1"",""8509""
","
",,803.0999999,run_exp/static/images/task_images/land.jpg,76,,,,,,,,,,,,1,,,,,,,,,,,,
quiz_instruc,46,258504,0.0-17.0-0.0,"""event"",""trial"",""time""
""fullscreenenter"",""1"",""8509""
","
","
","""event"",""trial"",""time""
""fullscreenenter"",""1"",""8509""
","
",,8394.7,run_exp/static/audio/clip_10_quiz.m4a,,,,,,,0,,,,,,,,,,,,,,,,,,
instruc_repeat,47,301268,0.0-17.0-1.0,"""event"",""trial"",""time""
""fullscreenenter"",""1"",""8509""
","
","
","""event"",""trial"",""time""
""fullscreenenter"",""1"",""8509""
","
",,null,"<p> Are you ready to play a practice game? </p> <p>In this practice game, you'll be digging up barrels of gems. But, in the real game, you'll be digging up the gems themselves. </p>",null,"<p>In this game, your goal is to collect as many gems as you can. That’s how you will win bonus money. </p> <p>The entire game will last 20 minutes no matter how many gems you collect or how many planets you visit. </p><p>To stay on a planet and dig again, press the letter A on your keyboard. To leave for a new planet, press the letter L.</p><p>The more you dig on a planet, the fewer gems you’ll get with each dig which is why you might consider leaving for a new planet. </p><p>When you arrive at a new planet, you’ll be greeted by an alien. What the alien looks like does not tell you anything about how much treasure is on the planet. </p>",,,,,,,,,,,,,,,,,,,,,,,
instruc_repeat_continue,48,302937,0.0-17.0-2.0,"""event"",""trial"",""time""
""fullscreenenter"",""1"",""8509""
","
","
","""event"",""trial"",""time""
""fullscreenenter"",""1"",""8509""
","
",,1663,"<p> Are you ready to play a practice game? </p> <p>In this practice game, you'll be digging up barrels of gems. But, in the real game, you'll be digging up the gems themselves. </p>",,,,,,,0,,,,,,,,,,,,,,,,,,
quiz_q_1_ask,49,306799,0.0-17.0-3.0,"""event"",""trial"",""time""
""fullscreenenter"",""1"",""8509""
","
","
","""event"",""trial"",""time""
""fullscreenenter"",""1"",""8509""
","
",,3857.8,run_exp/static/audio/clip_11_q1_ask.m4a,,,,,,,2,,,,,,,,,,,,,,,,,,
quiz_q_1_fb_correct,50,310668,0.0-18.0-0.0,"""event"",""trial"",""time""
""fullscreenenter"",""1"",""8509""
","
","
","""event"",""trial"",""time""
""fullscreenenter"",""1"",""8509""
","
",,null,run_exp/static/audio/clip_12_q1_correct.m4a,null,<p>That’s correct. You win extra money by collecting more gems.</p>,,,,,,,,,,,,,,,,,,,,,,,
quiz_q_2_ask,51,312940,0.0-18.0-1.0,"""event"",""trial"",""time""
""fullscreenenter"",""1"",""8509""
","
","
","""event"",""trial"",""time""
""fullscreenenter"",""1"",""8509""
","
",,2265.4,run_exp/static/audio/clip_14_q2_ask.m4a,,,,,,,1,,,,,,,,,,,,,,,,,,
quiz_q_2_fb_correct,52,316948,0.0-19.0-0.0,"""event"",""trial"",""time""
""fullscreenenter"",""1"",""8509""
","
","
","""event"",""trial"",""time""
""fullscreenenter"",""1"",""8509""
","
",,null,run_exp/static/audio/clip_15_q2_correct.m4a,null,<p>That’s correct. The experiment is 20 minutes no matter what.</p>,,,,,,,,,,,,,,,,,,,,,,,
quiz_q_3_ask,53,321218,0.0-19.0-1.0,"""event"",""trial"",""time""
""fullscreenenter"",""1"",""8509""
","
","
","""event"",""trial"",""time""
""fullscreenenter"",""1"",""8509""
","
",,4265.3,run_exp/static/audio/clip_17_q3_ask.m4a,,,,,,,1,,,,,,,,,,,,,,,,,,
quiz_q_3_fb_correct,54,325228,0.0-20.0-0.0,"""event"",""trial"",""time""
""fullscreenenter"",""1"",""8509""
","
","
","""event"",""trial"",""time""
""fullscreenenter"",""1"",""8509""
","
",,null,run_exp/static/audio/clip_18_q3_correct.m4a,null,<p> That’s correct. You press the letter L to travel to a new planet.</p>,,,,,,,,,,,,,,,,,,,,,,,
quiz_q_4_ask,55,329078,0.0-20.0-1.0,"""event"",""trial"",""time""
""fullscreenenter"",""1"",""8509""
","
","
","""event"",""trial"",""time""
""fullscreenenter"",""1"",""8509""
","
",,3845.9,run_exp/static/audio/clip_20_q4_ask.m4a,,,,,,,1,,,,,,,,,,,,,,,,,,
quiz_q_4_fb_incorrect,56,334908,0.0-21.0-0.0,"""event"",""trial"",""time""
""fullscreenenter"",""1"",""8509""
","
","
","""event"",""trial"",""time""
""fullscreenenter"",""1"",""8509""
","
",,null,run_exp/static/audio/clip_22_q4_incorrect.m4a,null,<p>That’s incorrect.  The more you dig on a planet the fewer gems you’ll get with each dig.</p>,,,,,,,,,,,,,,,,,,,,,,,
quiz_q_5_ask,57,337139,0.0-21.0-1.0,"""event"",""trial"",""time""
""fullscreenenter"",""1"",""8509""
","
","
","""event"",""trial"",""time""
""fullscreenenter"",""1"",""8509""
","
",,2221.9,run_exp/static/audio/clip_23_q5_ask.m4a,,,,,,,1,,,,,,,,,,,,,,,,,,
quiz_q_5_fb_correct,58,342149,0.0-22.0-0.0,"""event"",""trial"",""time""
""fullscreenenter"",""1"",""8509""
","
","
","""event"",""trial"",""time""
""fullscreenenter"",""1"",""8509""
","
",,null,run_exp/static/audio/clip_24_q5_correct.m4a,null,<p> That’s correct. The alien tells you nothing about how much treasure is on the planet.</p>,,,,,,,,,,,,,,,,,,,,,,,
quiz_incorrect,59,347709,0.0-23.0-0.0,"""event"",""trial"",""time""
""fullscreenenter"",""1"",""8509""
","
","
","""event"",""trial"",""time""
""fullscreenenter"",""1"",""8509""
","
",,null,run_exp/static/audio/clip_27_incorrect_quiz.m4a,null,,,,,,,,,,,,,,,,,,,,,,,,
quiz_incorrect_continue,60,349517,0.0-23.0-1.0,"""event"",""trial"",""time""
""fullscreenenter"",""1"",""8509""
","
","
","""event"",""trial"",""time""
""fullscreenenter"",""1"",""8509""
","
",,1804.5,"<p>Oops, you missed some questions.</p><p>Now that you’ve heard the correct answers. Try the quiz again!</p>",,,,,,,0,,,,,,,,,,,,,,,,,,
quiz_q_1_ask,61,351498,0.0-23.0-2.0,"""event"",""trial"",""time""
""fullscreenenter"",""1"",""8509""
","
","
","""event"",""trial"",""time""
""fullscreenenter"",""1"",""8509""
","
",,1977,run_exp/static/audio/clip_11_q1_ask.m4a,,,,,,,2,,,,,,,,,,,,,,,,,,
quiz_q_1_fb_correct,62,355368,0.0-24.0-0.0,"""event"",""trial"",""time""
""fullscreenenter"",""1"",""8509""
","
","
","""event"",""trial"",""time""
""fullscreenenter"",""1"",""8509""
","
",,null,run_exp/static/audio/clip_12_q1_correct.m4a,null,<p>That’s correct. You win extra money by collecting more gems.</p>,,,,,,,,,,,,,,,,,,,,,,,
quiz_q_2_ask,63,356789,0.0-24.0-1.0,"""event"",""trial"",""time""
""fullscreenenter"",""1"",""8509""
","
","
","""event"",""trial"",""time""
""fullscreenenter"",""1"",""8509""
","
",,1415.9,run_exp/static/audio/clip_14_q2_ask.m4a,,,,,,,1,,,,,,,,,,,,,,,,,,
quiz_q_2_fb_correct,64,360808,0.0-25.0-0.0,"""event"",""trial"",""time""
""fullscreenenter"",""1"",""8509""
","
","
","""event"",""trial"",""time""
""fullscreenenter"",""1"",""8509""
","
",,null,run_exp/static/audio/clip_15_q2_correct.m4a,null,<p>That’s correct. The experiment is 20 minutes no matter what.</p>,,,,,,,,,,,,,,,,,,,,,,,
quiz_q_3_ask,65,362266,0.0-25.0-1.0,"""event"",""trial"",""time""
""fullscreenenter"",""1"",""8509""
","
","
","""event"",""trial"",""time""
""fullscreenenter"",""1"",""8509""
","
",,1450,run_exp/static/audio/clip_17_q3_ask.m4a,,,,,,,1,,,,,,,,,,,,,,,,,,
quiz_q_3_fb_correct,66,366250,0.0-26.0-0.0,"""event"",""trial"",""time""
""fullscreenenter"",""1"",""8509""
","
","
","""event"",""trial"",""time""
""fullscreenenter"",""1"",""8509""
","
",,null,run_exp/static/audio/clip_18_q3_correct.m4a,null,<p> That’s correct. You press the letter L to travel to a new planet.</p>,,,,,,,,,,,,,,,,,,,,,,,
quiz_q_4_ask,67,367207,0.0-26.0-1.0,"""event"",""trial"",""time""
""fullscreenenter"",""1"",""8509""
","
","
","""event"",""trial"",""time""
""fullscreenenter"",""1"",""8509""
","
",,955.5,run_exp/static/audio/clip_20_q4_ask.m4a,,,,,,,0,,,,,,,,,,,,,,,,,,
quiz_q_4_fb_correct,68,372533,0.0-27.0-0.0,"""event"",""trial"",""time""
""fullscreenenter"",""1"",""8509""
","
","
","""event"",""trial"",""time""
""fullscreenenter"",""1"",""8509""
","
",,null,run_exp/static/audio/clip_21_q4_correct.m4a,null,<p> That’s correct. The more you dig on a planet the fewer gems you’ll get with each dig. </p>,,,,,,,,,,,,,,,,,,,,,,,
quiz_q_5_ask,69,377643,0.0-27.0-1.0,"""event"",""trial"",""time""
""fullscreenenter"",""1"",""8509""
","
","
","""event"",""trial"",""time""
""fullscreenenter"",""1"",""8509""
","
",,5103.4,run_exp/static/audio/clip_23_q5_ask.m4a,,,,,,,1,,,,,,,,,,,,,,,,,,
quiz_q_5_fb_correct,70,382653,0.0-28.0-0.0,"""event"",""trial"",""time""
""fullscreenenter"",""1"",""8509""
","
","
","""event"",""trial"",""time""
""fullscreenenter"",""1"",""8509""
","
",,null,run_exp/static/audio/clip_24_q5_correct.m4a,null,<p> That’s correct. The alien tells you nothing about how much treasure is on the planet.</p>,,,,,,,,,,,,,,,,,,,,,,,
quiz_correct,71,386132,0.0-29.0-0.0,"""event"",""trial"",""time""
""fullscreenenter"",""1"",""8509""
","
","
","""event"",""trial"",""time""
""fullscreenenter"",""1"",""8509""
","
",,null,run_exp/static/audio/clip_26_correct_quiz.m4a,null,,,,,,,,,,,,,,,,,,,,,,,,
quiz_correct_continue,72,387483,0.0-29.0-1.0,"""event"",""trial"",""time""
""fullscreenenter"",""1"",""8509""
","
","
","""event"",""trial"",""time""
""fullscreenenter"",""1"",""8509""
","
",,1347,<p>Good job! You're now ready to move on to the real game!</p>,,,,,,,0,,,,,,,,,,,,,,,,,,
audio-keyboard-response,73,397612,0.0-29.0-2.0,"""event"",""trial"",""time""
""fullscreenenter"",""1"",""8509""
","
","
","""event"",""trial"",""time""
""fullscreenenter"",""1"",""8509""
","
",,null,run_exp/static/audio/clip_28_real_game.m4a,null,,,,,,,,,,,,,,,,,,,,,,,,
instruc_begin_exp_contine,74,398850,0.0-29.0-3.0,"""event"",""trial"",""time""
""fullscreenenter"",""1"",""8509""
","
","
","""event"",""trial"",""time""
""fullscreenenter"",""1"",""8509""
","
",,1234.3,"<p>Now that you know how  to dig for space treasure and travel to new planets,you can start exploring! </p><p>Do you want to go over the instructions again or get started with the real game?</p>",,,,,,,1,,,,,,1,,,,,,,,,,,,
alien_welcome,75,403853,0.0-30.0-0.0,"""event"",""trial"",""time""
""fullscreenenter"",""1"",""8509""
","
","
","""event"",""trial"",""time""
""fullscreenenter"",""1"",""8509""
","
",,null,run_exp/static/images/task_images/aliens/old_aliens/planet/alien_planet-36.jpg,null,,,,,,,,,,,,,36,"36,11,71,21,34,22,75,65,28,13,68,77,50,41,67,20,60,55,4,52,56,19,9,80,61,6,78,79,7,32,17,1,10,23,69,3,76,2,18,33,48,72,51,26,15,53,37,70,58,5,12,66,38,29,40,54,25,8,64,44,43,57,49,63,45",,,,,,,,,,
land,76,404360,0.0-30.0-1.0,"""event"",""trial"",""time""
""fullscreenenter"",""1"",""8509""
","
","
","""event"",""trial"",""time""
""fullscreenenter"",""1"",""8509""
","
",,null,run_exp/static/images/task_images/land.jpg,null,,,,,,,106,,,1,,,,,,,,,,,,,,
dig,77,406379,0.0-30.0-2.0,"""event"",""trial"",""time""
""fullscreenenter"",""1"",""8509""
","
","
","""event"",""trial"",""time""
""fullscreenenter"",""1"",""8509""
","
",,,,,,,,,,,,"[{""stimulus"":""run_exp/static/images/task_images/dig.jpg"",""time"":0.5999999046325684},{""stimulus"":""run_exp/static/images/task_images/land.jpg"",""time"":682.8000001907349},{""stimulus"":""run_exp/static/images/task_images/dig.jpg"",""time"":1351.9000000953674}]",[],1,,,,,,,,,,,,,,
harvest,78,407399,0.0-30.0-3.0,"""event"",""trial"",""time""
""fullscreenenter"",""1"",""8509""
","
","
","""event"",""trial"",""time""
""fullscreenenter"",""1"",""8509""
","
",,null,run_exp/static/images/task_images/gems/106.jpg,null,,,,,,,23,,,1,,,,,106,0.219568401,0.216981132,,,,,,,
decision,79,408111,0.0-30.0-4.0,"""event"",""trial"",""time""
""fullscreenenter"",""1"",""8509""
","
","
","""event"",""trial"",""time""
""fullscreenenter"",""1"",""8509""
","
",,710.0999999,run_exp/static/images/task_images/land.jpg,65,,,,,,,23,,,1,,,,,,,,9263,1,0,FALSE,,,
dig,80,410419,0.0-31.0-0.0,"""event"",""trial"",""time""
""fullscreenenter"",""1"",""8509""
","
","
","""event"",""trial"",""time""
""fullscreenenter"",""1"",""8509""
","
",,,,,,,,,,,,"[{""stimulus"":""run_exp/static/images/task_images/dig.jpg"",""time"":0.6999998092651367},{""stimulus"":""run_exp/static/images/task_images/land.jpg"",""time"":766.3000001907349},{""stimulus"":""run_exp/static/images/task_images/dig.jpg"",""time"":1548.0999999046326}]",[],1,,,,,,,,,,,,,,
harvest,81,411440,0.0-31.0-1.0,"""event"",""trial"",""time""
""fullscreenenter"",""1"",""8509""
","
","
","""event"",""trial"",""time""
""fullscreenenter"",""1"",""8509""
","
",,null,run_exp/static/images/task_images/gems/23.jpg,null,,,,,,,6,,,1,,,,,23,0.245382782,0.260869565,,,,,,,
decision,82,412020,0.0-31.0-2.0,"""event"",""trial"",""time""
""fullscreenenter"",""1"",""8509""
","
","
","""event"",""trial"",""time""
""fullscreenenter"",""1"",""8509""
","
",,576,run_exp/static/images/task_images/land.jpg,76,,,,,,,6,,,1,,,,,,,,13169,1,1,TRUE,,,
travel,83,421459,0.0-32.0-0.0,"""event"",""trial"",""time""
""fullscreenenter"",""1"",""8509""
","
","
","""event"",""trial"",""time""
""fullscreenenter"",""1"",""8509""
","
",,,,,,,,,,,,"[{""stimulus"":""run_exp/static/images/task_images/rocket-01.jpg"",""time"":0.40000009536743164},{""stimulus"":""run_exp/static/images/task_images/rocket-02.jpg"",""time"":1063.6999998092651},{""stimulus"":""run_exp/static/images/task_images/rocket-03.jpg"",""time"":2103.9000000953674},{""stimulus"":""run_exp/static/images/task_images/rocket-04.jpg"",""time"":3153.699999809265},{""stimulus"":""run_exp/static/images/task_images/rocket-05.jpg"",""time"":4203.599999904633},{""stimulus"":""run_exp/static/images/task_images/rocket-06.jpg"",""time"":5253.699999809265},{""stimulus"":""run_exp/static/images/task_images/rocket-07.jpg"",""time"":6297.299999713898},{""stimulus"":""run_exp/static/images/task_images/rocket-08.jpg"",""time"":7344},{""stimulus"":""run_exp/static/images/task_images/rocket-09.jpg"",""time"":8394}]",[],1,,,,,,,,,,,,,,
alien_welcome,84,426465,0.0-32.0-1.0,"""event"",""trial"",""time""
""fullscreenenter"",""1"",""8509""
","
","
","""event"",""trial"",""time""
""fullscreenenter"",""1"",""8509""
","
",,null,run_exp/static/images/task_images/aliens/old_aliens/planet/alien_planet-11.jpg,null,,,,,,,,,,,,,11,"36,11,71,21,34,22,75,65,28,13,68,77,50,41,67,20,60,55,4,52,56,19,9,80,61,6,78,79,7,32,17,1,10,23,69,3,76,2,18,33,48,72,51,26,15,53,37,70,58,5,12,66,38,29,40,54,25,8,64,44,43,57,49,63,45",,,,,,,,,,
land,85,426969,0.0-32.0-2.0,"""event"",""trial"",""time""
""fullscreenenter"",""1"",""8509""
","
","
","""event"",""trial"",""time""
""fullscreenenter"",""1"",""8509""
","
",,null,run_exp/static/images/task_images/land.jpg,null,,,,,,,101,,,2,,,,,,,,,,,,,,
dig,86,428978,0.0-32.0-3.0,"""event"",""trial"",""time""
""fullscreenenter"",""1"",""8509""
","
","
","""event"",""trial"",""time""
""fullscreenenter"",""1"",""8509""
","
",,,,,,,,,,,,"[{""stimulus"":""run_exp/static/images/task_images/dig.jpg"",""time"":0.7000002861022949},{""stimulus"":""run_exp/static/images/task_images/land.jpg"",""time"":676.9000000953674},{""stimulus"":""run_exp/static/images/task_images/dig.jpg"",""time"":1357.8000001907349}]",[],2,,,,,,,,,,,,,,
harvest,87,429990,0.0-32.0-4.0,"""event"",""trial"",""time""
""fullscreenenter"",""1"",""8509""
","
","
","""event"",""trial"",""time""
""fullscreenenter"",""1"",""8509""
","
",,null,run_exp/static/images/task_images/gems/101.jpg,null,,,,,,,27,,,2,,,,,101,0.271534592,0.267326733,,,,,,,
decision,88,430425,0.0-32.0-5.0,"""event"",""trial"",""time""
""fullscreenenter"",""1"",""8509""
","
","
","""event"",""trial"",""time""
""fullscreenenter"",""1"",""8509""
","
",,430.5,run_exp/static/images/task_images/land.jpg,65,,,,,,,27,,,2,,,,,,,,31574,1,0,FALSE,,,
dig,89,433010,0.0-33.0-0.0,"""event"",""trial"",""time""
""fullscreenenter"",""1"",""8509""
","
","
","""event"",""trial"",""time""
""fullscreenenter"",""1"",""8509""
","
",,,,,,,,,,,,"[{""stimulus"":""run_exp/static/images/task_images/dig.jpg"",""time"":0.6999998092651367},{""stimulus"":""run_exp/static/images/task_images/land.jpg"",""time"":865},{""stimulus"":""run_exp/static/images/task_images/dig.jpg"",""time"":1720.0999999046326}]",[],2,,,,,,,,,,,,,,
harvest,90,434029,0.0-33.0-1.0,"""event"",""trial"",""time""
""fullscreenenter"",""1"",""8509""
","
","
","""event"",""trial"",""time""
""fullscreenenter"",""1"",""8509""
","
",,null,run_exp/static/images/task_images/gems/27.jpg,null,,,,,,,7,,,2,,,,,27,0.266757641,0.259259259,,,,,,,
decision,91,434524,0.0-33.0-2.0,"""event"",""trial"",""time""
""fullscreenenter"",""1"",""8509""
","
","
","""event"",""trial"",""time""
""fullscreenenter"",""1"",""8509""
","
",,491.2999997,run_exp/static/images/task_images/land.jpg,76,,,,,,,7,,,2,,,,,,,,35673,1,1,TRUE,,,
travel,92,444050,0.0-34.0-0.0,"""event"",""trial"",""time""
""fullscreenenter"",""1"",""8509""
","
","
","""event"",""trial"",""time""
""fullscreenenter"",""1"",""8509""
","
",,,,,,,,,,,,"[{""stimulus"":""run_exp/static/images/task_images/rocket-01.jpg"",""time"":0.19999980926513672},{""stimulus"":""run_exp/static/images/task_images/rocket-02.jpg"",""time"":1061.1999998092651},{""stimulus"":""run_exp/static/images/task_images/rocket-03.jpg"",""time"":2124.2999997138977},{""stimulus"":""run_exp/static/images/task_images/rocket-04.jpg"",""time"":3176.0999999046326},{""stimulus"":""run_exp/static/images/task_images/rocket-05.jpg"",""time"":4243.599999904633},{""stimulus"":""run_exp/static/images/task_images/rocket-06.jpg"",""time"":5294.099999904633},{""stimulus"":""run_exp/static/images/task_images/rocket-07.jpg"",""time"":6344},{""stimulus"":""run_exp/static/images/task_images/rocket-08.jpg"",""time"":7403.699999809265},{""stimulus"":""run_exp/static/images/task_images/rocket-09.jpg"",""time"":8464}]",[],2,,,,,,,,,,,,,,
alien_welcome,93,449063,0.0-34.0-1.0,"""event"",""trial"",""time""
""fullscreenenter"",""1"",""8509""
","
","
","""event"",""trial"",""time""
""fullscreenenter"",""1"",""8509""
","
",,null,run_exp/static/images/task_images/aliens/old_aliens/planet/alien_planet-71.jpg,null,,,,,,,,,,,,,71,"36,11,71,21,34,22,75,65,28,13,68,77,50,41,67,20,60,55,4,52,56,19,9,80,61,6,78,79,7,32,17,1,10,23,69,3,76,2,18,33,48,72,51,26,15,53,37,70,58,5,12,66,38,29,40,54,25,8,64,44,43,57,49,63,45",,,,,,,,,,
land,94,449577,0.0-34.0-2.0,"""event"",""trial"",""time""
""fullscreenenter"",""1"",""8509""
","
","
","""event"",""trial"",""time""
""fullscreenenter"",""1"",""8509""
","
",,null,run_exp/static/images/task_images/land.jpg,null,,,,,,,105,,,3,,,,,,,,,,,,,,
dig,95,451590,0.0-34.0-3.0,"""event"",""trial"",""time""
""fullscreenenter"",""1"",""8509""
","
","
","""event"",""trial"",""time""
""fullscreenenter"",""1"",""8509""
","
",,,,,,,,,,,,"[{""stimulus"":""run_exp/static/images/task_images/dig.jpg"",""time"":0.5},{""stimulus"":""run_exp/static/images/task_images/land.jpg"",""time"":679.5},{""stimulus"":""run_exp/static/images/task_images/dig.jpg"",""time"":1340.4000000953674}]",[],3,,,,,,,,,,,,,,
harvest,96,452599,0.0-34.0-4.0,"""event"",""trial"",""time""
""fullscreenenter"",""1"",""8509""
","
","
","""event"",""trial"",""time""
""fullscreenenter"",""1"",""8509""
","
",,null,run_exp/static/images/task_images/gems/105.jpg,null,,,,,,,54,,,3,,,,,105,0.51855815,0.514285714,,,,,,,
decision,97,452722,0.0-34.0-5.0,"""event"",""trial"",""time""
""fullscreenenter"",""1"",""8509""
","
","
","""event"",""trial"",""time""
""fullscreenenter"",""1"",""8509""
","
",,119,run_exp/static/images/task_images/land.jpg,65,,,,,,,54,,,3,,,,,,,,53871,1,0,FALSE,,,
dig,98,455629,0.0-35.0-0.0,"""event"",""trial"",""time""
""fullscreenenter"",""1"",""8509""
","
","
","""event"",""trial"",""time""
""fullscreenenter"",""1"",""8509""
","
",,,,,,,,,,,,"[{""stimulus"":""run_exp/static/images/task_images/dig.jpg"",""time"":0.6000003814697266},{""stimulus"":""run_exp/static/images/task_images/land.jpg"",""time"":980},{""stimulus"":""run_exp/static/images/task_images/dig.jpg"",""time"":1924.9000000953674}]",[],3,,,,,,,,,,,,,,
harvest,99,456649,0.0-35.0-1.0,"""event"",""trial"",""time""
""fullscreenenter"",""1"",""8509""
","
","
","""event"",""trial"",""time""
""fullscreenenter"",""1"",""8509""
","
",,null,run_exp/static/images/task_images/gems/54.jpg,null,,,,,,,28,,,3,,,,,54,0.523723373,0.518518519,,,,,,,
decision,100,457093,0.0-35.0-2.0,"""event"",""trial"",""time""
""fullscreenenter"",""1"",""8509""
","
","
","""event"",""trial"",""time""
""fullscreenenter"",""1"",""8509""
","
",,440.4000001,run_exp/static/images/task_images/land.jpg,65,,,,,,,28,,,3,,,,,,,,58243,1,1,FALSE,,,
dig,101,459668,0.0-36.0-0.0,"""event"",""trial"",""time""
""fullscreenenter"",""1"",""8509""
","
","
","""event"",""trial"",""time""
""fullscreenenter"",""1"",""8509""
","
",,,,,,,,,,,,"[{""stimulus"":""run_exp/static/images/task_images/dig.jpg"",""time"":0.7000002861022949},{""stimulus"":""run_exp/static/images/task_images/land.jpg"",""time"":879.8000001907349},{""stimulus"":""run_exp/static/images/task_images/dig.jpg"",""time"":1725.5}]",[],3,,,,,,,,,,,,,,
harvest,102,460669,0.0-36.0-1.0,"""event"",""trial"",""time""
""fullscreenenter"",""1"",""8509""
","
","
","""event"",""trial"",""time""
""fullscreenenter"",""1"",""8509""
","
",,null,run_exp/static/images/task_images/gems/28.jpg,null,,,,,,,15,,,3,,,,,28,0.530829063,0.535714286,,,,,,,
decision,103,461709,0.0-36.0-2.0,"""event"",""trial"",""time""
""fullscreenenter"",""1"",""8509""
","
","
","""event"",""trial"",""time""
""fullscreenenter"",""1"",""8509""
","
",,1038.3,run_exp/static/images/task_images/land.jpg,76,,,,,,,15,,,3,,,,,,,,62858,1,2,TRUE,,,
travel,104,470679,0.0-37.0-0.0,"""event"",""trial"",""time""
""fullscreenenter"",""1"",""8509""
","
","
","""event"",""trial"",""time""
""fullscreenenter"",""1"",""8509""
","
",,,,,,,,,,,,"[{""stimulus"":""run_exp/static/images/task_images/rocket-01.jpg"",""time"":0.09999990463256836},{""stimulus"":""run_exp/static/images/task_images/rocket-02.jpg"",""time"":998.4000000953674},{""stimulus"":""run_exp/static/images/task_images/rocket-03.jpg"",""time"":1998.4000000953674},{""stimulus"":""run_exp/static/images/task_images/rocket-04.jpg"",""time"":2988.9000000953674},{""stimulus"":""run_exp/static/images/task_images/rocket-05.jpg"",""time"":3998.9000000953674},{""stimulus"":""run_exp/static/images/task_images/rocket-06.jpg"",""time"":4978.400000095367},{""stimulus"":""run_exp/static/images/task_images/rocket-07.jpg"",""time"":5978.5},{""stimulus"":""run_exp/static/images/task_images/rocket-08.jpg"",""time"":6978.599999904633},{""stimulus"":""run_exp/static/images/task_images/rocket-09.jpg"",""time"":7978.5}]",[],3,,,,,,,,,,,,,,
alien_welcome,105,475689,0.0-37.0-1.0,"""event"",""trial"",""time""
""fullscreenenter"",""1"",""8509""
","
","
","""event"",""trial"",""time""
""fullscreenenter"",""1"",""8509""
","
",,null,run_exp/static/images/task_images/aliens/old_aliens/planet/alien_planet-21.jpg,null,,,,,,,,,,,,,21,"36,11,71,21,34,22,75,65,28,13,68,77,50,41,67,20,60,55,4,52,56,19,9,80,61,6,78,79,7,32,17,1,10,23,69,3,76,2,18,33,48,72,51,26,15,53,37,70,58,5,12,66,38,29,40,54,25,8,64,44,43,57,49,63,45",,,,,,,,,,
land,106,476199,0.0-37.0-2.0,"""event"",""trial"",""time""
""fullscreenenter"",""1"",""8509""
","
","
","""event"",""trial"",""time""
""fullscreenenter"",""1"",""8509""
","
",,null,run_exp/static/images/task_images/land.jpg,null,,,,,,,97,,,4,,,,,,,,,,,,,,
dig,107,478219,0.0-37.0-3.0,"""event"",""trial"",""time""
""fullscreenenter"",""1"",""8509""
","
","
","""event"",""trial"",""time""
""fullscreenenter"",""1"",""8509""
","
",,,,,,,,,,,,"[{""stimulus"":""run_exp/static/images/task_images/dig.jpg"",""time"":0.7000002861022949},{""stimulus"":""run_exp/static/images/task_images/land.jpg"",""time"":687.5},{""stimulus"":""run_exp/static/images/task_images/dig.jpg"",""time"":1347.3000001907349}]",[],4,,,,,,,,,,,,,,
harvest,108,479229,0.0-37.0-4.0,"""event"",""trial"",""time""
""fullscreenenter"",""1"",""8509""
","
","
","""event"",""trial"",""time""
""fullscreenenter"",""1"",""8509""
","
",,null,run_exp/static/images/task_images/gems/97.jpg,null,,,,,,,53,,,4,,,,,97,0.551049475,0.546391753,,,,,,,
decision,109,479544,0.0-37.0-5.0,"""event"",""trial"",""time""
""fullscreenenter"",""1"",""8509""
","
","
","""event"",""trial"",""time""
""fullscreenenter"",""1"",""8509""
","
",,310.3000002,run_exp/static/images/task_images/land.jpg,65,,,,,,,53,,,4,,,,,,,,80694,1,0,FALSE,,,
dig,110,482249,0.0-38.0-0.0,"""event"",""trial"",""time""
""fullscreenenter"",""1"",""8509""
","
","
","""event"",""trial"",""time""
""fullscreenenter"",""1"",""8509""
","
",,,,,,,,,,,,"[{""stimulus"":""run_exp/static/images/task_images/dig.jpg"",""time"":0.5},{""stimulus"":""run_exp/static/images/task_images/land.jpg"",""time"":906.4000000953674},{""stimulus"":""run_exp/static/images/task_images/dig.jpg"",""time"":1805.1999998092651}]",[],4,,,,,,,,,,,,,,
harvest,111,483271,0.0-38.0-1.0,"""event"",""trial"",""time""
""fullscreenenter"",""1"",""8509""
","
","
","""event"",""trial"",""time""
""fullscreenenter"",""1"",""8509""
","
",,null,run_exp/static/images/task_images/gems/53.jpg,null,,,,,,,29,,,4,,,,,53,0.540620904,0.547169811,,,,,,,
decision,112,483735,0.0-38.0-2.0,"""event"",""trial"",""time""
""fullscreenenter"",""1"",""8509""
","
","
","""event"",""trial"",""time""
""fullscreenenter"",""1"",""8509""
","
",,458.2000003,run_exp/static/images/task_images/land.jpg,65,,,,,,,29,,,4,,,,,,,,84885,1,1,FALSE,,,
dig,113,486299,0.0-39.0-0.0,"""event"",""trial"",""time""
""fullscreenenter"",""1"",""8509""
","
","
","""event"",""trial"",""time""
""fullscreenenter"",""1"",""8509""
","
",,,,,,,,,,,,"[{""stimulus"":""run_exp/static/images/task_images/dig.jpg"",""time"":0.5999999046325684},{""stimulus"":""run_exp/static/images/task_images/land.jpg"",""time"":857},{""stimulus"":""run_exp/static/images/task_images/dig.jpg"",""time"":1715.8999996185303}]",[],4,,,,,,,,,,,,,,
harvest,114,487309,0.0-39.0-1.0,"""event"",""trial"",""time""
""fullscreenenter"",""1"",""8509""
","
","
","""event"",""trial"",""time""
""fullscreenenter"",""1"",""8509""
","
",,null,run_exp/static/images/task_images/gems/29.jpg,null,,,,,,,14,,,4,,,,,29,0.498641336,0.482758621,,,,,,,
decision,115,487732,0.0-39.0-2.0,"""event"",""trial"",""time""
""fullscreenenter"",""1"",""8509""
","
","
","""event"",""trial"",""time""
""fullscreenenter"",""1"",""8509""
","
",,418.7999997,run_exp/static/images/task_images/land.jpg,76,,,,,,,14,,,4,,,,,,,,88881,1,2,TRUE,,,
travel,116,497330,0.0-40.0-0.0,"""event"",""trial"",""time""
""fullscreenenter"",""1"",""8509""
","
","
","""event"",""trial"",""time""
""fullscreenenter"",""1"",""8509""
","
",,,,,,,,,,,,"[{""stimulus"":""run_exp/static/images/task_images/rocket-01.jpg"",""time"":0.2999997138977051},{""stimulus"":""run_exp/static/images/task_images/rocket-02.jpg"",""time"":1076.5},{""stimulus"":""run_exp/static/images/task_images/rocket-03.jpg"",""time"":2143.699999809265},{""stimulus"":""run_exp/static/images/task_images/rocket-04.jpg"",""time"":3213.199999809265},{""stimulus"":""run_exp/static/images/task_images/rocket-05.jpg"",""time"":4273.89999961853},{""stimulus"":""run_exp/static/images/task_images/rocket-06.jpg"",""time"":5333},{""stimulus"":""run_exp/static/images/task_images/rocket-07.jpg"",""time"":6403.199999809265},{""stimulus"":""run_exp/static/images/task_images/rocket-08.jpg"",""time"":7473.599999904633},{""stimulus"":""run_exp/static/images/task_images/rocket-09.jpg"",""time"":8532.89999961853}]",[],4,,,,,,,,,,,,,,
alien_welcome,117,502349,0.0-40.0-1.0,"""event"",""trial"",""time""
""fullscreenenter"",""1"",""8509""
","
","
","""event"",""trial"",""time""
""fullscreenenter"",""1"",""8509""
","
",,null,run_exp/static/images/task_images/aliens/old_aliens/planet/alien_planet-34.jpg,null,,,,,,,,,,,,,34,"36,11,71,21,34,22,75,65,28,13,68,77,50,41,67,20,60,55,4,52,56,19,9,80,61,6,78,79,7,32,17,1,10,23,69,3,76,2,18,33,48,72,51,26,15,53,37,70,58,5,12,66,38,29,40,54,25,8,64,44,43,57,49,63,45",,,,,,,,,,
land,118,502860,0.0-40.0-2.0,"""event"",""trial"",""time""
""fullscreenenter"",""1"",""8509""
","
","
","""event"",""trial"",""time""
""fullscreenenter"",""1"",""8509""
","
",,null,run_exp/static/images/task_images/land.jpg,null,,,,,,,98,,,5,,,,,,,,,,,,,,
dig,119,504869,0.0-40.0-3.0,"""event"",""trial"",""time""
""fullscreenenter"",""1"",""8509""
","
","
","""event"",""trial"",""time""
""fullscreenenter"",""1"",""8509""
","
",,,,,,,,,,,,"[{""stimulus"":""run_exp/static/images/task_images/dig.jpg"",""time"":0.2999997138977051},{""stimulus"":""run_exp/static/images/task_images/land.jpg"",""time"":686.5},{""stimulus"":""run_exp/static/images/task_images/dig.jpg"",""time"":1345.8999996185303}]",[],5,,,,,,,,,,,,,,
harvest,120,505879,0.0-40.0-4.0,"""event"",""trial"",""time""
""fullscreenenter"",""1"",""8509""
","
","
","""event"",""trial"",""time""
""fullscreenenter"",""1"",""8509""
","
",,null,run_exp/static/images/task_images/gems/98.jpg,null,,,,,,,43,,,5,,,,,98,0.443573518,0.43877551,,,,,,,
decision,121,506188,0.0-40.0-5.0,"""event"",""trial"",""time""
""fullscreenenter"",""1"",""8509""
","
","
","""event"",""trial"",""time""
""fullscreenenter"",""1"",""8509""
","
",,308.4000001,run_exp/static/images/task_images/land.jpg,65,,,,,,,43,,,5,,,,,,,,107337,1,0,FALSE,,,
dig,122,508889,0.0-41.0-0.0,"""event"",""trial"",""time""
""fullscreenenter"",""1"",""8509""
","
","
","""event"",""trial"",""time""
""fullscreenenter"",""1"",""8509""
","
",,,,,,,,,,,,"[{""stimulus"":""run_exp/static/images/task_images/dig.jpg"",""time"":0.09999990463256836},{""stimulus"":""run_exp/static/images/task_images/land.jpg"",""time"":900.3000001907349},{""stimulus"":""run_exp/static/images/task_images/dig.jpg"",""time"":1800.4000000953674}]",[],5,,,,,,,,,,,,,,
harvest,123,509910,0.0-41.0-1.0,"""event"",""trial"",""time""
""fullscreenenter"",""1"",""8509""
","
","
","""event"",""trial"",""time""
""fullscreenenter"",""1"",""8509""
","
",,null,run_exp/static/images/task_images/gems/43.jpg,null,,,,,,,18,,,5,,,,,43,0.424951145,0.418604651,,,,,,,
decision,124,510016,0.0-41.0-2.0,"""event"",""trial"",""time""
""fullscreenenter"",""1"",""8509""
","
","
","""event"",""trial"",""time""
""fullscreenenter"",""1"",""8509""
","
",,101.1000004,run_exp/static/images/task_images/land.jpg,65,,,,,,,18,,,5,,,,,,,,111165,1,1,FALSE,,,
dig,125,512928,0.0-42.0-0.0,"""event"",""trial"",""time""
""fullscreenenter"",""1"",""8509""
","
","
","""event"",""trial"",""time""
""fullscreenenter"",""1"",""8509""
","
",,,,,,,,,,,,"[{""stimulus"":""run_exp/static/images/task_images/dig.jpg"",""time"":0.40000009536743164},{""stimulus"":""run_exp/static/images/task_images/land.jpg"",""time"":986.9000000953674},{""stimulus"":""run_exp/static/images/task_images/dig.jpg"",""time"":1946.3000001907349}]",[],5,,,,,,,,,,,,,,
harvest,126,513949,0.0-42.0-1.0,"""event"",""trial"",""time""
""fullscreenenter"",""1"",""8509""
","
","
","""event"",""trial"",""time""
""fullscreenenter"",""1"",""8509""
","
",,null,run_exp/static/images/task_images/gems/18.jpg,null,,,,,,,10,,,5,,,,,18,0.55757011,0.555555556,,,,,,,
decision,127,514083,0.0-42.0-2.0,"""event"",""trial"",""time""
""fullscreenenter"",""1"",""8509""
","
","
","""event"",""trial"",""time""
""fullscreenenter"",""1"",""8509""
","
",,129.9000001,run_exp/static/images/task_images/land.jpg,76,,,,,,,10,,,5,,,,,,,,115233,1,2,TRUE,,,
travel,128,523969,0.0-43.0-0.0,"""event"",""trial"",""time""
""fullscreenenter"",""1"",""8509""
","
","
","""event"",""trial"",""time""
""fullscreenenter"",""1"",""8509""
","
",,,,,,,,,,,,"[{""stimulus"":""run_exp/static/images/task_images/rocket-01.jpg"",""time"":1.3000001907348633},{""stimulus"":""run_exp/static/images/task_images/rocket-02.jpg"",""time"":1118.8000001907349},{""stimulus"":""run_exp/static/images/task_images/rocket-03.jpg"",""time"":2200.1000003814697},{""stimulus"":""run_exp/static/images/task_images/rocket-04.jpg"",""time"":3299.300000190735},{""stimulus"":""run_exp/static/images/task_images/rocket-05.jpg"",""time"":4398.900000095367},{""stimulus"":""run_exp/static/images/task_images/rocket-06.jpg"",""time"":5498.10000038147},{""stimulus"":""run_exp/static/images/task_images/rocket-07.jpg"",""time"":6598.700000286102},{""stimulus"":""run_exp/static/images/task_images/rocket-08.jpg"",""time"":7679.5},{""stimulus"":""run_exp/static/images/task_images/rocket-09.jpg"",""time"":8778.700000286102}]",[],5,,,,,,,,,,,,,,
alien_welcome,129,528993,0.0-43.0-1.0,"""event"",""trial"",""time""
""fullscreenenter"",""1"",""8509""
","
","
","""event"",""trial"",""time""
""fullscreenenter"",""1"",""8509""
","
",,null,run_exp/static/images/task_images/aliens/old_aliens/planet/alien_planet-22.jpg,null,,,,,,,,,,,,,22,"36,11,71,21,34,22,75,65,28,13,68,77,50,41,67,20,60,55,4,52,56,19,9,80,61,6,78,79,7,32,17,1,10,23,69,3,76,2,18,33,48,72,51,26,15,53,37,70,58,5,12,66,38,29,40,54,25,8,64,44,43,57,49,63,45",,,,,,,,,,
land,130,529513,0.0-43.0-2.0,"""event"",""trial"",""time""
""fullscreenenter"",""1"",""8509""
","
","
","""event"",""trial"",""time""
""fullscreenenter"",""1"",""8509""
","
",,null,run_exp/static/images/task_images/land.jpg,null,,,,,,,95,,,6,,,,,,,,,,,,,,
dig,131,531529,0.0-43.0-3.0,"""event"",""trial"",""time""
""fullscreenenter"",""1"",""8509""
","
","
","""event"",""trial"",""time""
""fullscreenenter"",""1"",""8509""
","
",,,,,,,,,,,,"[{""stimulus"":""run_exp/static/images/task_images/dig.jpg"",""time"":0.20000028610229492},{""stimulus"":""run_exp/static/images/task_images/land.jpg"",""time"":671.5},{""stimulus"":""run_exp/static/images/task_images/dig.jpg"",""time"":1352.0999999046326}]",[],6,,,,,,,,,,,,,,
harvest,132,532540,0.0-43.0-4.0,"""event"",""trial"",""time""
""fullscreenenter"",""1"",""8509""
","
","
","""event"",""trial"",""time""
""fullscreenenter"",""1"",""8509""
","
",,null,run_exp/static/images/task_images/gems/95.jpg,null,,,,,,,74,,,6,,,,,95,0.784080832,0.778947368,,,,,,,
decision,133,532871,0.0-43.0-5.0,"""event"",""trial"",""time""
""fullscreenenter"",""1"",""8509""
","
","
","""event"",""trial"",""time""
""fullscreenenter"",""1"",""8509""
","
",,328,run_exp/static/images/task_images/land.jpg,65,,,,,,,74,,,6,,,,,,,,134021,1,0,FALSE,,,
dig,134,535569,0.0-44.0-0.0,"""event"",""trial"",""time""
""fullscreenenter"",""1"",""8509""
","
","
","""event"",""trial"",""time""
""fullscreenenter"",""1"",""8509""
","
",,,,,,,,,,,,"[{""stimulus"":""run_exp/static/images/task_images/dig.jpg"",""time"":0.6999998092651367},{""stimulus"":""run_exp/static/images/task_images/land.jpg"",""time"":898.4000000953674},{""stimulus"":""run_exp/static/images/task_images/dig.jpg"",""time"":1789}]",[],6,,,,,,,,,,,,,,
harvest,135,536588,0.0-44.0-1.0,"""event"",""trial"",""time""
""fullscreenenter"",""1"",""8509""
","
","
","""event"",""trial"",""time""
""fullscreenenter"",""1"",""8509""
","
",,null,run_exp/static/images/task_images/gems/74.jpg,null,,,,,,,60,,,6,,,,,74,0.81030602,0.810810811,,,,,,,
decision,136,536899,0.0-44.0-2.0,"""event"",""trial"",""time""
""fullscreenenter"",""1"",""8509""
","
","
","""event"",""trial"",""time""
""fullscreenenter"",""1"",""8509""
","
",,309.3000002,run_exp/static/images/task_images/land.jpg,65,,,,,,,60,,,6,,,,,,,,138048,1,1,FALSE,,,
dig,137,539609,0.0-45.0-0.0,"""event"",""trial"",""time""
""fullscreenenter"",""1"",""8509""
","
","
","""event"",""trial"",""time""
""fullscreenenter"",""1"",""8509""
","
",,,,,,,,,,,,"[{""stimulus"":""run_exp/static/images/task_images/dig.jpg"",""time"":0.5},{""stimulus"":""run_exp/static/images/task_images/land.jpg"",""time"":901.1999998092651},{""stimulus"":""run_exp/static/images/task_images/dig.jpg"",""time"":1801.5}]",[],6,,,,,,,,,,,,,,
harvest,138,540620,0.0-45.0-1.0,"""event"",""trial"",""time""
""fullscreenenter"",""1"",""8509""
","
","
","""event"",""trial"",""time""
""fullscreenenter"",""1"",""8509""
","
",,null,run_exp/static/images/task_images/gems/60.jpg,null,,,,,,,49,,,6,,,,,60,0.821853129,0.816666667,,,,,,,
decision,139,540723,0.0-45.0-2.0,"""event"",""trial"",""time""
""fullscreenenter"",""1"",""8509""
","
","
","""event"",""trial"",""time""
""fullscreenenter"",""1"",""8509""
","
",,98.70000029,run_exp/static/images/task_images/land.jpg,65,,,,,,,49,,,6,,,,,,,,141872,1,2,FALSE,,,
dig,140,543649,0.0-46.0-0.0,"""event"",""trial"",""time""
""fullscreenenter"",""1"",""8509""
","
","
","""event"",""trial"",""time""
""fullscreenenter"",""1"",""8509""
","
",,,,,,,,,,,,"[{""stimulus"":""run_exp/static/images/task_images/dig.jpg"",""time"":0.40000009536743164},{""stimulus"":""run_exp/static/images/task_images/land.jpg"",""time"":982.1000003814697},{""stimulus"":""run_exp/static/images/task_images/dig.jpg"",""time"":1942.3000001907349}]",[],6,,,,,,,,,,,,,,
harvest,141,544669,0.0-46.0-1.0,"""event"",""trial"",""time""
""fullscreenenter"",""1"",""8509""
","
","
","""event"",""trial"",""time""
""fullscreenenter"",""1"",""8509""
","
",,null,run_exp/static/images/task_images/gems/49.jpg,null,,,,,,,44,,,6,,,,,49,0.893379744,0.897959184,,,,,,,
decision,142,544957,0.0-46.0-2.0,"""event"",""trial"",""time""
""fullscreenenter"",""1"",""8509""
","
","
","""event"",""trial"",""time""
""fullscreenenter"",""1"",""8509""
","
",,283.0999999,run_exp/static/images/task_images/land.jpg,65,,,,,,,44,,,6,,,,,,,,146106,1,3,FALSE,,,
dig,143,547689,0.0-47.0-0.0,"""event"",""trial"",""time""
""fullscreenenter"",""1"",""8509""
","
","
","""event"",""trial"",""time""
""fullscreenenter"",""1"",""8509""
","
",,,,,,,,,,,,"[{""stimulus"":""run_exp/static/images/task_images/dig.jpg"",""time"":1.200000286102295},{""stimulus"":""run_exp/static/images/task_images/land.jpg"",""time"":924.4000000953674},{""stimulus"":""run_exp/static/images/task_images/dig.jpg"",""time"":1829.3000001907349}]",[],6,,,,,,,,,,,,,,
harvest,144,548702,0.0-47.0-1.0,"""event"",""trial"",""time""
""fullscreenenter"",""1"",""8509""
","
","
","""event"",""trial"",""time""
""fullscreenenter"",""1"",""8509""
","
",,null,run_exp/static/images/task_images/gems/44.jpg,null,,,,,,,38,,,6,,,,,44,0.858959603,0.863636364,,,,,,,
decision,145,549093,0.0-47.0-2.0,"""event"",""trial"",""time""
""fullscreenenter"",""1"",""8509""
","
","
","""event"",""trial"",""time""
""fullscreenenter"",""1"",""8509""
","
",,386.0999999,run_exp/static/images/task_images/land.jpg,76,,,,,,,38,,,6,,,,,,,,150242,1,4,TRUE,,,
travel,146,558719,0.0-48.0-0.0,"""event"",""trial"",""time""
""fullscreenenter"",""1"",""8509""
","
","
","""event"",""trial"",""time""
""fullscreenenter"",""1"",""8509""
","
",,,,,,,,,,,,"[{""stimulus"":""run_exp/static/images/task_images/rocket-01.jpg"",""time"":0.3000001907348633},{""stimulus"":""run_exp/static/images/task_images/rocket-02.jpg"",""time"":1077.9000000953674},{""stimulus"":""run_exp/static/images/task_images/rocket-03.jpg"",""time"":2145.2000002861023},{""stimulus"":""run_exp/static/images/task_images/rocket-04.jpg"",""time"":3215.800000190735},{""stimulus"":""run_exp/static/images/task_images/rocket-05.jpg"",""time"":4276.5},{""stimulus"":""run_exp/static/images/task_images/rocket-06.jpg"",""time"":5355.200000286102},{""stimulus"":""run_exp/static/images/task_images/rocket-07.jpg"",""time"":6426.900000095367},{""stimulus"":""run_exp/static/images/task_images/rocket-08.jpg"",""time"":7483.700000286102},{""stimulus"":""run_exp/static/images/task_images/rocket-09.jpg"",""time"":8566.200000286102}]",[],6,,,,,,,,,,,,,,
alien_welcome,147,563730,0.0-48.0-1.0,"""event"",""trial"",""time""
""fullscreenenter"",""1"",""8509""
","
","
","""event"",""trial"",""time""
""fullscreenenter"",""1"",""8509""
","
",,null,run_exp/static/images/task_images/aliens/old_aliens/planet/alien_planet-75.jpg,null,,,,,,,,,,,,,75,"36,11,71,21,34,22,75,65,28,13,68,77,50,41,67,20,60,55,4,52,56,19,9,80,61,6,78,79,7,32,17,1,10,23,69,3,76,2,18,33,48,72,51,26,15,53,37,70,58,5,12,66,38,29,40,54,25,8,64,44,43,57,49,63,45",,,,,,,,,,
land,148,564240,0.0-48.0-2.0,"""event"",""trial"",""time""
""fullscreenenter"",""1"",""8509""
","
","
","""event"",""trial"",""time""
""fullscreenenter"",""1"",""8509""
","
",,null,run_exp/static/images/task_images/land.jpg,null,,,,,,,100,,,7,,,,,,,,,,,,,,
dig,149,566259,0.0-48.0-3.0,"""event"",""trial"",""time""
""fullscreenenter"",""1"",""8509""
","
","
","""event"",""trial"",""time""
""fullscreenenter"",""1"",""8509""
","
",,,,,,,,,,,,"[{""stimulus"":""run_exp/static/images/task_images/dig.jpg"",""time"":0.7000002861022949},{""stimulus"":""run_exp/static/images/task_images/land.jpg"",""time"":677.1000003814697},{""stimulus"":""run_exp/static/images/task_images/dig.jpg"",""time"":1358.5}]",[],7,,,,,,,,,,,,,,
harvest,150,567280,0.0-48.0-4.0,"""event"",""trial"",""time""
""fullscreenenter"",""1"",""8509""
","
","
","""event"",""trial"",""time""
""fullscreenenter"",""1"",""8509""
","
",,null,run_exp/static/images/task_images/gems/100.jpg,null,,,,,,,84,,,7,,,,,100,0.843229589,0.84,,,,,,,
decision,151,567636,0.0-48.0-5.0,"""event"",""trial"",""time""
""fullscreenenter"",""1"",""8509""
","
","
","""event"",""trial"",""time""
""fullscreenenter"",""1"",""8509""
","
",,352.4000001,run_exp/static/images/task_images/land.jpg,76,,,,,,,84,,,7,,,,,,,,168785,1,0,TRUE,,,
travel,152,577290,0.0-49.0-0.0,"""event"",""trial"",""time""
""fullscreenenter"",""1"",""8509""
","
","
","""event"",""trial"",""time""
""fullscreenenter"",""1"",""8509""
","
",,,,,,,,,,,,"[{""stimulus"":""run_exp/static/images/task_images/rocket-01.jpg"",""time"":0.19999980926513672},{""stimulus"":""run_exp/static/images/task_images/rocket-02.jpg"",""time"":1091.4000000953674},{""stimulus"":""run_exp/static/images/task_images/rocket-03.jpg"",""time"":2150.7999997138977},{""stimulus"":""run_exp/static/images/task_images/rocket-04.jpg"",""time"":3231},{""stimulus"":""run_exp/static/images/task_images/rocket-05.jpg"",""time"":4291.699999809265},{""stimulus"":""run_exp/static/images/task_images/rocket-06.jpg"",""time"":5362.400000095367},{""stimulus"":""run_exp/static/images/task_images/rocket-07.jpg"",""time"":6442.099999904633},{""stimulus"":""run_exp/static/images/task_images/rocket-08.jpg"",""time"":7502},{""stimulus"":""run_exp/static/images/task_images/rocket-09.jpg"",""time"":8571.900000095367}]",[],7,,,,,,,,,,,,,,
alien_welcome,153,582310,0.0-49.0-1.0,"""event"",""trial"",""time""
""fullscreenenter"",""1"",""8509""
","
","
","""event"",""trial"",""time""
""fullscreenenter"",""1"",""8509""
","
",,null,run_exp/static/images/task_images/aliens/old_aliens/planet/alien_planet-65.jpg,null,,,,,,,,,,,,,65,"36,11,71,21,34,22,75,65,28,13,68,77,50,41,67,20,60,55,4,52,56,19,9,80,61,6,78,79,7,32,17,1,10,23,69,3,76,2,18,33,48,72,51,26,15,53,37,70,58,5,12,66,38,29,40,54,25,8,64,44,43,57,49,63,45",,,,,,,,,,
land,154,582830,0.0-49.0-2.0,"""event"",""trial"",""time""
""fullscreenenter"",""1"",""8509""
","
","
","""event"",""trial"",""time""
""fullscreenenter"",""1"",""8509""
","
",,null,run_exp/static/images/task_images/land.jpg,null,,,,,,,105,,,8,,,,,,,,,,,,,,
dig,155,584849,0.0-49.0-3.0,"""event"",""trial"",""time""
""fullscreenenter"",""1"",""8509""
","
","
","""event"",""trial"",""time""
""fullscreenenter"",""1"",""8509""
","
",,,,,,,,,,,,"[{""stimulus"":""run_exp/static/images/task_images/dig.jpg"",""time"":0.6999998092651367},{""stimulus"":""run_exp/static/images/task_images/land.jpg"",""time"":677.1999998092651},{""stimulus"":""run_exp/static/images/task_images/dig.jpg"",""time"":1352.5}]",[],8,,,,,,,,,,,,,,
harvest,156,585870,0.0-49.0-4.0,"""event"",""trial"",""time""
""fullscreenenter"",""1"",""8509""
","
","
","""event"",""trial"",""time""
""fullscreenenter"",""1"",""8509""
","
",,null,run_exp/static/images/task_images/gems/105.jpg,null,,,,,,,85,,,8,,,,,105,0.808155501,0.80952381,,,,,,,
decision,157,586184,0.0-49.0-5.0,"""event"",""trial"",""time""
""fullscreenenter"",""1"",""8509""
","
","
","""event"",""trial"",""time""
""fullscreenenter"",""1"",""8509""
","
",,310.8999996,run_exp/static/images/task_images/land.jpg,76,,,,,,,85,,,8,,,,,,,,187333,1,0,TRUE,,,
travel,158,595891,0.0-50.0-0.0,"""event"",""trial"",""time""
""fullscreenenter"",""1"",""8509""
","
","
","""event"",""trial"",""time""
""fullscreenenter"",""1"",""8509""
","
",,,,,,,,,,,,"[{""stimulus"":""run_exp/static/images/task_images/rocket-01.jpg"",""time"":0.20000028610229492},{""stimulus"":""run_exp/static/images/task_images/rocket-02.jpg"",""time"":1084.1000003814697},{""stimulus"":""run_exp/static/images/task_images/rocket-03.jpg"",""time"":2173.4000000953674},{""stimulus"":""run_exp/static/images/task_images/rocket-04.jpg"",""time"":3231.2000002861023},{""stimulus"":""run_exp/static/images/task_images/rocket-05.jpg"",""time"":4313.60000038147},{""stimulus"":""run_exp/static/images/task_images/rocket-06.jpg"",""time"":5388.10000038147},{""stimulus"":""run_exp/static/images/task_images/rocket-07.jpg"",""time"":6463.10000038147},{""stimulus"":""run_exp/static/images/task_images/rocket-08.jpg"",""time"":7543.10000038147},{""stimulus"":""run_exp/static/images/task_images/rocket-09.jpg"",""time"":8623.200000286102}]",[],8,,,,,,,,,,,,,,
alien_welcome,159,600910,0.0-50.0-1.0,"""event"",""trial"",""time""
""fullscreenenter"",""1"",""8509""
","
","
","""event"",""trial"",""time""
""fullscreenenter"",""1"",""8509""
","
",,null,run_exp/static/images/task_images/aliens/old_aliens/planet/alien_planet-28.jpg,null,,,,,,,,,,,,,28,"36,11,71,21,34,22,75,65,28,13,68,77,50,41,67,20,60,55,4,52,56,19,9,80,61,6,78,79,7,32,17,1,10,23,69,3,76,2,18,33,48,72,51,26,15,53,37,70,58,5,12,66,38,29,40,54,25,8,64,44,43,57,49,63,45",,,,,,,,,,
land,160,601430,0.0-50.0-2.0,"""event"",""trial"",""time""
""fullscreenenter"",""1"",""8509""
","
","
","""event"",""trial"",""time""
""fullscreenenter"",""1"",""8509""
","
",,null,run_exp/static/images/task_images/land.jpg,null,,,,,,,101,,,9,,,,,,,,,,,,,,
dig,161,603440,0.0-50.0-3.0,"""event"",""trial"",""time""
""fullscreenenter"",""1"",""8509""
","
","
","""event"",""trial"",""time""
""fullscreenenter"",""1"",""8509""
","
",,,,,,,,,,,,"[{""stimulus"":""run_exp/static/images/task_images/dig.jpg"",""time"":0.7999997138977051},{""stimulus"":""run_exp/static/images/task_images/land.jpg"",""time"":677.5},{""stimulus"":""run_exp/static/images/task_images/dig.jpg"",""time"":1347.2999997138977}]",[],9,,,,,,,,,,,,,,
harvest,162,604450,0.0-50.0-4.0,"""event"",""trial"",""time""
""fullscreenenter"",""1"",""8509""
","
","
","""event"",""trial"",""time""
""fullscreenenter"",""1"",""8509""
","
",,null,run_exp/static/images/task_images/gems/101.jpg,null,,,,,,,15,,,9,,,,,101,0.152234253,0.148514851,,,,,,,
decision,163,604482,0.0-50.0-5.0,"""event"",""trial"",""time""
""fullscreenenter"",""1"",""8509""
","
","
","""event"",""trial"",""time""
""fullscreenenter"",""1"",""8509""
","
",,28.69999981,run_exp/static/images/task_images/land.jpg,65,,,,,,,15,,,9,,,,,,,,205631,1,0,FALSE,,,
dig,164,607468,0.0-51.0-0.0,"""event"",""trial"",""time""
""fullscreenenter"",""1"",""8509""
","
","
","""event"",""trial"",""time""
""fullscreenenter"",""1"",""8509""
","
",,,,,,,,,,,,"[{""stimulus"":""run_exp/static/images/task_images/dig.jpg"",""time"":0.09999990463256836},{""stimulus"":""run_exp/static/images/task_images/land.jpg"",""time"":1006.2999997138977},{""stimulus"":""run_exp/static/images/task_images/dig.jpg"",""time"":1986.5999999046326}]",[],9,,,,,,,,,,,,,,
harvest,165,608488,0.0-51.0-1.0,"""event"",""trial"",""time""
""fullscreenenter"",""1"",""8509""
","
","
","""event"",""trial"",""time""
""fullscreenenter"",""1"",""8509""
","
",,null,run_exp/static/images/task_images/gems/15.jpg,null,,,,,,,4,,,9,,,,,15,0.2372125,0.266666667,,,,,,,
decision,166,608588,0.0-51.0-2.0,"""event"",""trial"",""time""
""fullscreenenter"",""1"",""8509""
","
","
","""event"",""trial"",""time""
""fullscreenenter"",""1"",""8509""
","
",,97.4000001,run_exp/static/images/task_images/land.jpg,76,,,,,,,4,,,9,,,,,,,,209737,1,1,TRUE,,,
travel,167,618508,0.0-52.0-0.0,"""event"",""trial"",""time""
""fullscreenenter"",""1"",""8509""
","
","
","""event"",""trial"",""time""
""fullscreenenter"",""1"",""8509""
","
",,,,,,,,,,,,"[{""stimulus"":""run_exp/static/images/task_images/rocket-01.jpg"",""time"":0.6999998092651367},{""stimulus"":""run_exp/static/images/task_images/rocket-02.jpg"",""time"":1111.9000000953674},{""stimulus"":""run_exp/static/images/task_images/rocket-03.jpg"",""time"":2221.4000000953674},{""stimulus"":""run_exp/static/images/task_images/rocket-04.jpg"",""time"":3321.300000190735},{""stimulus"":""run_exp/static/images/task_images/rocket-05.jpg"",""time"":4411.400000095367},{""stimulus"":""run_exp/static/images/task_images/rocket-06.jpg"",""time"":5521.800000190735},{""stimulus"":""run_exp/static/images/task_images/rocket-07.jpg"",""time"":6611.800000190735},{""stimulus"":""run_exp/static/images/task_images/rocket-08.jpg"",""time"":7711.400000095367},{""stimulus"":""run_exp/static/images/task_images/rocket-09.jpg"",""time"":8811.400000095367}]",[],9,,,,,,,,,,,,,,
alien_welcome,168,623533,0.0-52.0-1.0,"""event"",""trial"",""time""
""fullscreenenter"",""1"",""8509""
","
","
","""event"",""trial"",""time""
""fullscreenenter"",""1"",""8509""
","
",,null,run_exp/static/images/task_images/aliens/old_aliens/planet/alien_planet-13.jpg,null,,,,,,,,,,,,,13,"36,11,71,21,34,22,75,65,28,13,68,77,50,41,67,20,60,55,4,52,56,19,9,80,61,6,78,79,7,32,17,1,10,23,69,3,76,2,18,33,48,72,51,26,15,53,37,70,58,5,12,66,38,29,40,54,25,8,64,44,43,57,49,63,45",,,,,,,,,,
land,169,624038,0.0-52.0-2.0,"""event"",""trial"",""time""
""fullscreenenter"",""1"",""8509""
","
","
","""event"",""trial"",""time""
""fullscreenenter"",""1"",""8509""
","
",,null,run_exp/static/images/task_images/land.jpg,null,,,,,,,101,,,10,,,,,,,,,,,,,,
dig,170,626048,0.0-52.0-3.0,"""event"",""trial"",""time""
""fullscreenenter"",""1"",""8509""
","
","
","""event"",""trial"",""time""
""fullscreenenter"",""1"",""8509""
","
",,,,,,,,,,,,"[{""stimulus"":""run_exp/static/images/task_images/dig.jpg"",""time"":0.6999998092651367},{""stimulus"":""run_exp/static/images/task_images/land.jpg"",""time"":687.4000000953674},{""stimulus"":""run_exp/static/images/task_images/dig.jpg"",""time"":1347.4000000953674}]",[],10,,,,,,,,,,,,,,
harvest,171,627054,0.0-52.0-4.0,"""event"",""trial"",""time""
""fullscreenenter"",""1"",""8509""
","
","
","""event"",""trial"",""time""
""fullscreenenter"",""1"",""8509""
","
",,null,run_exp/static/images/task_images/gems/101.jpg,null,,,,,,,12,,,10,,,,,101,0.116040842,0.118811881,,,,,,,
decision,172,627473,0.0-52.0-5.0,"""event"",""trial"",""time""
""fullscreenenter"",""1"",""8509""
","
","
","""event"",""trial"",""time""
""fullscreenenter"",""1"",""8509""
","
",,416.7999997,run_exp/static/images/task_images/land.jpg,76,,,,,,,12,,,10,,,,,,,,228622,1,0,TRUE,,,
travel,173,637069,0.0-53.0-0.0,"""event"",""trial"",""time""
""fullscreenenter"",""1"",""8509""
","
","
","""event"",""trial"",""time""
""fullscreenenter"",""1"",""8509""
","
",,,,,,,,,,,,"[{""stimulus"":""run_exp/static/images/task_images/rocket-01.jpg"",""time"":0.09999990463256836},{""stimulus"":""run_exp/static/images/task_images/rocket-02.jpg"",""time"":1073.3000001907349},{""stimulus"":""run_exp/static/images/task_images/rocket-03.jpg"",""time"":2130.300000190735},{""stimulus"":""run_exp/static/images/task_images/rocket-04.jpg"",""time"":3204.5999999046326},{""stimulus"":""run_exp/static/images/task_images/rocket-05.jpg"",""time"":4273.800000190735},{""stimulus"":""run_exp/static/images/task_images/rocket-06.jpg"",""time"":5333.599999904633},{""stimulus"":""run_exp/static/images/task_images/rocket-07.jpg"",""time"":6394.300000190735},{""stimulus"":""run_exp/static/images/task_images/rocket-08.jpg"",""time"":7454},{""stimulus"":""run_exp/static/images/task_images/rocket-09.jpg"",""time"":8534.200000286102}]",[],10,,,,,,,,,,,,,,
alien_welcome,174,642092,0.0-53.0-1.0,"""event"",""trial"",""time""
""fullscreenenter"",""1"",""8509""
","
","
","""event"",""trial"",""time""
""fullscreenenter"",""1"",""8509""
","
",,null,run_exp/static/images/task_images/aliens/old_aliens/planet/alien_planet-68.jpg,null,,,,,,,,,,,,,68,"36,11,71,21,34,22,75,65,28,13,68,77,50,41,67,20,60,55,4,52,56,19,9,80,61,6,78,79,7,32,17,1,10,23,69,3,76,2,18,33,48,72,51,26,15,53,37,70,58,5,12,66,38,29,40,54,25,8,64,44,43,57,49,63,45",,,,,,,,,,
land,175,642613,0.0-53.0-2.0,"""event"",""trial"",""time""
""fullscreenenter"",""1"",""8509""
","
","
","""event"",""trial"",""time""
""fullscreenenter"",""1"",""8509""
","
",,null,run_exp/static/images/task_images/land.jpg,null,,,,,,,96,,,11,,,,,,,,,,,,,,
dig,176,644619,0.0-53.0-3.0,"""event"",""trial"",""time""
""fullscreenenter"",""1"",""8509""
","
","
","""event"",""trial"",""time""
""fullscreenenter"",""1"",""8509""
","
",,,,,,,,,,,,"[{""stimulus"":""run_exp/static/images/task_images/dig.jpg"",""time"":0.19999980926513672},{""stimulus"":""run_exp/static/images/task_images/land.jpg"",""time"":675.1999998092651},{""stimulus"":""run_exp/static/images/task_images/dig.jpg"",""time"":1345}]",[],11,,,,,,,,,,,,,,
harvest,177,645639,0.0-53.0-4.0,"""event"",""trial"",""time""
""fullscreenenter"",""1"",""8509""
","
","
","""event"",""trial"",""time""
""fullscreenenter"",""1"",""8509""
","
",,null,run_exp/static/images/task_images/gems/96.jpg,null,,,,,,,9,,,11,,,,,96,0.092934351,0.09375,,,,,,,
decision,178,645870,0.0-53.0-5.0,"""event"",""trial"",""time""
""fullscreenenter"",""1"",""8509""
","
","
","""event"",""trial"",""time""
""fullscreenenter"",""1"",""8509""
","
",,226.7999997,run_exp/static/images/task_images/land.jpg,76,,,,,,,9,,,11,,,,,,,,247019,1,0,TRUE,,,
travel,179,655649,0.0-54.0-0.0,"""event"",""trial"",""time""
""fullscreenenter"",""1"",""8509""
","
","
","""event"",""trial"",""time""
""fullscreenenter"",""1"",""8509""
","
",,,,,,,,,,,,"[{""stimulus"":""run_exp/static/images/task_images/rocket-01.jpg"",""time"":0.09999990463256836},{""stimulus"":""run_exp/static/images/task_images/rocket-02.jpg"",""time"":1094.2000002861023},{""stimulus"":""run_exp/static/images/task_images/rocket-03.jpg"",""time"":2173.800000190735},{""stimulus"":""run_exp/static/images/task_images/rocket-04.jpg"",""time"":3274.4000000953674},{""stimulus"":""run_exp/static/images/task_images/rocket-05.jpg"",""time"":4354.800000190735},{""stimulus"":""run_exp/static/images/task_images/rocket-06.jpg"",""time"":5434.300000190735},{""stimulus"":""run_exp/static/images/task_images/rocket-07.jpg"",""time"":6519.400000095367},{""stimulus"":""run_exp/static/images/task_images/rocket-08.jpg"",""time"":7604.200000286102},{""stimulus"":""run_exp/static/images/task_images/rocket-09.jpg"",""time"":8694.700000286102}]",[],11,,,,,,,,,,,,,,
alien_welcome,180,660669,0.0-54.0-1.0,"""event"",""trial"",""time""
""fullscreenenter"",""1"",""8509""
","
","
","""event"",""trial"",""time""
""fullscreenenter"",""1"",""8509""
","
",,null,run_exp/static/images/task_images/aliens/old_aliens/planet/alien_planet-77.jpg,null,,,,,,,,,,,,,77,"36,11,71,21,34,22,75,65,28,13,68,77,50,41,67,20,60,55,4,52,56,19,9,80,61,6,78,79,7,32,17,1,10,23,69,3,76,2,18,33,48,72,51,26,15,53,37,70,58,5,12,66,38,29,40,54,25,8,64,44,43,57,49,63,45",,,,,,,,,,
land,181,661179,0.0-54.0-2.0,"""event"",""trial"",""time""
""fullscreenenter"",""1"",""8509""
","
","
","""event"",""trial"",""time""
""fullscreenenter"",""1"",""8509""
","
",,null,run_exp/static/images/task_images/land.jpg,null,,,,,,,93,,,12,,,,,,,,,,,,,,
dig,182,663189,0.0-54.0-3.0,"""event"",""trial"",""time""
""fullscreenenter"",""1"",""8509""
","
","
","""event"",""trial"",""time""
""fullscreenenter"",""1"",""8509""
","
",,,,,,,,,,,,"[{""stimulus"":""run_exp/static/images/task_images/dig.jpg"",""time"":0.3000001907348633},{""stimulus"":""run_exp/static/images/task_images/land.jpg"",""time"":676.5},{""stimulus"":""run_exp/static/images/task_images/dig.jpg"",""time"":1342}]",[],12,,,,,,,,,,,,,,
harvest,183,664209,0.0-54.0-4.0,"""event"",""trial"",""time""
""fullscreenenter"",""1"",""8509""
","
","
","""event"",""trial"",""time""
""fullscreenenter"",""1"",""8509""
","
",,null,run_exp/static/images/task_images/gems/93.jpg,null,,,,,,,26,,,12,,,,,93,0.283020156,0.279569892,,,,,,,
decision,184,664543,0.0-54.0-5.0,"""event"",""trial"",""time""
""fullscreenenter"",""1"",""8509""
","
","
","""event"",""trial"",""time""
""fullscreenenter"",""1"",""8509""
","
",,329.9000001,run_exp/static/images/task_images/land.jpg,65,,,,,,,26,,,12,,,,,,,,265692,1,0,FALSE,,,
dig,185,667228,0.0-55.0-0.0,"""event"",""trial"",""time""
""fullscreenenter"",""1"",""8509""
","
","
","""event"",""trial"",""time""
""fullscreenenter"",""1"",""8509""
","
",,,,,,,,,,,,"[{""stimulus"":""run_exp/static/images/task_images/dig.jpg"",""time"":0.40000009536743164},{""stimulus"":""run_exp/static/images/task_images/land.jpg"",""time"":895.1999998092651},{""stimulus"":""run_exp/static/images/task_images/dig.jpg"",""time"":1795.2999997138977}]",[],12,,,,,,,,,,,,,,
harvest,186,668253,0.0-55.0-1.0,"""event"",""trial"",""time""
""fullscreenenter"",""1"",""8509""
","
","
","""event"",""trial"",""time""
""fullscreenenter"",""1"",""8509""
","
",,null,run_exp/static/images/task_images/gems/26.jpg,null,,,,,,,7,,,12,,,,,26,0.263063533,0.269230769,,,,,,,
decision,187,668292,0.0-55.0-2.0,"""event"",""trial"",""time""
""fullscreenenter"",""1"",""8509""
","
","
","""event"",""trial"",""time""
""fullscreenenter"",""1"",""8509""
","
",,33.9000001,run_exp/static/images/task_images/land.jpg,76,,,,,,,7,,,12,,,,,,,,269441,1,1,TRUE,,,
travel,188,678269,0.0-56.0-0.0,"""event"",""trial"",""time""
""fullscreenenter"",""1"",""8509""
","
","
","""event"",""trial"",""time""
""fullscreenenter"",""1"",""8509""
","
",,,,,,,,,,,,"[{""stimulus"":""run_exp/static/images/task_images/rocket-01.jpg"",""time"":0.3000001907348633},{""stimulus"":""run_exp/static/images/task_images/rocket-02.jpg"",""time"":1115.1999998092651},{""stimulus"":""run_exp/static/images/task_images/rocket-03.jpg"",""time"":2235.5999999046326},{""stimulus"":""run_exp/static/images/task_images/rocket-04.jpg"",""time"":3335.199999809265},{""stimulus"":""run_exp/static/images/task_images/rocket-05.jpg"",""time"":4444.900000095367},{""stimulus"":""run_exp/static/images/task_images/rocket-06.jpg"",""time"":5553.699999809265},{""stimulus"":""run_exp/static/images/task_images/rocket-07.jpg"",""time"":6655.099999904633},{""stimulus"":""run_exp/static/images/task_images/rocket-08.jpg"",""time"":7754.699999809265},{""stimulus"":""run_exp/static/images/task_images/rocket-09.jpg"",""time"":8874.699999809265}]",[],12,,,,,,,,,,,,,,
alien_welcome,189,683289,0.0-56.0-1.0,"""event"",""trial"",""time""
""fullscreenenter"",""1"",""8509""
","
","
","""event"",""trial"",""time""
""fullscreenenter"",""1"",""8509""
","
",,null,run_exp/static/images/task_images/aliens/old_aliens/planet/alien_planet-50.jpg,null,,,,,,,,,,,,,50,"36,11,71,21,34,22,75,65,28,13,68,77,50,41,67,20,60,55,4,52,56,19,9,80,61,6,78,79,7,32,17,1,10,23,69,3,76,2,18,33,48,72,51,26,15,53,37,70,58,5,12,66,38,29,40,54,25,8,64,44,43,57,49,63,45",,,,,,,,,,
land,190,683804,0.0-56.0-2.0,"""event"",""trial"",""time""
""fullscreenenter"",""1"",""8509""
","
","
","""event"",""trial"",""time""
""fullscreenenter"",""1"",""8509""
","
",,null,run_exp/static/images/task_images/land.jpg,null,,,,,,,102,,,13,,,,,,,,,,,,,,
dig,191,685823,0.0-56.0-3.0,"""event"",""trial"",""time""
""fullscreenenter"",""1"",""8509""
","
","
","""event"",""trial"",""time""
""fullscreenenter"",""1"",""8509""
","
",,,,,,,,,,,,"[{""stimulus"":""run_exp/static/images/task_images/dig.jpg"",""time"":0.6999998092651367},{""stimulus"":""run_exp/static/images/task_images/land.jpg"",""time"":682.9000000953674},{""stimulus"":""run_exp/static/images/task_images/dig.jpg"",""time"":1341.9000000953674}]",[],13,,,,,,,,,,,,,,
harvest,192,686829,0.0-56.0-4.0,"""event"",""trial"",""time""
""fullscreenenter"",""1"",""8509""
","
","
","""event"",""trial"",""time""
""fullscreenenter"",""1"",""8509""
","
",,null,run_exp/static/images/task_images/gems/102.jpg,null,,,,,,,19,,,13,,,,,102,0.1895083,0.18627451,,,,,,,
decision,193,687078,0.0-56.0-5.0,"""event"",""trial"",""time""
""fullscreenenter"",""1"",""8509""
","
","
","""event"",""trial"",""time""
""fullscreenenter"",""1"",""8509""
","
",,244.2999997,run_exp/static/images/task_images/land.jpg,76,,,,,,,19,,,13,,,,,,,,288227,1,0,TRUE,,,
travel,194,696859,0.0-57.0-0.0,"""event"",""trial"",""time""
""fullscreenenter"",""1"",""8509""
","
","
","""event"",""trial"",""time""
""fullscreenenter"",""1"",""8509""
","
",,,,,,,,,,,,"[{""stimulus"":""run_exp/static/images/task_images/rocket-01.jpg"",""time"":0.6999998092651367},{""stimulus"":""run_exp/static/images/task_images/rocket-02.jpg"",""time"":1099.5999999046326},{""stimulus"":""run_exp/static/images/task_images/rocket-03.jpg"",""time"":2180.7999997138977},{""stimulus"":""run_exp/static/images/task_images/rocket-04.jpg"",""time"":3260.199999809265},{""stimulus"":""run_exp/static/images/task_images/rocket-05.jpg"",""time"":4341.5},{""stimulus"":""run_exp/static/images/task_images/rocket-06.jpg"",""time"":5419.799999713898},{""stimulus"":""run_exp/static/images/task_images/rocket-07.jpg"",""time"":6520.799999713898},{""stimulus"":""run_exp/static/images/task_images/rocket-08.jpg"",""time"":7590.299999713898},{""stimulus"":""run_exp/static/images/task_images/rocket-09.jpg"",""time"":8680.599999904633}]",[],13,,,,,,,,,,,,,,
alien_welcome,195,701869,0.0-57.0-1.0,"""event"",""trial"",""time""
""fullscreenenter"",""1"",""8509""
","
","
","""event"",""trial"",""time""
""fullscreenenter"",""1"",""8509""
","
",,null,run_exp/static/images/task_images/aliens/old_aliens/planet/alien_planet-41.jpg,null,,,,,,,,,,,,,41,"36,11,71,21,34,22,75,65,28,13,68,77,50,41,67,20,60,55,4,52,56,19,9,80,61,6,78,79,7,32,17,1,10,23,69,3,76,2,18,33,48,72,51,26,15,53,37,70,58,5,12,66,38,29,40,54,25,8,64,44,43,57,49,63,45",,,,,,,,,,
land,196,702392,0.0-57.0-2.0,"""event"",""trial"",""time""
""fullscreenenter"",""1"",""8509""
","
","
","""event"",""trial"",""time""
""fullscreenenter"",""1"",""8509""
","
",,null,run_exp/static/images/task_images/land.jpg,null,,,,,,,114,,,14,,,,,,,,,,,,,,
dig,197,704408,0.0-57.0-3.0,"""event"",""trial"",""time""
""fullscreenenter"",""1"",""8509""
","
","
","""event"",""trial"",""time""
""fullscreenenter"",""1"",""8509""
","
",,,,,,,,,,,,"[{""stimulus"":""run_exp/static/images/task_images/dig.jpg"",""time"":0.5999999046325684},{""stimulus"":""run_exp/static/images/task_images/land.jpg"",""time"":673.1999998092651},{""stimulus"":""run_exp/static/images/task_images/dig.jpg"",""time"":1352.9000000953674}]",[],14,,,,,,,,,,,,,,
harvest,198,705429,0.0-57.0-4.0,"""event"",""trial"",""time""
""fullscreenenter"",""1"",""8509""
","
","
","""event"",""trial"",""time""
""fullscreenenter"",""1"",""8509""
","
",,null,run_exp/static/images/task_images/gems/114.jpg,null,,,,,,,86,,,14,,,,,114,0.755698618,0.754385965,,,,,,,
decision,199,705512,0.0-57.0-5.0,"""event"",""trial"",""time""
""fullscreenenter"",""1"",""8509""
","
","
","""event"",""trial"",""time""
""fullscreenenter"",""1"",""8509""
","
",,79.19999981,run_exp/static/images/task_images/land.jpg,65,,,,,,,86,,,14,,,,,,,,306661,1,0,TRUE,,,
end_of_block_continue,200,710584,0.0-58.0-0.0,"""event"",""trial"",""time""
""fullscreenenter"",""1"",""8509""
","
","
","""event"",""trial"",""time""
""fullscreenenter"",""1"",""8509""
","
",,5067.8,run_exp/static/audio/clip_32_block_end.m4a,,,,,,,0,,,,,,,,,,,,,,,,,,
alien_welcome,201,715590,0.0-59.0-0.0,"""event"",""trial"",""time""
""fullscreenenter"",""1"",""8509""
","
","
","""event"",""trial"",""time""
""fullscreenenter"",""1"",""8509""
","
",,null,run_exp/static/images/task_images/aliens/old_aliens/planet/alien_planet-67.jpg,null,,,,,,,,,,,,,67,"36,11,71,21,34,22,75,65,28,13,68,77,50,41,67,20,60,55,4,52,56,19,9,80,61,6,78,79,7,32,17,1,10,23,69,3,76,2,18,33,48,72,51,26,15,53,37,70,58,5,12,66,38,29,40,54,25,8,64,44,43,57,49,63,45",,,,,,,,,,
land,202,716098,0.0-59.0-1.0,"""event"",""trial"",""time""
""fullscreenenter"",""1"",""8509""
","
","
","""event"",""trial"",""time""
""fullscreenenter"",""1"",""8509""
","
",,null,run_exp/static/images/task_images/land.jpg,null,,,,,,,93,,,15,,,,,,,,,,,,,,
dig,203,718119,0.0-59.0-2.0,"""event"",""trial"",""time""
""fullscreenenter"",""1"",""8509""
","
","
","""event"",""trial"",""time""
""fullscreenenter"",""1"",""8509""
","
",,,,,,,,,,,,"[{""stimulus"":""run_exp/static/images/task_images/dig.jpg"",""time"":0.6000003814697266},{""stimulus"":""run_exp/static/images/task_images/land.jpg"",""time"":688.3000001907349},{""stimulus"":""run_exp/static/images/task_images/dig.jpg"",""time"":1337.8000001907349}]",[],15,,,,,,,,,,,,,,
harvest,204,719140,0.0-59.0-3.0,"""event"",""trial"",""time""
""fullscreenenter"",""1"",""8509""
","
","
","""event"",""trial"",""time""
""fullscreenenter"",""1"",""8509""
","
",,null,run_exp/static/images/task_images/gems/93.jpg,null,,,,,,,21,,,15,,,,,93,0.229244054,0.225806452,,,,,,,
decision,205,719485,0.0-59.0-4.0,"""event"",""trial"",""time""
""fullscreenenter"",""1"",""8509""
","
","
","""event"",""trial"",""time""
""fullscreenenter"",""1"",""8509""
","
",,342,run_exp/static/images/task_images/land.jpg,76,,,,,,,21,,,15,,,,,,,,8898,2,0,TRUE,,,
travel,206,729149,0.0-60.0-0.0,"""event"",""trial"",""time""
""fullscreenenter"",""1"",""8509""
","
","
","""event"",""trial"",""time""
""fullscreenenter"",""1"",""8509""
","
",,,,,,,,,,,,"[{""stimulus"":""run_exp/static/images/task_images/rocket-01.jpg"",""time"":0.19999980926513672},{""stimulus"":""run_exp/static/images/task_images/rocket-02.jpg"",""time"":1081.5},{""stimulus"":""run_exp/static/images/task_images/rocket-03.jpg"",""time"":2151.5999999046326},{""stimulus"":""run_exp/static/images/task_images/rocket-04.jpg"",""time"":3231.199999809265},{""stimulus"":""run_exp/static/images/task_images/rocket-05.jpg"",""time"":4312.299999713898},{""stimulus"":""run_exp/static/images/task_images/rocket-06.jpg"",""time"":5383.699999809265},{""stimulus"":""run_exp/static/images/task_images/rocket-07.jpg"",""time"":6441.199999809265},{""stimulus"":""run_exp/static/images/task_images/rocket-08.jpg"",""time"":7521.699999809265},{""stimulus"":""run_exp/static/images/task_images/rocket-09.jpg"",""time"":8602.799999713898}]",[],15,,,,,,,,,,,,,,
alien_welcome,207,734169,0.0-60.0-1.0,"""event"",""trial"",""time""
""fullscreenenter"",""1"",""8509""
","
","
","""event"",""trial"",""time""
""fullscreenenter"",""1"",""8509""
","
",,null,run_exp/static/images/task_images/aliens/old_aliens/planet/alien_planet-20.jpg,null,,,,,,,,,,,,,20,"36,11,71,21,34,22,75,65,28,13,68,77,50,41,67,20,60,55,4,52,56,19,9,80,61,6,78,79,7,32,17,1,10,23,69,3,76,2,18,33,48,72,51,26,15,53,37,70,58,5,12,66,38,29,40,54,25,8,64,44,43,57,49,63,45",,,,,,,,,,
land,208,734674,0.0-60.0-2.0,"""event"",""trial"",""time""
""fullscreenenter"",""1"",""8509""
","
","
","""event"",""trial"",""time""
""fullscreenenter"",""1"",""8509""
","
",,null,run_exp/static/images/task_images/land.jpg,null,,,,,,,97,,,16,,,,,,,,,,,,,,
dig,209,736688,0.0-60.0-3.0,"""event"",""trial"",""time""
""fullscreenenter"",""1"",""8509""
","
","
","""event"",""trial"",""time""
""fullscreenenter"",""1"",""8509""
","
",,,,,,,,,,,,"[{""stimulus"":""run_exp/static/images/task_images/dig.jpg"",""time"":0.6999998092651367},{""stimulus"":""run_exp/static/images/task_images/land.jpg"",""time"":671.6999998092651},{""stimulus"":""run_exp/static/images/task_images/dig.jpg"",""time"":1349.4000000953674}]",[],16,,,,,,,,,,,,,,
harvest,210,737698,0.0-60.0-4.0,"""event"",""trial"",""time""
""fullscreenenter"",""1"",""8509""
","
","
","""event"",""trial"",""time""
""fullscreenenter"",""1"",""8509""
","
",,null,run_exp/static/images/task_images/gems/97.jpg,null,,,,,,,16,,,16,,,,,97,0.163300318,0.164948454,,,,,,,
decision,211,738047,0.0-60.0-5.0,"""event"",""trial"",""time""
""fullscreenenter"",""1"",""8509""
","
","
","""event"",""trial"",""time""
""fullscreenenter"",""1"",""8509""
","
",,344.1999998,run_exp/static/images/task_images/land.jpg,76,,,,,,,16,,,16,,,,,,,,27460,2,0,TRUE,,,
travel,212,747727,0.0-61.0-0.0,"""event"",""trial"",""time""
""fullscreenenter"",""1"",""8509""
","
","
","""event"",""trial"",""time""
""fullscreenenter"",""1"",""8509""
","
",,,,,,,,,,,,"[{""stimulus"":""run_exp/static/images/task_images/rocket-01.jpg"",""time"":0.6000003814697266},{""stimulus"":""run_exp/static/images/task_images/rocket-02.jpg"",""time"":1090.7000002861023},{""stimulus"":""run_exp/static/images/task_images/rocket-03.jpg"",""time"":2150.2000002861023},{""stimulus"":""run_exp/static/images/task_images/rocket-04.jpg"",""time"":3229},{""stimulus"":""run_exp/static/images/task_images/rocket-05.jpg"",""time"":4299.300000190735},{""stimulus"":""run_exp/static/images/task_images/rocket-06.jpg"",""time"":5370.60000038147},{""stimulus"":""run_exp/static/images/task_images/rocket-07.jpg"",""time"":6450.60000038147},{""stimulus"":""run_exp/static/images/task_images/rocket-08.jpg"",""time"":7509.300000190735},{""stimulus"":""run_exp/static/images/task_images/rocket-09.jpg"",""time"":8591.10000038147}]",[],16,,,,,,,,,,,,,,
alien_welcome,213,752747,0.0-61.0-1.0,"""event"",""trial"",""time""
""fullscreenenter"",""1"",""8509""
","
","
","""event"",""trial"",""time""
""fullscreenenter"",""1"",""8509""
","
",,null,run_exp/static/images/task_images/aliens/old_aliens/planet/alien_planet-60.jpg,null,,,,,,,,,,,,,60,"36,11,71,21,34,22,75,65,28,13,68,77,50,41,67,20,60,55,4,52,56,19,9,80,61,6,78,79,7,32,17,1,10,23,69,3,76,2,18,33,48,72,51,26,15,53,37,70,58,5,12,66,38,29,40,54,25,8,64,44,43,57,49,63,45",,,,,,,,,,
land,214,753257,0.0-61.0-2.0,"""event"",""trial"",""time""
""fullscreenenter"",""1"",""8509""
","
","
","""event"",""trial"",""time""
""fullscreenenter"",""1"",""8509""
","
",,null,run_exp/static/images/task_images/land.jpg,null,,,,,,,92,,,17,,,,,,,,,,,,,,
dig,215,755278,0.0-61.0-3.0,"""event"",""trial"",""time""
""fullscreenenter"",""1"",""8509""
","
","
","""event"",""trial"",""time""
""fullscreenenter"",""1"",""8509""
","
",,,,,,,,,,,,"[{""stimulus"":""run_exp/static/images/task_images/dig.jpg"",""time"":0.19999980926513672},{""stimulus"":""run_exp/static/images/task_images/land.jpg"",""time"":670.7999997138977},{""stimulus"":""run_exp/static/images/task_images/dig.jpg"",""time"":1341}]",[],17,,,,,,,,,,,,,,
harvest,216,756293,0.0-61.0-4.0,"""event"",""trial"",""time""
""fullscreenenter"",""1"",""8509""
","
","
","""event"",""trial"",""time""
""fullscreenenter"",""1"",""8509""
","
",,null,run_exp/static/images/task_images/gems/92.jpg,null,,,,,,,22,,,17,,,,,92,0.241829614,0.239130435,,,,,,,
decision,217,756704,0.0-61.0-5.0,"""event"",""trial"",""time""
""fullscreenenter"",""1"",""8509""
","
","
","""event"",""trial"",""time""
""fullscreenenter"",""1"",""8509""
","
",,407.4000001,run_exp/static/images/task_images/land.jpg,76,,,,,,,22,,,17,,,,,,,,46117,2,0,TRUE,,,
travel,218,766309,0.0-62.0-0.0,"""event"",""trial"",""time""
""fullscreenenter"",""1"",""8509""
","
","
","""event"",""trial"",""time""
""fullscreenenter"",""1"",""8509""
","
",,,,,,,,,,,,"[{""stimulus"":""run_exp/static/images/task_images/rocket-01.jpg"",""time"":0.2999997138977051},{""stimulus"":""run_exp/static/images/task_images/rocket-02.jpg"",""time"":1070.0999999046326},{""stimulus"":""run_exp/static/images/task_images/rocket-03.jpg"",""time"":2134.2999997138977},{""stimulus"":""run_exp/static/images/task_images/rocket-04.jpg"",""time"":3214.0999999046326},{""stimulus"":""run_exp/static/images/task_images/rocket-05.jpg"",""time"":4274.599999904633},{""stimulus"":""run_exp/static/images/task_images/rocket-06.jpg"",""time"":5345.099999904633},{""stimulus"":""run_exp/static/images/task_images/rocket-07.jpg"",""time"":6395.099999904633},{""stimulus"":""run_exp/static/images/task_images/rocket-08.jpg"",""time"":7475},{""stimulus"":""run_exp/static/images/task_images/rocket-09.jpg"",""time"":8545.799999713898}]",[],17,,,,,,,,,,,,,,
alien_welcome,219,771328,0.0-62.0-1.0,"""event"",""trial"",""time""
""fullscreenenter"",""1"",""8509""
","
","
","""event"",""trial"",""time""
""fullscreenenter"",""1"",""8509""
","
",,null,run_exp/static/images/task_images/aliens/old_aliens/planet/alien_planet-55.jpg,null,,,,,,,,,,,,,55,"36,11,71,21,34,22,75,65,28,13,68,77,50,41,67,20,60,55,4,52,56,19,9,80,61,6,78,79,7,32,17,1,10,23,69,3,76,2,18,33,48,72,51,26,15,53,37,70,58,5,12,66,38,29,40,54,25,8,64,44,43,57,49,63,45",,,,,,,,,,
land,220,771848,0.0-62.0-2.0,"""event"",""trial"",""time""
""fullscreenenter"",""1"",""8509""
","
","
","""event"",""trial"",""time""
""fullscreenenter"",""1"",""8509""
","
",,null,run_exp/static/images/task_images/land.jpg,null,,,,,,,97,,,18,,,,,,,,,,,,,,
dig,221,773869,0.0-62.0-3.0,"""event"",""trial"",""time""
""fullscreenenter"",""1"",""8509""
","
","
","""event"",""trial"",""time""
""fullscreenenter"",""1"",""8509""
","
",,,,,,,,,,,,"[{""stimulus"":""run_exp/static/images/task_images/dig.jpg"",""time"":0.6999998092651367},{""stimulus"":""run_exp/static/images/task_images/land.jpg"",""time"":676.7999997138977},{""stimulus"":""run_exp/static/images/task_images/dig.jpg"",""time"":1345.0999999046326}]",[],18,,,,,,,,,,,,,,
harvest,222,774891,0.0-62.0-4.0,"""event"",""trial"",""time""
""fullscreenenter"",""1"",""8509""
","
","
","""event"",""trial"",""time""
""fullscreenenter"",""1"",""8509""
","
",,null,run_exp/static/images/task_images/gems/97.jpg,null,,,,,,,74,,,18,,,,,97,0.76026239,0.762886598,,,,,,,
decision,223,775309,0.0-62.0-5.0,"""event"",""trial"",""time""
""fullscreenenter"",""1"",""8509""
","
","
","""event"",""trial"",""time""
""fullscreenenter"",""1"",""8509""
","
",,412.7999997,run_exp/static/images/task_images/land.jpg,76,,,,,,,74,,,18,,,,,,,,64722,2,0,TRUE,,,
travel,224,784898,0.0-63.0-0.0,"""event"",""trial"",""time""
""fullscreenenter"",""1"",""8509""
","
","
","""event"",""trial"",""time""
""fullscreenenter"",""1"",""8509""
","
",,,,,,,,,,,,"[{""stimulus"":""run_exp/static/images/task_images/rocket-01.jpg"",""time"":0.20000028610229492},{""stimulus"":""run_exp/static/images/task_images/rocket-02.jpg"",""time"":1076.8000001907349},{""stimulus"":""run_exp/static/images/task_images/rocket-03.jpg"",""time"":2147.5999999046326},{""stimulus"":""run_exp/static/images/task_images/rocket-04.jpg"",""time"":3197.2000002861023},{""stimulus"":""run_exp/static/images/task_images/rocket-05.jpg"",""time"":4267.099999904633},{""stimulus"":""run_exp/static/images/task_images/rocket-06.jpg"",""time"":5341.900000095367},{""stimulus"":""run_exp/static/images/task_images/rocket-07.jpg"",""time"":6398},{""stimulus"":""run_exp/static/images/task_images/rocket-08.jpg"",""time"":7476.900000095367},{""stimulus"":""run_exp/static/images/task_images/rocket-09.jpg"",""time"":8537.099999904633}]",[],18,,,,,,,,,,,,,,
alien_welcome,225,789919,0.0-63.0-1.0,"""event"",""trial"",""time""
""fullscreenenter"",""1"",""8509""
","
","
","""event"",""trial"",""time""
""fullscreenenter"",""1"",""8509""
","
",,null,run_exp/static/images/task_images/aliens/old_aliens/planet/alien_planet-4.jpg,null,,,,,,,,,,,,,4,"36,11,71,21,34,22,75,65,28,13,68,77,50,41,67,20,60,55,4,52,56,19,9,80,61,6,78,79,7,32,17,1,10,23,69,3,76,2,18,33,48,72,51,26,15,53,37,70,58,5,12,66,38,29,40,54,25,8,64,44,43,57,49,63,45",,,,,,,,,,
land,226,790439,0.0-63.0-2.0,"""event"",""trial"",""time""
""fullscreenenter"",""1"",""8509""
","
","
","""event"",""trial"",""time""
""fullscreenenter"",""1"",""8509""
","
",,null,run_exp/static/images/task_images/land.jpg,null,,,,,,,102,,,19,,,,,,,,,,,,,,
dig,227,792458,0.0-63.0-3.0,"""event"",""trial"",""time""
""fullscreenenter"",""1"",""8509""
","
","
","""event"",""trial"",""time""
""fullscreenenter"",""1"",""8509""
","
