trial_type,trial_index,time_elapsed,internal_node_id,interactions,blur_events,focus_events,fullscreenenter_events,fullscreenexit_events,success,rt,stimulus,key_press,prompt,subject_id,participant_id,age,gender,button_pressed,next_reward,animation_sequence,responses,planet,curr_prac_trial,n_prac_rounds,alien,aliens,reward_received,decay_rate_actual,decay_rate_exp,time_in_block,block_num,prt,last_trial_on_planet,button_html,bonus,num_failures
pavlovia,0,3,0.0-0.0,"""event"",""trial"",""time""
""fullscreenenter"",""1"",""3908""
","
","
","""event"",""trial"",""time""
""fullscreenenter"",""1"",""3908""
","
",,,,,,,,,,,,,,,,,,,,,,,,,,,,
fullscreen,1,4872,0.0-1.0,"""event"",""trial"",""time""
""fullscreenenter"",""1"",""3908""
","
","
","""event"",""trial"",""time""
""fullscreenenter"",""1"",""3908""
","
",TRUE,,,,,,,,,,,,,,,,,,,,,,,,,,,
instruc_welcome,2,14633,0.0-2.0,"""event"",""trial"",""time""
""fullscreenenter"",""1"",""3908""
","
","
","""event"",""trial"",""time""
""fullscreenenter"",""1"",""3908""
","
",,null,run_exp/static/audio/clip_1_welcome.m4a,null,"<p>Howdy! In this experiment, you’ll be an explorer traveling through space to collect space treasure.</p><p>Your mission is to collect as much treasure as possible.</p><br><br><p><img src='run_exp/static/images/task_images/opening_img-01.jpg' height='300' width='auto'></p>",8120,1070,13.17,Male,,,,,,,,,,,,,,,,,,,
audio-keyboard-response,3,31261,0.0-3.0,"""event"",""trial"",""time""
""fullscreenenter"",""1"",""3908""
","
","
","""event"",""trial"",""time""
""fullscreenenter"",""1"",""3908""
","
",,null,run_exp/static/audio/clip_2_move.m4a,null,,,,,,,,,,,,,,,,,,,,,,,,
welcome_dec,4,37348,0.0-4.0,"""event"",""trial"",""time""
""fullscreenenter"",""1"",""3908""
","
","
","""event"",""trial"",""time""
""fullscreenenter"",""1"",""3908""
","
",,6082.7,"<p>Howdy! In this experiment, you’ll be an explorer traveling through space to collect space treasure.</p><p>Your mission is to collect as much treasure as possible.</p><br><br><p><img src='run_exp/static/images/task_images/opening_img-01.jpg' height='300' width='auto'></p>",,,,,,,1,,,,,,,,,,,,,,,,,,
html-keyboard-response,5,42293,0.0-5.0,"""event"",""trial"",""time""
""fullscreenenter"",""1"",""3908""
","
","
","""event"",""trial"",""time""
""fullscreenenter"",""1"",""3908""
","
",,4939,"<p>Howdy! In this experiment, you’ll be an explorer traveling through space to collect space treasure.</p><p>Your mission is to collect as much treasure as possible.</p><br><br><p><img src='run_exp/static/images/task_images/opening_img-01.jpg' height='300' width='auto'></p><button class=""jspsych-html-btn-unchosen""><img src=""run_exp/static/images/task_images/planet-01.jpg"" height=""50""></button><button class=""jspsych-html-btn-chosen""><img src=""run_exp/static/images/task_images/planet-02.jpg"" height=""50""></button><p><b>[press the space bar to lock in your answer]<b><br></p>",32,,,,,,,,,,,,,,,,,,,,,,,,
instruc_goal,6,52346,0.0-6.0-0.0,"""event"",""trial"",""time""
""fullscreenenter"",""1"",""3908""
","
","
","""event"",""trial"",""time""
""fullscreenenter"",""1"",""3908""
","
",,null,run_exp/static/audio/clip_3_goal.m4a,null,"<p> As a space explorer, you’ll visit different planets to dig for space treasure, these pink gems.</p> <p> The more treasure you dig up, the more bonus money you’ll win! </p><br><br><p><img src='run_exp/static/images/task_images/pink_gem.jpg' height='300' width='auto'></p>",,,,,,,,,,,,,,,,,,,,,,,
instruc_goal,7,56691,0.0-6.0-1.0,"""event"",""trial"",""time""
""fullscreenenter"",""1"",""3908""
","
","
","""event"",""trial"",""time""
""fullscreenenter"",""1"",""3908""
","
",,4342.4,"<p> As a space explorer, you’ll visit different planets to dig for space treasure, these pink gems.</p> <p> The more treasure you dig up, the more bonus money you’ll win! </p><br><br><p><img src='run_exp/static/images/task_images/pink_gem.jpg' height='300' width='auto'></p>",,,,,,,1,,,,,,,,,,,,,,,,,,
html-keyboard-response,8,60168,0.0-6.0-2.0,"""event"",""trial"",""time""
""fullscreenenter"",""1"",""3908""
","
","
","""event"",""trial"",""time""
""fullscreenenter"",""1"",""3908""
","
",,3474.9,"<p> As a space explorer, you’ll visit different planets to dig for space treasure, these pink gems.</p> <p> The more treasure you dig up, the more bonus money you’ll win! </p><br><br><p><img src='run_exp/static/images/task_images/pink_gem.jpg' height='300' width='auto'></p><button class=""jspsych-html-btn-unchosen""><img src=""run_exp/static/images/task_images/planet-01.jpg"" height=""50""></button><button class=""jspsych-html-btn-chosen""><img src=""run_exp/static/images/task_images/planet-02.jpg"" height=""50""></button><p><b>[press the space bar to lock in your answer]<b><br></p>",32,,,,,,,,,,,,,,,,,,,,,,,,
instruc_dig,9,76187,0.0-7.0-0.0,"""event"",""trial"",""time""
""fullscreenenter"",""1"",""3908""
","
","
","""event"",""trial"",""time""
""fullscreenenter"",""1"",""3908""
","
",,null,run_exp/static/audio/clip_4_dig.m4a,null,,,,,,,100,,,,,,,,,,,,,,,,,
instruc_dig_try,10,77326,0.0-7.0-1.0,"""event"",""trial"",""time""
""fullscreenenter"",""1"",""3908""
","
","
","""event"",""trial"",""time""
""fullscreenenter"",""1"",""3908""
","
",,1138.2,"<p> When you’ve arrived at a new planet, you will dig once. </p> <p>Then, you get to decide if you want to stay on the planet and dig again or travel to a new planet and dig there.</p> <p> To stay and dig, press the letter <strong>‘A’</strong> on your keyboard. Try pressing it now! </p><p><img src='run_exp/static/images/task_images/land.jpg'  height='700' width='auto'></p>",65,"<p> When you’ve arrived at a new planet, you will dig once. </p> <p>Then, you get to decide if you want to stay on the planet and dig again or travel to a new planet and dig there.</p> <p> To stay and dig, press the letter <strong>‘A’</strong> on your keyboard. Try pressing it now! </p><p><img src='run_exp/static/images/task_images/land.jpg'  height='700' width='auto'></p>",,,,,,100,,,,,,,,,,,,,,,,,
dig_prac,11,79355,0.0-7.0-2.0,"""event"",""trial"",""time""
""fullscreenenter"",""1"",""3908""
","
","
","""event"",""trial"",""time""
""fullscreenenter"",""1"",""3908""
","
",,,,,,,,,,,,"[{""stimulus"":""run_exp/static/images/task_images/dig.jpg"",""time"":0.3999999761581421},{""stimulus"":""run_exp/static/images/task_images/land.jpg"",""time"":677.3000000715256},{""stimulus"":""run_exp/static/images/task_images/dig.jpg"",""time"":1340.8999999761581}]",[],,,,,,,,,,,,,,,
instruc_travel,12,115628,0.0-7.0-3.0,"""event"",""trial"",""time""
""fullscreenenter"",""1"",""3908""
","
","
","""event"",""trial"",""time""
""fullscreenenter"",""1"",""3908""
","
",,null,run_exp/static/audio/clip_5_travel.m4a,null,"<p>Every time you dig up gems, there are less gems on the planet, so the more you dig on a planet the fewer gems you’ll get with each dig.</p><p>When gems are running low, you may want to travel to a new planet. </p> <p>  Planets are very far apart in this galaxy, so it will take some time to travel between them. </p> <br><p>There are lots and lots of planets for you to visit, so you won’t be able to return to any planets you’ve seen before. </p><br><p>To leave this planet and travel to a new one, press the letter <strong>‘L’</strong> on your keyboard. Try pressing it now! </p><p><img src='run_exp/static/images/task_images/rocket-01.jpg'  height='600' width='auto'></p>",,,,,,,,,,,,,,,,,,,,,,,
instruc_travel_try,13,115724,0.0-7.0-4.0,"""event"",""trial"",""time""
""fullscreenenter"",""1"",""3908""
","
","
","""event"",""trial"",""time""
""fullscreenenter"",""1"",""3908""
","
",,93.39999998,"<p>Every time you dig up gems, there are less gems on the planet, so the more you dig on a planet the fewer gems you’ll get with each dig.</p><p>When gems are running low, you may want to travel to a new planet. </p> <p>  Planets are very far apart in this galaxy, so it will take some time to travel between them. </p> <br><p>There are lots and lots of planets for you to visit, so you won’t be able to return to any planets you’ve seen before. </p><br><p>To leave this planet and travel to a new one, press the letter <strong>‘L’</strong> on your keyboard. Try pressing it now! </p><p><img src='run_exp/static/images/task_images/rocket-01.jpg'  height='600' width='auto'></p>",76,"<p>Every time you dig up gems, there are less gems on the planet, so the more you dig on a planet the fewer gems you’ll get with each dig.</p><p>When gems are running low, you may want to travel to a new planet. </p> <p>  Planets are very far apart in this galaxy, so it will take some time to travel between them. </p> <br><p>There are lots and lots of planets for you to visit, so you won’t be able to return to any planets you’ve seen before. </p><br><p>To leave this planet and travel to a new one, press the letter <strong>‘L’</strong> on your keyboard. Try pressing it now! </p><p><img src='run_exp/static/images/task_images/rocket-01.jpg'  height='600' width='auto'></p>",,,,,,,,,,,,,,,,,,,,,,,
travel_prac,14,125736,0.0-7.0-5.0,"""event"",""trial"",""time""
""fullscreenenter"",""1"",""3908""
","
","
","""event"",""trial"",""time""
""fullscreenenter"",""1"",""3908""
","
",,,,,,,,,,,,"[{""stimulus"":""run_exp/static/images/task_images/rocket-01.jpg"",""time"":0.30000007152557373},{""stimulus"":""run_exp/static/images/task_images/rocket-02.jpg"",""time"":1117},{""stimulus"":""run_exp/static/images/task_images/rocket-03.jpg"",""time"":2227},{""stimulus"":""run_exp/static/images/task_images/rocket-04.jpg"",""time"":3340.2000000476837},{""stimulus"":""run_exp/static/images/task_images/rocket-05.jpg"",""time"":4455.800000071526},{""stimulus"":""run_exp/static/images/task_images/rocket-06.jpg"",""time"":5561.700000047684},{""stimulus"":""run_exp/static/images/task_images/rocket-07.jpg"",""time"":6668.300000071526},{""stimulus"":""run_exp/static/images/task_images/rocket-08.jpg"",""time"":7790.100000023842},{""stimulus"":""run_exp/static/images/task_images/rocket-09.jpg"",""time"":8895.300000071526}]",[],0,,,,,,,,,,,,,,
instruc_alien_greet,15,152937,0.0-7.0-6.0,"""event"",""trial"",""time""
""fullscreenenter"",""1"",""3908""
","
","
","""event"",""trial"",""time""
""fullscreenenter"",""1"",""3908""
","
",,null,run_exp/static/audio/clip_6_alien.m4a,null,"<p>When you arrive at a new planet, the alien who owns the treasure mine on that planet will greet you!</p><p>The better an alien takes care of their mine the easier it is to dig for gems. Some aliens take better care of their mine than others. So, you won’t get exactly the same amount of gems on each planet.</p><p>What the alien looks like does not tell you anything about how many gems there are on the planet.</p><br><p><img src=""run_exp/static/images/task_images/aliens/instructions_aliens/planet/alien_planet-1.jpg""  height=""600"" width=""auto""></p>",,,,,,,,,,,,,,,,,,,,,,,
instruc_alien_greet,16,157059,0.0-7.0-7.0,"""event"",""trial"",""time""
""fullscreenenter"",""1"",""3908""
","
","
","""event"",""trial"",""time""
""fullscreenenter"",""1"",""3908""
","
",,4117,"<p>When you arrive at a new planet, the alien who owns the treasure mine on that planet will greet you!</p><p>The better an alien takes care of their mine the easier it is to dig for gems. Some aliens take better care of their mine than others. So, you won’t get exactly the same amount of gems on each planet.</p><p>What the alien looks like does not tell you anything about how many gems there are on the planet.</p><br><p><img src=""run_exp/static/images/task_images/aliens/instructions_aliens/planet/alien_planet-1.jpg""  height=""600"" width=""auto""></p>",,,,,,,1,,,,,,,,,,,,,,,,,,
html-keyboard-response,17,157934,0.0-7.0-8.0,"""event"",""trial"",""time""
""fullscreenenter"",""1"",""3908""
","
","
","""event"",""trial"",""time""
""fullscreenenter"",""1"",""3908""
","
",,871.5,"<p>When you arrive at a new planet, the alien who owns the treasure mine on that planet will greet you!</p><p>The better an alien takes care of their mine the easier it is to dig for gems. Some aliens take better care of their mine than others. So, you won’t get exactly the same amount of gems on each planet.</p><p>What the alien looks like does not tell you anything about how many gems there are on the planet.</p><br><p><img src=""run_exp/static/images/task_images/aliens/instructions_aliens/planet/alien_planet-1.jpg""  height=""600"" width=""auto""></p><button class=""jspsych-html-btn-unchosen""><img src=""run_exp/static/images/task_images/planet-01.jpg"" height=""50""></button><button class=""jspsych-html-btn-chosen""><img src=""run_exp/static/images/task_images/planet-02.jpg"" height=""50""></button><p><b>[press the space bar to lock in your answer]<b><br></p>",32,,,,,,,,,,,,,,,,,,,,,,,,
time_out,18,169037,0.0-8.0-0.0,"""event"",""trial"",""time""
""fullscreenenter"",""1"",""3908""
","
","
","""event"",""trial"",""time""
""fullscreenenter"",""1"",""3908""
","
",,null,run_exp/static/audio/clip_7_timeout.m4a,null,"<p>If you don't make your choice fast enough, you’ll have to wait a few seconds before you can make another one.</p><p>You can’t dig for more gems or travel to new planets. You just have to sit and wait.</p><br><p><img src='run_exp/static/images/task_images/time_out.jpg'  height='600' width='auto'></p>",,,,,,,,,,,,,,,,,,,,,,,
time_out,19,174877,0.0-8.0-1.0,"""event"",""trial"",""time""
""fullscreenenter"",""1"",""3908""
","
","
","""event"",""trial"",""time""
""fullscreenenter"",""1"",""3908""
","
",,5837.9,"<p>If you don't make your choice fast enough, you’ll have to wait a few seconds before you can make another one.</p><p>You can’t dig for more gems or travel to new planets. You just have to sit and wait.</p><br><p><img src='run_exp/static/images/task_images/time_out.jpg'  height='600' width='auto'></p>",,,,,,,1,,,,,,,,,,,,,,,,,,
html-keyboard-response,20,176003,0.0-8.0-2.0,"""event"",""trial"",""time""
""fullscreenenter"",""1"",""3908""
","
","
","""event"",""trial"",""time""
""fullscreenenter"",""1"",""3908""
","
",,1124.2,"<p>If you don't make your choice fast enough, you’ll have to wait a few seconds before you can make another one.</p><p>You can’t dig for more gems or travel to new planets. You just have to sit and wait.</p><br><p><img src='run_exp/static/images/task_images/time_out.jpg'  height='600' width='auto'></p><button class=""jspsych-html-btn-unchosen""><img src=""run_exp/static/images/task_images/planet-01.jpg"" height=""50""></button><button class=""jspsych-html-btn-chosen""><img src=""run_exp/static/images/task_images/planet-02.jpg"" height=""50""></button><p><b>[press the space bar to lock in your answer]<b><br></p>",32,,,,,,,,,,,,,,,,,,,,,,,,
instruc_break,21,191697,0.0-9.0-0.0,"""event"",""trial"",""time""
""fullscreenenter"",""1"",""3908""
","
","
","""event"",""trial"",""time""
""fullscreenenter"",""1"",""3908""
","
",,null,run_exp/static/audio/clip_8_break.m4a,null,"<p> After digging and traveling for a while, you’ll be able to take a break at home base. </p><p>The game will last 20 minutes no matter what.</p><p>You will visit home base every 5 minutes, so, you will visit home base three times during the game.</p><br><p><img src='run_exp/static/images/task_images/home_base.jpg' height='600' width='auto'></p>",,,,,,,,,,,,,,,,,,,,,,,
instruc_break,22,193408,0.0-9.0-1.0,"""event"",""trial"",""time""
""fullscreenenter"",""1"",""3908""
","
","
","""event"",""trial"",""time""
""fullscreenenter"",""1"",""3908""
","
",,1706.8,"<p> After digging and traveling for a while, you’ll be able to take a break at home base. </p><p>The game will last 20 minutes no matter what.</p><p>You will visit home base every 5 minutes, so, you will visit home base three times during the game.</p><br><p><img src='run_exp/static/images/task_images/home_base.jpg' height='600' width='auto'></p>",,,,,,,1,,,,,,,,,,,,,,,,,,
html-keyboard-response,23,194297,0.0-9.0-2.0,"""event"",""trial"",""time""
""fullscreenenter"",""1"",""3908""
","
","
","""event"",""trial"",""time""
""fullscreenenter"",""1"",""3908""
","
",,887,"<p> After digging and traveling for a while, you’ll be able to take a break at home base. </p><p>The game will last 20 minutes no matter what.</p><p>You will visit home base every 5 minutes, so, you will visit home base three times during the game.</p><br><p><img src='run_exp/static/images/task_images/home_base.jpg' height='600' width='auto'></p><button class=""jspsych-html-btn-unchosen""><img src=""run_exp/static/images/task_images/planet-01.jpg"" height=""50""></button><button class=""jspsych-html-btn-chosen""><img src=""run_exp/static/images/task_images/planet-02.jpg"" height=""50""></button><p><b>[press the space bar to lock in your answer]<b><br></p>",32,,,,,,,,,,,,,,,,,,,,,,,,
instruc_prac_game,24,204437,0.0-10.0-0.0,"""event"",""trial"",""time""
""fullscreenenter"",""1"",""3908""
","
","
","""event"",""trial"",""time""
""fullscreenenter"",""1"",""3908""
","
",,null,run_exp/static/audio/clip_9_practice.m4a,null,"<p> Are you ready to play a practice game? </p> <p>In this practice game, you'll be digging up barrels of gems. But, in the real game, you'll be digging up the gems themselves. </p>",,,,,,,,,,,,,,,,,,,,,,,
html-button-response,25,208774,0.0-10.0-1.0,"""event"",""trial"",""time""
""fullscreenenter"",""1"",""3908""
","
","
","""event"",""trial"",""time""
""fullscreenenter"",""1"",""3908""
","
",,4338.6,"<p> Are you ready to play a practice game? </p> <p>In this practice game, you'll be digging up barrels of gems. But, in the real game, you'll be digging up the gems themselves. </p>",,,,,,,0,,,,,,,,,,,,,,,,,,
alien_welcome_prac,26,213793,0.0-11.0-0.0,"""event"",""trial"",""time""
""fullscreenenter"",""1"",""3908""
","
","
","""event"",""trial"",""time""
""fullscreenenter"",""1"",""3908""
","
",,null,run_exp/static/images/task_images/aliens/practice_aliens/planet/alien_planet-5.jpg,null,,,,,,,,,,,,,,,,,,,,,,,,
land_prac,27,214313,0.0-11.0-1.0,"""event"",""trial"",""time""
""fullscreenenter"",""1"",""3908""
","
","
","""event"",""trial"",""time""
""fullscreenenter"",""1"",""3908""
","
",,null,run_exp/static/images/task_images/land.jpg,null,,,,,,,101,,,0,,,,,,,,,,,,,,
dig_prac,28,216323,0.0-11.0-2.0,"""event"",""trial"",""time""
""fullscreenenter"",""1"",""3908""
","
","
","""event"",""trial"",""time""
""fullscreenenter"",""1"",""3908""
","
",,,,,,,,,,,,"[{""stimulus"":""run_exp/static/images/task_images/dig.jpg"",""time"":0.30000007152557373},{""stimulus"":""run_exp/static/images/task_images/land.jpg"",""time"":678},{""stimulus"":""run_exp/static/images/task_images/dig.jpg"",""time"":1348.2000000476837}]",[],,,,,,,,,,,,,,,
harvest_prac,29,217332,0.0-11.0-3.0,"""event"",""trial"",""time""
""fullscreenenter"",""1"",""3908""
","
","
","""event"",""trial"",""time""
""fullscreenenter"",""1"",""3908""
","
",,null,run_exp/static/images/task_images/barrel_text.jpg,null,,,,,,,,,,,,,,,,,,,,,,,,
decision_prac,30,220352,0.0-11.0-4.0,"""event"",""trial"",""time""
""fullscreenenter"",""1"",""3908""
","
","
","""event"",""trial"",""time""
""fullscreenenter"",""1"",""3908""
","
",,null,run_exp/static/images/task_images/land.jpg,null,,,,,,,,,,,1,,,,,,,,,,,,,
time_out,31,222361,0.0-12.0-0.0,"""event"",""trial"",""time""
""fullscreenenter"",""1"",""3908""
","
","
","""event"",""trial"",""time""
""fullscreenenter"",""1"",""3908""
","
",,null,run_exp/static/images/task_images/time_out.jpg,null,,,,,,,,,,,,,,,,,,,,,,,,
decision_prac,32,223747,0.0-12.0-1.0,"""event"",""trial"",""time""
""fullscreenenter"",""1"",""3908""
","
","
","""event"",""trial"",""time""
""fullscreenenter"",""1"",""3908""
","
",,1384.1,run_exp/static/images/task_images/land.jpg,65,,,,,,,,,,,2,,,,,,,,,,,,,
dig_prac,33,225773,0.0-13.0-0.0,"""event"",""trial"",""time""
""fullscreenenter"",""1"",""3908""
","
","
","""event"",""trial"",""time""
""fullscreenenter"",""1"",""3908""
","
",,,,,,,,,,,,"[{""stimulus"":""run_exp/static/images/task_images/dig.jpg"",""time"":0.19999992847442627},{""stimulus"":""run_exp/static/images/task_images/land.jpg"",""time"":683.0999999046326},{""stimulus"":""run_exp/static/images/task_images/dig.jpg"",""time"":1352.6999999284744}]",[],,,,,,,,,,,,,,,
harvest_prac,34,226782,0.0-13.0-1.0,"""event"",""trial"",""time""
""fullscreenenter"",""1"",""3908""
","
","
","""event"",""trial"",""time""
""fullscreenenter"",""1"",""3908""
","
",,null,run_exp/static/images/task_images/barrel_text.jpg,null,,,,,,,,,,,,,,,,,,,,,,,,
decision_prac,35,228482,0.0-13.0-2.0,"""event"",""trial"",""time""
""fullscreenenter"",""1"",""3908""
","
","
","""event"",""trial"",""time""
""fullscreenenter"",""1"",""3908""
","
",,1698.7,run_exp/static/images/task_images/land.jpg,65,,,,,,,,,,,3,,,,,,,,,,,,,
dig_prac,36,230502,0.0-14.0-0.0,"""event"",""trial"",""time""
""fullscreenenter"",""1"",""3908""
","
","
","""event"",""trial"",""time""
""fullscreenenter"",""1"",""3908""
","
",,,,,,,,,,,,"[{""stimulus"":""run_exp/static/images/task_images/dig.jpg"",""time"":0.19999992847442627},{""stimulus"":""run_exp/static/images/task_images/land.jpg"",""time"":677},{""stimulus"":""run_exp/static/images/task_images/dig.jpg"",""time"":1337.2999999523163}]",[],,,,,,,,,,,,,,,
harvest_prac,37,231523,0.0-14.0-1.0,"""event"",""trial"",""time""
""fullscreenenter"",""1"",""3908""
","
","
","""event"",""trial"",""time""
""fullscreenenter"",""1"",""3908""
","
",,null,run_exp/static/images/task_images/barrel_text.jpg,null,,,,,,,,,,,,,,,,,,,,,,,,
decision_prac,38,232981,0.0-14.0-2.0,"""event"",""trial"",""time""
""fullscreenenter"",""1"",""3908""
","
","
","""event"",""trial"",""time""
""fullscreenenter"",""1"",""3908""
","
",,1457.1,run_exp/static/images/task_images/land.jpg,65,,,,,,,,,,,4,,,,,,,,,,,,,
dig_prac,39,234992,0.0-15.0-0.0,"""event"",""trial"",""time""
""fullscreenenter"",""1"",""3908""
","
","
","""event"",""trial"",""time""
""fullscreenenter"",""1"",""3908""
","
",,,,,,,,,,,,"[{""stimulus"":""run_exp/static/images/task_images/dig.jpg"",""time"":0.20000004768371582},{""stimulus"":""run_exp/static/images/task_images/land.jpg"",""time"":685.3000000715256},{""stimulus"":""run_exp/static/images/task_images/dig.jpg"",""time"":1338}]",[],,,,,,,,,,,,,,,
harvest_prac,40,236000,0.0-15.0-1.0,"""event"",""trial"",""time""
""fullscreenenter"",""1"",""3908""
","
","
","""event"",""trial"",""time""
""fullscreenenter"",""1"",""3908""
","
",,null,run_exp/static/images/task_images/barrel_text.jpg,null,,,,,,,,,,,,,,,,,,,,,,,,
decision_prac,41,236202,0.0-15.0-2.0,"""event"",""trial"",""time""
""fullscreenenter"",""1"",""3908""
","
","
","""event"",""trial"",""time""
""fullscreenenter"",""1"",""3908""
","
",,200.8,run_exp/static/images/task_images/land.jpg,65,,,,,,,,,,,,1,,,,,,,,,,,,
quiz_instruc,42,245304,0.0-16.0-0.0,"""event"",""trial"",""time""
""fullscreenenter"",""1"",""3908""
""blur"",""43"",""257943""
""focus"",""43"",""261417""
","""event"",""trial"",""time""
""blur"",""43"",""257943""
","""event"",""trial"",""time""
""focus"",""43"",""261417""
","""event"",""trial"",""time""
""fullscreenenter"",""1"",""3908""
","
",,9098.7,run_exp/static/audio/clip_10_quiz.m4a,,,,,,,0,,,,,,,,,,,,,,,,,,
instruc_repeat,43,288097,0.0-16.0-1.0,"""event"",""trial"",""time""
""fullscreenenter"",""1"",""3908""
""blur"",""43"",""257943""
""focus"",""43"",""261417""
","""event"",""trial"",""time""
""blur"",""43"",""257943""
","""event"",""trial"",""time""
""focus"",""43"",""261417""
","""event"",""trial"",""time""
""fullscreenenter"",""1"",""3908""
","
",,null,"<p> Are you ready to play a practice game? </p> <p>In this practice game, you'll be digging up barrels of gems. But, in the real game, you'll be digging up the gems themselves. </p>",null,"<p>In this game, your goal is to collect as many gems as you can. That’s how you will win bonus money. </p> <p>The entire game will last 20 minutes no matter how many gems you collect or how many planets you visit. </p><p>To stay on a planet and dig again, press the letter A on your keyboard. To leave for a new planet, press the letter L.</p><p>The more you dig on a planet, the fewer gems you’ll get with each dig which is why you might consider leaving for a new planet. </p><p>When you arrive at a new planet, you’ll be greeted by an alien. What the alien looks like does not tell you anything about how much treasure is on the planet. </p>",,,,,,,,,,,,,,,,,,,,,,,
instruc_repeat_continue,44,290918,0.0-16.0-2.0,"""event"",""trial"",""time""
""fullscreenenter"",""1"",""3908""
""blur"",""43"",""257943""
""focus"",""43"",""261417""
","""event"",""trial"",""time""
""blur"",""43"",""257943""
","""event"",""trial"",""time""
""focus"",""43"",""261417""
","""event"",""trial"",""time""
""fullscreenenter"",""1"",""3908""
","
",,2818.8,"<p> Are you ready to play a practice game? </p> <p>In this practice game, you'll be digging up barrels of gems. But, in the real game, you'll be digging up the gems themselves. </p>",,,,,,,0,,,,,,,,,,,,,,,,,,
quiz_q_1_ask,45,301907,0.0-16.0-3.0,"""event"",""trial"",""time""
""fullscreenenter"",""1"",""3908""
""blur"",""43"",""257943""
""focus"",""43"",""261417""
","""event"",""trial"",""time""
""blur"",""43"",""257943""
","""event"",""trial"",""time""
""focus"",""43"",""261417""
","""event"",""trial"",""time""
""fullscreenenter"",""1"",""3908""
","
",,10987.8,run_exp/static/audio/clip_11_q1_ask.m4a,,,,,,,2,,,,,,,,,,,,,,,,,,
quiz_q_1_fb_correct,46,305777,0.0-17.0-0.0,"""event"",""trial"",""time""
""fullscreenenter"",""1"",""3908""
""blur"",""43"",""257943""
""focus"",""43"",""261417""
","""event"",""trial"",""time""
""blur"",""43"",""257943""
","""event"",""trial"",""time""
""focus"",""43"",""261417""
","""event"",""trial"",""time""
""fullscreenenter"",""1"",""3908""
","
",,null,run_exp/static/audio/clip_12_q1_correct.m4a,null,<p>That’s correct. You win extra money by collecting more gems.</p>,,,,,,,,,,,,,,,,,,,,,,,
quiz_q_2_ask,47,309958,0.0-17.0-1.0,"""event"",""trial"",""time""
""fullscreenenter"",""1"",""3908""
""blur"",""43"",""257943""
""focus"",""43"",""261417""
","""event"",""trial"",""time""
""blur"",""43"",""257943""
","""event"",""trial"",""time""
""focus"",""43"",""261417""
","""event"",""trial"",""time""
""fullscreenenter"",""1"",""3908""
","
",,4179.1,run_exp/static/audio/clip_14_q2_ask.m4a,,,,,,,1,,,,,,,,,,,,,,,,,,
quiz_q_2_fb_correct,48,313977,0.0-18.0-0.0,"""event"",""trial"",""time""
""fullscreenenter"",""1"",""3908""
""blur"",""43"",""257943""
""focus"",""43"",""261417""
","""event"",""trial"",""time""
""blur"",""43"",""257943""
","""event"",""trial"",""time""
""focus"",""43"",""261417""
","""event"",""trial"",""time""
""fullscreenenter"",""1"",""3908""
","
",,null,run_exp/static/audio/clip_15_q2_correct.m4a,null,<p>That’s correct. The experiment is 20 minutes no matter what.</p>,,,,,,,,,,,,,,,,,,,,,,,
quiz_q_3_ask,49,317010,0.0-18.0-1.0,"""event"",""trial"",""time""
""fullscreenenter"",""1"",""3908""
""blur"",""43"",""257943""
""focus"",""43"",""261417""
","""event"",""trial"",""time""
""blur"",""43"",""257943""
","""event"",""trial"",""time""
""focus"",""43"",""261417""
","""event"",""trial"",""time""
""fullscreenenter"",""1"",""3908""
","
",,3030.7,run_exp/static/audio/clip_17_q3_ask.m4a,,,,,,,1,,,,,,,,,,,,,,,,,,
quiz_q_3_fb_correct,50,321017,0.0-19.0-0.0,"""event"",""trial"",""time""
""fullscreenenter"",""1"",""3908""
""blur"",""43"",""257943""
""focus"",""43"",""261417""
","""event"",""trial"",""time""
""blur"",""43"",""257943""
","""event"",""trial"",""time""
""focus"",""43"",""261417""
","""event"",""trial"",""time""
""fullscreenenter"",""1"",""3908""
","
",,null,run_exp/static/audio/clip_18_q3_correct.m4a,null,<p> That’s correct. You press the letter L to travel to a new planet.</p>,,,,,,,,,,,,,,,,,,,,,,,
quiz_q_4_ask,51,326807,0.0-19.0-1.0,"""event"",""trial"",""time""
""fullscreenenter"",""1"",""3908""
""blur"",""43"",""257943""
""focus"",""43"",""261417""
","""event"",""trial"",""time""
""blur"",""43"",""257943""
","""event"",""trial"",""time""
""focus"",""43"",""261417""
","""event"",""trial"",""time""
""fullscreenenter"",""1"",""3908""
","
",,5788.1,run_exp/static/audio/clip_20_q4_ask.m4a,,,,,,,0,,,,,,,,,,,,,,,,,,
quiz_q_4_fb_correct,52,332156,0.0-20.0-0.0,"""event"",""trial"",""time""
""fullscreenenter"",""1"",""3908""
""blur"",""43"",""257943""
""focus"",""43"",""261417""
","""event"",""trial"",""time""
""blur"",""43"",""257943""
","""event"",""trial"",""time""
""focus"",""43"",""261417""
","""event"",""trial"",""time""
""fullscreenenter"",""1"",""3908""
","
",,null,run_exp/static/audio/clip_21_q4_correct.m4a,null,<p> That’s correct. The more you dig on a planet the fewer gems you’ll get with each dig. </p>,,,,,,,,,,,,,,,,,,,,,,,
quiz_q_5_ask,53,335137,0.0-20.0-1.0,"""event"",""trial"",""time""
""fullscreenenter"",""1"",""3908""
""blur"",""43"",""257943""
""focus"",""43"",""261417""
","""event"",""trial"",""time""
""blur"",""43"",""257943""
","""event"",""trial"",""time""
""focus"",""43"",""261417""
","""event"",""trial"",""time""
""fullscreenenter"",""1"",""3908""
","
",,2978.5,run_exp/static/audio/clip_23_q5_ask.m4a,,,,,,,1,,,,,,,,,,,,,,,,,,
quiz_q_5_fb_correct,54,340157,0.0-21.0-0.0,"""event"",""trial"",""time""
""fullscreenenter"",""1"",""3908""
""blur"",""43"",""257943""
""focus"",""43"",""261417""
","""event"",""trial"",""time""
""blur"",""43"",""257943""
","""event"",""trial"",""time""
""focus"",""43"",""261417""
","""event"",""trial"",""time""
""fullscreenenter"",""1"",""3908""
","
",,null,run_exp/static/audio/clip_24_q5_correct.m4a,null,<p> That’s correct. The alien tells you nothing about how much treasure is on the planet.</p>,,,,,,,,,,,,,,,,,,,,,,,
quiz_correct,55,343637,0.0-22.0-0.0,"""event"",""trial"",""time""
""fullscreenenter"",""1"",""3908""
""blur"",""43"",""257943""
""focus"",""43"",""261417""
","""event"",""trial"",""time""
""blur"",""43"",""257943""
","""event"",""trial"",""time""
""focus"",""43"",""261417""
","""event"",""trial"",""time""
""fullscreenenter"",""1"",""3908""
","
",,null,run_exp/static/audio/clip_26_correct_quiz.m4a,null,,,,,,,,,,,,,,,,,,,,,,,,
quiz_correct_continue,56,345497,0.0-22.0-1.0,"""event"",""trial"",""time""
""fullscreenenter"",""1"",""3908""
""blur"",""43"",""257943""
""focus"",""43"",""261417""
","""event"",""trial"",""time""
""blur"",""43"",""257943""
","""event"",""trial"",""time""
""focus"",""43"",""261417""
","""event"",""trial"",""time""
""fullscreenenter"",""1"",""3908""
","
",,1859.2,<p>Good job! You're now ready to move on to the real game!</p>,,,,,,,0,,,,,,,,,,,,,,,,,,
audio-keyboard-response,57,355637,0.0-22.0-2.0,"""event"",""trial"",""time""
""fullscreenenter"",""1"",""3908""
""blur"",""43"",""257943""
""focus"",""43"",""261417""
","""event"",""trial"",""time""
""blur"",""43"",""257943""
","""event"",""trial"",""time""
""focus"",""43"",""261417""
","""event"",""trial"",""time""
""fullscreenenter"",""1"",""3908""
","
",,null,run_exp/static/audio/clip_28_real_game.m4a,null,,,,,,,,,,,,,,,,,,,,,,,,
instruc_begin_exp_contine,58,357597,0.0-22.0-3.0,"""event"",""trial"",""time""
""fullscreenenter"",""1"",""3908""
""blur"",""43"",""257943""
""focus"",""43"",""261417""
","""event"",""trial"",""time""
""blur"",""43"",""257943""
","""event"",""trial"",""time""
""focus"",""43"",""261417""
","""event"",""trial"",""time""
""fullscreenenter"",""1"",""3908""
","
",,1958.8,"<p>Now that you know how  to dig for space treasure and travel to new planets,you can start exploring! </p><p>Do you want to go over the instructions again or get started with the real game?</p>",,,,,,,1,,,,,,1,,,,,,,,,,,,
alien_welcome,59,362605,0.0-23.0-0.0,"""event"",""trial"",""time""
""fullscreenenter"",""1"",""3908""
""blur"",""43"",""257943""
""focus"",""43"",""261417""
","""event"",""trial"",""time""
""blur"",""43"",""257943""
","""event"",""trial"",""time""
""focus"",""43"",""261417""
","""event"",""trial"",""time""
""fullscreenenter"",""1"",""3908""
","
",,null,run_exp/static/images/task_images/aliens/old_aliens/planet/alien_planet-40.jpg,null,,,,,,,,,,,,,40,"40,68,45,21,55,57,36,5,61,64,13,9,60,66,10,30,22,63,54,8,52,65,76,11,39,42,33,26,25,6,47,15,12,70,27,3,59",,,,,,,,,,
land,60,363112,0.0-23.0-1.0,"""event"",""trial"",""time""
""fullscreenenter"",""1"",""3908""
""blur"",""43"",""257943""
""focus"",""43"",""261417""
","""event"",""trial"",""time""
""blur"",""43"",""257943""
","""event"",""trial"",""time""
""focus"",""43"",""261417""
","""event"",""trial"",""time""
""fullscreenenter"",""1"",""3908""
","
",,null,run_exp/static/images/task_images/land.jpg,null,,,,,,,100,,,1,,,,,,,,,,,,,,
dig,61,365135,0.0-23.0-2.0,"""event"",""trial"",""time""
""fullscreenenter"",""1"",""3908""
""blur"",""43"",""257943""
""focus"",""43"",""261417""
","""event"",""trial"",""time""
""blur"",""43"",""257943""
","""event"",""trial"",""time""
""focus"",""43"",""261417""
","""event"",""trial"",""time""
""fullscreenenter"",""1"",""3908""
","
",,,,,,,,,,,,"[{""stimulus"":""run_exp/static/images/task_images/dig.jpg"",""time"":0.3999999761581421},{""stimulus"":""run_exp/static/images/task_images/land.jpg"",""time"":682},{""stimulus"":""run_exp/static/images/task_images/dig.jpg"",""time"":1342.3999999761581}]",[],1,,,,,,,,,,,,,,
harvest,62,366145,0.0-23.0-3.0,"""event"",""trial"",""time""
""fullscreenenter"",""1"",""3908""
""blur"",""43"",""257943""
""focus"",""43"",""261417""
","""event"",""trial"",""time""
""blur"",""43"",""257943""
","""event"",""trial"",""time""
""focus"",""43"",""261417""
","""event"",""trial"",""time""
""fullscreenenter"",""1"",""3908""
","
",,null,run_exp/static/images/task_images/gems/100.jpg,null,,,,,,,11,,,1,,,,,100,0.106765453,0.11,,,,,,,
decision,63,366164,0.0-23.0-4.0,"""event"",""trial"",""time""
""fullscreenenter"",""1"",""3908""
""blur"",""43"",""257943""
""focus"",""43"",""261417""
","""event"",""trial"",""time""
""blur"",""43"",""257943""
","""event"",""trial"",""time""
""focus"",""43"",""261417""
","""event"",""trial"",""time""
""fullscreenenter"",""1"",""3908""
","
",,16.79999995,run_exp/static/images/task_images/land.jpg,65,,,,,,,11,,,1,,,,,,,,8566,1,0,FALSE,,,
dig,64,369165,0.0-24.0-0.0,"""event"",""trial"",""time""
""fullscreenenter"",""1"",""3908""
""blur"",""43"",""257943""
""focus"",""43"",""261417""
","""event"",""trial"",""time""
""blur"",""43"",""257943""
","""event"",""trial"",""time""
""focus"",""43"",""261417""
","""event"",""trial"",""time""
""fullscreenenter"",""1"",""3908""
","
",,,,,,,,,,,,"[{""stimulus"":""run_exp/static/images/task_images/dig.jpg"",""time"":0.20000004768371582},{""stimulus"":""run_exp/static/images/task_images/land.jpg"",""time"":1007.7000000476837},{""stimulus"":""run_exp/static/images/task_images/dig.jpg"",""time"":2007.7000000476837}]",[],1,,,,,,,,,,,,,,
harvest,65,370175,0.0-24.0-1.0,"""event"",""trial"",""time""
""fullscreenenter"",""1"",""3908""
""blur"",""43"",""257943""
""focus"",""43"",""261417""
","""event"",""trial"",""time""
""blur"",""43"",""257943""
","""event"",""trial"",""time""
""focus"",""43"",""261417""
","""event"",""trial"",""time""
""fullscreenenter"",""1"",""3908""
","
",,null,run_exp/static/images/task_images/gems/11.jpg,null,,,,,,,3,,,1,,,,,11,0.237069286,0.272727273,,,,,,,
decision,66,370733,0.0-24.0-2.0,"""event"",""trial"",""time""
""fullscreenenter"",""1"",""3908""
""blur"",""43"",""257943""
""focus"",""43"",""261417""
","""event"",""trial"",""time""
""blur"",""43"",""257943""
","""event"",""trial"",""time""
""focus"",""43"",""261417""
","""event"",""trial"",""time""
""fullscreenenter"",""1"",""3908""
","
",,556.9,run_exp/static/images/task_images/land.jpg,65,,,,,,,3,,,1,,,,,,,,13134,1,1,FALSE,,,
dig,67,373185,0.0-25.0-0.0,"""event"",""trial"",""time""
""fullscreenenter"",""1"",""3908""
""blur"",""43"",""257943""
""focus"",""43"",""261417""
","""event"",""trial"",""time""
""blur"",""43"",""257943""
","""event"",""trial"",""time""
""focus"",""43"",""261417""
","""event"",""trial"",""time""
""fullscreenenter"",""1"",""3908""
","
",,,,,,,,,,,,"[{""stimulus"":""run_exp/static/images/task_images/dig.jpg"",""time"":0.20000004768371582},{""stimulus"":""run_exp/static/images/task_images/land.jpg"",""time"":828.5},{""stimulus"":""run_exp/static/images/task_images/dig.jpg"",""time"":1638}]",[],1,,,,,,,,,,,,,,
harvest,68,374205,0.0-25.0-1.0,"""event"",""trial"",""time""
""fullscreenenter"",""1"",""3908""
""blur"",""43"",""257943""
""focus"",""43"",""261417""
","""event"",""trial"",""time""
""blur"",""43"",""257943""
","""event"",""trial"",""time""
""focus"",""43"",""261417""
","""event"",""trial"",""time""
""fullscreenenter"",""1"",""3908""
","
",,null,run_exp/static/images/task_images/gems/3.jpg,null,,,,,,,1,,,1,,,,,3,0.217876196,0.333333333,,,,,,,
decision,69,374918,0.0-25.0-2.0,"""event"",""trial"",""time""
""fullscreenenter"",""1"",""3908""
""blur"",""43"",""257943""
""focus"",""43"",""261417""
","""event"",""trial"",""time""
""blur"",""43"",""257943""
","""event"",""trial"",""time""
""focus"",""43"",""261417""
","""event"",""trial"",""time""
""fullscreenenter"",""1"",""3908""
","
",,711.5,run_exp/static/images/task_images/land.jpg,65,,,,,,,1,,,1,,,,,,,,17319,1,2,FALSE,,,
dig,70,377216,0.0-26.0-0.0,"""event"",""trial"",""time""
""fullscreenenter"",""1"",""3908""
""blur"",""43"",""257943""
""focus"",""43"",""261417""
","""event"",""trial"",""time""
""blur"",""43"",""257943""
","""event"",""trial"",""time""
""focus"",""43"",""261417""
","""event"",""trial"",""time""
""fullscreenenter"",""1"",""3908""
","
",,,,,,,,,,,,"[{""stimulus"":""run_exp/static/images/task_images/dig.jpg"",""time"":0.3999999761581421},{""stimulus"":""run_exp/static/images/task_images/land.jpg"",""time"":765.1000000238419},{""stimulus"":""run_exp/static/images/task_images/dig.jpg"",""time"":1533.6000000238419}]",[],1,,,,,,,,,,,,,,
harvest,71,378225,0.0-26.0-1.0,"""event"",""trial"",""time""
""fullscreenenter"",""1"",""3908""
""blur"",""43"",""257943""
""focus"",""43"",""261417""
","""event"",""trial"",""time""
""blur"",""43"",""257943""
","""event"",""trial"",""time""
""focus"",""43"",""261417""
","""event"",""trial"",""time""
""fullscreenenter"",""1"",""3908""
","
",,null,run_exp/static/images/task_images/gems/1.jpg,null,,,,,,,0,,,1,,,,,1,0.130760284,0,,,,,,,
decision,72,378667,0.0-26.0-2.0,"""event"",""trial"",""time""
""fullscreenenter"",""1"",""3908""
""blur"",""43"",""257943""
""focus"",""43"",""261417""
","""event"",""trial"",""time""
""blur"",""43"",""257943""
","""event"",""trial"",""time""
""focus"",""43"",""261417""
","""event"",""trial"",""time""
""fullscreenenter"",""1"",""3908""
","
",,440.3000001,run_exp/static/images/task_images/land.jpg,76,,,,,,,0,,,1,,,,,,,,21068,1,3,TRUE,,,
travel,73,388245,0.0-27.0-0.0,"""event"",""trial"",""time""
""fullscreenenter"",""1"",""3908""
""blur"",""43"",""257943""
""focus"",""43"",""261417""
","""event"",""trial"",""time""
""blur"",""43"",""257943""
","""event"",""trial"",""time""
""focus"",""43"",""261417""
","""event"",""trial"",""time""
""fullscreenenter"",""1"",""3908""
","
",,,,,,,,,,,,"[{""stimulus"":""run_exp/static/images/task_images/rocket-01.jpg"",""time"":0.20000004768371582},{""stimulus"":""run_exp/static/images/task_images/rocket-02.jpg"",""time"":1075.6000000238419},{""stimulus"":""run_exp/static/images/task_images/rocket-03.jpg"",""time"":2125.600000023842},{""stimulus"":""run_exp/static/images/task_images/rocket-04.jpg"",""time"":3195.4000000953674},{""stimulus"":""run_exp/static/images/task_images/rocket-05.jpg"",""time"":4265.400000095367},{""stimulus"":""run_exp/static/images/task_images/rocket-06.jpg"",""time"":5315.300000071526},{""stimulus"":""run_exp/static/images/task_images/rocket-07.jpg"",""time"":6375},{""stimulus"":""run_exp/static/images/task_images/rocket-08.jpg"",""time"":7455.100000023842},{""stimulus"":""run_exp/static/images/task_images/rocket-09.jpg"",""time"":8515.600000023842}]",[],1,,,,,,,,,,,,,,
alien_welcome,74,393255,0.0-27.0-1.0,"""event"",""trial"",""time""
""fullscreenenter"",""1"",""3908""
""blur"",""43"",""257943""
""focus"",""43"",""261417""
","""event"",""trial"",""time""
""blur"",""43"",""257943""
","""event"",""trial"",""time""
""focus"",""43"",""261417""
","""event"",""trial"",""time""
""fullscreenenter"",""1"",""3908""
","
",,null,run_exp/static/images/task_images/aliens/old_aliens/planet/alien_planet-68.jpg,null,,,,,,,,,,,,,68,"40,68,45,21,55,57,36,5,61,64,13,9,60,66,10,30,22,63,54,8,52,65,76,11,39,42,33,26,25,6,47,15,12,70,27,3,59",,,,,,,,,,
land,75,393765,0.0-27.0-2.0,"""event"",""trial"",""time""
""fullscreenenter"",""1"",""3908""
""blur"",""43"",""257943""
""focus"",""43"",""261417""
","""event"",""trial"",""time""
""blur"",""43"",""257943""
","""event"",""trial"",""time""
""focus"",""43"",""261417""
","""event"",""trial"",""time""
""fullscreenenter"",""1"",""3908""
","
",,null,run_exp/static/images/task_images/land.jpg,null,,,,,,,98,,,2,,,,,,,,,,,,,,
dig,76,395785,0.0-27.0-3.0,"""event"",""trial"",""time""
""fullscreenenter"",""1"",""3908""
""blur"",""43"",""257943""
""focus"",""43"",""261417""
","""event"",""trial"",""time""
""blur"",""43"",""257943""
","""event"",""trial"",""time""
""focus"",""43"",""261417""
","""event"",""trial"",""time""
""fullscreenenter"",""1"",""3908""
","
",,,,,,,,,,,,"[{""stimulus"":""run_exp/static/images/task_images/dig.jpg"",""time"":0.2999999523162842},{""stimulus"":""run_exp/static/images/task_images/land.jpg"",""time"":678.2999999523163},{""stimulus"":""run_exp/static/images/task_images/dig.jpg"",""time"":1337.7999999523163}]",[],2,,,,,,,,,,,,,,
harvest,77,396795,0.0-27.0-4.0,"""event"",""trial"",""time""
""fullscreenenter"",""1"",""3908""
""blur"",""43"",""257943""
""focus"",""43"",""261417""
","""event"",""trial"",""time""
""blur"",""43"",""257943""
","""event"",""trial"",""time""
""focus"",""43"",""261417""
","""event"",""trial"",""time""
""fullscreenenter"",""1"",""3908""
","
",,null,run_exp/static/images/task_images/gems/98.jpg,null,,,,,,,19,,,2,,,,,98,0.194320082,0.193877551,,,,,,,
decision,78,397047,0.0-27.0-5.0,"""event"",""trial"",""time""
""fullscreenenter"",""1"",""3908""
""blur"",""43"",""257943""
""focus"",""43"",""261417""
","""event"",""trial"",""time""
""blur"",""43"",""257943""
","""event"",""trial"",""time""
""focus"",""43"",""261417""
","""event"",""trial"",""time""
""fullscreenenter"",""1"",""3908""
","
",,250.5,run_exp/static/images/task_images/land.jpg,65,,,,,,,19,,,2,,,,,,,,39448,1,0,FALSE,,,
dig,79,399812,0.0-28.0-0.0,"""event"",""trial"",""time""
""fullscreenenter"",""1"",""3908""
""blur"",""43"",""257943""
""focus"",""43"",""261417""
","""event"",""trial"",""time""
""blur"",""43"",""257943""
","""event"",""trial"",""time""
""focus"",""43"",""261417""
","""event"",""trial"",""time""
""fullscreenenter"",""1"",""3908""
","
",,,,,,,,,,,,"[{""stimulus"":""run_exp/static/images/task_images/dig.jpg"",""time"":0.2999999523162842},{""stimulus"":""run_exp/static/images/task_images/land.jpg"",""time"":924},{""stimulus"":""run_exp/static/images/task_images/dig.jpg"",""time"":1835.2999999523163}]",[],2,,,,,,,,,,,,,,
harvest,80,400825,0.0-28.0-1.0,"""event"",""trial"",""time""
""fullscreenenter"",""1"",""3908""
""blur"",""43"",""257943""
""focus"",""43"",""261417""
","""event"",""trial"",""time""
""blur"",""43"",""257943""
","""event"",""trial"",""time""
""focus"",""43"",""261417""
","""event"",""trial"",""time""
""fullscreenenter"",""1"",""3908""
","
",,null,run_exp/static/images/task_images/gems/19.jpg,null,,,,,,,4,,,2,,,,,19,0.186563351,0.210526316,,,,,,,
decision,81,400887,0.0-28.0-2.0,"""event"",""trial"",""time""
""fullscreenenter"",""1"",""3908""
""blur"",""43"",""257943""
""focus"",""43"",""261417""
","""event"",""trial"",""time""
""blur"",""43"",""257943""
","""event"",""trial"",""time""
""focus"",""43"",""261417""
","""event"",""trial"",""time""
""fullscreenenter"",""1"",""3908""
","
",,60.39999998,run_exp/static/images/task_images/land.jpg,65,,,,,,,4,,,2,,,,,,,,43288,1,1,FALSE,,,
dig,82,403845,0.0-29.0-0.0,"""event"",""trial"",""time""
""fullscreenenter"",""1"",""3908""
""blur"",""43"",""257943""
""focus"",""43"",""261417""
","""event"",""trial"",""time""
""blur"",""43"",""257943""
","""event"",""trial"",""time""
""focus"",""43"",""261417""
","""event"",""trial"",""time""
""fullscreenenter"",""1"",""3908""
","
",,,,,,,,,,,,"[{""stimulus"":""run_exp/static/images/task_images/dig.jpg"",""time"":0.20000004768371582},{""stimulus"":""run_exp/static/images/task_images/land.jpg"",""time"":994},{""stimulus"":""run_exp/static/images/task_images/dig.jpg"",""time"":1960.8000000715256}]",[],2,,,,,,,,,,,,,,
harvest,83,404865,0.0-29.0-1.0,"""event"",""trial"",""time""
""fullscreenenter"",""1"",""3908""
""blur"",""43"",""257943""
""focus"",""43"",""261417""
","""event"",""trial"",""time""
""blur"",""43"",""257943""
","""event"",""trial"",""time""
""focus"",""43"",""261417""
","""event"",""trial"",""time""
""fullscreenenter"",""1"",""3908""
","
",,null,run_exp/static/images/task_images/gems/4.jpg,null,,,,,,,1,,,2,,,,,4,0.260450272,0.25,,,,,,,
decision,84,405065,0.0-29.0-2.0,"""event"",""trial"",""time""
""fullscreenenter"",""1"",""3908""
""blur"",""43"",""257943""
""focus"",""43"",""261417""
","""event"",""trial"",""time""
""blur"",""43"",""257943""
","""event"",""trial"",""time""
""focus"",""43"",""261417""
","""event"",""trial"",""time""
""fullscreenenter"",""1"",""3908""
","
",,198.4,run_exp/static/images/task_images/land.jpg,65,,,,,,,1,,,2,,,,,,,,47466,1,2,FALSE,,,
dig,85,407875,0.0-30.0-0.0,"""event"",""trial"",""time""
""fullscreenenter"",""1"",""3908""
""blur"",""43"",""257943""
""focus"",""43"",""261417""
","""event"",""trial"",""time""
""blur"",""43"",""257943""
","""event"",""trial"",""time""
""focus"",""43"",""261417""
","""event"",""trial"",""time""
""fullscreenenter"",""1"",""3908""
","
",,,,,,,,,,,,"[{""stimulus"":""run_exp/static/images/task_images/dig.jpg"",""time"":0.19999992847442627},{""stimulus"":""run_exp/static/images/task_images/land.jpg"",""time"":947},{""stimulus"":""run_exp/static/images/task_images/dig.jpg"",""time"":1887.0999999046326}]",[],2,,,,,,,,,,,,,,
harvest,86,408885,0.0-30.0-1.0,"""event"",""trial"",""time""
""fullscreenenter"",""1"",""3908""
""blur"",""43"",""257943""
""focus"",""43"",""261417""
","""event"",""trial"",""time""
""blur"",""43"",""257943""
","""event"",""trial"",""time""
""focus"",""43"",""261417""
","""event"",""trial"",""time""
""fullscreenenter"",""1"",""3908""
","
",,null,run_exp/static/images/task_images/gems/1.jpg,null,,,,,,,0,,,2,,,,,1,0.246893731,0,,,,,,,
decision,87,411905,0.0-30.0-2.0,"""event"",""trial"",""time""
""fullscreenenter"",""1"",""3908""
""blur"",""43"",""257943""
""focus"",""43"",""261417""
","""event"",""trial"",""time""
""blur"",""43"",""257943""
","""event"",""trial"",""time""
""focus"",""43"",""261417""
","""event"",""trial"",""time""
""fullscreenenter"",""1"",""3908""
","
",,null,run_exp/static/images/task_images/land.jpg,null,,,,,,,0,,,2,,,,,,,,54306,1,3,FALSE,,,
time_out,88,413915,0.0-31.0-0.0,"""event"",""trial"",""time""
""fullscreenenter"",""1"",""3908""
""blur"",""43"",""257943""
""focus"",""43"",""261417""
","""event"",""trial"",""time""
""blur"",""43"",""257943""
","""event"",""trial"",""time""
""focus"",""43"",""261417""
","""event"",""trial"",""time""
""fullscreenenter"",""1"",""3908""
","
",,null,run_exp/static/images/task_images/time_out.jpg,null,,,,,,,0,,,,,,,,,,,,,,,,,
decision,89,413921,0.0-31.0-1.0,"""event"",""trial"",""time""
""fullscreenenter"",""1"",""3908""
""blur"",""43"",""257943""
""focus"",""43"",""261417""
","""event"",""trial"",""time""
""blur"",""43"",""257943""
","""event"",""trial"",""time""
""focus"",""43"",""261417""
","""event"",""trial"",""time""
""fullscreenenter"",""1"",""3908""
","
",,4.600000024,run_exp/static/images/task_images/land.jpg,76,,,,,,,0,,,2,,,,,,,,56322,1,3,TRUE,,,
travel,90,423918,0.0-32.0-0.0,"""event"",""trial"",""time""
""fullscreenenter"",""1"",""3908""
""blur"",""43"",""257943""
""focus"",""43"",""261417""
","""event"",""trial"",""time""
""blur"",""43"",""257943""
","""event"",""trial"",""time""
""focus"",""43"",""261417""
","""event"",""trial"",""time""
""fullscreenenter"",""1"",""3908""
","
",,,,,,,,,,,,"[{""stimulus"":""run_exp/static/images/task_images/rocket-01.jpg"",""time"":0.20000004768371582},{""stimulus"":""run_exp/static/images/task_images/rocket-02.jpg"",""time"":1125.6000000238419},{""stimulus"":""run_exp/static/images/task_images/rocket-03.jpg"",""time"":2240.3000000715256},{""stimulus"":""run_exp/static/images/task_images/rocket-04.jpg"",""time"":3340.399999976158},{""stimulus"":""run_exp/static/images/task_images/rocket-05.jpg"",""time"":4449.600000023842},{""stimulus"":""run_exp/static/images/task_images/rocket-06.jpg"",""time"":5570},{""stimulus"":""run_exp/static/images/task_images/rocket-07.jpg"",""time"":6680.5},{""stimulus"":""run_exp/static/images/task_images/rocket-08.jpg"",""time"":7779.600000023842},{""stimulus"":""run_exp/static/images/task_images/rocket-09.jpg"",""time"":8890.100000023842}]",[],2,,,,,,,,,,,,,,
alien_welcome,91,428935,0.0-32.0-1.0,"""event"",""trial"",""time""
""fullscreenenter"",""1"",""3908""
""blur"",""43"",""257943""
""focus"",""43"",""261417""
","""event"",""trial"",""time""
""blur"",""43"",""257943""
","""event"",""trial"",""time""
""focus"",""43"",""261417""
","""event"",""trial"",""time""
""fullscreenenter"",""1"",""3908""
","
",,null,run_exp/static/images/task_images/aliens/old_aliens/planet/alien_planet-45.jpg,null,,,,,,,,,,,,,45,"40,68,45,21,55,57,36,5,61,64,13,9,60,66,10,30,22,63,54,8,52,65,76,11,39,42,33,26,25,6,47,15,12,70,27,3,59",,,,,,,,,,
land,92,429442,0.0-32.0-2.0,"""event"",""trial"",""time""
""fullscreenenter"",""1"",""3908""
""blur"",""43"",""257943""
""focus"",""43"",""261417""
","""event"",""trial"",""time""
""blur"",""43"",""257943""
","""event"",""trial"",""time""
""focus"",""43"",""261417""
","""event"",""trial"",""time""
""fullscreenenter"",""1"",""3908""
","
",,null,run_exp/static/images/task_images/land.jpg,null,,,,,,,103,,,3,,,,,,,,,,,,,,
dig,93,431455,0.0-32.0-3.0,"""event"",""trial"",""time""
""fullscreenenter"",""1"",""3908""
""blur"",""43"",""257943""
""focus"",""43"",""261417""
","""event"",""trial"",""time""
""blur"",""43"",""257943""
","""event"",""trial"",""time""
""focus"",""43"",""261417""
","""event"",""trial"",""time""
""fullscreenenter"",""1"",""3908""
","
",,,,,,,,,,,,"[{""stimulus"":""run_exp/static/images/task_images/dig.jpg"",""time"":0.19999992847442627},{""stimulus"":""run_exp/static/images/task_images/land.jpg"",""time"":671.6999999284744},{""stimulus"":""run_exp/static/images/task_images/dig.jpg"",""time"":1342.5999999046326}]",[],3,,,,,,,,,,,,,,
harvest,94,432475,0.0-32.0-4.0,"""event"",""trial"",""time""
""fullscreenenter"",""1"",""3908""
""blur"",""43"",""257943""
""focus"",""43"",""261417""
","""event"",""trial"",""time""
""blur"",""43"",""257943""
","""event"",""trial"",""time""
""focus"",""43"",""261417""
","""event"",""trial"",""time""
""fullscreenenter"",""1"",""3908""
","
",,null,run_exp/static/images/task_images/gems/103.jpg,null,,,,,,,36,,,3,,,,,103,0.351662916,0.349514563,,,,,,,
decision,95,432956,0.0-32.0-5.0,"""event"",""trial"",""time""
""fullscreenenter"",""1"",""3908""
""blur"",""43"",""257943""
""focus"",""43"",""261417""
","""event"",""trial"",""time""
""blur"",""43"",""257943""
","""event"",""trial"",""time""
""focus"",""43"",""261417""
","""event"",""trial"",""time""
""fullscreenenter"",""1"",""3908""
","
",,479.6,run_exp/static/images/task_images/land.jpg,65,,,,,,,36,,,3,,,,,,,,75357,1,0,FALSE,,,
dig,96,435485,0.0-33.0-0.0,"""event"",""trial"",""time""
""fullscreenenter"",""1"",""3908""
""blur"",""43"",""257943""
""focus"",""43"",""261417""
","""event"",""trial"",""time""
""blur"",""43"",""257943""
","""event"",""trial"",""time""
""focus"",""43"",""261417""
","""event"",""trial"",""time""
""fullscreenenter"",""1"",""3908""
","
",,,,,,,,,,,,"[{""stimulus"":""run_exp/static/images/task_images/dig.jpg"",""time"":0.2999999523162842},{""stimulus"":""run_exp/static/images/task_images/land.jpg"",""time"":846.1000000238419},{""stimulus"":""run_exp/static/images/task_images/dig.jpg"",""time"":1685.6999999284744}]",[],3,,,,,,,,,,,,,,
harvest,97,436505,0.0-33.0-1.0,"""event"",""trial"",""time""
""fullscreenenter"",""1"",""3908""
""blur"",""43"",""257943""
""focus"",""43"",""261417""
","""event"",""trial"",""time""
""blur"",""43"",""257943""
","""event"",""trial"",""time""
""focus"",""43"",""261417""
","""event"",""trial"",""time""
""fullscreenenter"",""1"",""3908""
","
",,null,run_exp/static/images/task_images/gems/36.jpg,null,,,,,,,19,,,3,,,,,36,0.528106701,0.527777778,,,,,,,
decision,98,436783,0.0-33.0-2.0,"""event"",""trial"",""time""
""fullscreenenter"",""1"",""3908""
""blur"",""43"",""257943""
""focus"",""43"",""261417""
","""event"",""trial"",""time""
""blur"",""43"",""257943""
","""event"",""trial"",""time""
""focus"",""43"",""261417""
","""event"",""trial"",""time""
""fullscreenenter"",""1"",""3908""
","
",,276.7,run_exp/static/images/task_images/land.jpg,65,,,,,,,19,,,3,,,,,,,,79184,1,1,FALSE,,,
dig,99,439515,0.0-34.0-0.0,"""event"",""trial"",""time""
""fullscreenenter"",""1"",""3908""
""blur"",""43"",""257943""
""focus"",""43"",""261417""
","""event"",""trial"",""time""
""blur"",""43"",""257943""
","""event"",""trial"",""time""
""focus"",""43"",""261417""
","""event"",""trial"",""time""
""fullscreenenter"",""1"",""3908""
","
",,,,,,,,,,,,"[{""stimulus"":""run_exp/static/images/task_images/dig.jpg"",""time"":0.19999992847442627},{""stimulus"":""run_exp/static/images/task_images/land.jpg"",""time"":908.5999999046326},{""stimulus"":""run_exp/static/images/task_images/dig.jpg"",""time"":1828.7999999523163}]",[],3,,,,,,,,,,,,,,
harvest,100,440524,0.0-34.0-1.0,"""event"",""trial"",""time""
""fullscreenenter"",""1"",""3908""
""blur"",""43"",""257943""
""focus"",""43"",""261417""
","""event"",""trial"",""time""
""blur"",""43"",""257943""
","""event"",""trial"",""time""
""focus"",""43"",""261417""
","""event"",""trial"",""time""
""fullscreenenter"",""1"",""3908""
","
",,null,run_exp/static/images/task_images/gems/19.jpg,null,,,,,,,7,,,3,,,,,19,0.370596616,0.368421053,,,,,,,
decision,101,443545,0.0-34.0-2.0,"""event"",""trial"",""time""
""fullscreenenter"",""1"",""3908""
""blur"",""43"",""257943""
""focus"",""43"",""261417""
","""event"",""trial"",""time""
""blur"",""43"",""257943""
","""event"",""trial"",""time""
""focus"",""43"",""261417""
","""event"",""trial"",""time""
""fullscreenenter"",""1"",""3908""
","
",,null,run_exp/static/images/task_images/land.jpg,null,,,,,,,7,,,3,,,,,,,,85946,1,2,FALSE,,,
time_out,102,445555,0.0-35.0-0.0,"""event"",""trial"",""time""
""fullscreenenter"",""1"",""3908""
""blur"",""43"",""257943""
""focus"",""43"",""261417""
","""event"",""trial"",""time""
""blur"",""43"",""257943""
","""event"",""trial"",""time""
""focus"",""43"",""261417""
","""event"",""trial"",""time""
""fullscreenenter"",""1"",""3908""
","
",,null,run_exp/static/images/task_images/time_out.jpg,null,,,,,,,7,,,,,,,,,,,,,,,,,
decision,103,447428,0.0-35.0-1.0,"""event"",""trial"",""time""
""fullscreenenter"",""1"",""3908""
""blur"",""43"",""257943""
""focus"",""43"",""261417""
","""event"",""trial"",""time""
""blur"",""43"",""257943""
","""event"",""trial"",""time""
""focus"",""43"",""261417""
","""event"",""trial"",""time""
""fullscreenenter"",""1"",""3908""
","
",,1871.8,run_exp/static/images/task_images/land.jpg,65,,,,,,,7,,,3,,,,,,,,89830,1,2,FALSE,,,
dig,104,448566,0.0-36.0-0.0,"""event"",""trial"",""time""
""fullscreenenter"",""1"",""3908""
""blur"",""43"",""257943""
""focus"",""43"",""261417""
","""event"",""trial"",""time""
""blur"",""43"",""257943""
","""event"",""trial"",""time""
""focus"",""43"",""261417""
","""event"",""trial"",""time""
""fullscreenenter"",""1"",""3908""
","
",,,,,,,,,,,,"[{""stimulus"":""run_exp/static/images/task_images/dig.jpg"",""time"":0.19999992847442627},{""stimulus"":""run_exp/static/images/task_images/land.jpg"",""time"":383.7999999523163},{""stimulus"":""run_exp/static/images/task_images/dig.jpg"",""time"":763.0999999046326}]",[],3,,,,,,,,,,,,,,
harvest,105,449586,0.0-36.0-1.0,"""event"",""trial"",""time""
""fullscreenenter"",""1"",""3908""
""blur"",""43"",""257943""
""focus"",""43"",""261417""
","""event"",""trial"",""time""
""blur"",""43"",""257943""
","""event"",""trial"",""time""
""focus"",""43"",""261417""
","""event"",""trial"",""time""
""fullscreenenter"",""1"",""3908""
","
",,null,run_exp/static/images/task_images/gems/7.jpg,null,,,,,,,4,,,3,,,,,7,0.633984118,0.571428571,,,,,,,
decision,106,451892,0.0-36.0-2.0,"""event"",""trial"",""time""
""fullscreenenter"",""1"",""3908""
""blur"",""43"",""257943""
""focus"",""43"",""261417""
","""event"",""trial"",""time""
""blur"",""43"",""257943""
","""event"",""trial"",""time""
""focus"",""43"",""261417""
","""event"",""trial"",""time""
""fullscreenenter"",""1"",""3908""
","
",,2304.5,run_exp/static/images/task_images/land.jpg,65,,,,,,,4,,,3,,,,,,,,94293,1,3,FALSE,,,
dig,107,452596,0.0-37.0-0.0,"""event"",""trial"",""time""
""fullscreenenter"",""1"",""3908""
""blur"",""43"",""257943""
""focus"",""43"",""261417""
","""event"",""trial"",""time""
""blur"",""43"",""257943""
","""event"",""trial"",""time""
""focus"",""43"",""261417""
","""event"",""trial"",""time""
""fullscreenenter"",""1"",""3908""
","
",,,,,,,,,,,,"[{""stimulus"":""run_exp/static/images/task_images/dig.jpg"",""time"":0.20000004768371582},{""stimulus"":""run_exp/static/images/task_images/land.jpg"",""time"":240.70000004768372},{""stimulus"":""run_exp/static/images/task_images/dig.jpg"",""time"":480.7000000476837}]",[],3,,,,,,,,,,,,,,
harvest,108,453616,0.0-37.0-1.0,"""event"",""trial"",""time""
""fullscreenenter"",""1"",""3908""
""blur"",""43"",""257943""
""focus"",""43"",""261417""
","""event"",""trial"",""time""
""blur"",""43"",""257943""
","""event"",""trial"",""time""
""focus"",""43"",""261417""
","""event"",""trial"",""time""
""fullscreenenter"",""1"",""3908""
","
",,null,run_exp/static/images/task_images/gems/4.jpg,null,,,,,,,2,,,3,,,,,4,0.5153818,0.5,,,,,,,
decision,109,454556,0.0-37.0-2.0,"""event"",""trial"",""time""
""fullscreenenter"",""1"",""3908""
""blur"",""43"",""257943""
""focus"",""43"",""261417""
","""event"",""trial"",""time""
""blur"",""43"",""257943""
","""event"",""trial"",""time""
""focus"",""43"",""261417""
","""event"",""trial"",""time""
""fullscreenenter"",""1"",""3908""
","
",,938.7,run_exp/static/images/task_images/land.jpg,76,,,,,,,2,,,3,,,,,,,,96957,1,4,TRUE,,,
travel,110,463626,0.0-38.0-0.0,"""event"",""trial"",""time""
""fullscreenenter"",""1"",""3908""
""blur"",""43"",""257943""
""focus"",""43"",""261417""
","""event"",""trial"",""time""
""blur"",""43"",""257943""
","""event"",""trial"",""time""
""focus"",""43"",""261417""
","""event"",""trial"",""time""
""fullscreenenter"",""1"",""3908""
","
",,,,,,,,,,,,"[{""stimulus"":""run_exp/static/images/task_images/rocket-01.jpg"",""time"":0.19999992847442627},{""stimulus"":""run_exp/static/images/task_images/rocket-02.jpg"",""time"":1017.3999999761581},{""stimulus"":""run_exp/static/images/task_images/rocket-03.jpg"",""time"":2027.3999999761581},{""stimulus"":""run_exp/static/images/task_images/rocket-04.jpg"",""time"":3027.1999999284744},{""stimulus"":""run_exp/static/images/task_images/rocket-05.jpg"",""time"":4037},{""stimulus"":""run_exp/static/images/task_images/rocket-06.jpg"",""time"":5036.899999976158},{""stimulus"":""run_exp/static/images/task_images/rocket-07.jpg"",""time"":6037.399999976158},{""stimulus"":""run_exp/static/images/task_images/rocket-08.jpg"",""time"":7057.100000023842},{""stimulus"":""run_exp/static/images/task_images/rocket-09.jpg"",""time"":8067.299999952316}]",[],3,,,,,,,,,,,,,,
alien_welcome,111,468634,0.0-38.0-1.0,"""event"",""trial"",""time""
""fullscreenenter"",""1"",""3908""
""blur"",""43"",""257943""
""focus"",""43"",""261417""
","""event"",""trial"",""time""
""blur"",""43"",""257943""
","""event"",""trial"",""time""
""focus"",""43"",""261417""
","""event"",""trial"",""time""
""fullscreenenter"",""1"",""3908""
","
",,null,run_exp/static/images/task_images/aliens/old_aliens/planet/alien_planet-21.jpg,null,,,,,,,,,,,,,21,"40,68,45,21,55,57,36,5,61,64,13,9,60,66,10,30,22,63,54,8,52,65,76,11,39,42,33,26,25,6,47,15,12,70,27,3,59",,,,,,,,,,
land,112,469144,0.0-38.0-2.0,"""event"",""trial"",""time""
""fullscreenenter"",""1"",""3908""
""blur"",""43"",""257943""
""focus"",""43"",""261417""
","""event"",""trial"",""time""
""blur"",""43"",""257943""
","""event"",""trial"",""time""
""focus"",""43"",""261417""
","""event"",""trial"",""time""
""fullscreenenter"",""1"",""3908""
","
",,null,run_exp/static/images/task_images/land.jpg,null,,,,,,,97,,,4,,,,,,,,,,,,,,
dig,113,471166,0.0-38.0-3.0,"""event"",""trial"",""time""
""fullscreenenter"",""1"",""3908""
""blur"",""43"",""257943""
""focus"",""43"",""261417""
","""event"",""trial"",""time""
""blur"",""43"",""257943""
","""event"",""trial"",""time""
""focus"",""43"",""261417""
","""event"",""trial"",""time""
""fullscreenenter"",""1"",""3908""
","
",,,,,,,,,,,,"[{""stimulus"":""run_exp/static/images/task_images/dig.jpg"",""time"":0.2999999523162842},{""stimulus"":""run_exp/static/images/task_images/land.jpg"",""time"":670.3999999761581},{""stimulus"":""run_exp/static/images/task_images/dig.jpg"",""time"":1350.3999999761581}]",[],4,,,,,,,,,,,,,,
harvest,114,472182,0.0-38.0-4.0,"""event"",""trial"",""time""
""fullscreenenter"",""1"",""3908""
""blur"",""43"",""257943""
""focus"",""43"",""261417""
","""event"",""trial"",""time""
""blur"",""43"",""257943""
","""event"",""trial"",""time""
""focus"",""43"",""261417""
","""event"",""trial"",""time""
""fullscreenenter"",""1"",""3908""
","
",,null,run_exp/static/images/task_images/gems/97.jpg,null,,,,,,,38,,,4,,,,,97,0.389674277,0.391752577,,,,,,,
decision,115,472187,0.0-38.0-5.0,"""event"",""trial"",""time""
""fullscreenenter"",""1"",""3908""
""blur"",""43"",""257943""
""focus"",""43"",""261417""
","""event"",""trial"",""time""
""blur"",""43"",""257943""
","""event"",""trial"",""time""
""focus"",""43"",""261417""
","""event"",""trial"",""time""
""fullscreenenter"",""1"",""3908""
","
",,3.5,run_exp/static/images/task_images/land.jpg,65,,,,,,,38,,,4,,,,,,,,114588,1,0,FALSE,,,
dig,116,475201,0.0-39.0-0.0,"""event"",""trial"",""time""
""fullscreenenter"",""1"",""3908""
""blur"",""43"",""257943""
""focus"",""43"",""261417""
","""event"",""trial"",""time""
""blur"",""43"",""257943""
","""event"",""trial"",""time""
""focus"",""43"",""261417""
","""event"",""trial"",""time""
""fullscreenenter"",""1"",""3908""
","
",,,,,,,,,,,,"[{""stimulus"":""run_exp/static/images/task_images/dig.jpg"",""time"":0.2999999523162842},{""stimulus"":""run_exp/static/images/task_images/land.jpg"",""time"":1014.8999999761581},{""stimulus"":""run_exp/static/images/task_images/dig.jpg"",""time"":2004.7999999523163}]",[],4,,,,,,,,,,,,,,
harvest,117,476206,0.0-39.0-1.0,"""event"",""trial"",""time""
""fullscreenenter"",""1"",""3908""
""blur"",""43"",""257943""
""focus"",""43"",""261417""
","""event"",""trial"",""time""
""blur"",""43"",""257943""
","""event"",""trial"",""time""
""focus"",""43"",""261417""
","""event"",""trial"",""time""
""fullscreenenter"",""1"",""3908""
","
",,null,run_exp/static/images/task_images/gems/38.jpg,null,,,,,,,20,,,4,,,,,38,0.513315035,0.526315789,,,,,,,
decision,118,476275,0.0-39.0-2.0,"""event"",""trial"",""time""
""fullscreenenter"",""1"",""3908""
""blur"",""43"",""257943""
""focus"",""43"",""261417""
","""event"",""trial"",""time""
""blur"",""43"",""257943""
","""event"",""trial"",""time""
""focus"",""43"",""261417""
","""event"",""trial"",""time""
""fullscreenenter"",""1"",""3908""
","
",,67.29999995,run_exp/static/images/task_images/land.jpg,65,,,,,,,20,,,4,,,,,,,,118676,1,1,FALSE,,,
dig,119,479215,0.0-40.0-0.0,"""event"",""trial"",""time""
""fullscreenenter"",""1"",""3908""
""blur"",""43"",""257943""
""focus"",""43"",""261417""
","""event"",""trial"",""time""
""blur"",""43"",""257943""
","""event"",""trial"",""time""
""focus"",""43"",""261417""
","""event"",""trial"",""time""
""fullscreenenter"",""1"",""3908""
","
",,,,,,,,,,,,"[{""stimulus"":""run_exp/static/images/task_images/dig.jpg"",""time"":0.20000004768371582},{""stimulus"":""run_exp/static/images/task_images/land.jpg"",""time"":998.1000000238419},{""stimulus"":""run_exp/static/images/task_images/dig.jpg"",""time"":1957.6000000238419}]",[],4,,,,,,,,,,,,,,
harvest,120,480226,0.0-40.0-1.0,"""event"",""trial"",""time""
""fullscreenenter"",""1"",""3908""
""blur"",""43"",""257943""
""focus"",""43"",""261417""
","""event"",""trial"",""time""
""blur"",""43"",""257943""
","""event"",""trial"",""time""
""focus"",""43"",""261417""
","""event"",""trial"",""time""
""fullscreenenter"",""1"",""3908""
","
",,null,run_exp/static/images/task_images/gems/20.jpg,null,,,,,,,9,,,4,,,,,20,0.462985041,0.45,,,,,,,
decision,121,480638,0.0-40.0-2.0,"""event"",""trial"",""time""
""fullscreenenter"",""1"",""3908""
""blur"",""43"",""257943""
""focus"",""43"",""261417""
","""event"",""trial"",""time""
""blur"",""43"",""257943""
","""event"",""trial"",""time""
""focus"",""43"",""261417""
","""event"",""trial"",""time""
""fullscreenenter"",""1"",""3908""
","
",,410.1999999,run_exp/static/images/task_images/land.jpg,76,,,,,,,9,,,4,,,,,,,,123039,1,2,TRUE,,,
travel,122,490227,0.0-41.0-0.0,"""event"",""trial"",""time""
""fullscreenenter"",""1"",""3908""
""blur"",""43"",""257943""
""focus"",""43"",""261417""
","""event"",""trial"",""time""
""blur"",""43"",""257943""
","""event"",""trial"",""time""
""focus"",""43"",""261417""
","""event"",""trial"",""time""
""fullscreenenter"",""1"",""3908""
","
",,,,,,,,,,,,"[{""stimulus"":""run_exp/static/images/task_images/rocket-01.jpg"",""time"":0.20000004768371582},{""stimulus"":""run_exp/static/images/task_images/rocket-02.jpg"",""time"":1085.7000000476837},{""stimulus"":""run_exp/static/images/task_images/rocket-03.jpg"",""time"":2135},{""stimulus"":""run_exp/static/images/task_images/rocket-04.jpg"",""time"":3204.7000000476837},{""stimulus"":""run_exp/static/images/task_images/rocket-05.jpg"",""time"":4275.200000047684},{""stimulus"":""run_exp/static/images/task_images/rocket-06.jpg"",""time"":5335.300000071526},{""stimulus"":""run_exp/static/images/task_images/rocket-07.jpg"",""time"":6405.800000071526},{""stimulus"":""run_exp/static/images/task_images/rocket-08.jpg"",""time"":7475.600000023842},{""stimulus"":""run_exp/static/images/task_images/rocket-09.jpg"",""time"":8535.700000047684}]",[],4,,,,,,,,,,,,,,
alien_welcome,123,495246,0.0-41.0-1.0,"""event"",""trial"",""time""
""fullscreenenter"",""1"",""3908""
""blur"",""43"",""257943""
""focus"",""43"",""261417""
","""event"",""trial"",""time""
""blur"",""43"",""257943""
","""event"",""trial"",""time""
""focus"",""43"",""261417""
","""event"",""trial"",""time""
""fullscreenenter"",""1"",""3908""
","
",,null,run_exp/static/images/task_images/aliens/old_aliens/planet/alien_planet-55.jpg,null,,,,,,,,,,,,,55,"40,68,45,21,55,57,36,5,61,64,13,9,60,66,10,30,22,63,54,8,52,65,76,11,39,42,33,26,25,6,47,15,12,70,27,3,59",,,,,,,,,,
land,124,495764,0.0-41.0-2.0,"""event"",""trial"",""time""
""fullscreenenter"",""1"",""3908""
""blur"",""43"",""257943""
""focus"",""43"",""261417""
","""event"",""trial"",""time""
""blur"",""43"",""257943""
","""event"",""trial"",""time""
""focus"",""43"",""261417""
","""event"",""trial"",""time""
""fullscreenenter"",""1"",""3908""
","
",,null,run_exp/static/images/task_images/land.jpg,null,,,,,,,92,,,5,,,,,,,,,,,,,,
dig,125,497775,0.0-41.0-3.0,"""event"",""trial"",""time""
""fullscreenenter"",""1"",""3908""
""blur"",""43"",""257943""
""focus"",""43"",""261417""
","""event"",""trial"",""time""
""blur"",""43"",""257943""
","""event"",""trial"",""time""
""focus"",""43"",""261417""
","""event"",""trial"",""time""
""fullscreenenter"",""1"",""3908""
","
",,,,,,,,,,,,"[{""stimulus"":""run_exp/static/images/task_images/dig.jpg"",""time"":0.2999999523162842},{""stimulus"":""run_exp/static/images/task_images/land.jpg"",""time"":681.1000000238419},{""stimulus"":""run_exp/static/images/task_images/dig.jpg"",""time"":1341.7999999523163}]",[],5,,,,,,,,,,,,,,
harvest,126,498791,0.0-41.0-4.0,"""event"",""trial"",""time""
""fullscreenenter"",""1"",""3908""
""blur"",""43"",""257943""
""focus"",""43"",""261417""
","""event"",""trial"",""time""
""blur"",""43"",""257943""
","""event"",""trial"",""time""
""focus"",""43"",""261417""
","""event"",""trial"",""time""
""fullscreenenter"",""1"",""3908""
","
",,null,run_exp/static/images/task_images/gems/92.jpg,null,,,,,,,44,,,5,,,,,92,0.480593287,0.47826087,,,,,,,
decision,127,498891,0.0-41.0-5.0,"""event"",""trial"",""time""
""fullscreenenter"",""1"",""3908""
""blur"",""43"",""257943""
""focus"",""43"",""261417""
","""event"",""trial"",""time""
""blur"",""43"",""257943""
","""event"",""trial"",""time""
""focus"",""43"",""261417""
","""event"",""trial"",""time""
""fullscreenenter"",""1"",""3908""
","
",,98.29999995,run_exp/static/images/task_images/land.jpg,65,,,,,,,44,,,5,,,,,,,,141292,1,0,FALSE,,,
dig,128,501809,0.0-42.0-0.0,"""event"",""trial"",""time""
""fullscreenenter"",""1"",""3908""
""blur"",""43"",""257943""
""focus"",""43"",""261417""
","""event"",""trial"",""time""
""blur"",""43"",""257943""
","""event"",""trial"",""time""
""focus"",""43"",""261417""
","""event"",""trial"",""time""
""fullscreenenter"",""1"",""3908""
","
",,,,,,,,,,,,"[{""stimulus"":""run_exp/static/images/task_images/dig.jpg"",""time"":0.30000007152557373},{""stimulus"":""run_exp/static/images/task_images/land.jpg"",""time"":981.8000000715256},{""stimulus"":""run_exp/static/images/task_images/dig.jpg"",""time"":1941.7000000476837}]",[],5,,,,,,,,,,,,,,
harvest,129,502811,0.0-42.0-1.0,"""event"",""trial"",""time""
""fullscreenenter"",""1"",""3908""
""blur"",""43"",""257943""
""focus"",""43"",""261417""
","""event"",""trial"",""time""
""blur"",""43"",""257943""
","""event"",""trial"",""time""
""focus"",""43"",""261417""
","""event"",""trial"",""time""
""fullscreenenter"",""1"",""3908""
","
",,null,run_exp/static/images/task_images/gems/44.jpg,null,,,,,,,22,,,5,,,,,44,0.506153379,0.5,,,,,,,
decision,130,503089,0.0-42.0-2.0,"""event"",""trial"",""time""
""fullscreenenter"",""1"",""3908""
""blur"",""43"",""257943""
""focus"",""43"",""261417""
","""event"",""trial"",""time""
""blur"",""43"",""257943""
","""event"",""trial"",""time""
""focus"",""43"",""261417""
","""event"",""trial"",""time""
""fullscreenenter"",""1"",""3908""
","
",,276.8000001,run_exp/static/images/task_images/land.jpg,65,,,,,,,22,,,5,,,,,,,,145491,1,1,FALSE,,,
dig,131,505818,0.0-43.0-0.0,"""event"",""trial"",""time""
""fullscreenenter"",""1"",""3908""
""blur"",""43"",""257943""
""focus"",""43"",""261417""
","""event"",""trial"",""time""
""blur"",""43"",""257943""
","""event"",""trial"",""time""
""focus"",""43"",""261417""
","""event"",""trial"",""time""
""fullscreenenter"",""1"",""3908""
","
",,,,,,,,,,,,"[{""stimulus"":""run_exp/static/images/task_images/dig.jpg"",""time"":0.10000002384185791},{""stimulus"":""run_exp/static/images/task_images/land.jpg"",""time"":913.2000000476837},{""stimulus"":""run_exp/static/images/task_images/dig.jpg"",""time"":1833.5}]",[],5,,,,,,,,,,,,,,
harvest,132,506821,0.0-43.0-1.0,"""event"",""trial"",""time""
""fullscreenenter"",""1"",""3908""
""blur"",""43"",""257943""
""focus"",""43"",""261417""
","""event"",""trial"",""time""
""blur"",""43"",""257943""
","""event"",""trial"",""time""
""focus"",""43"",""261417""
","""event"",""trial"",""time""
""fullscreenenter"",""1"",""3908""
","
",,null,run_exp/static/images/task_images/gems/22.jpg,null,,,,,,,11,,,5,,,,,22,0.503825889,0.5,,,,,,,
decision,133,507067,0.0-43.0-2.0,"""event"",""trial"",""time""
""fullscreenenter"",""1"",""3908""
""blur"",""43"",""257943""
""focus"",""43"",""261417""
","""event"",""trial"",""time""
""blur"",""43"",""257943""
","""event"",""trial"",""time""
""focus"",""43"",""261417""
","""event"",""trial"",""time""
""fullscreenenter"",""1"",""3908""
","
",,243.9000001,run_exp/static/images/task_images/land.jpg,65,,,,,,,11,,,5,,,,,,,,149468,1,2,FALSE,,,
dig,134,509836,0.0-44.0-0.0,"""event"",""trial"",""time""
""fullscreenenter"",""1"",""3908""
""blur"",""43"",""257943""
""focus"",""43"",""261417""
","""event"",""trial"",""time""
""blur"",""43"",""257943""
","""event"",""trial"",""time""
""focus"",""43"",""261417""
","""event"",""trial"",""time""
""fullscreenenter"",""1"",""3908""
","
",,,,,,,,,,,,"[{""stimulus"":""run_exp/static/images/task_images/dig.jpg"",""time"":0.10000002384185791},{""stimulus"":""run_exp/static/images/task_images/land.jpg"",""time"":926.6000000238419},{""stimulus"":""run_exp/static/images/task_images/dig.jpg"",""time"":1846.1000000238419}]",[],5,,,,,,,,,,,,,,
harvest,135,510846,0.0-44.0-1.0,"""event"",""trial"",""time""
""fullscreenenter"",""1"",""3908""
""blur"",""43"",""257943""
""focus"",""43"",""261417""
","""event"",""trial"",""time""
""blur"",""43"",""257943""
","""event"",""trial"",""time""
""focus"",""43"",""261417""
","""event"",""trial"",""time""
""fullscreenenter"",""1"",""3908""
","
",,null,run_exp/static/images/task_images/gems/11.jpg,null,,,,,,,5,,,5,,,,,11,0.462153997,0.454545455,,,,,,,
decision,136,510850,0.0-44.0-2.0,"""event"",""trial"",""time""
""fullscreenenter"",""1"",""3908""
""blur"",""43"",""257943""
""focus"",""43"",""261417""
","""event"",""trial"",""time""
""blur"",""43"",""257943""
","""event"",""trial"",""time""
""focus"",""43"",""261417""
","""event"",""trial"",""time""
""fullscreenenter"",""1"",""3908""
","
",,2.899999976,run_exp/static/images/task_images/land.jpg,76,,,,,,,5,,,5,,,,,,,,153252,1,3,TRUE,,,
travel,137,520865,0.0-45.0-0.0,"""event"",""trial"",""time""
""fullscreenenter"",""1"",""3908""
""blur"",""43"",""257943""
""focus"",""43"",""261417""
","""event"",""trial"",""time""
""blur"",""43"",""257943""
","""event"",""trial"",""time""
""focus"",""43"",""261417""
","""event"",""trial"",""time""
""fullscreenenter"",""1"",""3908""
","
",,,,,,,,,,,,"[{""stimulus"":""run_exp/static/images/task_images/rocket-01.jpg"",""time"":0.19999992847442627},{""stimulus"":""run_exp/static/images/task_images/rocket-02.jpg"",""time"":1121},{""stimulus"":""run_exp/static/images/task_images/rocket-03.jpg"",""time"":2231.7999999523163},{""stimulus"":""run_exp/static/images/task_images/rocket-04.jpg"",""time"":3341.399999976158},{""stimulus"":""run_exp/static/images/task_images/rocket-05.jpg"",""time"":4451.699999928474},{""stimulus"":""run_exp/static/images/task_images/rocket-06.jpg"",""time"":5551.699999928474},{""stimulus"":""run_exp/static/images/task_images/rocket-07.jpg"",""time"":6661.5},{""stimulus"":""run_exp/static/images/task_images/rocket-08.jpg"",""time"":7771.899999976158},{""stimulus"":""run_exp/static/images/task_images/rocket-09.jpg"",""time"":8881.799999952316}]",[],5,,,,,,,,,,,,,,
alien_welcome,138,525874,0.0-45.0-1.0,"""event"",""trial"",""time""
""fullscreenenter"",""1"",""3908""
""blur"",""43"",""257943""
""focus"",""43"",""261417""
","""event"",""trial"",""time""
""blur"",""43"",""257943""
","""event"",""trial"",""time""
""focus"",""43"",""261417""
","""event"",""trial"",""time""
""fullscreenenter"",""1"",""3908""
","
",,null,run_exp/static/images/task_images/aliens/old_aliens/planet/alien_planet-57.jpg,null,,,,,,,,,,,,,57,"40,68,45,21,55,57,36,5,61,64,13,9,60,66,10,30,22,63,54,8,52,65,76,11,39,42,33,26,25,6,47,15,12,70,27,3,59",,,,,,,,,,
land,139,526396,0.0-45.0-2.0,"""event"",""trial"",""time""
""fullscreenenter"",""1"",""3908""
""blur"",""43"",""257943""
""focus"",""43"",""261417""
","""event"",""trial"",""time""
""blur"",""43"",""257943""
","""event"",""trial"",""time""
""focus"",""43"",""261417""
","""event"",""trial"",""time""
""fullscreenenter"",""1"",""3908""
","
",,null,run_exp/static/images/task_images/land.jpg,null,,,,,,,105,,,6,,,,,,,,,,,,,,
dig,140,528406,0.0-45.0-3.0,"""event"",""trial"",""time""
""fullscreenenter"",""1"",""3908""
""blur"",""43"",""257943""
""focus"",""43"",""261417""
","""event"",""trial"",""time""
""blur"",""43"",""257943""
","""event"",""trial"",""time""
""focus"",""43"",""261417""
","""event"",""trial"",""time""
""fullscreenenter"",""1"",""3908""
","
",,,,,,,,,,,,"[{""stimulus"":""run_exp/static/images/task_images/dig.jpg"",""time"":0.30000007152557373},{""stimulus"":""run_exp/static/images/task_images/land.jpg"",""time"":668.4000000953674},{""stimulus"":""run_exp/static/images/task_images/dig.jpg"",""time"":1348.8000000715256}]",[],6,,,,,,,,,,,,,,
harvest,141,529426,0.0-45.0-4.0,"""event"",""trial"",""time""
""fullscreenenter"",""1"",""3908""
""blur"",""43"",""257943""
""focus"",""43"",""261417""
","""event"",""trial"",""time""
""blur"",""43"",""257943""
","""event"",""trial"",""time""
""focus"",""43"",""261417""
","""event"",""trial"",""time""
""fullscreenenter"",""1"",""3908""
","
",,null,run_exp/static/images/task_images/gems/105.jpg,null,,,,,,,87,,,6,,,,,105,0.829097203,0.828571429,,,,,,,
decision,142,529458,0.0-45.0-5.0,"""event"",""trial"",""time""
""fullscreenenter"",""1"",""3908""
""blur"",""43"",""257943""
""focus"",""43"",""261417""
","""event"",""trial"",""time""
""blur"",""43"",""257943""
","""event"",""trial"",""time""
""focus"",""43"",""261417""
","""event"",""trial"",""time""
""fullscreenenter"",""1"",""3908""
","
",,30.0999999,run_exp/static/images/task_images/land.jpg,65,,,,,,,87,,,6,,,,,,,,171859,1,0,FALSE,,,
dig,143,532446,0.0-46.0-0.0,"""event"",""trial"",""time""
""fullscreenenter"",""1"",""3908""
""blur"",""43"",""257943""
""focus"",""43"",""261417""
","""event"",""trial"",""time""
""blur"",""43"",""257943""
","""event"",""trial"",""time""
""focus"",""43"",""261417""
","""event"",""trial"",""time""
""fullscreenenter"",""1"",""3908""
","
",,,,,,,,,,,,"[{""stimulus"":""run_exp/static/images/task_images/dig.jpg"",""time"":0.10000002384185791},{""stimulus"":""run_exp/static/images/task_images/land.jpg"",""time"":1004.8000000715256},{""stimulus"":""run_exp/static/images/task_images/dig.jpg"",""time"":1985.2000000476837}]",[],6,,,,,,,,,,,,,,
harvest,144,533456,0.0-46.0-1.0,"""event"",""trial"",""time""
""fullscreenenter"",""1"",""3908""
""blur"",""43"",""257943""
""focus"",""43"",""261417""
","""event"",""trial"",""time""
""blur"",""43"",""257943""
","""event"",""trial"",""time""
""focus"",""43"",""261417""
","""event"",""trial"",""time""
""fullscreenenter"",""1"",""3908""
","
",,null,run_exp/static/images/task_images/gems/87.jpg,null,,,,,,,66,,,6,,,,,87,0.758804548,0.75862069,,,,,,,
decision,145,533541,0.0-46.0-2.0,"""event"",""trial"",""time""
""fullscreenenter"",""1"",""3908""
""blur"",""43"",""257943""
""focus"",""43"",""261417""
","""event"",""trial"",""time""
""blur"",""43"",""257943""
","""event"",""trial"",""time""
""focus"",""43"",""261417""
","""event"",""trial"",""time""
""fullscreenenter"",""1"",""3908""
","
",,83.29999995,run_exp/static/images/task_images/land.jpg,65,,,,,,,66,,,6,,,,,,,,175942,1,1,FALSE,,,
dig,146,536476,0.0-47.0-0.0,"""event"",""trial"",""time""
""fullscreenenter"",""1"",""3908""
""blur"",""43"",""257943""
""focus"",""43"",""261417""
","""event"",""trial"",""time""
""blur"",""43"",""257943""
","""event"",""trial"",""time""
""focus"",""43"",""261417""
","""event"",""trial"",""time""
""fullscreenenter"",""1"",""3908""
","
",,,,,,,,,,,,"[{""stimulus"":""run_exp/static/images/task_images/dig.jpg"",""time"":0.2999999523162842},{""stimulus"":""run_exp/static/images/task_images/land.jpg"",""time"":982.2999999523163},{""stimulus"":""run_exp/static/images/task_images/dig.jpg"",""time"":1951.8999999761581}]",[],6,,,,,,,,,,,,,,
harvest,147,537496,0.0-47.0-1.0,"""event"",""trial"",""time""
""fullscreenenter"",""1"",""3908""
""blur"",""43"",""257943""
""focus"",""43"",""261417""
","""event"",""trial"",""time""
""blur"",""43"",""257943""
","""event"",""trial"",""time""
""focus"",""43"",""261417""
","""event"",""trial"",""time""
""fullscreenenter"",""1"",""3908""
","
",,null,run_exp/static/images/task_images/gems/66.jpg,null,,,,,,,60,,,6,,,,,66,0.909322868,0.909090909,,,,,,,
decision,148,537583,0.0-47.0-2.0,"""event"",""trial"",""time""
""fullscreenenter"",""1"",""3908""
""blur"",""43"",""257943""
""focus"",""43"",""261417""
","""event"",""trial"",""time""
""blur"",""43"",""257943""
","""event"",""trial"",""time""
""focus"",""43"",""261417""
","""event"",""trial"",""time""
""fullscreenenter"",""1"",""3908""
","
",,85.5999999,run_exp/static/images/task_images/land.jpg,65,,,,,,,60,,,6,,,,,,,,179984,1,2,FALSE,,,
dig,149,540516,0.0-48.0-0.0,"""event"",""trial"",""time""
""fullscreenenter"",""1"",""3908""
""blur"",""43"",""257943""
""focus"",""43"",""261417""
","""event"",""trial"",""time""
""blur"",""43"",""257943""
","""event"",""trial"",""time""
""focus"",""43"",""261417""
","""event"",""trial"",""time""
""fullscreenenter"",""1"",""3908""
","
",,,,,,,,,,,,"[{""stimulus"":""run_exp/static/images/task_images/dig.jpg"",""time"":0.10000002384185791},{""stimulus"":""run_exp/static/images/task_images/land.jpg"",""time"":979.6000000238419},{""stimulus"":""run_exp/static/images/task_images/dig.jpg"",""time"":1959.7000000476837}]",[],6,,,,,,,,,,,,,,
harvest,150,541526,0.0-48.0-1.0,"""event"",""trial"",""time""
""fullscreenenter"",""1"",""3908""
""blur"",""43"",""257943""
""focus"",""43"",""261417""
","""event"",""trial"",""time""
""blur"",""43"",""257943""
","""event"",""trial"",""time""
""focus"",""43"",""261417""
","""event"",""trial"",""time""
""fullscreenenter"",""1"",""3908""
","
",,null,run_exp/static/images/task_images/gems/60.jpg,null,,,,,,,49,,,6,,,,,60,0.815214302,0.816666667,,,,,,,
decision,151,541734,0.0-48.0-2.0,"""event"",""trial"",""time""
""fullscreenenter"",""1"",""3908""
""blur"",""43"",""257943""
""focus"",""43"",""261417""
","""event"",""trial"",""time""
""blur"",""43"",""257943""
","""event"",""trial"",""time""
""focus"",""43"",""261417""
","""event"",""trial"",""time""
""fullscreenenter"",""1"",""3908""
","
",,205.9,run_exp/static/images/task_images/land.jpg,65,,,,,,,49,,,6,,,,,,,,184135,1,3,FALSE,,,
dig,152,544546,0.0-49.0-0.0,"""event"",""trial"",""time""
""fullscreenenter"",""1"",""3908""
""blur"",""43"",""257943""
""focus"",""43"",""261417""
","""event"",""trial"",""time""
""blur"",""43"",""257943""
","""event"",""trial"",""time""
""focus"",""43"",""261417""
","""event"",""trial"",""time""
""fullscreenenter"",""1"",""3908""
","
",,,,,,,,,,,,"[{""stimulus"":""run_exp/static/images/task_images/dig.jpg"",""time"":0.19999992847442627},{""stimulus"":""run_exp/static/images/task_images/land.jpg"",""time"":949.0999999046326},{""stimulus"":""run_exp/static/images/task_images/dig.jpg"",""time"":1869.1999999284744}]",[],6,,,,,,,,,,,,,,
harvest,153,545566,0.0-49.0-1.0,"""event"",""trial"",""time""
""fullscreenenter"",""1"",""3908""
""blur"",""43"",""257943""
""focus"",""43"",""261417""
","""event"",""trial"",""time""
""blur"",""43"",""257943""
","""event"",""trial"",""time""
""focus"",""43"",""261417""
","""event"",""trial"",""time""
""fullscreenenter"",""1"",""3908""
","
",,null,run_exp/static/images/task_images/gems/49.jpg,null,,,,,,,39,,,6,,,,,49,0.788281341,0.795918367,,,,,,,
decision,154,545697,0.0-49.0-2.0,"""event"",""trial"",""time""
""fullscreenenter"",""1"",""3908""
""blur"",""43"",""257943""
""focus"",""43"",""261417""
","""event"",""trial"",""time""
""blur"",""43"",""257943""
","""event"",""trial"",""time""
""focus"",""43"",""261417""
","""event"",""trial"",""time""
""fullscreenenter"",""1"",""3908""
","
",,129.9,run_exp/static/images/task_images/land.jpg,65,,,,,,,39,,,6,,,,,,,,188098,1,4,FALSE,,,
dig,155,548586,0.0-50.0-0.0,"""event"",""trial"",""time""
""fullscreenenter"",""1"",""3908""
""blur"",""43"",""257943""
""focus"",""43"",""261417""
","""event"",""trial"",""time""
""blur"",""43"",""257943""
","""event"",""trial"",""time""
""focus"",""43"",""261417""
","""event"",""trial"",""time""
""fullscreenenter"",""1"",""3908""
","
",,,,,,,,,,,,"[{""stimulus"":""run_exp/static/images/task_images/dig.jpg"",""time"":0.10000002384185791},{""stimulus"":""run_exp/static/images/task_images/land.jpg"",""time"":965.5},{""stimulus"":""run_exp/static/images/task_images/dig.jpg"",""time"":1915.3000000715256}]",[],6,,,,,,,,,,,,,,
harvest,156,549596,0.0-50.0-1.0,"""event"",""trial"",""time""
""fullscreenenter"",""1"",""3908""
""blur"",""43"",""257943""
""focus"",""43"",""261417""
","""event"",""trial"",""time""
""blur"",""43"",""257943""
","""event"",""trial"",""time""
""focus"",""43"",""261417""
","""event"",""trial"",""time""
""fullscreenenter"",""1"",""3908""
","
",,null,run_exp/static/images/task_images/gems/39.jpg,null,,,,,,,33,,,6,,,,,39,0.840461633,0.846153846,,,,,,,
decision,157,549604,0.0-50.0-2.0,"""event"",""trial"",""time""
""fullscreenenter"",""1"",""3908""
""blur"",""43"",""257943""
""focus"",""43"",""261417""
","""event"",""trial"",""time""
""blur"",""43"",""257943""
","""event"",""trial"",""time""
""focus"",""43"",""261417""
","""event"",""trial"",""time""
""fullscreenenter"",""1"",""3908""
","
",,5.899999976,run_exp/static/images/task_images/land.jpg,65,,,,,,,33,,,6,,,,,,,,192005,1,5,FALSE,,,
dig,158,552606,0.0-51.0-0.0,"""event"",""trial"",""time""
""fullscreenenter"",""1"",""3908""
""blur"",""43"",""257943""
""focus"",""43"",""261417""
","""event"",""trial"",""time""
""blur"",""43"",""257943""
","""event"",""trial"",""time""
""focus"",""43"",""261417""
","""event"",""trial"",""time""
""fullscreenenter"",""1"",""3908""
","
",,,,,,,,,,,,"[{""stimulus"":""run_exp/static/images/task_images/dig.jpg"",""time"":0.2999999523162842},{""stimulus"":""run_exp/static/images/task_images/land.jpg"",""time"":1019.1999999284744},{""stimulus"":""run_exp/static/images/task_images/dig.jpg"",""time"":1998.8999999761581}]",[],6,,,,,,,,,,,,,,
harvest,159,553626,0.0-51.0-1.0,"""event"",""trial"",""time""
""fullscreenenter"",""1"",""3908""
""blur"",""43"",""257943""
""focus"",""43"",""261417""
","""event"",""trial"",""time""
""blur"",""43"",""257943""
","""event"",""trial"",""time""
""focus"",""43"",""261417""
","""event"",""trial"",""time""
""fullscreenenter"",""1"",""3908""
","
",,null,run_exp/static/images/task_images/gems/33.jpg,null,,,,,,,25,,,6,,,,,33,0.76984913,0.757575758,,,,,,,
decision,160,553877,0.0-51.0-2.0,"""event"",""trial"",""time""
""fullscreenenter"",""1"",""3908""
""blur"",""43"",""257943""
""focus"",""43"",""261417""
","""event"",""trial"",""time""
""blur"",""43"",""257943""
","""event"",""trial"",""time""
""focus"",""43"",""261417""
","""event"",""trial"",""time""
""fullscreenenter"",""1"",""3908""
","
",,249.1,run_exp/static/images/task_images/land.jpg,65,,,,,,,25,,,6,,,,,,,,196278,1,6,FALSE,,,
dig,161,556636,0.0-52.0-0.0,"""event"",""trial"",""time""
""fullscreenenter"",""1"",""3908""
""blur"",""43"",""257943""
""focus"",""43"",""261417""
","""event"",""trial"",""time""
""blur"",""43"",""257943""
","""event"",""trial"",""time""
""focus"",""43"",""261417""
","""event"",""trial"",""time""
""fullscreenenter"",""1"",""3908""
","
",,,,,,,,,,,,"[{""stimulus"":""run_exp/static/images/task_images/dig.jpg"",""time"":0.20000004768371582},{""stimulus"":""run_exp/static/images/task_images/land.jpg"",""time"":936},{""stimulus"":""run_exp/static/images/task_images/dig.jpg"",""time"":1835.1000000238419}]",[],6,,,,,,,,,,,,,,
harvest,162,557646,0.0-52.0-1.0,"""event"",""trial"",""time""
""fullscreenenter"",""1"",""3908""
""blur"",""43"",""257943""
""focus"",""43"",""261417""
","""event"",""trial"",""time""
""blur"",""43"",""257943""
","""event"",""trial"",""time""
""focus"",""43"",""261417""
","""event"",""trial"",""time""
""fullscreenenter"",""1"",""3908""
","
",,null,run_exp/static/images/task_images/gems/25.jpg,null,,,,,,,19,,,6,,,,,25,0.776857468,0.76,,,,,,,
decision,163,557981,0.0-52.0-2.0,"""event"",""trial"",""time""
""fullscreenenter"",""1"",""3908""
""blur"",""43"",""257943""
""focus"",""43"",""261417""
","""event"",""trial"",""time""
""blur"",""43"",""257943""
","""event"",""trial"",""time""
""focus"",""43"",""261417""
","""event"",""trial"",""time""
""fullscreenenter"",""1"",""3908""
","
",,333.5,run_exp/static/images/task_images/land.jpg,65,,,,,,,19,,,6,,,,,,,,200382,1,7,FALSE,,,
dig,164,560666,0.0-53.0-0.0,"""event"",""trial"",""time""
""fullscreenenter"",""1"",""3908""
""blur"",""43"",""257943""
""focus"",""43"",""261417""
","""event"",""trial"",""time""
""blur"",""43"",""257943""
","""event"",""trial"",""time""
""focus"",""43"",""261417""
","""event"",""trial"",""time""
""fullscreenenter"",""1"",""3908""
","
",,,,,,,,,,,,"[{""stimulus"":""run_exp/static/images/task_images/dig.jpg"",""time"":0.3999999761581421},{""stimulus"":""run_exp/static/images/task_images/land.jpg"",""time"":901.6000000238419},{""stimulus"":""run_exp/static/images/task_images/dig.jpg"",""time"":1791.3999999761581}]",[],6,,,,,,,,,,,,,,
harvest,165,561686,0.0-53.0-1.0,"""event"",""trial"",""time""
""fullscreenenter"",""1"",""3908""
""blur"",""43"",""257943""
""focus"",""43"",""261417""
","""event"",""trial"",""time""
""blur"",""43"",""257943""
","""event"",""trial"",""time""
""focus"",""43"",""261417""
","""event"",""trial"",""time""
""fullscreenenter"",""1"",""3908""
","
",,null,run_exp/static/images/task_images/gems/19.jpg,null,,,,,,,16,,,6,,,,,19,0.825484534,0.842105263,,,,,,,
decision,166,562492,0.0-53.0-2.0,"""event"",""trial"",""time""
""fullscreenenter"",""1"",""3908""
""blur"",""43"",""257943""
""focus"",""43"",""261417""
","""event"",""trial"",""time""
""blur"",""43"",""257943""
","""event"",""trial"",""time""
""focus"",""43"",""261417""
","""event"",""trial"",""time""
""fullscreenenter"",""1"",""3908""
","
",,804.2,run_exp/static/images/task_images/land.jpg,65,,,,,,,16,,,6,,,,,,,,204893,1,8,FALSE,,,
dig,167,564706,0.0-54.0-0.0,"""event"",""trial"",""time""
""fullscreenenter"",""1"",""3908""
""blur"",""43"",""257943""
""focus"",""43"",""261417""
","""event"",""trial"",""time""
""blur"",""43"",""257943""
","""event"",""trial"",""time""
""focus"",""43"",""261417""
","""event"",""trial"",""time""
""fullscreenenter"",""1"",""3908""
","
",,,,,,,,,,,,"[{""stimulus"":""run_exp/static/images/task_images/dig.jpg"",""time"":0.10000002384185791},{""stimulus"":""run_exp/static/images/task_images/land.jpg"",""time"":740.5},{""stimulus"":""run_exp/static/images/task_images/dig.jpg"",""time"":1470.7999999523163}]",[],6,,,,,,,,,,,,,,
harvest,168,565716,0.0-54.0-1.0,"""event"",""trial"",""time""
""fullscreenenter"",""1"",""3908""
""blur"",""43"",""257943""
""focus"",""43"",""261417""
","""event"",""trial"",""time""
""blur"",""43"",""257943""
","""event"",""trial"",""time""
""focus"",""43"",""261417""
","""event"",""trial"",""time""
""fullscreenenter"",""1"",""3908""
","
",,null,run_exp/static/images/task_images/gems/16.jpg,null,,,,,,,12,,,6,,,,,16,0.74342231,0.75,,,,,,,
decision,169,567246,0.0-54.0-2.0,"""event"",""trial"",""time""
""fullscreenenter"",""1"",""3908""
""blur"",""43"",""257943""
""focus"",""43"",""261417""
","""event"",""trial"",""time""
""blur"",""43"",""257943""
","""event"",""trial"",""time""
""focus"",""43"",""261417""
","""event"",""trial"",""time""
""fullscreenenter"",""1"",""3908""
","
",,1528.6,run_exp/static/images/task_images/land.jpg,76,,,,,,,12,,,6,,,,,,,,209647,1,9,TRUE,,,
travel,170,575720,0.0-55.0-0.0,"""event"",""trial"",""time""
""fullscreenenter"",""1"",""3908""
""blur"",""43"",""257943""
""focus"",""43"",""261417""
","""event"",""trial"",""time""
""blur"",""43"",""257943""
","""event"",""trial"",""time""
""focus"",""43"",""261417""
","""event"",""trial"",""time""
""fullscreenenter"",""1"",""3908""
","
",,,,,,,,,,,,"[{""stimulus"":""run_exp/static/images/task_images/rocket-01.jpg"",""time"":0.19999992847442627},{""stimulus"":""run_exp/static/images/task_images/rocket-02.jpg"",""time"":946.8999999761581},{""stimulus"":""run_exp/static/images/task_images/rocket-03.jpg"",""time"":1886.7999999523163},{""stimulus"":""run_exp/static/images/task_images/rocket-04.jpg"",""time"":2826.7999999523163},{""stimulus"":""run_exp/static/images/task_images/rocket-05.jpg"",""time"":3767.899999976158},{""stimulus"":""run_exp/static/images/task_images/rocket-06.jpg"",""time"":4706.899999976158},{""stimulus"":""run_exp/static/images/task_images/rocket-07.jpg"",""time"":5666.599999904633},{""stimulus"":""run_exp/static/images/task_images/rocket-08.jpg"",""time"":6596.799999952316},{""stimulus"":""run_exp/static/images/task_images/rocket-09.jpg"",""time"":7535.799999952316}]",[],6,,,,,,,,,,,,,,
alien_welcome,171,580725,0.0-55.0-1.0,"""event"",""trial"",""time""
""fullscreenenter"",""1"",""3908""
""blur"",""43"",""257943""
""focus"",""43"",""261417""
","""event"",""trial"",""time""
""blur"",""43"",""257943""
","""event"",""trial"",""time""
""focus"",""43"",""261417""
","""event"",""trial"",""time""
""fullscreenenter"",""1"",""3908""
","
",,null,run_exp/static/images/task_images/aliens/old_aliens/planet/alien_planet-36.jpg,null,,,,,,,,,,,,,36,"40,68,45,21,55,57,36,5,61,64,13,9,60,66,10,30,22,63,54,8,52,65,76,11,39,42,33,26,25,6,47,15,12,70,27,3,59",,,,,,,,,,
land,172,581245,0.0-55.0-2.0,"""event"",""trial"",""time""
""fullscreenenter"",""1"",""3908""
""blur"",""43"",""257943""
""focus"",""43"",""261417""
","""event"",""trial"",""time""
""blur"",""43"",""257943""
","""event"",""trial"",""time""
""focus"",""43"",""261417""
","""event"",""trial"",""time""
""fullscreenenter"",""1"",""3908""
","
",,null,run_exp/static/images/task_images/land.jpg,null,,,,,,,100,,,7,,,,,,,,,,,,,,
dig,173,583255,0.0-55.0-3.0,"""event"",""trial"",""time""
""fullscreenenter"",""1"",""3908""
""blur"",""43"",""257943""
""focus"",""43"",""261417""
","""event"",""trial"",""time""
""blur"",""43"",""257943""
","""event"",""trial"",""time""
""focus"",""43"",""261417""
","""event"",""trial"",""time""
""fullscreenenter"",""1"",""3908""
","
",,,,,,,,,,,,"[{""stimulus"":""run_exp/static/images/task_images/dig.jpg"",""time"":0.3999999761581421},{""stimulus"":""run_exp/static/images/task_images/land.jpg"",""time"":688.2000000476837},{""stimulus"":""run_exp/static/images/task_images/dig.jpg"",""time"":1335.6000000238419}]",[],7,,,,,,,,,,,,,,
harvest,174,584265,0.0-55.0-4.0,"""event"",""trial"",""time""
""fullscreenenter"",""1"",""3908""
""blur"",""43"",""257943""
""focus"",""43"",""261417""
","""event"",""trial"",""time""
""blur"",""43"",""257943""
","""event"",""trial"",""time""
""focus"",""43"",""261417""
","""event"",""trial"",""time""
""fullscreenenter"",""1"",""3908""
","
",,null,run_exp/static/images/task_images/gems/100.jpg,null,,,,,,,73,,,7,,,,,100,0.728892856,0.73,,,,,,,
decision,175,584986,0.0-55.0-5.0,"""event"",""trial"",""time""
""fullscreenenter"",""1"",""3908""
""blur"",""43"",""257943""
""focus"",""43"",""261417""
","""event"",""trial"",""time""
""blur"",""43"",""257943""
","""event"",""trial"",""time""
""focus"",""43"",""261417""
","""event"",""trial"",""time""
""fullscreenenter"",""1"",""3908""
","
",,719.6999999,run_exp/static/images/task_images/land.jpg,65,,,,,,,73,,,7,,,,,,,,227387,1,0,FALSE,,,
dig,176,587275,0.0-56.0-0.0,"""event"",""trial"",""time""
""fullscreenenter"",""1"",""3908""
""blur"",""43"",""257943""
""focus"",""43"",""261417""
","""event"",""trial"",""time""
""blur"",""43"",""257943""
","""event"",""trial"",""time""
""focus"",""43"",""261417""
","""event"",""trial"",""time""
""fullscreenenter"",""1"",""3908""
","
",,,,,,,,,,,,"[{""stimulus"":""run_exp/static/images/task_images/dig.jpg"",""time"":0.5},{""stimulus"":""run_exp/static/images/task_images/land.jpg"",""time"":775.3999999761581},{""stimulus"":""run_exp/static/images/task_images/dig.jpg"",""time"":1525.2999999523163}]",[],7,,,,,,,,,,,,,,
harvest,177,588295,0.0-56.0-1.0,"""event"",""trial"",""time""
""fullscreenenter"",""1"",""3908""
""blur"",""43"",""257943""
""focus"",""43"",""261417""
","""event"",""trial"",""time""
""blur"",""43"",""257943""
","""event"",""trial"",""time""
""focus"",""43"",""261417""
","""event"",""trial"",""time""
""fullscreenenter"",""1"",""3908""
","
",,null,run_exp/static/images/task_images/gems/73.jpg,null,,,,,,,58,,,7,,,,,73,0.789558298,0.794520548,,,,,,,
decision,178,588359,0.0-56.0-2.0,"""event"",""trial"",""time""
""fullscreenenter"",""1"",""3908""
""blur"",""43"",""257943""
""focus"",""43"",""261417""
","""event"",""trial"",""time""
""blur"",""43"",""257943""
","""event"",""trial"",""time""
""focus"",""43"",""261417""
","""event"",""trial"",""time""
""fullscreenenter"",""1"",""3908""
","
",,62.89999998,run_exp/static/images/task_images/land.jpg,65,,,,,,,58,,,7,,,,,,,,230760,1,1,FALSE,,,
dig,179,591302,0.0-57.0-0.0,"""event"",""trial"",""time""
""fullscreenenter"",""1"",""3908""
""blur"",""43"",""257943""
""focus"",""43"",""261417""
","""event"",""trial"",""time""
""blur"",""43"",""257943""
","""event"",""trial"",""time""
""focus"",""43"",""261417""
","""event"",""trial"",""time""
""fullscreenenter"",""1"",""3908""
","
",,,,,,,,,,,,"[{""stimulus"":""run_exp/static/images/task_images/dig.jpg"",""time"":0.19999992847442627},{""stimulus"":""run_exp/static/images/task_images/land.jpg"",""time"":991.5},{""stimulus"":""run_exp/static/images/task_images/dig.jpg"",""time"":1962}]",[],7,,,,,,,,,,,,,,
harvest,180,592315,0.0-57.0-1.0,"""event"",""trial"",""time""
""fullscreenenter"",""1"",""3908""
""blur"",""43"",""257943""
""focus"",""43"",""261417""
","""event"",""trial"",""time""
""blur"",""43"",""257943""
","""event"",""trial"",""time""
""focus"",""43"",""261417""
","""event"",""trial"",""time""
""fullscreenenter"",""1"",""3908""
","
",,null,run_exp/static/images/task_images/gems/58.jpg,null,,,,,,,48,,,7,,,,,58,0.829457747,0.827586207,,,,,,,
decision,181,592366,0.0-57.0-2.0,"""event"",""trial"",""time""
""fullscreenenter"",""1"",""3908""
""blur"",""43"",""257943""
""focus"",""43"",""261417""
","""event"",""trial"",""time""
""blur"",""43"",""257943""
","""event"",""trial"",""time""
""focus"",""43"",""261417""
","""event"",""trial"",""time""
""fullscreenenter"",""1"",""3908""
","
",,50,run_exp/static/images/task_images/land.jpg,65,,,,,,,48,,,7,,,,,,,,234767,1,2,FALSE,,,
dig,182,595335,0.0-58.0-0.0,"""event"",""trial"",""time""
""fullscreenenter"",""1"",""3908""
""blur"",""43"",""257943""
""focus"",""43"",""261417""
","""event"",""trial"",""time""
""blur"",""43"",""257943""
","""event"",""trial"",""time""
""focus"",""43"",""261417""
","""event"",""trial"",""time""
""fullscreenenter"",""1"",""3908""
","
",,,,,,,,,,,,"[{""stimulus"":""run_exp/static/images/task_images/dig.jpg"",""time"":0.10000002384185791},{""stimulus"":""run_exp/static/images/task_images/land.jpg"",""time"":995.3000000715256},{""stimulus"":""run_exp/static/images/task_images/dig.jpg"",""time"":1970.6000000238419}]",[],7,,,,,,,,,,,,,,
harvest,183,596349,0.0-58.0-1.0,"""event"",""trial"",""time""
""fullscreenenter"",""1"",""3908""
""blur"",""43"",""257943""
""focus"",""43"",""261417""
","""event"",""trial"",""time""
""blur"",""43"",""257943""
","""event"",""trial"",""time""
""focus"",""43"",""261417""
","""event"",""trial"",""time""
""fullscreenenter"",""1"",""3908""
","
",,null,run_exp/static/images/task_images/gems/48.jpg,null,,,,,,,42,,,7,,,,,48,0.870557168,0.875,,,,,,,
decision,184,596985,0.0-58.0-2.0,"""event"",""trial"",""time""
""fullscreenenter"",""1"",""3908""
""blur"",""43"",""257943""
""focus"",""43"",""261417""
","""event"",""trial"",""time""
""blur"",""43"",""257943""
","""event"",""trial"",""time""
""focus"",""43"",""261417""
","""event"",""trial"",""time""
""fullscreenenter"",""1"",""3908""
","
",,634.8000001,run_exp/static/images/task_images/land.jpg,65,,,,,,,42,,,7,,,,,,,,239386,1,3,FALSE,,,
dig,185,599355,0.0-59.0-0.0,"""event"",""trial"",""time""
""fullscreenenter"",""1"",""3908""
""blur"",""43"",""257943""
""focus"",""43"",""261417""
","""event"",""trial"",""time""
""blur"",""43"",""257943""
","""event"",""trial"",""time""
""focus"",""43"",""261417""
","""event"",""trial"",""time""
""fullscreenenter"",""1"",""3908""
","
",,,,,,,,,,,,"[{""stimulus"":""run_exp/static/images/task_images/dig.jpg"",""time"":0.19999992847442627},{""stimulus"":""run_exp/static/images/task_images/land.jpg"",""time"":795.6999999284744},{""stimulus"":""run_exp/static/images/task_images/dig.jpg"",""time"":1596.3999999761581}]",[],7,,,,,,,,,,,,,,
harvest,186,600375,0.0-59.0-1.0,"""event"",""trial"",""time""
""fullscreenenter"",""1"",""3908""
