"trial_type","trial_index","time_elapsed","internal_node_id","interactions","blur_events","focus_events","fullscreenenter_events","fullscreenexit_events","success","rt","stimulus","key_press","prompt","subject_id","participant_id","age","gender","button_pressed","next_reward","animation_sequence","responses"
"pavlovia","0","7","0.0-0.0","""event"",""trial"",""time""
""fullscreenenter"",""1"",""3595""
","
","
","""event"",""trial"",""time""
""fullscreenenter"",""1"",""3595""
","
","","","","","","","","","","","","",""
"fullscreen","1","4585","0.0-1.0","""event"",""trial"",""time""
""fullscreenenter"",""1"",""3595""
","
","
","""event"",""trial"",""time""
""fullscreenenter"",""1"",""3595""
","
","true","","","","","","","","","","","",""
"instruc_welcome","2","14760","0.0-2.0","""event"",""trial"",""time""
""fullscreenenter"",""1"",""3595""
","
","
","""event"",""trial"",""time""
""fullscreenenter"",""1"",""3595""
","
","","null","run_exp/static/audio/clip_1_welcome.m4a","null","<p>Howdy! In this experiment, you’ll be an explorer traveling through space to collect space treasure.</p><p>Your mission is to collect as much treasure as possible.</p><br><br><p><img src='run_exp/static/images/task_images/opening_img-01.jpg' height='300' width='auto'></p>","9260","363","19","Female","","","",""
"audio-keyboard-response","3","31359","0.0-3.0","""event"",""trial"",""time""
""fullscreenenter"",""1"",""3595""
","
","
","""event"",""trial"",""time""
""fullscreenenter"",""1"",""3595""
","
","","null","run_exp/static/audio/clip_2_move.m4a","null","","","","","","","","",""
"welcome_dec","4","63698","0.0-4.0","""event"",""trial"",""time""
""fullscreenenter"",""1"",""3595""
","
","
","""event"",""trial"",""time""
""fullscreenenter"",""1"",""3595""
","
","","32335","<p>Howdy! In this experiment, you’ll be an explorer traveling through space to collect space treasure.</p><p>Your mission is to collect as much treasure as possible.</p><br><br><p><img src='run_exp/static/images/task_images/opening_img-01.jpg' height='300' width='auto'></p>","","","","","","","1","","",""
"html-keyboard-response","5","64776","0.0-5.0","""event"",""trial"",""time""
""fullscreenenter"",""1"",""3595""
","
","
","""event"",""trial"",""time""
""fullscreenenter"",""1"",""3595""
","
","","1073.1999998092651","<p>Howdy! In this experiment, you’ll be an explorer traveling through space to collect space treasure.</p><p>Your mission is to collect as much treasure as possible.</p><br><br><p><img src='run_exp/static/images/task_images/opening_img-01.jpg' height='300' width='auto'></p><button class=""jspsych-html-btn-unchosen""><img src=""run_exp/static/images/task_images/planet-01.jpg"" height=""50""></button><button class=""jspsych-html-btn-chosen""><img src=""run_exp/static/images/task_images/planet-02.jpg"" height=""50""></button><p><b>[press the space bar to lock in your answer]<b><br></p>","32","","","","","","","","",""
"instruc_goal","6","75110","0.0-6.0-0.0","""event"",""trial"",""time""
""fullscreenenter"",""1"",""3595""
","
","
","""event"",""trial"",""time""
""fullscreenenter"",""1"",""3595""
","
","","null","run_exp/static/audio/clip_3_goal.m4a","null","<p> As a space explorer, you’ll visit different planets to dig for space treasure, these pink gems.</p> <p> The more treasure you dig up, the more bonus money you’ll win! </p><br><br><p><img src='run_exp/static/images/task_images/pink_gem.jpg' height='300' width='auto'></p>","","","","","","","",""
"instruc_goal","7","77423","0.0-6.0-1.0","""event"",""trial"",""time""
""fullscreenenter"",""1"",""3595""
","
","
","""event"",""trial"",""time""
""fullscreenenter"",""1"",""3595""
","
","","2309.800000190735","<p> As a space explorer, you’ll visit different planets to dig for space treasure, these pink gems.</p> <p> The more treasure you dig up, the more bonus money you’ll win! </p><br><br><p><img src='run_exp/static/images/task_images/pink_gem.jpg' height='300' width='auto'></p>","","","","","","","1","","",""
"html-keyboard-response","8","77822","0.0-6.0-2.0","""event"",""trial"",""time""
""fullscreenenter"",""1"",""3595""
","
","
","""event"",""trial"",""time""
""fullscreenenter"",""1"",""3595""
","
","","397.39999985694885","<p> As a space explorer, you’ll visit different planets to dig for space treasure, these pink gems.</p> <p> The more treasure you dig up, the more bonus money you’ll win! </p><br><br><p><img src='run_exp/static/images/task_images/pink_gem.jpg' height='300' width='auto'></p><button class=""jspsych-html-btn-unchosen""><img src=""run_exp/static/images/task_images/planet-01.jpg"" height=""50""></button><button class=""jspsych-html-btn-chosen""><img src=""run_exp/static/images/task_images/planet-02.jpg"" height=""50""></button><p><b>[press the space bar to lock in your answer]<b><br></p>","32","","","","","","","","",""
"instruc_dig","9","93850","0.0-7.0-0.0","""event"",""trial"",""time""
""fullscreenenter"",""1"",""3595""
","
","
","""event"",""trial"",""time""
""fullscreenenter"",""1"",""3595""
","
","","null","run_exp/static/audio/clip_4_dig.m4a","null","","","","","","","100","",""
"instruc_dig_try","10","164567","0.0-7.0-1.0","""event"",""trial"",""time""
""fullscreenenter"",""1"",""3595""
""fullscreenexit"",""11"",""165273""
","
","
","""event"",""trial"",""time""
""fullscreenenter"",""1"",""3595""
","""event"",""trial"",""time""
""fullscreenexit"",""11"",""165273""
","","70713.70000004768","<p> When you’ve arrived at a new planet, you will dig once. </p> <p>Then, you get to decide if you want to stay on the planet and dig again or travel to a new planet and dig there.</p> <p> To stay and dig, press the letter <strong>‘A’</strong> on your keyboard. Try pressing it now! </p><p><img src='run_exp/static/images/task_images/land.jpg'  height='700' width='auto'></p>","65","<p> When you’ve arrived at a new planet, you will dig once. </p> <p>Then, you get to decide if you want to stay on the planet and dig again or travel to a new planet and dig there.</p> <p> To stay and dig, press the letter <strong>‘A’</strong> on your keyboard. Try pressing it now! </p><p><img src='run_exp/static/images/task_images/land.jpg'  height='700' width='auto'></p>","","","","","","100","",""
"dig_prac","11","166591","0.0-7.0-2.0","""event"",""trial"",""time""
""fullscreenenter"",""1"",""3595""
""fullscreenexit"",""11"",""165273""
""blur"",""12"",""204785""
""focus"",""12"",""208113""
","""event"",""trial"",""time""
""blur"",""12"",""204785""
","""event"",""trial"",""time""
""focus"",""12"",""208113""
","""event"",""trial"",""time""
""fullscreenenter"",""1"",""3595""
","""event"",""trial"",""time""
""fullscreenexit"",""11"",""165273""
","","","","","","","","","","","","[{""stimulus"":""run_exp/static/images/task_images/dig.jpg"",""time"":0.40000009536743164},{""stimulus"":""run_exp/static/images/task_images/land.jpg"",""time"":671.2000000476837},{""stimulus"":""run_exp/static/images/task_images/dig.jpg"",""time"":1339.4000000953674}]","[]"
