trial_type,trial_index,time_elapsed,internal_node_id,interactions,blur_events,focus_events,fullscreenenter_events,fullscreenexit_events,success,rt,stimulus,key_press,prompt,subject_id,participant_id,age,gender,button_pressed,next_reward,animation_sequence,responses,planet,curr_prac_trial,n_prac_rounds,alien,aliens,reward_received,decay_rate_actual,decay_rate_exp,time_in_block,block_num,prt,last_trial_on_planet,button_html,bonus,num_failures
pavlovia,0,4,0.0-0.0,"""event"",""trial"",""time""
""fullscreenenter"",""1"",""2703""
","
","
","""event"",""trial"",""time""
""fullscreenenter"",""1"",""2703""
","
",,,,,,,,,,,,,,,,,,,,,,,,,,,,
fullscreen,1,3694,0.0-1.0,"""event"",""trial"",""time""
""fullscreenenter"",""1"",""2703""
","
","
","""event"",""trial"",""time""
""fullscreenenter"",""1"",""2703""
","
",TRUE,,,,,,,,,,,,,,,,,,,,,,,,,,,
instruc_welcome,2,13432,0.0-2.0,"""event"",""trial"",""time""
""fullscreenenter"",""1"",""2703""
","
","
","""event"",""trial"",""time""
""fullscreenenter"",""1"",""2703""
","
",,null,run_exp/static/audio/clip_1_welcome.m4a,null,"<p>Howdy! In this experiment, you’ll be an explorer traveling through space to collect space treasure.</p><p>Your mission is to collect as much treasure as possible.</p><br><br><p><img src='run_exp/static/images/task_images/opening_img-01.jpg' height='300' width='auto'></p>",8304,3651,25.21,Female,,,,,,,,,,,,,,,,,,,
audio-keyboard-response,3,30013,0.0-3.0,"""event"",""trial"",""time""
""fullscreenenter"",""1"",""2703""
","
","
","""event"",""trial"",""time""
""fullscreenenter"",""1"",""2703""
","
",,null,run_exp/static/audio/clip_2_move.m4a,null,,,,,,,,,,,,,,,,,,,,,,,,
welcome_dec,4,34775,0.0-4.0,"""event"",""trial"",""time""
""fullscreenenter"",""1"",""2703""
","
","
","""event"",""trial"",""time""
""fullscreenenter"",""1"",""2703""
","
",,4758.8,"<p>Howdy! In this experiment, you’ll be an explorer traveling through space to collect space treasure.</p><p>Your mission is to collect as much treasure as possible.</p><br><br><p><img src='run_exp/static/images/task_images/opening_img-01.jpg' height='300' width='auto'></p>",,,,,,,1,,,,,,,,,,,,,,,,,,
html-keyboard-response,5,35810,0.0-5.0,"""event"",""trial"",""time""
""fullscreenenter"",""1"",""2703""
","
","
","""event"",""trial"",""time""
""fullscreenenter"",""1"",""2703""
","
",,1032.6,"<p>Howdy! In this experiment, you’ll be an explorer traveling through space to collect space treasure.</p><p>Your mission is to collect as much treasure as possible.</p><br><br><p><img src='run_exp/static/images/task_images/opening_img-01.jpg' height='300' width='auto'></p><button class=""jspsych-html-btn-unchosen""><img src=""run_exp/static/images/task_images/planet-01.jpg"" height=""50""></button><button class=""jspsych-html-btn-chosen""><img src=""run_exp/static/images/task_images/planet-02.jpg"" height=""50""></button><p><b>[press the space bar to lock in your answer]<b><br></p>",32,,,,,,,,,,,,,,,,,,,,,,,,
instruc_goal,6,45892,0.0-6.0-0.0,"""event"",""trial"",""time""
""fullscreenenter"",""1"",""2703""
","
","
","""event"",""trial"",""time""
""fullscreenenter"",""1"",""2703""
","
",,null,run_exp/static/audio/clip_3_goal.m4a,null,"<p> As a space explorer, you’ll visit different planets to dig for space treasure, these pink gems.</p> <p> The more treasure you dig up, the more bonus money you’ll win! </p><br><br><p><img src='run_exp/static/images/task_images/pink_gem.jpg' height='300' width='auto'></p>",,,,,,,,,,,,,,,,,,,,,,,
instruc_goal,7,46905,0.0-6.0-1.0,"""event"",""trial"",""time""
""fullscreenenter"",""1"",""2703""
","
","
","""event"",""trial"",""time""
""fullscreenenter"",""1"",""2703""
","
",,1010.6,"<p> As a space explorer, you’ll visit different planets to dig for space treasure, these pink gems.</p> <p> The more treasure you dig up, the more bonus money you’ll win! </p><br><br><p><img src='run_exp/static/images/task_images/pink_gem.jpg' height='300' width='auto'></p>",,,,,,,1,,,,,,,,,,,,,,,,,,
html-keyboard-response,8,47244,0.0-6.0-2.0,"""event"",""trial"",""time""
""fullscreenenter"",""1"",""2703""
","
","
","""event"",""trial"",""time""
""fullscreenenter"",""1"",""2703""
","
",,337,"<p> As a space explorer, you’ll visit different planets to dig for space treasure, these pink gems.</p> <p> The more treasure you dig up, the more bonus money you’ll win! </p><br><br><p><img src='run_exp/static/images/task_images/pink_gem.jpg' height='300' width='auto'></p><button class=""jspsych-html-btn-unchosen""><img src=""run_exp/static/images/task_images/planet-01.jpg"" height=""50""></button><button class=""jspsych-html-btn-chosen""><img src=""run_exp/static/images/task_images/planet-02.jpg"" height=""50""></button><p><b>[press the space bar to lock in your answer]<b><br></p>",32,,,,,,,,,,,,,,,,,,,,,,,,
instruc_dig,9,63253,0.0-7.0-0.0,"""event"",""trial"",""time""
""fullscreenenter"",""1"",""2703""
","
","
","""event"",""trial"",""time""
""fullscreenenter"",""1"",""2703""
","
",,null,run_exp/static/audio/clip_4_dig.m4a,null,,,,,,,100,,,,,,,,,,,,,,,,,
instruc_dig_try,10,64409,0.0-7.0-1.0,"""event"",""trial"",""time""
""fullscreenenter"",""1"",""2703""
","
","
","""event"",""trial"",""time""
""fullscreenenter"",""1"",""2703""
","
",,1153.7,"<p> When you’ve arrived at a new planet, you will dig once. </p> <p>Then, you get to decide if you want to stay on the planet and dig again or travel to a new planet and dig there.</p> <p> To stay and dig, press the letter <strong>‘A’</strong> on your keyboard. Try pressing it now! </p><p><img src='run_exp/static/images/task_images/land.jpg'  height='700' width='auto'></p>",65,"<p> When you’ve arrived at a new planet, you will dig once. </p> <p>Then, you get to decide if you want to stay on the planet and dig again or travel to a new planet and dig there.</p> <p> To stay and dig, press the letter <strong>‘A’</strong> on your keyboard. Try pressing it now! </p><p><img src='run_exp/static/images/task_images/land.jpg'  height='700' width='auto'></p>",,,,,,100,,,,,,,,,,,,,,,,,
dig_prac,11,66427,0.0-7.0-2.0,"""event"",""trial"",""time""
""fullscreenenter"",""1"",""2703""
","
","
","""event"",""trial"",""time""
""fullscreenenter"",""1"",""2703""
","
",,,,,,,,,,,,"[{""stimulus"":""run_exp/static/images/task_images/dig.jpg"",""time"":0.10000014305114746},{""stimulus"":""run_exp/static/images/task_images/land.jpg"",""time"":678.2999999523163},{""stimulus"":""run_exp/static/images/task_images/dig.jpg"",""time"":1348.9000000953674}]",[],,,,,,,,,,,,,,,
instruc_travel,12,102673,0.0-7.0-3.0,"""event"",""trial"",""time""
""fullscreenenter"",""1"",""2703""
","
","
","""event"",""trial"",""time""
""fullscreenenter"",""1"",""2703""
","
",,null,run_exp/static/audio/clip_5_travel.m4a,null,"<p>Every time you dig up gems, there are less gems on the planet, so the more you dig on a planet the fewer gems you’ll get with each dig.</p><p>When gems are running low, you may want to travel to a new planet. </p> <p>  Planets are very far apart in this galaxy, so it will take some time to travel between them. </p> <br><p>There are lots and lots of planets for you to visit, so you won’t be able to return to any planets you’ve seen before. </p><br><p>To leave this planet and travel to a new one, press the letter <strong>‘L’</strong> on your keyboard. Try pressing it now! </p><p><img src='run_exp/static/images/task_images/rocket-01.jpg'  height='600' width='auto'></p>",,,,,,,,,,,,,,,,,,,,,,,
instruc_travel_try,13,104492,0.0-7.0-4.0,"""event"",""trial"",""time""
""fullscreenenter"",""1"",""2703""
","
","
","""event"",""trial"",""time""
""fullscreenenter"",""1"",""2703""
","
",,1817.4,"<p>Every time you dig up gems, there are less gems on the planet, so the more you dig on a planet the fewer gems you’ll get with each dig.</p><p>When gems are running low, you may want to travel to a new planet. </p> <p>  Planets are very far apart in this galaxy, so it will take some time to travel between them. </p> <br><p>There are lots and lots of planets for you to visit, so you won’t be able to return to any planets you’ve seen before. </p><br><p>To leave this planet and travel to a new one, press the letter <strong>‘L’</strong> on your keyboard. Try pressing it now! </p><p><img src='run_exp/static/images/task_images/rocket-01.jpg'  height='600' width='auto'></p>",76,"<p>Every time you dig up gems, there are less gems on the planet, so the more you dig on a planet the fewer gems you’ll get with each dig.</p><p>When gems are running low, you may want to travel to a new planet. </p> <p>  Planets are very far apart in this galaxy, so it will take some time to travel between them. </p> <br><p>There are lots and lots of planets for you to visit, so you won’t be able to return to any planets you’ve seen before. </p><br><p>To leave this planet and travel to a new one, press the letter <strong>‘L’</strong> on your keyboard. Try pressing it now! </p><p><img src='run_exp/static/images/task_images/rocket-01.jpg'  height='600' width='auto'></p>",,,,,,,,,,,,,,,,,,,,,,,
travel_prac,14,114503,0.0-7.0-5.0,"""event"",""trial"",""time""
""fullscreenenter"",""1"",""2703""
","
","
","""event"",""trial"",""time""
""fullscreenenter"",""1"",""2703""
","
",,,,,,,,,,,,"[{""stimulus"":""run_exp/static/images/task_images/rocket-01.jpg"",""time"":0.2999999523162842},{""stimulus"":""run_exp/static/images/task_images/rocket-02.jpg"",""time"":1128.2000000476837},{""stimulus"":""run_exp/static/images/task_images/rocket-03.jpg"",""time"":2238.2999999523163},{""stimulus"":""run_exp/static/images/task_images/rocket-04.jpg"",""time"":3348.5999999046326},{""stimulus"":""run_exp/static/images/task_images/rocket-05.jpg"",""time"":4456.299999952316},{""stimulus"":""run_exp/static/images/task_images/rocket-06.jpg"",""time"":5564.700000047684},{""stimulus"":""run_exp/static/images/task_images/rocket-07.jpg"",""time"":6674.099999904633},{""stimulus"":""run_exp/static/images/task_images/rocket-08.jpg"",""time"":7790.400000095367},{""stimulus"":""run_exp/static/images/task_images/rocket-09.jpg"",""time"":8900.900000095367}]",[],0,,,,,,,,,,,,,,
instruc_alien_greet,15,141693,0.0-7.0-6.0,"""event"",""trial"",""time""
""fullscreenenter"",""1"",""2703""
","
","
","""event"",""trial"",""time""
""fullscreenenter"",""1"",""2703""
","
",,null,run_exp/static/audio/clip_6_alien.m4a,null,"<p>When you arrive at a new planet, the alien who owns the treasure mine on that planet will greet you!</p><p>The better an alien takes care of their mine the easier it is to dig for gems. Some aliens take better care of their mine than others. So, you won’t get exactly the same amount of gems on each planet.</p><p>What the alien looks like does not tell you anything about how many gems there are on the planet.</p><br><p><img src=""run_exp/static/images/task_images/aliens/instructions_aliens/planet/alien_planet-1.jpg""  height=""600"" width=""auto""></p>",,,,,,,,,,,,,,,,,,,,,,,
instruc_alien_greet,16,147676,0.0-7.0-7.0,"""event"",""trial"",""time""
""fullscreenenter"",""1"",""2703""
","
","
","""event"",""trial"",""time""
""fullscreenenter"",""1"",""2703""
","
",,5979.8,"<p>When you arrive at a new planet, the alien who owns the treasure mine on that planet will greet you!</p><p>The better an alien takes care of their mine the easier it is to dig for gems. Some aliens take better care of their mine than others. So, you won’t get exactly the same amount of gems on each planet.</p><p>What the alien looks like does not tell you anything about how many gems there are on the planet.</p><br><p><img src=""run_exp/static/images/task_images/aliens/instructions_aliens/planet/alien_planet-1.jpg""  height=""600"" width=""auto""></p>",,,,,,,1,,,,,,,,,,,,,,,,,,
html-keyboard-response,17,148609,0.0-7.0-8.0,"""event"",""trial"",""time""
""fullscreenenter"",""1"",""2703""
","
","
","""event"",""trial"",""time""
""fullscreenenter"",""1"",""2703""
","
",,931.9000001,"<p>When you arrive at a new planet, the alien who owns the treasure mine on that planet will greet you!</p><p>The better an alien takes care of their mine the easier it is to dig for gems. Some aliens take better care of their mine than others. So, you won’t get exactly the same amount of gems on each planet.</p><p>What the alien looks like does not tell you anything about how many gems there are on the planet.</p><br><p><img src=""run_exp/static/images/task_images/aliens/instructions_aliens/planet/alien_planet-1.jpg""  height=""600"" width=""auto""></p><button class=""jspsych-html-btn-unchosen""><img src=""run_exp/static/images/task_images/planet-01.jpg"" height=""50""></button><button class=""jspsych-html-btn-chosen""><img src=""run_exp/static/images/task_images/planet-02.jpg"" height=""50""></button><p><b>[press the space bar to lock in your answer]<b><br></p>",32,,,,,,,,,,,,,,,,,,,,,,,,
time_out,18,159693,0.0-8.0-0.0,"""event"",""trial"",""time""
""fullscreenenter"",""1"",""2703""
","
","
","""event"",""trial"",""time""
""fullscreenenter"",""1"",""2703""
","
",,null,run_exp/static/audio/clip_7_timeout.m4a,null,"<p>If you don't make your choice fast enough, you’ll have to wait a few seconds before you can make another one.</p><p>You can’t dig for more gems or travel to new planets. You just have to sit and wait.</p><br><p><img src='run_exp/static/images/task_images/time_out.jpg'  height='600' width='auto'></p>",,,,,,,,,,,,,,,,,,,,,,,
time_out,19,161290,0.0-8.0-1.0,"""event"",""trial"",""time""
""fullscreenenter"",""1"",""2703""
","
","
","""event"",""trial"",""time""
""fullscreenenter"",""1"",""2703""
","
",,1594.7,"<p>If you don't make your choice fast enough, you’ll have to wait a few seconds before you can make another one.</p><p>You can’t dig for more gems or travel to new planets. You just have to sit and wait.</p><br><p><img src='run_exp/static/images/task_images/time_out.jpg'  height='600' width='auto'></p>",,,,,,,1,,,,,,,,,,,,,,,,,,
html-keyboard-response,20,161481,0.0-8.0-2.0,"""event"",""trial"",""time""
""fullscreenenter"",""1"",""2703""
","
","
","""event"",""trial"",""time""
""fullscreenenter"",""1"",""2703""
","
",,188.9000001,"<p>If you don't make your choice fast enough, you’ll have to wait a few seconds before you can make another one.</p><p>You can’t dig for more gems or travel to new planets. You just have to sit and wait.</p><br><p><img src='run_exp/static/images/task_images/time_out.jpg'  height='600' width='auto'></p><button class=""jspsych-html-btn-unchosen""><img src=""run_exp/static/images/task_images/planet-01.jpg"" height=""50""></button><button class=""jspsych-html-btn-chosen""><img src=""run_exp/static/images/task_images/planet-02.jpg"" height=""50""></button><p><b>[press the space bar to lock in your answer]<b><br></p>",32,,,,,,,,,,,,,,,,,,,,,,,,
instruc_break,21,177151,0.0-9.0-0.0,"""event"",""trial"",""time""
""fullscreenenter"",""1"",""2703""
","
","
","""event"",""trial"",""time""
""fullscreenenter"",""1"",""2703""
","
",,null,run_exp/static/audio/clip_8_break.m4a,null,"<p> After digging and traveling for a while, you’ll be able to take a break at home base. </p><p>The game will last 20 minutes no matter what.</p><p>You will visit home base every 5 minutes, so, you will visit home base three times during the game.</p><br><p><img src='run_exp/static/images/task_images/home_base.jpg' height='600' width='auto'></p>",,,,,,,,,,,,,,,,,,,,,,,
instruc_break,22,178171,0.0-9.0-1.0,"""event"",""trial"",""time""
""fullscreenenter"",""1"",""2703""
","
","
","""event"",""trial"",""time""
""fullscreenenter"",""1"",""2703""
","
",,1016.2,"<p> After digging and traveling for a while, you’ll be able to take a break at home base. </p><p>The game will last 20 minutes no matter what.</p><p>You will visit home base every 5 minutes, so, you will visit home base three times during the game.</p><br><p><img src='run_exp/static/images/task_images/home_base.jpg' height='600' width='auto'></p>",,,,,,,1,,,,,,,,,,,,,,,,,,
html-keyboard-response,23,178554,0.0-9.0-2.0,"""event"",""trial"",""time""
""fullscreenenter"",""1"",""2703""
","
","
","""event"",""trial"",""time""
""fullscreenenter"",""1"",""2703""
","
",,381,"<p> After digging and traveling for a while, you’ll be able to take a break at home base. </p><p>The game will last 20 minutes no matter what.</p><p>You will visit home base every 5 minutes, so, you will visit home base three times during the game.</p><br><p><img src='run_exp/static/images/task_images/home_base.jpg' height='600' width='auto'></p><button class=""jspsych-html-btn-unchosen""><img src=""run_exp/static/images/task_images/planet-01.jpg"" height=""50""></button><button class=""jspsych-html-btn-chosen""><img src=""run_exp/static/images/task_images/planet-02.jpg"" height=""50""></button><p><b>[press the space bar to lock in your answer]<b><br></p>",32,,,,,,,,,,,,,,,,,,,,,,,,
instruc_prac_game,24,188692,0.0-10.0-0.0,"""event"",""trial"",""time""
""fullscreenenter"",""1"",""2703""
","
","
","""event"",""trial"",""time""
""fullscreenenter"",""1"",""2703""
","
",,null,run_exp/static/audio/clip_9_practice.m4a,null,"<p> Are you ready to play a practice game? </p> <p>In this practice game, you'll be digging up barrels of gems. But, in the real game, you'll be digging up the gems themselves. </p>",,,,,,,,,,,,,,,,,,,,,,,
html-button-response,25,190245,0.0-10.0-1.0,"""event"",""trial"",""time""
""fullscreenenter"",""1"",""2703""
","
","
","""event"",""trial"",""time""
""fullscreenenter"",""1"",""2703""
","
",,1551,"<p> Are you ready to play a practice game? </p> <p>In this practice game, you'll be digging up barrels of gems. But, in the real game, you'll be digging up the gems themselves. </p>",,,,,,,0,,,,,,,,,,,,,,,,,,
alien_welcome_prac,26,195256,0.0-11.0-0.0,"""event"",""trial"",""time""
""fullscreenenter"",""1"",""2703""
","
","
","""event"",""trial"",""time""
""fullscreenenter"",""1"",""2703""
","
",,null,run_exp/static/images/task_images/aliens/practice_aliens/planet/alien_planet-5.jpg,null,,,,,,,,,,,,,,,,,,,,,,,,
land_prac,27,195760,0.0-11.0-1.0,"""event"",""trial"",""time""
""fullscreenenter"",""1"",""2703""
","
","
","""event"",""trial"",""time""
""fullscreenenter"",""1"",""2703""
","
",,null,run_exp/static/images/task_images/land.jpg,null,,,,,,,107,,,0,,,,,,,,,,,,,,
dig_prac,28,197767,0.0-11.0-2.0,"""event"",""trial"",""time""
""fullscreenenter"",""1"",""2703""
","
","
","""event"",""trial"",""time""
""fullscreenenter"",""1"",""2703""
","
",,,,,,,,,,,,"[{""stimulus"":""run_exp/static/images/task_images/dig.jpg"",""time"":0.10000014305114746},{""stimulus"":""run_exp/static/images/task_images/land.jpg"",""time"":671.2000000476837},{""stimulus"":""run_exp/static/images/task_images/dig.jpg"",""time"":1345.7999999523163}]",[],,,,,,,,,,,,,,,
harvest_prac,29,198784,0.0-11.0-3.0,"""event"",""trial"",""time""
""fullscreenenter"",""1"",""2703""
","
","
","""event"",""trial"",""time""
""fullscreenenter"",""1"",""2703""
","
",,null,run_exp/static/images/task_images/barrel_text.jpg,null,,,,,,,,,,,,,,,,,,,,,,,,
decision_prac,30,199681,0.0-11.0-4.0,"""event"",""trial"",""time""
""fullscreenenter"",""1"",""2703""
","
","
","""event"",""trial"",""time""
""fullscreenenter"",""1"",""2703""
","
",,895.3,run_exp/static/images/task_images/land.jpg,65,,,,,,,,,,,1,,,,,,,,,,,,,
dig_prac,31,201687,0.0-12.0-0.0,"""event"",""trial"",""time""
""fullscreenenter"",""1"",""2703""
","
","
","""event"",""trial"",""time""
""fullscreenenter"",""1"",""2703""
","
",,,,,,,,,,,,"[{""stimulus"":""run_exp/static/images/task_images/dig.jpg"",""time"":0.20000004768371582},{""stimulus"":""run_exp/static/images/task_images/land.jpg"",""time"":683.9000000953674},{""stimulus"":""run_exp/static/images/task_images/dig.jpg"",""time"":1346}]",[],,,,,,,,,,,,,,,
harvest_prac,32,202689,0.0-12.0-1.0,"""event"",""trial"",""time""
""fullscreenenter"",""1"",""2703""
","
","
","""event"",""trial"",""time""
""fullscreenenter"",""1"",""2703""
","
",,null,run_exp/static/images/task_images/barrel_text.jpg,null,,,,,,,,,,,,,,,,,,,,,,,,
decision_prac,33,203053,0.0-12.0-2.0,"""event"",""trial"",""time""
""fullscreenenter"",""1"",""2703""
","
","
","""event"",""trial"",""time""
""fullscreenenter"",""1"",""2703""
","
",,361.9000001,run_exp/static/images/task_images/land.jpg,65,,,,,,,,,,,2,,,,,,,,,,,,,
dig_prac,34,205060,0.0-13.0-0.0,"""event"",""trial"",""time""
""fullscreenenter"",""1"",""2703""
","
","
","""event"",""trial"",""time""
""fullscreenenter"",""1"",""2703""
","
",,,,,,,,,,,,"[{""stimulus"":""run_exp/static/images/task_images/dig.jpg"",""time"":0.2999999523162842},{""stimulus"":""run_exp/static/images/task_images/land.jpg"",""time"":683.2000000476837},{""stimulus"":""run_exp/static/images/task_images/dig.jpg"",""time"":1348.5}]",[],,,,,,,,,,,,,,,
harvest_prac,35,206071,0.0-13.0-1.0,"""event"",""trial"",""time""
""fullscreenenter"",""1"",""2703""
","
","
","""event"",""trial"",""time""
""fullscreenenter"",""1"",""2703""
","
",,null,run_exp/static/images/task_images/barrel_text.jpg,null,,,,,,,,,,,,,,,,,,,,,,,,
decision_prac,36,208044,0.0-13.0-2.0,"""event"",""trial"",""time""
""fullscreenenter"",""1"",""2703""
","
","
","""event"",""trial"",""time""
""fullscreenenter"",""1"",""2703""
","
",,1972.2,run_exp/static/images/task_images/land.jpg,65,,,,,,,,,,,3,,,,,,,,,,,,,
dig_prac,37,210064,0.0-14.0-0.0,"""event"",""trial"",""time""
""fullscreenenter"",""1"",""2703""
","
","
","""event"",""trial"",""time""
""fullscreenenter"",""1"",""2703""
","
",,,,,,,,,,,,"[{""stimulus"":""run_exp/static/images/task_images/dig.jpg"",""time"":0.40000009536743164},{""stimulus"":""run_exp/static/images/task_images/land.jpg"",""time"":674.4000000953674},{""stimulus"":""run_exp/static/images/task_images/dig.jpg"",""time"":1335.9000000953674}]",[],,,,,,,,,,,,,,,
harvest_prac,38,211072,0.0-14.0-1.0,"""event"",""trial"",""time""
""fullscreenenter"",""1"",""2703""
","
","
","""event"",""trial"",""time""
""fullscreenenter"",""1"",""2703""
","
",,null,run_exp/static/images/task_images/barrel_text.jpg,null,,,,,,,,,,,,,,,,,,,,,,,,
decision_prac,39,211752,0.0-14.0-2.0,"""event"",""trial"",""time""
""fullscreenenter"",""1"",""2703""
","
","
","""event"",""trial"",""time""
""fullscreenenter"",""1"",""2703""
","
",,678.7,run_exp/static/images/task_images/land.jpg,65,,,,,,,,,,,4,,,,,,,,,,,,,
dig_prac,40,213755,0.0-15.0-0.0,"""event"",""trial"",""time""
""fullscreenenter"",""1"",""2703""
","
","
","""event"",""trial"",""time""
""fullscreenenter"",""1"",""2703""
","
",,,,,,,,,,,,"[{""stimulus"":""run_exp/static/images/task_images/dig.jpg"",""time"":0.20000004768371582},{""stimulus"":""run_exp/static/images/task_images/land.jpg"",""time"":682.4000000953674},{""stimulus"":""run_exp/static/images/task_images/dig.jpg"",""time"":1341.5}]",[],,,,,,,,,,,,,,,
harvest_prac,41,214773,0.0-15.0-1.0,"""event"",""trial"",""time""
""fullscreenenter"",""1"",""2703""
","
","
","""event"",""trial"",""time""
""fullscreenenter"",""1"",""2703""
","
",,null,run_exp/static/images/task_images/barrel_text.jpg,null,,,,,,,,,,,,,,,,,,,,,,,,
decision_prac,42,215058,0.0-15.0-2.0,"""event"",""trial"",""time""
""fullscreenenter"",""1"",""2703""
","
","
","""event"",""trial"",""time""
""fullscreenenter"",""1"",""2703""
","
",,283.6000001,run_exp/static/images/task_images/land.jpg,65,,,,,,,,,,,,1,,,,,,,,,,,,
quiz_instruc,43,220346,0.0-16.0-0.0,"""event"",""trial"",""time""
""fullscreenenter"",""1"",""2703""
","
","
","""event"",""trial"",""time""
""fullscreenenter"",""1"",""2703""
","
",,5283.6,run_exp/static/audio/clip_10_quiz.m4a,,,,,,,0,,,,,,,,,,,,,,,,,,
instruc_repeat,44,263131,0.0-16.0-1.0,"""event"",""trial"",""time""
""fullscreenenter"",""1"",""2703""
","
","
","""event"",""trial"",""time""
""fullscreenenter"",""1"",""2703""
","
",,null,"<p> Are you ready to play a practice game? </p> <p>In this practice game, you'll be digging up barrels of gems. But, in the real game, you'll be digging up the gems themselves. </p>",null,"<p>In this game, your goal is to collect as many gems as you can. That’s how you will win bonus money. </p> <p>The entire game will last 20 minutes no matter how many gems you collect or how many planets you visit. </p><p>To stay on a planet and dig again, press the letter A on your keyboard. To leave for a new planet, press the letter L.</p><p>The more you dig on a planet, the fewer gems you’ll get with each dig which is why you might consider leaving for a new planet. </p><p>When you arrive at a new planet, you’ll be greeted by an alien. What the alien looks like does not tell you anything about how much treasure is on the planet. </p>",,,,,,,,,,,,,,,,,,,,,,,
instruc_repeat_continue,45,265591,0.0-16.0-2.0,"""event"",""trial"",""time""
""fullscreenenter"",""1"",""2703""
","
","
","""event"",""trial"",""time""
""fullscreenenter"",""1"",""2703""
","
",,2458.1,"<p> Are you ready to play a practice game? </p> <p>In this practice game, you'll be digging up barrels of gems. But, in the real game, you'll be digging up the gems themselves. </p>",,,,,,,0,,,,,,,,,,,,,,,,,,
quiz_q_1_ask,46,268836,0.0-16.0-3.0,"""event"",""trial"",""time""
""fullscreenenter"",""1"",""2703""
","
","
","""event"",""trial"",""time""
""fullscreenenter"",""1"",""2703""
","
",,3243.4,run_exp/static/audio/clip_11_q1_ask.m4a,,,,,,,2,,,,,,,,,,,,,,,,,,
quiz_q_1_fb_correct,47,272690,0.0-17.0-0.0,"""event"",""trial"",""time""
""fullscreenenter"",""1"",""2703""
","
","
","""event"",""trial"",""time""
""fullscreenenter"",""1"",""2703""
","
",,null,run_exp/static/audio/clip_12_q1_correct.m4a,null,<p>That’s correct. You win extra money by collecting more gems.</p>,,,,,,,,,,,,,,,,,,,,,,,
quiz_q_2_ask,48,274959,0.0-17.0-1.0,"""event"",""trial"",""time""
""fullscreenenter"",""1"",""2703""
","
","
","""event"",""trial"",""time""
""fullscreenenter"",""1"",""2703""
","
",,2266.7,run_exp/static/audio/clip_14_q2_ask.m4a,,,,,,,1,,,,,,,,,,,,,,,,,,
quiz_q_2_fb_correct,49,278990,0.0-18.0-0.0,"""event"",""trial"",""time""
""fullscreenenter"",""1"",""2703""
","
","
","""event"",""trial"",""time""
""fullscreenenter"",""1"",""2703""
","
",,null,run_exp/static/audio/clip_15_q2_correct.m4a,null,<p>That’s correct. The experiment is 20 minutes no matter what.</p>,,,,,,,,,,,,,,,,,,,,,,,
quiz_q_3_ask,50,281131,0.0-18.0-1.0,"""event"",""trial"",""time""
""fullscreenenter"",""1"",""2703""
","
","
","""event"",""trial"",""time""
""fullscreenenter"",""1"",""2703""
","
",,2139.2,run_exp/static/audio/clip_17_q3_ask.m4a,,,,,,,1,,,,,,,,,,,,,,,,,,
quiz_q_3_fb_correct,51,285130,0.0-19.0-0.0,"""event"",""trial"",""time""
""fullscreenenter"",""1"",""2703""
","
","
","""event"",""trial"",""time""
""fullscreenenter"",""1"",""2703""
","
",,null,run_exp/static/audio/clip_18_q3_correct.m4a,null,<p> That’s correct. You press the letter L to travel to a new planet.</p>,,,,,,,,,,,,,,,,,,,,,,,
quiz_q_4_ask,52,286978,0.0-19.0-1.0,"""event"",""trial"",""time""
""fullscreenenter"",""1"",""2703""
","
","
","""event"",""trial"",""time""
""fullscreenenter"",""1"",""2703""
","
",,1846.2,run_exp/static/audio/clip_20_q4_ask.m4a,,,,,,,0,,,,,,,,,,,,,,,,,,
quiz_q_4_fb_correct,53,292310,0.0-20.0-0.0,"""event"",""trial"",""time""
""fullscreenenter"",""1"",""2703""
","
","
","""event"",""trial"",""time""
""fullscreenenter"",""1"",""2703""
","
",,null,run_exp/static/audio/clip_21_q4_correct.m4a,null,<p> That’s correct. The more you dig on a planet the fewer gems you’ll get with each dig. </p>,,,,,,,,,,,,,,,,,,,,,,,
quiz_q_5_ask,54,294057,0.0-20.0-1.0,"""event"",""trial"",""time""
""fullscreenenter"",""1"",""2703""
","
","
","""event"",""trial"",""time""
""fullscreenenter"",""1"",""2703""
","
",,1744.6,run_exp/static/audio/clip_23_q5_ask.m4a,,,,,,,1,,,,,,,,,,,,,,,,,,
quiz_q_5_fb_correct,55,299070,0.0-21.0-0.0,"""event"",""trial"",""time""
""fullscreenenter"",""1"",""2703""
","
","
","""event"",""trial"",""time""
""fullscreenenter"",""1"",""2703""
","
",,null,run_exp/static/audio/clip_24_q5_correct.m4a,null,<p> That’s correct. The alien tells you nothing about how much treasure is on the planet.</p>,,,,,,,,,,,,,,,,,,,,,,,
quiz_correct,56,302530,0.0-22.0-0.0,"""event"",""trial"",""time""
""fullscreenenter"",""1"",""2703""
","
","
","""event"",""trial"",""time""
""fullscreenenter"",""1"",""2703""
","
",,null,run_exp/static/audio/clip_26_correct_quiz.m4a,null,,,,,,,,,,,,,,,,,,,,,,,,
quiz_correct_continue,57,304923,0.0-22.0-1.0,"""event"",""trial"",""time""
""fullscreenenter"",""1"",""2703""
","
","
","""event"",""trial"",""time""
""fullscreenenter"",""1"",""2703""
","
",,2391.1,<p>Good job! You're now ready to move on to the real game!</p>,,,,,,,0,,,,,,,,,,,,,,,,,,
audio-keyboard-response,58,315050,0.0-22.0-2.0,"""event"",""trial"",""time""
""fullscreenenter"",""1"",""2703""
","
","
","""event"",""trial"",""time""
""fullscreenenter"",""1"",""2703""
","
",,null,run_exp/static/audio/clip_28_real_game.m4a,null,,,,,,,,,,,,,,,,,,,,,,,,
instruc_begin_exp_contine,59,315908,0.0-22.0-3.0,"""event"",""trial"",""time""
""fullscreenenter"",""1"",""2703""
","
","
","""event"",""trial"",""time""
""fullscreenenter"",""1"",""2703""
","
",,855.8999999,"<p>Now that you know how  to dig for space treasure and travel to new planets,you can start exploring! </p><p>Do you want to go over the instructions again or get started with the real game?</p>",,,,,,,1,,,,,,1,,,,,,,,,,,,
alien_welcome,60,320914,0.0-23.0-0.0,"""event"",""trial"",""time""
""fullscreenenter"",""1"",""2703""
","
","
","""event"",""trial"",""time""
""fullscreenenter"",""1"",""2703""
","
",,null,run_exp/static/images/task_images/aliens/old_aliens/planet/alien_planet-73.jpg,null,,,,,,,,,,,,,73,"73,30,46,69,70,76,78,75,16,25,55,50,79,77,35,34,6,3,20,42,18,9,45,10,5,8,26,11,47,43,38",,,,,,,,,,
land,61,321418,0.0-23.0-1.0,"""event"",""trial"",""time""
""fullscreenenter"",""1"",""2703""
","
","
","""event"",""trial"",""time""
""fullscreenenter"",""1"",""2703""
","
",,null,run_exp/static/images/task_images/land.jpg,null,,,,,,,103,,,1,,,,,,,,,,,,,,
dig,62,323435,0.0-23.0-2.0,"""event"",""trial"",""time""
""fullscreenenter"",""1"",""2703""
","
","
","""event"",""trial"",""time""
""fullscreenenter"",""1"",""2703""
","
",,,,,,,,,,,,"[{""stimulus"":""run_exp/static/images/task_images/dig.jpg"",""time"":0.2999999523162842},{""stimulus"":""run_exp/static/images/task_images/land.jpg"",""time"":671.5999999046326},{""stimulus"":""run_exp/static/images/task_images/dig.jpg"",""time"":1338.2999999523163}]",[],1,,,,,,,,,,,,,,
harvest,63,324450,0.0-23.0-3.0,"""event"",""trial"",""time""
""fullscreenenter"",""1"",""2703""
","
","
","""event"",""trial"",""time""
""fullscreenenter"",""1"",""2703""
","
",,null,run_exp/static/images/task_images/gems/103.jpg,null,,,,,,,21,,,1,,,,,103,0.206880648,0.203883495,,,,,,,
decision,64,324986,0.0-23.0-4.0,"""event"",""trial"",""time""
""fullscreenenter"",""1"",""2703""
","
","
","""event"",""trial"",""time""
""fullscreenenter"",""1"",""2703""
","
",,534,run_exp/static/images/task_images/land.jpg,65,,,,,,,21,,,1,,,,,,,,9077,1,0,FALSE,,,
dig,65,327464,0.0-24.0-0.0,"""event"",""trial"",""time""
""fullscreenenter"",""1"",""2703""
","
","
","""event"",""trial"",""time""
""fullscreenenter"",""1"",""2703""
","
",,,,,,,,,,,,"[{""stimulus"":""run_exp/static/images/task_images/dig.jpg"",""time"":0.40000009536743164},{""stimulus"":""run_exp/static/images/task_images/land.jpg"",""time"":828.2000000476837},{""stimulus"":""run_exp/static/images/task_images/dig.jpg"",""time"":1659}]",[],1,,,,,,,,,,,,,,
harvest,66,328476,0.0-24.0-1.0,"""event"",""trial"",""time""
""fullscreenenter"",""1"",""2703""
","
","
","""event"",""trial"",""time""
""fullscreenenter"",""1"",""2703""
","
",,null,run_exp/static/images/task_images/gems/21.jpg,null,,,,,,,5,,,1,,,,,21,0.25624258,0.238095238,,,,,,,
decision,67,328486,0.0-24.0-2.0,"""event"",""trial"",""time""
""fullscreenenter"",""1"",""2703""
","
","
","""event"",""trial"",""time""
""fullscreenenter"",""1"",""2703""
","
",,8.599999905,run_exp/static/images/task_images/land.jpg,65,,,,,,,5,,,1,,,,,,,,12576,1,1,FALSE,,,
dig,68,331484,0.0-25.0-0.0,"""event"",""trial"",""time""
""fullscreenenter"",""1"",""2703""
","
","
","""event"",""trial"",""time""
""fullscreenenter"",""1"",""2703""
","
",,,,,,,,,,,,"[{""stimulus"":""run_exp/static/images/task_images/dig.jpg"",""time"":0.2999999523162842},{""stimulus"":""run_exp/static/images/task_images/land.jpg"",""time"":1006.2999999523163},{""stimulus"":""run_exp/static/images/task_images/dig.jpg"",""time"":1996.7999999523163}]",[],1,,,,,,,,,,,,,,
harvest,69,332497,0.0-25.0-1.0,"""event"",""trial"",""time""
""fullscreenenter"",""1"",""2703""
","
","
","""event"",""trial"",""time""
""fullscreenenter"",""1"",""2703""
","
",,null,run_exp/static/images/task_images/gems/5.jpg,null,,,,,,,1,,,1,,,,,5,0.156157738,0.2,,,,,,,
decision,70,333918,0.0-25.0-2.0,"""event"",""trial"",""time""
""fullscreenenter"",""1"",""2703""
","
","
","""event"",""trial"",""time""
""fullscreenenter"",""1"",""2703""
","
",,1418.9,run_exp/static/images/task_images/land.jpg,76,,,,,,,1,,,1,,,,,,,,18008,1,2,TRUE,,,
travel,71,342504,0.0-26.0-0.0,"""event"",""trial"",""time""
""fullscreenenter"",""1"",""2703""
","
","
","""event"",""trial"",""time""
""fullscreenenter"",""1"",""2703""
","
",,,,,,,,,,,,"[{""stimulus"":""run_exp/static/images/task_images/rocket-01.jpg"",""time"":0.2999999523162842},{""stimulus"":""run_exp/static/images/task_images/rocket-02.jpg"",""time"":960.5999999046326},{""stimulus"":""run_exp/static/images/task_images/rocket-03.jpg"",""time"":1916.7000000476837},{""stimulus"":""run_exp/static/images/task_images/rocket-04.jpg"",""time"":2869.0999999046326},{""stimulus"":""run_exp/static/images/task_images/rocket-05.jpg"",""time"":3813.2999999523163},{""stimulus"":""run_exp/static/images/task_images/rocket-06.jpg"",""time"":4781.700000047684},{""stimulus"":""run_exp/static/images/task_images/rocket-07.jpg"",""time"":5724.099999904633},{""stimulus"":""run_exp/static/images/task_images/rocket-08.jpg"",""time"":6674.5},{""stimulus"":""run_exp/static/images/task_images/rocket-09.jpg"",""time"":7640.900000095367}]",[],1,,,,,,,,,,,,,,
alien_welcome,72,347508,0.0-26.0-1.0,"""event"",""trial"",""time""
""fullscreenenter"",""1"",""2703""
","
","
","""event"",""trial"",""time""
""fullscreenenter"",""1"",""2703""
","
",,null,run_exp/static/images/task_images/aliens/old_aliens/planet/alien_planet-30.jpg,null,,,,,,,,,,,,,30,"73,30,46,69,70,76,78,75,16,25,55,50,79,77,35,34,6,3,20,42,18,9,45,10,5,8,26,11,47,43,38",,,,,,,,,,
land,73,348026,0.0-26.0-2.0,"""event"",""trial"",""time""
""fullscreenenter"",""1"",""2703""
","
","
","""event"",""trial"",""time""
""fullscreenenter"",""1"",""2703""
","
",,null,run_exp/static/images/task_images/land.jpg,null,,,,,,,102,,,2,,,,,,,,,,,,,,
dig,74,350032,0.0-26.0-3.0,"""event"",""trial"",""time""
""fullscreenenter"",""1"",""2703""
","
","
","""event"",""trial"",""time""
""fullscreenenter"",""1"",""2703""
","
",,,,,,,,,,,,"[{""stimulus"":""run_exp/static/images/task_images/dig.jpg"",""time"":0.2999999523162842},{""stimulus"":""run_exp/static/images/task_images/land.jpg"",""time"":672.7999999523163},{""stimulus"":""run_exp/static/images/task_images/dig.jpg"",""time"":1342.7999999523163}]",[],2,,,,,,,,,,,,,,
harvest,75,351040,0.0-26.0-4.0,"""event"",""trial"",""time""
""fullscreenenter"",""1"",""2703""
","
","
","""event"",""trial"",""time""
""fullscreenenter"",""1"",""2703""
","
",,null,run_exp/static/images/task_images/gems/102.jpg,null,,,,,,,9,,,2,,,,,102,0.086755645,0.088235294,,,,,,,
decision,76,351620,0.0-26.0-5.0,"""event"",""trial"",""time""
""fullscreenenter"",""1"",""2703""
","
","
","""event"",""trial"",""time""
""fullscreenenter"",""1"",""2703""
","
",,578.1000001,run_exp/static/images/task_images/land.jpg,65,,,,,,,9,,,2,,,,,,,,35710,1,0,FALSE,,,
dig,77,354050,0.0-27.0-0.0,"""event"",""trial"",""time""
""fullscreenenter"",""1"",""2703""
","
","
","""event"",""trial"",""time""
""fullscreenenter"",""1"",""2703""
","
",,,,,,,,,,,,"[{""stimulus"":""run_exp/static/images/task_images/dig.jpg"",""time"":0.2999999523162842},{""stimulus"":""run_exp/static/images/task_images/land.jpg"",""time"":818.2999999523163},{""stimulus"":""run_exp/static/images/task_images/dig.jpg"",""time"":1618.2999999523163}]",[],2,,,,,,,,,,,,,,
harvest,78,355059,0.0-27.0-1.0,"""event"",""trial"",""time""
""fullscreenenter"",""1"",""2703""
","
","
","""event"",""trial"",""time""
""fullscreenenter"",""1"",""2703""
","
",,null,run_exp/static/images/task_images/gems/9.jpg,null,,,,,,,1,,,2,,,,,9,0.152267062,0.111111111,,,,,,,
decision,79,355150,0.0-27.0-2.0,"""event"",""trial"",""time""
""fullscreenenter"",""1"",""2703""
","
","
","""event"",""trial"",""time""
""fullscreenenter"",""1"",""2703""
","
",,90.0999999,run_exp/static/images/task_images/land.jpg,76,,,,,,,1,,,2,,,,,,,,39241,1,1,TRUE,,,
travel,80,365066,0.0-28.0-0.0,"""event"",""trial"",""time""
""fullscreenenter"",""1"",""2703""
","
","
","""event"",""trial"",""time""
""fullscreenenter"",""1"",""2703""
","
",,,,,,,,,,,,"[{""stimulus"":""run_exp/static/images/task_images/rocket-01.jpg"",""time"":0.20000004768371582},{""stimulus"":""run_exp/static/images/task_images/rocket-02.jpg"",""time"":1106.5999999046326},{""stimulus"":""run_exp/static/images/task_images/rocket-03.jpg"",""time"":2212.7999999523163},{""stimulus"":""run_exp/static/images/task_images/rocket-04.jpg"",""time"":3308.0999999046326},{""stimulus"":""run_exp/static/images/task_images/rocket-05.jpg"",""time"":4416.5},{""stimulus"":""run_exp/static/images/task_images/rocket-06.jpg"",""time"":5508.899999856949},{""stimulus"":""run_exp/static/images/task_images/rocket-07.jpg"",""time"":6618.599999904633},{""stimulus"":""run_exp/static/images/task_images/rocket-08.jpg"",""time"":7714.899999856949},{""stimulus"":""run_exp/static/images/task_images/rocket-09.jpg"",""time"":8818.5}]",[],2,,,,,,,,,,,,,,
alien_welcome,81,370070,0.0-28.0-1.0,"""event"",""trial"",""time""
""fullscreenenter"",""1"",""2703""
","
","
","""event"",""trial"",""time""
""fullscreenenter"",""1"",""2703""
","
",,null,run_exp/static/images/task_images/aliens/old_aliens/planet/alien_planet-46.jpg,null,,,,,,,,,,,,,46,"73,30,46,69,70,76,78,75,16,25,55,50,79,77,35,34,6,3,20,42,18,9,45,10,5,8,26,11,47,43,38",,,,,,,,,,
land,82,370574,0.0-28.0-2.0,"""event"",""trial"",""time""
""fullscreenenter"",""1"",""2703""
","
","
","""event"",""trial"",""time""
""fullscreenenter"",""1"",""2703""
","
",,null,run_exp/static/images/task_images/land.jpg,null,,,,,,,103,,,3,,,,,,,,,,,,,,
dig,83,372592,0.0-28.0-3.0,"""event"",""trial"",""time""
""fullscreenenter"",""1"",""2703""
","
","
","""event"",""trial"",""time""
""fullscreenenter"",""1"",""2703""
","
",,,,,,,,,,,,"[{""stimulus"":""run_exp/static/images/task_images/dig.jpg"",""time"":0.2999999523162842},{""stimulus"":""run_exp/static/images/task_images/land.jpg"",""time"":684.6999998092651},{""stimulus"":""run_exp/static/images/task_images/dig.jpg"",""time"":1336.5}]",[],3,,,,,,,,,,,,,,
harvest,84,373600,0.0-28.0-4.0,"""event"",""trial"",""time""
""fullscreenenter"",""1"",""2703""
","
","
","""event"",""trial"",""time""
""fullscreenenter"",""1"",""2703""
","
",,null,run_exp/static/images/task_images/gems/103.jpg,null,,,,,,,53,,,3,,,,,103,0.516292103,0.514563107,,,,,,,
decision,85,373704,0.0-28.0-5.0,"""event"",""trial"",""time""
""fullscreenenter"",""1"",""2703""
","
","
","""event"",""trial"",""time""
""fullscreenenter"",""1"",""2703""
","
",,102.9000001,run_exp/static/images/task_images/land.jpg,65,,,,,,,53,,,3,,,,,,,,57794,1,0,FALSE,,,
dig,86,376616,0.0-29.0-0.0,"""event"",""trial"",""time""
""fullscreenenter"",""1"",""2703""
","
","
","""event"",""trial"",""time""
""fullscreenenter"",""1"",""2703""
","
",,,,,,,,,,,,"[{""stimulus"":""run_exp/static/images/task_images/dig.jpg"",""time"":0.20000004768371582},{""stimulus"":""run_exp/static/images/task_images/land.jpg"",""time"":980.7999999523163},{""stimulus"":""run_exp/static/images/task_images/dig.jpg"",""time"":1942.9000000953674}]",[],3,,,,,,,,,,,,,,
harvest,87,377622,0.0-29.0-1.0,"""event"",""trial"",""time""
""fullscreenenter"",""1"",""2703""
","
","
","""event"",""trial"",""time""
""fullscreenenter"",""1"",""2703""
","
",,null,run_exp/static/images/task_images/gems/53.jpg,null,,,,,,,25,,,3,,,,,53,0.476901888,0.471698113,,,,,,,
decision,88,378265,0.0-29.0-2.0,"""event"",""trial"",""time""
""fullscreenenter"",""1"",""2703""
","
","
","""event"",""trial"",""time""
""fullscreenenter"",""1"",""2703""
","
",,642.2,run_exp/static/images/task_images/land.jpg,65,,,,,,,25,,,3,,,,,,,,62355,1,1,FALSE,,,
dig,89,380624,0.0-30.0-0.0,"""event"",""trial"",""time""
""fullscreenenter"",""1"",""2703""
","
","
","""event"",""trial"",""time""
""fullscreenenter"",""1"",""2703""
","
",,,,,,,,,,,,"[{""stimulus"":""run_exp/static/images/task_images/dig.jpg"",""time"":0.20000004768371582},{""stimulus"":""run_exp/static/images/task_images/land.jpg"",""time"":786.4000000953674},{""stimulus"":""run_exp/static/images/task_images/dig.jpg"",""time"":1576.8000001907349}]",[],3,,,,,,,,,,,,,,
harvest,90,381632,0.0-30.0-1.0,"""event"",""trial"",""time""
""fullscreenenter"",""1"",""2703""
","
","
","""event"",""trial"",""time""
""fullscreenenter"",""1"",""2703""
","
",,null,run_exp/static/images/task_images/gems/25.jpg,null,,,,,,,12,,,3,,,,,25,0.497066434,0.48,,,,,,,
decision,91,381666,0.0-30.0-2.0,"""event"",""trial"",""time""
""fullscreenenter"",""1"",""2703""
","
","
","""event"",""trial"",""time""
""fullscreenenter"",""1"",""2703""
","
",,33,run_exp/static/images/task_images/land.jpg,65,,,,,,,12,,,3,,,,,,,,65756,1,2,FALSE,,,
dig,92,384651,0.0-31.0-0.0,"""event"",""trial"",""time""
""fullscreenenter"",""1"",""2703""
","
","
","""event"",""trial"",""time""
""fullscreenenter"",""1"",""2703""
","
",,,,,,,,,,,,"[{""stimulus"":""run_exp/static/images/task_images/dig.jpg"",""time"":0.2999999523162842},{""stimulus"":""run_exp/static/images/task_images/land.jpg"",""time"":1004},{""stimulus"":""run_exp/static/images/task_images/dig.jpg"",""time"":1986.6999998092651}]",[],3,,,,,,,,,,,,,,
harvest,93,385658,0.0-31.0-1.0,"""event"",""trial"",""time""
""fullscreenenter"",""1"",""2703""
","
","
","""event"",""trial"",""time""
""fullscreenenter"",""1"",""2703""
","
",,null,run_exp/static/images/task_images/gems/12.jpg,null,,,,,,,6,,,3,,,,,12,0.528913387,0.5,,,,,,,
decision,94,385759,0.0-31.0-2.0,"""event"",""trial"",""time""
""fullscreenenter"",""1"",""2703""
","
","
","""event"",""trial"",""time""
""fullscreenenter"",""1"",""2703""
","
",,99.20000005,run_exp/static/images/task_images/land.jpg,65,,,,,,,6,,,3,,,,,,,,69849,1,3,FALSE,,,
dig,95,388672,0.0-32.0-0.0,"""event"",""trial"",""time""
""fullscreenenter"",""1"",""2703""
","
","
","""event"",""trial"",""time""
""fullscreenenter"",""1"",""2703""
","
",,,,,,,,,,,,"[{""stimulus"":""run_exp/static/images/task_images/dig.jpg"",""time"":0.2999999523162842},{""stimulus"":""run_exp/static/images/task_images/land.jpg"",""time"":978.3999998569489},{""stimulus"":""run_exp/static/images/task_images/dig.jpg"",""time"":1945.2000000476837}]",[],3,,,,,,,,,,,,,,
harvest,96,389689,0.0-32.0-1.0,"""event"",""trial"",""time""
""fullscreenenter"",""1"",""2703""
","
","
","""event"",""trial"",""time""
""fullscreenenter"",""1"",""2703""
","
",,null,run_exp/static/images/task_images/gems/6.jpg,null,,,,,,,3,,,3,,,,,6,0.497316383,0.5,,,,,,,
decision,97,390352,0.0-32.0-2.0,"""event"",""trial"",""time""
""fullscreenenter"",""1"",""2703""
","
","
","""event"",""trial"",""time""
""fullscreenenter"",""1"",""2703""
","
",,661.8000002,run_exp/static/images/task_images/land.jpg,76,,,,,,,3,,,3,,,,,,,,74442,1,4,TRUE,,,
travel,98,399695,0.0-33.0-0.0,"""event"",""trial"",""time""
""fullscreenenter"",""1"",""2703""
","
","
","""event"",""trial"",""time""
""fullscreenenter"",""1"",""2703""
","
",,,,,,,,,,,,"[{""stimulus"":""run_exp/static/images/task_images/rocket-01.jpg"",""time"":0.39999985694885254},{""stimulus"":""run_exp/static/images/task_images/rocket-02.jpg"",""time"":1049.5},{""stimulus"":""run_exp/static/images/task_images/rocket-03.jpg"",""time"":2083.899999856949},{""stimulus"":""run_exp/static/images/task_images/rocket-04.jpg"",""time"":3115.7999999523163},{""stimulus"":""run_exp/static/images/task_images/rocket-05.jpg"",""time"":4163.799999952316},{""stimulus"":""run_exp/static/images/task_images/rocket-06.jpg"",""time"":5186.399999856949},{""stimulus"":""run_exp/static/images/task_images/rocket-07.jpg"",""time"":6233.599999904633},{""stimulus"":""run_exp/static/images/task_images/rocket-08.jpg"",""time"":7267},{""stimulus"":""run_exp/static/images/task_images/rocket-09.jpg"",""time"":8303.299999952316}]",[],3,,,,,,,,,,,,,,
alien_welcome,99,404702,0.0-33.0-1.0,"""event"",""trial"",""time""
""fullscreenenter"",""1"",""2703""
","
","
","""event"",""trial"",""time""
""fullscreenenter"",""1"",""2703""
","
",,null,run_exp/static/images/task_images/aliens/old_aliens/planet/alien_planet-69.jpg,null,,,,,,,,,,,,,69,"73,30,46,69,70,76,78,75,16,25,55,50,79,77,35,34,6,3,20,42,18,9,45,10,5,8,26,11,47,43,38",,,,,,,,,,
land,100,405213,0.0-33.0-2.0,"""event"",""trial"",""time""
""fullscreenenter"",""1"",""2703""
","
","
","""event"",""trial"",""time""
""fullscreenenter"",""1"",""2703""
","
",,null,run_exp/static/images/task_images/land.jpg,null,,,,,,,99,,,4,,,,,,,,,,,,,,
dig,101,407225,0.0-33.0-3.0,"""event"",""trial"",""time""
""fullscreenenter"",""1"",""2703""
","
","
","""event"",""trial"",""time""
""fullscreenenter"",""1"",""2703""
","
",,,,,,,,,,,,"[{""stimulus"":""run_exp/static/images/task_images/dig.jpg"",""time"":0.3000001907348633},{""stimulus"":""run_exp/static/images/task_images/land.jpg"",""time"":669.6000001430511},{""stimulus"":""run_exp/static/images/task_images/dig.jpg"",""time"":1347.9000000953674}]",[],4,,,,,,,,,,,,,,
harvest,102,408239,0.0-33.0-4.0,"""event"",""trial"",""time""
""fullscreenenter"",""1"",""2703""
","
","
","""event"",""trial"",""time""
""fullscreenenter"",""1"",""2703""
","
",,null,run_exp/static/images/task_images/gems/99.jpg,null,,,,,,,47,,,4,,,,,99,0.470488326,0.474747475,,,,,,,
decision,103,408711,0.0-33.0-5.0,"""event"",""trial"",""time""
""fullscreenenter"",""1"",""2703""
","
","
","""event"",""trial"",""time""
""fullscreenenter"",""1"",""2703""
","
",,469.9000001,run_exp/static/images/task_images/land.jpg,65,,,,,,,47,,,4,,,,,,,,92801,1,0,FALSE,,,
dig,104,411255,0.0-34.0-0.0,"""event"",""trial"",""time""
""fullscreenenter"",""1"",""2703""
","
","
","""event"",""trial"",""time""
""fullscreenenter"",""1"",""2703""
","
",,,,,,,,,,,,"[{""stimulus"":""run_exp/static/images/task_images/dig.jpg"",""time"":0.2999999523162842},{""stimulus"":""run_exp/static/images/task_images/land.jpg"",""time"":855.5},{""stimulus"":""run_exp/static/images/task_images/dig.jpg"",""time"":1690.5999999046326}]",[],4,,,,,,,,,,,,,,
harvest,105,412256,0.0-34.0-1.0,"""event"",""trial"",""time""
""fullscreenenter"",""1"",""2703""
","
","
","""event"",""trial"",""time""
""fullscreenenter"",""1"",""2703""
","
",,null,run_exp/static/images/task_images/gems/47.jpg,null,,,,,,,24,,,4,,,,,47,0.518733276,0.510638298,,,,,,,
decision,106,412683,0.0-34.0-2.0,"""event"",""trial"",""time""
""fullscreenenter"",""1"",""2703""
","
","
","""event"",""trial"",""time""
""fullscreenenter"",""1"",""2703""
","
",,425.0999999,run_exp/static/images/task_images/land.jpg,65,,,,,,,24,,,4,,,,,,,,96773,1,1,FALSE,,,
dig,107,415273,0.0-35.0-0.0,"""event"",""trial"",""time""
""fullscreenenter"",""1"",""2703""
","
","
","""event"",""trial"",""time""
""fullscreenenter"",""1"",""2703""
","
",,,,,,,,,,,,"[{""stimulus"":""run_exp/static/images/task_images/dig.jpg"",""time"":0.20000004768371582},{""stimulus"":""run_exp/static/images/task_images/land.jpg"",""time"":862.5},{""stimulus"":""run_exp/static/images/task_images/dig.jpg"",""time"":1730.3999998569489}]",[],4,,,,,,,,,,,,,,
harvest,108,416284,0.0-35.0-1.0,"""event"",""trial"",""time""
""fullscreenenter"",""1"",""2703""
","
","
","""event"",""trial"",""time""
""fullscreenenter"",""1"",""2703""
","
",,null,run_exp/static/images/task_images/gems/24.jpg,null,,,,,,,12,,,4,,,,,24,0.480184314,0.5,,,,,,,
decision,109,416860,0.0-35.0-2.0,"""event"",""trial"",""time""
""fullscreenenter"",""1"",""2703""
","
","
","""event"",""trial"",""time""
""fullscreenenter"",""1"",""2703""
","
",,574.5999999,run_exp/static/images/task_images/land.jpg,65,,,,,,,12,,,4,,,,,,,,100950,1,2,FALSE,,,
dig,110,419298,0.0-36.0-0.0,"""event"",""trial"",""time""
""fullscreenenter"",""1"",""2703""
","
","
","""event"",""trial"",""time""
""fullscreenenter"",""1"",""2703""
","
",,,,,,,,,,,,"[{""stimulus"":""run_exp/static/images/task_images/dig.jpg"",""time"":0.09999990463256836},{""stimulus"":""run_exp/static/images/task_images/land.jpg"",""time"":813.5999999046326},{""stimulus"":""run_exp/static/images/task_images/dig.jpg"",""time"":1623.0999999046326}]",[],4,,,,,,,,,,,,,,
harvest,111,420302,0.0-36.0-1.0,"""event"",""trial"",""time""
""fullscreenenter"",""1"",""2703""
","
","
","""event"",""trial"",""time""
""fullscreenenter"",""1"",""2703""
","
",,null,run_exp/static/images/task_images/gems/12.jpg,null,,,,,,,6,,,4,,,,,12,0.530577593,0.5,,,,,,,
decision,112,420344,0.0-36.0-2.0,"""event"",""trial"",""time""
""fullscreenenter"",""1"",""2703""
","
","
","""event"",""trial"",""time""
""fullscreenenter"",""1"",""2703""
","
",,41.5,run_exp/static/images/task_images/land.jpg,65,,,,,,,6,,,4,,,,,,,,104434,1,3,FALSE,,,
dig,113,423305,0.0-37.0-0.0,"""event"",""trial"",""time""
""fullscreenenter"",""1"",""2703""
","
","
","""event"",""trial"",""time""
""fullscreenenter"",""1"",""2703""
","
",,,,,,,,,,,,"[{""stimulus"":""run_exp/static/images/task_images/dig.jpg"",""time"":0.09999990463256836},{""stimulus"":""run_exp/static/images/task_images/land.jpg"",""time"":995.5999999046326},{""stimulus"":""run_exp/static/images/task_images/dig.jpg"",""time"":1973.5999999046326}]",[],4,,,,,,,,,,,,,,
harvest,114,424312,0.0-37.0-1.0,"""event"",""trial"",""time""
""fullscreenenter"",""1"",""2703""
","
","
","""event"",""trial"",""time""
""fullscreenenter"",""1"",""2703""
","
",,null,run_exp/static/images/task_images/gems/6.jpg,null,,,,,,,2,,,4,,,,,6,0.400325066,0.333333333,,,,,,,
decision,115,424680,0.0-37.0-2.0,"""event"",""trial"",""time""
""fullscreenenter"",""1"",""2703""
","
","
","""event"",""trial"",""time""
""fullscreenenter"",""1"",""2703""
","
",,366,run_exp/static/images/task_images/land.jpg,76,,,,,,,2,,,4,,,,,,,,108770,1,4,TRUE,,,
travel,116,434316,0.0-38.0-0.0,"""event"",""trial"",""time""
""fullscreenenter"",""1"",""2703""
","
","
","""event"",""trial"",""time""
""fullscreenenter"",""1"",""2703""
","
",,,,,,,,,,,,"[{""stimulus"":""run_exp/static/images/task_images/rocket-01.jpg"",""time"":0.2999999523162842},{""stimulus"":""run_exp/static/images/task_images/rocket-02.jpg"",""time"":1083.3999998569489},{""stimulus"":""run_exp/static/images/task_images/rocket-03.jpg"",""time"":2145.2999999523163},{""stimulus"":""run_exp/static/images/task_images/rocket-04.jpg"",""time"":3219.199999809265},{""stimulus"":""run_exp/static/images/task_images/rocket-05.jpg"",""time"":4287.299999952316},{""stimulus"":""run_exp/static/images/task_images/rocket-06.jpg"",""time"":5355.099999904633},{""stimulus"":""run_exp/static/images/task_images/rocket-07.jpg"",""time"":6434.699999809265},{""stimulus"":""run_exp/static/images/task_images/rocket-08.jpg"",""time"":7497.699999809265},{""stimulus"":""run_exp/static/images/task_images/rocket-09.jpg"",""time"":8575.599999904633}]",[],4,,,,,,,,,,,,,,
alien_welcome,117,439332,0.0-38.0-1.0,"""event"",""trial"",""time""
""fullscreenenter"",""1"",""2703""
","
","
","""event"",""trial"",""time""
""fullscreenenter"",""1"",""2703""
","
",,null,run_exp/static/images/task_images/aliens/old_aliens/planet/alien_planet-70.jpg,null,,,,,,,,,,,,,70,"73,30,46,69,70,76,78,75,16,25,55,50,79,77,35,34,6,3,20,42,18,9,45,10,5,8,26,11,47,43,38",,,,,,,,,,
land,118,439839,0.0-38.0-2.0,"""event"",""trial"",""time""
""fullscreenenter"",""1"",""2703""
","
","
","""event"",""trial"",""time""
""fullscreenenter"",""1"",""2703""
","
",,null,run_exp/static/images/task_images/land.jpg,null,,,,,,,99,,,5,,,,,,,,,,,,,,
dig,119,441843,0.0-38.0-3.0,"""event"",""trial"",""time""
""fullscreenenter"",""1"",""2703""
","
","
","""event"",""trial"",""time""
""fullscreenenter"",""1"",""2703""
","
",,,,,,,,,,,,"[{""stimulus"":""run_exp/static/images/task_images/dig.jpg"",""time"":0.2999999523162842},{""stimulus"":""run_exp/static/images/task_images/land.jpg"",""time"":678},{""stimulus"":""run_exp/static/images/task_images/dig.jpg"",""time"":1340.5}]",[],5,,,,,,,,,,,,,,
harvest,120,442855,0.0-38.0-4.0,"""event"",""trial"",""time""
""fullscreenenter"",""1"",""2703""
","
","
","""event"",""trial"",""time""
""fullscreenenter"",""1"",""2703""
","
",,null,run_exp/static/images/task_images/gems/99.jpg,null,,,,,,,49,,,5,,,,,99,0.495011737,0.494949495,,,,,,,
decision,121,443252,0.0-38.0-5.0,"""event"",""trial"",""time""
""fullscreenenter"",""1"",""2703""
","
","
","""event"",""trial"",""time""
""fullscreenenter"",""1"",""2703""
","
",,396.4000001,run_exp/static/images/task_images/land.jpg,65,,,,,,,49,,,5,,,,,,,,127343,1,0,FALSE,,,
dig,122,445862,0.0-39.0-0.0,"""event"",""trial"",""time""
""fullscreenenter"",""1"",""2703""
","
","
","""event"",""trial"",""time""
""fullscreenenter"",""1"",""2703""
","
",,,,,,,,,,,,"[{""stimulus"":""run_exp/static/images/task_images/dig.jpg"",""time"":0.2999999523162842},{""stimulus"":""run_exp/static/images/task_images/land.jpg"",""time"":877.0999999046326},{""stimulus"":""run_exp/static/images/task_images/dig.jpg"",""time"":1746.5999999046326}]",[],5,,,,,,,,,,,,,,
harvest,123,446866,0.0-39.0-1.0,"""event"",""trial"",""time""
""fullscreenenter"",""1"",""2703""
","
","
","""event"",""trial"",""time""
""fullscreenenter"",""1"",""2703""
","
",,null,run_exp/static/images/task_images/gems/49.jpg,null,,,,,,,25,,,5,,,,,49,0.519501776,0.510204082,,,,,,,
decision,124,447174,0.0-39.0-2.0,"""event"",""trial"",""time""
""fullscreenenter"",""1"",""2703""
","
","
","""event"",""trial"",""time""
""fullscreenenter"",""1"",""2703""
","
",,306.1000001,run_exp/static/images/task_images/land.jpg,65,,,,,,,25,,,5,,,,,,,,131264,1,1,FALSE,,,
dig,125,449872,0.0-40.0-0.0,"""event"",""trial"",""time""
""fullscreenenter"",""1"",""2703""
","
","
","""event"",""trial"",""time""
""fullscreenenter"",""1"",""2703""
","
",,,,,,,,,,,,"[{""stimulus"":""run_exp/static/images/task_images/dig.jpg"",""time"":0.19999980926513672},{""stimulus"":""run_exp/static/images/task_images/land.jpg"",""time"":908.0999999046326},{""stimulus"":""run_exp/static/images/task_images/dig.jpg"",""time"":1803.0999999046326}]",[],5,,,,,,,,,,,,,,
harvest,126,450886,0.0-40.0-1.0,"""event"",""trial"",""time""
""fullscreenenter"",""1"",""2703""
","
","
","""event"",""trial"",""time""
""fullscreenenter"",""1"",""2703""
","
",,null,run_exp/static/images/task_images/gems/25.jpg,null,,,,,,,11,,,5,,,,,25,0.442834546,0.44,,,,,,,
decision,127,451308,0.0-40.0-2.0,"""event"",""trial"",""time""
""fullscreenenter"",""1"",""2703""
","
","
","""event"",""trial"",""time""
""fullscreenenter"",""1"",""2703""
","
",,420.7,run_exp/static/images/task_images/land.jpg,65,,,,,,,11,,,5,,,,,,,,135398,1,2,FALSE,,,
dig,128,453892,0.0-41.0-0.0,"""event"",""trial"",""time""
""fullscreenenter"",""1"",""2703""
","
","
","""event"",""trial"",""time""
""fullscreenenter"",""1"",""2703""
","
",,,,,,,,,,,,"[{""stimulus"":""run_exp/static/images/task_images/dig.jpg"",""time"":0.2999999523162842},{""stimulus"":""run_exp/static/images/task_images/land.jpg"",""time"":874.5},{""stimulus"":""run_exp/static/images/task_images/dig.jpg"",""time"":1720.2000000476837}]",[],5,,,,,,,,,,,,,,
harvest,129,454906,0.0-41.0-1.0,"""event"",""trial"",""time""
""fullscreenenter"",""1"",""2703""
","
","
","""event"",""trial"",""time""
""fullscreenenter"",""1"",""2703""
","
",,null,run_exp/static/images/task_images/gems/11.jpg,null,,,,,,,6,,,5,,,,,11,0.559499509,0.545454545,,,,,,,
decision,130,455025,0.0-41.0-2.0,"""event"",""trial"",""time""
""fullscreenenter"",""1"",""2703""
","
","
","""event"",""trial"",""time""
""fullscreenenter"",""1"",""2703""
","
",,117.6000001,run_exp/static/images/task_images/land.jpg,65,,,,,,,6,,,5,,,,,,,,139115,1,3,FALSE,,,
dig,131,457916,0.0-42.0-0.0,"""event"",""trial"",""time""
""fullscreenenter"",""1"",""2703""
","
","
","""event"",""trial"",""time""
""fullscreenenter"",""1"",""2703""
","
",,,,,,,,,,,,"[{""stimulus"":""run_exp/static/images/task_images/dig.jpg"",""time"":0.20000004768371582},{""stimulus"":""run_exp/static/images/task_images/land.jpg"",""time"":974.2000000476837},{""stimulus"":""run_exp/static/images/task_images/dig.jpg"",""time"":1922}]",[],5,,,,,,,,,,,,,,
harvest,132,458931,0.0-42.0-1.0,"""event"",""trial"",""time""
""fullscreenenter"",""1"",""2703""
","
","
","""event"",""trial"",""time""
""fullscreenenter"",""1"",""2703""
","
",,null,run_exp/static/images/task_images/gems/6.jpg,null,,,,,,,3,,,5,,,,,6,0.579865218,0.5,,,,,,,
decision,133,459151,0.0-42.0-2.0,"""event"",""trial"",""time""
""fullscreenenter"",""1"",""2703""
","
","
","""event"",""trial"",""time""
""fullscreenenter"",""1"",""2703""
","
",,217.9000001,run_exp/static/images/task_images/land.jpg,76,,,,,,,3,,,5,,,,,,,,143241,1,4,TRUE,,,
travel,134,468936,0.0-43.0-0.0,"""event"",""trial"",""time""
""fullscreenenter"",""1"",""2703""
","
","
","""event"",""trial"",""time""
""fullscreenenter"",""1"",""2703""
","
",,,,,,,,,,,,"[{""stimulus"":""run_exp/static/images/task_images/rocket-01.jpg"",""time"":0.20000004768371582},{""stimulus"":""run_exp/static/images/task_images/rocket-02.jpg"",""time"":1087.7000000476837},{""stimulus"":""run_exp/static/images/task_images/rocket-03.jpg"",""time"":2182.100000143051},{""stimulus"":""run_exp/static/images/task_images/rocket-04.jpg"",""time"":3260.5},{""stimulus"":""run_exp/static/images/task_images/rocket-05.jpg"",""time"":4356.200000047684},{""stimulus"":""run_exp/static/images/task_images/rocket-06.jpg"",""time"":5443.600000143051},{""stimulus"":""run_exp/static/images/task_images/rocket-07.jpg"",""time"":6526.100000143051},{""stimulus"":""run_exp/static/images/task_images/rocket-08.jpg"",""time"":7618.600000143051},{""stimulus"":""run_exp/static/images/task_images/rocket-09.jpg"",""time"":8697.900000095367}]",[],5,,,,,,,,,,,,,,
alien_welcome,135,473946,0.0-43.0-1.0,"""event"",""trial"",""time""
""fullscreenenter"",""1"",""2703""
","
","
","""event"",""trial"",""time""
""fullscreenenter"",""1"",""2703""
","
",,null,run_exp/static/images/task_images/aliens/old_aliens/planet/alien_planet-76.jpg,null,,,,,,,,,,,,,76,"73,30,46,69,70,76,78,75,16,25,55,50,79,77,35,34,6,3,20,42,18,9,45,10,5,8,26,11,47,43,38",,,,,,,,,,
land,136,474455,0.0-43.0-2.0,"""event"",""trial"",""time""
""fullscreenenter"",""1"",""2703""
","
","
","""event"",""trial"",""time""
""fullscreenenter"",""1"",""2703""
","
",,null,run_exp/static/images/task_images/land.jpg,null,,,,,,,96,,,6,,,,,,,,,,,,,,
dig,137,476466,0.0-43.0-3.0,"""event"",""trial"",""time""
""fullscreenenter"",""1"",""2703""
","
","
","""event"",""trial"",""time""
""fullscreenenter"",""1"",""2703""
","
",,,,,,,,,,,,"[{""stimulus"":""run_exp/static/images/task_images/dig.jpg"",""time"":0.10000014305114746},{""stimulus"":""run_exp/static/images/task_images/land.jpg"",""time"":674.6000001430511},{""stimulus"":""run_exp/static/images/task_images/dig.jpg"",""time"":1349.7000000476837}]",[],6,,,,,,,,,,,,,,
harvest,138,477482,0.0-43.0-4.0,"""event"",""trial"",""time""
""fullscreenenter"",""1"",""2703""
","
","
","""event"",""trial"",""time""
""fullscreenenter"",""1"",""2703""
","
",,null,run_exp/static/images/task_images/gems/96.jpg,null,,,,,,,73,,,6,,,,,96,0.762097941,0.760416667,,,,,,,
decision,139,477911,0.0-43.0-5.0,"""event"",""trial"",""time""
""fullscreenenter"",""1"",""2703""
","
","
","""event"",""trial"",""time""
""fullscreenenter"",""1"",""2703""
","
",,427.0999999,run_exp/static/images/task_images/land.jpg,65,,,,,,,73,,,6,,,,,,,,162001,1,0,FALSE,,,
dig,140,480495,0.0-44.0-0.0,"""event"",""trial"",""time""
""fullscreenenter"",""1"",""2703""
","
","
","""event"",""trial"",""time""
""fullscreenenter"",""1"",""2703""
","
",,,,,,,,,,,,"[{""stimulus"":""run_exp/static/images/task_images/dig.jpg"",""time"":0.20000004768371582},{""stimulus"":""run_exp/static/images/task_images/land.jpg"",""time"":865.5999999046326},{""stimulus"":""run_exp/static/images/task_images/dig.jpg"",""time"":1719.7000000476837}]",[],6,,,,,,,,,,,,,,
harvest,141,481510,0.0-44.0-1.0,"""event"",""trial"",""time""
""fullscreenenter"",""1"",""2703""
","
","
","""event"",""trial"",""time""
""fullscreenenter"",""1"",""2703""
","
",,null,run_exp/static/images/task_images/gems/73.jpg,null,,,,,,,61,,,6,,,,,73,0.833640677,0.835616438,,,,,,,
decision,142,481831,0.0-44.0-2.0,"""event"",""trial"",""time""
""fullscreenenter"",""1"",""2703""
","
","
","""event"",""trial"",""time""
""fullscreenenter"",""1"",""2703""
","
",,319.8,run_exp/static/images/task_images/land.jpg,65,,,,,,,61,,,6,,,,,,,,165921,1,1,FALSE,,,
dig,143,484530,0.0-45.0-0.0,"""event"",""trial"",""time""
""fullscreenenter"",""1"",""2703""
","
","
","""event"",""trial"",""time""
""fullscreenenter"",""1"",""2703""
","
",,,,,,,,,,,,"[{""stimulus"":""run_exp/static/images/task_images/dig.jpg"",""time"":0.2999999523162842},{""stimulus"":""run_exp/static/images/task_images/land.jpg"",""time"":905.7000000476837},{""stimulus"":""run_exp/static/images/task_images/dig.jpg"",""time"":1795.5}]",[],6,,,,,,,,,,,,,,
harvest,144,485532,0.0-45.0-1.0,"""event"",""trial"",""time""
""fullscreenenter"",""1"",""2703""
","
","
","""event"",""trial"",""time""
""fullscreenenter"",""1"",""2703""
","
",,null,run_exp/static/images/task_images/gems/61.jpg,null,,,,,,,50,,,6,,,,,61,0.816231346,0.819672131,,,,,,,
decision,145,485717,0.0-45.0-2.0,"""event"",""trial"",""time""
""fullscreenenter"",""1"",""2703""
","
","
","""event"",""trial"",""time""
""fullscreenenter"",""1"",""2703""
","
",,183.8999999,run_exp/static/images/task_images/land.jpg,65,,,,,,,50,,,6,,,,,,,,169807,1,2,FALSE,,,
dig,146,488536,0.0-46.0-0.0,"""event"",""trial"",""time""
""fullscreenenter"",""1"",""2703""
","
","
","""event"",""trial"",""time""
""fullscreenenter"",""1"",""2703""
","
",,,,,,,,,,,,"[{""stimulus"":""run_exp/static/images/task_images/dig.jpg"",""time"":0.20000004768371582},{""stimulus"":""run_exp/static/images/task_images/land.jpg"",""time"":954.5},{""stimulus"":""run_exp/static/images/task_images/dig.jpg"",""time"":1888.2999999523163}]",[],6,,,,,,,,,,,,,,
harvest,147,489542,0.0-46.0-1.0,"""event"",""trial"",""time""
""fullscreenenter"",""1"",""2703""
","
","
","""event"",""trial"",""time""
""fullscreenenter"",""1"",""2703""
","
",,null,run_exp/static/images/task_images/gems/50.jpg,null,,,,,,,38,,,6,,,,,50,0.767805079,0.76,,,,,,,
decision,148,489904,0.0-46.0-2.0,"""event"",""trial"",""time""
""fullscreenenter"",""1"",""2703""
","
","
","""event"",""trial"",""time""
""fullscreenenter"",""1"",""2703""
","
",,360.6000001,run_exp/static/images/task_images/land.jpg,65,,,,,,,38,,,6,,,,,,,,173994,1,3,FALSE,,,
dig,149,492560,0.0-47.0-0.0,"""event"",""trial"",""time""
""fullscreenenter"",""1"",""2703""
","
","
","""event"",""trial"",""time""
""fullscreenenter"",""1"",""2703""
","
",,,,,,,,,,,,"[{""stimulus"":""run_exp/static/images/task_images/dig.jpg"",""time"":0.20000004768371582},{""stimulus"":""run_exp/static/images/task_images/land.jpg"",""time"":885.6000001430511},{""stimulus"":""run_exp/static/images/task_images/dig.jpg"",""time"":1761.5}]",[],6,,,,,,,,,,,,,,
harvest,150,493562,0.0-47.0-1.0,"""event"",""trial"",""time""
""fullscreenenter"",""1"",""2703""
","
","
","""event"",""trial"",""time""
""fullscreenenter"",""1"",""2703""
","
",,null,run_exp/static/images/task_images/gems/38.jpg,null,,,,,,,30,,,6,,,,,38,0.793839571,0.789473684,,,,,,,
decision,151,493593,0.0-47.0-2.0,"""event"",""trial"",""time""
""fullscreenenter"",""1"",""2703""
","
","
","""event"",""trial"",""time""
""fullscreenenter"",""1"",""2703""
","
",,29.10000014,run_exp/static/images/task_images/land.jpg,65,,,,,,,30,,,6,,,,,,,,177683,1,4,FALSE,,,
dig,152,496582,0.0-48.0-0.0,"""event"",""trial"",""time""
""fullscreenenter"",""1"",""2703""
","
","
","""event"",""trial"",""time""
""fullscreenenter"",""1"",""2703""
","
",,,,,,,,,,,,"[{""stimulus"":""run_exp/static/images/task_images/dig.jpg"",""time"":0.2999999523162842},{""stimulus"":""run_exp/static/images/task_images/land.jpg"",""time"":1004.6999998092651},{""stimulus"":""run_exp/static/images/task_images/dig.jpg"",""time"":1987.5999999046326}]",[],6,,,,,,,,,,,,,,
harvest,153,497594,0.0-48.0-1.0,"""event"",""trial"",""time""
""fullscreenenter"",""1"",""2703""
","
","
","""event"",""trial"",""time""
""fullscreenenter"",""1"",""2703""
","
",,null,run_exp/static/images/task_images/gems/30.jpg,null,,,,,,,25,,,6,,,,,30,0.846672694,0.833333333,,,,,,,
decision,154,497947,0.0-48.0-2.0,"""event"",""trial"",""time""
""fullscreenenter"",""1"",""2703""
","
","
","""event"",""trial"",""time""
""fullscreenenter"",""1"",""2703""
","
",,351.5999999,run_exp/static/images/task_images/land.jpg,65,,,,,,,25,,,6,,,,,,,,182037,1,5,FALSE,,,
dig,155,500610,0.0-49.0-0.0,"""event"",""trial"",""time""
""fullscreenenter"",""1"",""2703""
","
","
","""event"",""trial"",""time""
""fullscreenenter"",""1"",""2703""
","
",,,,,,,,,,,,"[{""stimulus"":""run_exp/static/images/task_images/dig.jpg"",""time"":0.3000001907348633},{""stimulus"":""run_exp/static/images/task_images/land.jpg"",""time"":890.1000001430511},{""stimulus"":""run_exp/static/images/task_images/dig.jpg"",""time"":1765.4000000953674}]",[],6,,,,,,,,,,,,,,
harvest,156,501616,0.0-49.0-1.0,"""event"",""trial"",""time""
""fullscreenenter"",""1"",""2703""
","
","
","""event"",""trial"",""time""
""fullscreenenter"",""1"",""2703""
","
",,null,run_exp/static/images/task_images/gems/25.jpg,null,,,,,,,20,,,6,,,,,25,0.782008999,0.8,,,,,,,
decision,157,502007,0.0-49.0-2.0,"""event"",""trial"",""time""
""fullscreenenter"",""1"",""2703""
","
","
","""event"",""trial"",""time""
""fullscreenenter"",""1"",""2703""
","
",,389.8,run_exp/static/images/task_images/land.jpg,65,,,,,,,20,,,6,,,,,,,,186097,1,6,FALSE,,,
dig,158,504638,0.0-50.0-0.0,"""event"",""trial"",""time""
""fullscreenenter"",""1"",""2703""
","
","
","""event"",""trial"",""time""
""fullscreenenter"",""1"",""2703""
","
",,,,,,,,,,,,"[{""stimulus"":""run_exp/static/images/task_images/dig.jpg"",""time"":0.2999999523162842},{""stimulus"":""run_exp/static/images/task_images/land.jpg"",""time"":873.5},{""stimulus"":""run_exp/static/images/task_images/dig.jpg"",""time"":1748.6000001430511}]",[],6,,,,,,,,,,,,,,
harvest,159,505642,0.0-50.0-1.0,"""event"",""trial"",""time""
""fullscreenenter"",""1"",""2703""
","
","
","""event"",""trial"",""time""
""fullscreenenter"",""1"",""2703""
","
",,null,run_exp/static/images/task_images/gems/20.jpg,null,,,,,,,15,,,6,,,,,20,0.749022835,0.75,,,,,,,
decision,160,505988,0.0-50.0-2.0,"""event"",""trial"",""time""
""fullscreenenter"",""1"",""2703""
","
","
","""event"",""trial"",""time""
""fullscreenenter"",""1"",""2703""
","
",,344.6000001,run_exp/static/images/task_images/land.jpg,65,,,,,,,15,,,6,,,,,,,,190078,1,7,FALSE,,,
dig,161,508650,0.0-51.0-0.0,"""event"",""trial"",""time""
""fullscreenenter"",""1"",""2703""
","
","
","""event"",""trial"",""time""
""fullscreenenter"",""1"",""2703""
","
",,,,,,,,,,,,"[{""stimulus"":""run_exp/static/images/task_images/dig.jpg"",""time"":0.20000004768371582},{""stimulus"":""run_exp/static/images/task_images/land.jpg"",""time"":890.2999999523163},{""stimulus"":""run_exp/static/images/task_images/dig.jpg"",""time"":1782.4000000953674}]",[],6,,,,,,,,,,,,,,
harvest,162,509664,0.0-51.0-1.0,"""event"",""trial"",""time""
""fullscreenenter"",""1"",""2703""
","
","
","""event"",""trial"",""time""
""fullscreenenter"",""1"",""2703""
","
",,null,run_exp/static/images/task_images/gems/15.jpg,null,,,,,,,13,,,6,,,,,15,0.839125089,0.866666667,,,,,,,
decision,163,509940,0.0-51.0-2.0,"""event"",""trial"",""time""
""fullscreenenter"",""1"",""2703""
","
","
","""event"",""trial"",""time""
""fullscreenenter"",""1"",""2703""
","
",,273.7,run_exp/static/images/task_images/land.jpg,65,,,,,,,13,,,6,,,,,,,,194030,1,8,FALSE,,,
dig,164,512676,0.0-52.0-0.0,"""event"",""trial"",""time""
""fullscreenenter"",""1"",""2703""
","
","
","""event"",""trial"",""time""
""fullscreenenter"",""1"",""2703""
","
",,,,,,,,,,,,"[{""stimulus"":""run_exp/static/images/task_images/dig.jpg"",""time"":0.19999980926513672},{""stimulus"":""run_exp/static/images/task_images/land.jpg"",""time"":920.1999998092651},{""stimulus"":""run_exp/static/images/task_images/dig.jpg"",""time"":1832.5}]",[],6,,,,,,,,,,,,,,
harvest,165,513690,0.0-52.0-1.0,"""event"",""trial"",""time""
""fullscreenenter"",""1"",""2703""
","
","
","""event"",""trial"",""time""
""fullscreenenter"",""1"",""2703""
","
",,null,run_exp/static/images/task_images/gems/13.jpg,null,,,,,,,12,,,6,,,,,13,0.897397064,0.923076923,,,,,,,
decision,166,513943,0.0-52.0-2.0,"""event"",""trial"",""time""
""fullscreenenter"",""1"",""2703""
","
","
","""event"",""trial"",""time""
""fullscreenenter"",""1"",""2703""
","
",,251.7,run_exp/static/images/task_images/land.jpg,65,,,,,,,12,,,6,,,,,,,,198033,1,9,FALSE,,,
dig,167,516704,0.0-53.0-0.0,"""event"",""trial"",""time""
""fullscreenenter"",""1"",""2703""
","
","
","""event"",""trial"",""time""
""fullscreenenter"",""1"",""2703""
","
",,,,,,,,,,,,"[{""stimulus"":""run_exp/static/images/task_images/dig.jpg"",""time"":0.20000004768371582},{""stimulus"":""run_exp/static/images/task_images/land.jpg"",""time"":920.7999999523163},{""stimulus"":""run_exp/static/images/task_images/dig.jpg"",""time"":1839.5999999046326}]",[],6,,,,,,,,,,,,,,
harvest,168,517718,0.0-53.0-1.0,"""event"",""trial"",""time""
""fullscreenenter"",""1"",""2703""
","
","
","""event"",""trial"",""time""
""fullscreenenter"",""1"",""2703""
","
",,null,run_exp/static/images/task_images/gems/12.jpg,null,,,,,,,10,,,6,,,,,12,0.853518485,0.833333333,,,,,,,
decision,169,517990,0.0-53.0-2.0,"""event"",""trial"",""time""
""fullscreenenter"",""1"",""2703""
","
","
","""event"",""trial"",""time""
""fullscreenenter"",""1"",""2703""
","
",,270.2,run_exp/static/images/task_images/land.jpg,65,,,,,,,10,,,6,,,,,,,,202080,1,10,FALSE,,,
dig,170,520734,0.0-54.0-0.0,"""event"",""trial"",""time""
""fullscreenenter"",""1"",""2703""
","
","
","""event"",""trial"",""time""
""fullscreenenter"",""1"",""2703""
","
",,,,,,,,,,,,"[{""stimulus"":""run_exp/static/images/task_images/dig.jpg"",""time"":0.20000004768371582},{""stimulus"":""run_exp/static/images/task_images/land.jpg"",""time"":916.3000001907349},{""stimulus"":""run_exp/static/images/task_images/dig.jpg"",""time"":1822.4000000953674}]",[],6,,,,,,,,,,,,,,
harvest,171,521737,0.0-54.0-1.0,"""event"",""trial"",""time""
""fullscreenenter"",""1"",""2703""
","
","
","""event"",""trial"",""time""
""fullscreenenter"",""1"",""2703""
","
",,null,run_exp/static/images/task_images/gems/10.jpg,null,,,,,,,8,,,6,,,,,10,0.801376428,0.8,,,,,,,
decision,172,521997,0.0-54.0-2.0,"""event"",""trial"",""time""
""fullscreenenter"",""1"",""2703""
","
","
","""event"",""trial"",""time""
""fullscreenenter"",""1"",""2703""
","
",,258.1999998,run_exp/static/images/task_images/land.jpg,65,,,,,,,8,,,6,,,,,,,,206087,1,11,FALSE,,,
dig,173,524756,0.0-55.0-0.0,"""event"",""trial"",""time""
""fullscreenenter"",""1"",""2703""
","
","
","""event"",""trial"",""time""
""fullscreenenter"",""1"",""2703""
","
",,,,,,,,,,,,"[{""stimulus"":""run_exp/static/images/task_images/dig.jpg"",""time"":0.2999999523162842},{""stimulus"":""run_exp/static/images/task_images/land.jpg"",""time"":921.5},{""stimulus"":""run_exp/static/images/task_images/dig.jpg"",""time"":1836.2000000476837}]",[],6,,,,,,,,,,,,,,
harvest,174,525761,0.0-55.0-1.0,"""event"",""trial"",""time""
""fullscreenenter"",""1"",""2703""
","
","
","""event"",""trial"",""time""
""fullscreenenter"",""1"",""2703""
","
",,null,run_exp/static/images/task_images/gems/8.jpg,null,,,,,,,7,,,6,,,,,8,0.833109405,0.875,,,,,,,
decision,175,526091,0.0-55.0-2.0,"""event"",""trial"",""time""
""fullscreenenter"",""1"",""2703""
","
","
","""event"",""trial"",""time""
""fullscreenenter"",""1"",""2703""
","
",,329.8,run_exp/static/images/task_images/land.jpg,76,,,,,,,7,,,6,,,,,,,,210182,1,12,TRUE,,,
travel,176,535775,0.0-56.0-0.0,"""event"",""trial"",""time""
""fullscreenenter"",""1"",""2703""
","
","
","""event"",""trial"",""time""
""fullscreenenter"",""1"",""2703""
","
",,,,,,,,,,,,"[{""stimulus"":""run_exp/static/images/task_images/rocket-01.jpg"",""time"":0.19999980926513672},{""stimulus"":""run_exp/static/images/task_images/rocket-02.jpg"",""time"":1088.5999999046326},{""stimulus"":""run_exp/static/images/task_images/rocket-03.jpg"",""time"":2152.399999856949},{""stimulus"":""run_exp/static/images/task_images/rocket-04.jpg"",""time"":3226.7999999523163},{""stimulus"":""run_exp/static/images/task_images/rocket-05.jpg"",""time"":4306.099999904633},{""stimulus"":""run_exp/static/images/task_images/rocket-06.jpg"",""time"":5380.5},{""stimulus"":""run_exp/static/images/task_images/rocket-07.jpg"",""time"":6457.899999856949},{""stimulus"":""run_exp/static/images/task_images/rocket-08.jpg"",""time"":7520.5},{""stimulus"":""run_exp/static/images/task_images/rocket-09.jpg"",""time"":8596.299999952316}]",[],6,,,,,,,,,,,,,,
alien_welcome,177,540791,0.0-56.0-1.0,"""event"",""trial"",""time""
""fullscreenenter"",""1"",""2703""
","
","
","""event"",""trial"",""time""
""fullscreenenter"",""1"",""2703""
","
",,null,run_exp/static/images/task_images/aliens/old_aliens/planet/alien_planet-78.jpg,null,,,,,,,,,,,,,78,"73,30,46,69,70,76,78,75,16,25,55,50,79,77,35,34,6,3,20,42,18,9,45,10,5,8,26,11,47,43,38",,,,,,,,,,
land,178,541295,0.0-56.0-2.0,"""event"",""trial"",""time""
""fullscreenenter"",""1"",""2703""
","
","
","""event"",""trial"",""time""
""fullscreenenter"",""1"",""2703""
","
",,null,run_exp/static/images/task_images/land.jpg,null,,,,,,,94,,,7,,,,,,,,,,,,,,
dig,179,543301,0.0-56.0-3.0,"""event"",""trial"",""time""
""fullscreenenter"",""1"",""2703""
","
","
","""event"",""trial"",""time""
""fullscreenenter"",""1"",""2703""
","
",,,,,,,,,,,,"[{""stimulus"":""run_exp/static/images/task_images/dig.jpg"",""time"":0.20000004768371582},{""stimulus"":""run_exp/static/images/task_images/land.jpg"",""time"":679.7000000476837},{""stimulus"":""run_exp/static/images/task_images/dig.jpg"",""time"":1341.1000001430511}]",[],7,,,,,,,,,,,,,,
harvest,180,544303,0.0-56.0-4.0,"""event"",""trial"",""time""
""fullscreenenter"",""1"",""2703""
","
","
","""event"",""trial"",""time""
""fullscreenenter"",""1"",""2703""
","
",,null,run_exp/static/images/task_images/gems/94.jpg,null,,,,,,,76,,,7,,,,,94,0.807450408,0.808510638,,,,,,,
decision,181,544406,0.0-56.0-5.0,"""event"",""trial"",""time""
""fullscreenenter"",""1"",""2703""
","
","
","""event"",""trial"",""time""
""fullscreenenter"",""1"",""2703""
","
",,100.5,run_exp/static/images/task_images/land.jpg,65,,,,,,,76,,,7,,,,,,,,228496,1,0,FALSE,,,
dig,182,547310,0.0-57.0-0.0,"""event"",""trial"",""time""
""fullscreenenter"",""1"",""2703""
","
","
","""event"",""trial"",""time""
""fullscreenenter"",""1"",""2703""
","
",,,,,,,,,,,,"[{""stimulus"":""run_exp/static/images/task_images/dig.jpg"",""time"":0.2999999523162842},{""stimulus"":""run_exp/static/images/task_images/land.jpg"",""time"":978.5999999046326},{""stimulus"":""run_exp/static/images/task_images/dig.jpg"",""time"":1944.3999998569489}]",[],7,,,,,,,,,,,,,,
harvest,183,548326,0.0-57.0-1.0,"""event"",""trial"",""time""
""fullscreenenter"",""1"",""2703""
","
","
","""event"",""trial"",""time""
""fullscreenenter"",""1"",""2703""
","
",,null,run_exp/static/images/task_images/gems/76.jpg,null,,,,,,,63,,,7,,,,,76,0.831547973,0.828947368,,,,,,,
decision,184,548770,0.0-57.0-2.0,"""event"",""trial"",""time""
""fullscreenenter"",""1"",""2703""
","
","
","""event"",""trial"",""time""
""fullscreenenter"",""1"",""2703""
","
",,442.3999999,run_exp/static/images/task_images/land.jpg,65,,,,,,,63,,,7,,,,,,,,232860,1,1,FALSE,,,
dig,185,551346,0.0-58.0-0.0,"""event"",""trial"",""time""
""fullscreenenter"",""1"",""2703""
","
","
","""event"",""trial"",""time""
""fullscreenenter"",""1"",""2703""
","
",,,,,,,,,,,,"[{""stimulus"":""run_exp/static/images/task_images/dig.jpg"",""time"":0.20000004768371582},{""stimulus"":""run_exp/static/images/task_images/land.jpg"",""time"":862.5},{""stimulus"":""run_exp/static/images/task_images/dig.jpg"",""time"":1720.6000001430511}]",[],7,,,,,,,,,,,,,,
harvest,186,552360,0.0-58.0-1.0,"""event"",""trial"",""time""
""fullscreenenter"",""1"",""2703""
","
","
","""event"",""trial"",""time""
""fullscreenenter"",""1"",""2703""
","
",,null,run_exp/static/images/task_images/gems/63.jpg,null,,,,,,,51,,,7,,,,,63,0.806656787,0.80952381,,,,,,,
decision,187,552674,0.0-58.0-2.0,"""event"",""trial"",""time""
""fullscreenenter"",""1"",""2703""
","
","
","""event"",""trial"",""time""
""fullscreenenter"",""1"",""2703""
","
",,313.5,run_exp/static/images/task_images/land.jpg,65,,,,,,,51,,,7,,,,,,,,236764,1,2,FALSE,,,
dig,188,555375,0.0-59.0-0.0,"""event"",""trial"",""time""
""fullscreenenter"",""1"",""2703""
","
","
","""event"",""trial"",""time""
""fullscreenenter"",""1"",""2703""
","
",,,,,,,,,,,,"[{""stimulus"":""run_exp/static/images/task_images/dig.jpg"",""time"":0.40000009536743164},{""stimulus"":""run_exp/static/images/task_images/land.jpg"",""time"":897.9000000953674},{""stimulus"":""run_exp/static/images/task_images/dig.jpg"",""time"":1803.9000000953674}]",[],7,,,,,,,,,,,,,,
harvest,189,556387,0.0-59.0-1.0,"""event"",""trial"",""time""
""fullscreenenter"",""1"",""2703""
","
","
","""event"",""trial"",""time""
""fullscreenenter"",""1"",""2703""
","
",,null,run_exp/static/images/task_images/gems/51.jpg,null,,,,,,,42,,,7,,,,,51,0.824249135,0.823529412,,,,,,,
decision,190,556789,0.0-59.0-2.0,"""event"",""trial"",""time""
""fullscreenenter"",""1"",""2703""
","
","
","""event"",""trial"",""time""
""fullscreenenter"",""1"",""2703""
","
",,401.3999999,run_exp/static/images/task_images/land.jpg,65,,,,,,,42,,,7,,,,,,,,240880,1,3,FALSE,,,
dig,191,559403,0.0-60.0-0.0,"""event"",""trial"",""time""
""fullscreenenter"",""1"",""2703""
","
","
","""event"",""trial"",""time""
""fullscreenenter"",""1"",""2703""
","
",,,,,,,,,,,,"[{""stimulus"":""run_exp/static/images/task_images/dig.jpg"",""time"":0.3000001907348633},{""stimulus"":""run_exp/static/images/task_images/land.jpg"",""time"":869},{""stimulus"":""run_exp/static/images/task_images/dig.jpg"",""time"":1736.5}]",[],7,,,,,,,,,,,,,,
harvest,192,560420,0.0-60.0-1.0,"""event"",""trial"",""time""
""fullscreenenter"",""1"",""2703""
","
","
","""event"",""trial"",""time""
""fullscreenenter"",""1"",""2703""
","
",,null,run_exp/static/images/task_images/gems/42.jpg,null,,,,,,,36,,,7,,,,,42,0.858867361,0.857142857,,,,,,,
decision,193,560688,0.0-60.0-2.0,"""event"",""trial"",""time""
""fullscreenenter"",""1"",""2703""
","
","
","""event"",""trial"",""time""
""fullscreenenter"",""1"",""2703""
","
",,266.4000001,run_exp/static/images/task_images/land.jpg,65,,,,,,,36,,,7,,,,,,,,244778,1,4,FALSE,,,
dig,194,563440,0.0-61.0-0.0,"""event"",""trial"",""time""
""fullscreenenter"",""1"",""2703""
","
","
","""event"",""trial"",""time""
""fullscreenenter"",""1"",""2703""
","
",,,,,,,,,,,,"[{""stimulus"":""run_exp/static/images/task_images/dig.jpg"",""time"":0.2999999523162842},{""stimulus"":""run_exp/static/images/task_images/land.jpg"",""time"":920.2999999523163},{""stimulus"":""run_exp/static/images/task_images/dig.jpg"",""time"":1838.5}]",[],7,,,,,,,,,,,,,,
harvest,195,564448,0.0-61.0-1.0,"""event"",""trial"",""time""
""fullscreenenter"",""1"",""2703""
","
","
","""event"",""trial"",""time""
""fullscreenenter"",""1"",""2703""
","
",,null,run_exp/static/images/task_images/gems/36.jpg,null,,,,,,,29,,,7,,,,,36,0.816332669,0.805555556,,,,,,,
decision,196,564830,0.0-61.0-2.0,"""event"",""trial"",""time""
""fullscreenenter"",""1"",""2703""
","
","
","""event"",""trial"",""time""
""fullscreenenter"",""1"",""2703""
","
",,380.1000001,run_exp/static/images/task_images/land.jpg,65,,,,,,,29,,,7,,,,,,,,248920,1,5,FALSE,,,
dig,197,567465,0.0-62.0-0.0,"""event"",""trial"",""time""
""fullscreenenter"",""1"",""2703""
","
","
","""event"",""trial"",""time""
""fullscreenenter"",""1"",""2703""
","
",,,,,,,,,,,,"[{""stimulus"":""run_exp/static/images/task_images/dig.jpg"",""time"":0.20000004768371582},{""stimulus"":""run_exp/static/images/task_images/land.jpg"",""time"":878.0999999046326},{""stimulus"":""run_exp/static/images/task_images/dig.jpg"",""time"":1752.2999999523163}]",[],7,,,,,,,,,,,,,,
harvest,198,568473,0.0-62.0-1.0,"""event"",""trial"",""time""
""fullscreenenter"",""1"",""2703""
","
","
","""event"",""trial"",""time""
""fullscreenenter"",""1"",""2703""
","
",,null,run_exp/static/images/task_images/gems/29.jpg,null,,,,,,,24,,,7,,,,,29,0.818993428,0.827586207,,,,,,,
decision,199,568821,0.0-62.0-2.0,"""event"",""trial"",""time""
""fullscreenenter"",""1"",""2703""
","
","
","""event"",""trial"",""time""
""fullscreenenter"",""1"",""2703""
","
",,346.5,run_exp/static/images/task_images/land.jpg,65,,,,,,,24,,,7,,,,,,,,252911,1,6,FALSE,,,
dig,200,571483,0.0-63.0-0.0,"""event"",""trial"",""time""
""fullscreenenter"",""1"",""2703""
","
","
","""event"",""trial"",""time""
""fullscreenenter"",""1"",""2703""
","
",,,,,,,,,,,,"[{""stimulus"":""run_exp/static/images/task_images/dig.jpg"",""time"":0.20000004768371582},{""stimulus"":""run_exp/static/images/task_images/land.jpg"",""time"":888.2000000476837},{""stimulus"":""run_exp/static/images/task_images/dig.jpg"",""time"":1779.3000001907349}]",[],7,,,,,,,,,,,,,,
harvest,201,572493,0.0-63.0-1.0,"""event"",""trial"",""time""
""fullscreenenter"",""1"",""2703""
","
","
","""event"",""trial"",""time""
""fullscreenenter"",""1"",""2703""
","
",,null,run_exp/static/images/task_images/gems/24.jpg,null,,,,,,,20,,,7,,,,,24,0.832497297,0.833333333,,,,,,,
decision,202,572865,0.0-63.0-2.0,"""event"",""trial"",""time""
""fullscreenenter"",""1"",""2703""
","
","
","""event"",""trial"",""time""
""fullscreenenter"",""1"",""2703""
","
",,370,run_exp/static/images/task_images/land.jpg,65,,,,,,,20,,,7,,,,,,,,256955,1,7,FALSE,,,
dig,203,575499,0.0-64.0-0.0,"""event"",""trial"",""time""
""fullscreenenter"",""1"",""2703""
","
","
","""event"",""trial"",""time""
""fullscreenenter"",""1"",""2703""
","
",,,,,,,,,,,,"[{""stimulus"":""run_exp/static/images/task_images/dig.jpg"",""time"":0.2999999523162842},{""stimulus"":""run_exp/static/images/task_images/land.jpg"",""time"":892.5999999046326},{""stimulus"":""run_exp/static/images/task_images/dig.jpg"",""time"":1769.2999999523163}]",[],7,,,,,,,,,,,,,,
harvest,204,576501,0.0-64.0-1.0,"""event"",""trial"",""time""
""fullscreenenter"",""1"",""2703""
","
","
","""event"",""trial"",""time""
""fullscreenenter"",""1"",""2703""
","
",,null,run_exp/static/images/task_images/gems/20.jpg,null,,,,,,,16,,,7,,,,,20,0.796225595,0.8,,,,,,,
decision,205,576775,0.0-64.0-2.0,"""event"",""trial"",""time""
""fullscreenenter"",""1"",""2703""
","
","
","""event"",""trial"",""time""
""fullscreenenter"",""1"",""2703""
","
",,272.3000002,run_exp/static/images/task_images/land.jpg,65,,,,,,,16,,,7,,,,,,,,260865,1,8,FALSE,,,
dig,206,579513,0.0-65.0-0.0,"""event"",""trial"",""time""
""fullscreenenter"",""1"",""2703""
","
","
","""event"",""trial"",""time""
""fullscreenenter"",""1"",""2703""
","
",,,,,,,,,,,,"[{""stimulus"":""run_exp/static/images/task_images/dig.jpg"",""time"":0.20000004768371582},{""stimulus"":""run_exp/static/images/task_images/land.jpg"",""time"":922.3000001907349},{""stimulus"":""run_exp/static/images/task_images/dig.jpg"",""time"":1832.9000000953674}]",[],7,,,,,,,,,,,,,,
harvest,207,580519,0.0-65.0-1.0,"""event"",""trial"",""time""
""fullscreenenter"",""1"",""2703""
","
","
","""event"",""trial"",""time""
""fullscreenenter"",""1"",""2703""
","
",,null,run_exp/static/images/task_images/gems/16.jpg,null,,,,,,,12,,,7,,,,,16,0.780728038,0.75,,,,,,,
decision,208,580677,0.0-65.0-2.0,"""event"",""trial"",""time""
""fullscreenenter"",""1"",""2703""
","
","
","""event"",""trial"",""time""
""fullscreenenter"",""1"",""2703""
","
",,156.4000001,run_exp/static/images/task_images/land.jpg,65,,,,,,,12,,,7,,,,,,,,264767,1,9,FALSE,,,
dig,209,583525,0.0-66.0-0.0,"""event"",""trial"",""time""
""fullscreenenter"",""1"",""2703""
","
","
","""event"",""trial"",""time""
""fullscreenenter"",""1"",""2703""
","
",,,,,,,,,,,,"[{""stimulus"":""run_exp/static/images/task_images/dig.jpg"",""time"":0.39999985694885254},{""stimulus"":""run_exp/static/images/task_images/land.jpg"",""time"":958.8999998569489},{""stimulus"":""run_exp/static/images/task_images/dig.jpg"",""time"":1910.7999999523163}]",[],7,,,,,,,,,,,,,,
harvest,210,584537,0.0-66.0-1.0,"""event"",""trial"",""time""
""fullscreenenter"",""1"",""2703""
","
","
","""event"",""trial"",""time""
""fullscreenenter"",""1"",""2703""
","
",,null,run_exp/static/images/task_images/gems/12.jpg,null,,,,,,,9,,,7,,,,,12,0.763944961,0.75,,,,,,,
decision,211,584933,0.0-66.0-2.0,"""event"",""trial"",""time""
""fullscreenenter"",""1"",""2703""
","
","
","""event"",""trial"",""time""
""fullscreenenter"",""1"",""2703""
","
",,394.1000001,run_exp/static/images/task_images/land.jpg,65,,,,,,,9,,,7,,,,,,,,269023,1,10,FALSE,,,
dig,212,587555,0.0-67.0-0.0,"""event"",""trial"",""time""
""fullscreenenter"",""1"",""2703""
","
","
","""event"",""trial"",""time""
""fullscreenenter"",""1"",""2703""
","
",,,,,,,,,,,,"[{""stimulus"":""run_exp/static/images/task_images/dig.jpg"",""time"":0.40000009536743164},{""stimulus"":""run_exp/static/images/task_images/land.jpg"",""time"":869.8000001907349},{""stimulus"":""run_exp/static/images/task_images/dig.jpg"",""time"":1742.9000000953674}]",[],7,,,,,,,,,,,,,,
harvest,213,588573,0.0-67.0-1.0,"""event"",""trial"",""time""
""fullscreenenter"",""1"",""2703""
","
","
","""event"",""trial"",""time""
""fullscreenenter"",""1"",""2703""
","
",,null,run_exp/static/images/task_images/gems/9.jpg,null,,,,,,,7,,,7,,,,,9,0.78164612,0.777777778,,,,,,,
decision,214,588612,0.0-67.0-2.0,"""event"",""trial"",""time""
""fullscreenenter"",""1"",""2703""
","
","
","""event"",""trial"",""time""
""fullscreenenter"",""1"",""2703""
","
",,37.39999986,run_exp/static/images/task_images/land.jpg,76,,,,,,,7,,,7,,,,,,,,272702,1,11,TRUE,,,
travel,215,598585,0.0-68.0-0.0,"""event"",""trial"",""time""
""fullscreenenter"",""1"",""2703""
","
","
","""event"",""trial"",""time""
""fullscreenenter"",""1"",""2703""
","
",,,,,,,,,,,,"[{""stimulus"":""run_exp/static/images/task_images/rocket-01.jpg"",""time"":0.20000004768371582},{""stimulus"":""run_exp/static/images/task_images/rocket-02.jpg"",""time"":1109},{""stimulus"":""run_exp/static/images/task_images/rocket-03.jpg"",""time"":2221.5},{""stimulus"":""run_exp/static/images/task_images/rocket-04.jpg"",""time"":3320.4000000953674},{""stimulus"":""run_exp/static/images/task_images/rocket-05.jpg"",""time"":4441.400000095367},{""stimulus"":""run_exp/static/images/task_images/rocket-06.jpg"",""time"":5537.600000143051},{""stimulus"":""run_exp/static/images/task_images/rocket-07.jpg"",""time"":6638.299999952316},{""stimulus"":""run_exp/static/images/task_images/rocket-08.jpg"",""time"":7751.600000143051},{""stimulus"":""run_exp/static/images/task_images/rocket-09.jpg"",""time"":8855.100000143051}]",[],7,,,,,,,,,,,,,,
alien_welcome,216,603600,0.0-68.0-1.0,"""event"",""trial"",""time""
""fullscreenenter"",""1"",""2703""
","
","
","""event"",""trial"",""time""
""fullscreenenter"",""1"",""2703""
","
",,null,run_exp/static/images/task_images/aliens/old_aliens/planet/alien_planet-75.jpg,null,,,,,,,,,,,,,75,"73,30,46,69,70,76,78,75,16,25,55,50,79,77,35,34,6,3,20,42,18,9,45,10,5,8,26,11,47,43,38",,,,,,,,,,
land,217,604109,0.0-68.0-2.0,"""event"",""trial"",""time""
""fullscreenenter"",""1"",""2703""
","
","
","""event"",""trial"",""time""
""fullscreenenter"",""1"",""2703""
","
",,null,run_exp/static/images/task_images/land.jpg,null,,,,,,,103,,,8,,,,,,,,,,,,,,
dig,218,606115,0.0-68.0-3.0,"""event"",""trial"",""time""
""fullscreenenter"",""1"",""2703""
","
","
","""event"",""trial"",""time""
""fullscreenenter"",""1"",""2703""
","
",,,,,,,,,,,,"[{""stimulus"":""run_exp/static/images/task_images/dig.jpg"",""time"":0.3000001907348633},{""stimulus"":""run_exp/static/images/task_images/land.jpg"",""time"":674.7000000476837},{""stimulus"":""run_exp/static/images/task_images/dig.jpg"",""time"":1336.3000001907349}]",[],8,,,,,,,,,,,,,,
harvest,219,607117,0.0-68.0-4.0,"""event"",""trial"",""time""
""fullscreenenter"",""1"",""2703""
","
","
","""event"",""trial"",""time""
""fullscreenenter"",""1"",""2703""
","
",,null,run_exp/static/images/task_images/gems/103.jpg,null,,,,,,,85,,,8,,,,,103,0.827987008,0.825242718,,,,,,,
decision,220,607541,0.0-68.0-5.0,"""event"",""trial"",""time""
""fullscreenenter"",""1"",""2703""
","
","
","""event"",""trial"",""time""
""fullscreenenter"",""1"",""2703""
","
",,422,run_exp/static/images/task_images/land.jpg,65,,,,,,,85,,,8,,,,,,,,291631,1,0,FALSE,,,
dig,221,610131,0.0-69.0-0.0,"""event"",""trial"",""time""
""fullscreenenter"",""1"",""2703""
","
","
","""event"",""trial"",""time""
""fullscreenenter"",""1"",""2703""
","
",,,,,,,,,,,,"[{""stimulus"":""run_exp/static/images/task_images/dig.jpg"",""time"":0.20000004768371582},{""stimulus"":""run_exp/static/images/task_images/land.jpg"",""time"":866.9000000953674},{""stimulus"":""run_exp/static/images/task_images/dig.jpg"",""time"":1722.2999999523163}]",[],8,,,,,,,,,,,,,,
harvest,222,611144,0.0-69.0-1.0,"""event"",""trial"",""time""
""fullscreenenter"",""1"",""2703""
","
","
","""event"",""trial"",""time""
""fullscreenenter"",""1"",""2703""
","
",,null,run_exp/static/images/task_images/gems/85.jpg,null,,,,,,,68,,,8,,,,,85,0.805481365,0.8,,,,,,,
decision,223,611399,0.0-69.0-2.0,"""event"",""trial"",""time""
""fullscreenenter"",""1"",""2703""
","
","
","""event"",""trial"",""time""
""fullscreenenter"",""1"",""2703""
","
",,254,run_exp/static/images/task_images/land.jpg,65,,,,,,,68,,,8,,,,,,,,295489,1,1,FALSE,,,
dig,224,614155,0.0-70.0-0.0,"""event"",""trial"",""time""
""fullscreenenter"",""1"",""2703""
","
","
","""event"",""trial"",""time""
""fullscreenenter"",""1"",""2703""
","
",,,,,,,,,,,,"[{""stimulus"":""run_exp/static/images/task_images/dig.jpg"",""time"":0.20000004768371582},{""stimulus"":""run_exp/static/images/task_images/land.jpg"",""time"":927.0999999046326},{""stimulus"":""run_exp/static/images/task_images/dig.jpg"",""time"":1835.3999998569489}]",[],8,,,,,,,,,,,,,,
harvest,225,615168,0.0-70.0-1.0,"""event"",""trial"",""time""
""fullscreenenter"",""1"",""2703""
","
","
","""event"",""trial"",""time""
""fullscreenenter"",""1"",""2703""
","
",,null,run_exp/static/images/task_images/gems/68.jpg,null,,,,,,,56,,,8,,,,,68,0.822308494,0.823529412,,,,,,,
decision,226,616762,0.0-70.0-2.0,"""event"",""trial"",""time""
""fullscreenenter"",""1"",""2703""
","
","
","""event"",""trial"",""time""
""fullscreenenter"",""1"",""2703""
","
",,1592.9,run_exp/static/images/task_images/land.jpg,65,,,,,,,56,,,8,,,,,,,,300852,1,2,TRUE,,,
end_of_block_continue,227,624125,0.0-71.0-0.0,"""event"",""trial"",""time""
""fullscreenenter"",""1"",""2703""
","
","
","""event"",""trial"",""time""
""fullscreenenter"",""1"",""2703""
","
",,7358.6,run_exp/static/audio/clip_32_block_end.m4a,,,,,,,0,,,,,,,,,,,,,,,,,,
alien_welcome,228,629137,0.0-72.0-0.0,"""event"",""trial"",""time""
""fullscreenenter"",""1"",""2703""
","
","
","""event"",""trial"",""time""
""fullscreenenter"",""1"",""2703""
","
",,null,run_exp/static/images/task_images/aliens/old_aliens/planet/alien_planet-16.jpg,null,,,,,,,,,,,,,16,"73,30,46,69,70,76,78,75,16,25,55,50,79,77,35,34,6,3,20,42,18,9,45,10,5,8,26,11,47,43,38",,,,,,,,,,
land,229,629648,0.0-72.0-1.0,"""event"",""trial"",""time""
""fullscreenenter"",""1"",""2703""
","
","
","""event"",""trial"",""time""
""fullscreenenter"",""1"",""2703""
","
",,null,run_exp/static/images/task_images/land.jpg,null,,,,,,,98,,,9,,,,,,,,,,,,,,
dig,230,631666,0.0-72.0-2.0,"""event"",""trial"",""time""
""fullscreenenter"",""1"",""2703""
","
","
","""event"",""trial"",""time""
""fullscreenenter"",""1"",""2703""
","
",,,,,,,,,,,,"[{""stimulus"":""run_exp/static/images/task_images/dig.jpg"",""time"":0.40000009536743164},{""stimulus"":""run_exp/static/images/task_images/land.jpg"",""time"":670},{""stimulus"":""run_exp/static/images/task_images/dig.jpg"",""time"":1338.9000000953674}]",[],9,,,,,,,,,,,,,,
harvest,231,632681,0.0-72.0-3.0,"""event"",""trial"",""time""
""fullscreenenter"",""1"",""2703""
","
","
","""event"",""trial"",""time""
""fullscreenenter"",""1"",""2703""
","
",,null,run_exp/static/images/task_images/gems/98.jpg,null,,,,,,,18,,,9,,,,,98,0.181966655,0.183673469,,,,,,,
decision,232,633023,0.0-72.0-4.0,"""event"",""trial"",""time""
""fullscreenenter"",""1"",""2703""
","
","
","""event"",""trial"",""time""
""fullscreenenter"",""1"",""2703""
","
",,340.2,run_exp/static/images/task_images/land.jpg,65,,,,,,,18,,,9,,,,,,,,8894,2,0,FALSE,,,
dig,233,635701,0.0-73.0-0.0,"""event"",""trial"",""time""
""fullscreenenter"",""1"",""2703""
","
","
","""event"",""trial"",""time""
""fullscreenenter"",""1"",""2703""
","
",,,,,,,,,,,,"[{""stimulus"":""run_exp/static/images/task_images/dig.jpg"",""time"":0.40000009536743164},{""stimulus"":""run_exp/static/images/task_images/land.jpg"",""time"":890.5},{""stimulus"":""run_exp/static/images/task_images/dig.jpg"",""time"":1782.4000000953674}]",[],9,,,,,,,,,,,,,,
harvest,234,636706,0.0-73.0-1.0,"""event"",""trial"",""time""
""fullscreenenter"",""1"",""2703""
","
","
","""event"",""trial"",""time""
""fullscreenenter"",""1"",""2703""
","
",,null,run_exp/static/images/task_images/gems/18.jpg,null,,,,,,,5,,,9,,,,,18,0.265161809,0.277777778,,,,,,,
decision,235,636743,0.0-73.0-2.0,"""event"",""trial"",""time""
""fullscreenenter"",""1"",""2703""
","
","
","""event"",""trial"",""time""
""fullscreenenter"",""1"",""2703""
","
",,35.4000001,run_exp/static/images/task_images/land.jpg,65,,,,,,,5,,,9,,,,,,,,12614,2,1,FALSE,,,
dig,236,639724,0.0-74.0-0.0,"""event"",""trial"",""time""
""fullscreenenter"",""1"",""2703""
","
","
","""event"",""trial"",""time""
""fullscreenenter"",""1"",""2703""
","
",,,,,,,,,,,,"[{""stimulus"":""run_exp/static/images/task_images/dig.jpg"",""time"":0.09999990463256836},{""stimulus"":""run_exp/static/images/task_images/land.jpg"",""time"":991.9000000953674},{""stimulus"":""run_exp/static/images/task_images/dig.jpg"",""time"":1991.9000000953674}]",[],9,,,,,,,,,,,,,,
harvest,237,640739,0.0-74.0-1.0,"""event"",""trial"",""time""
""fullscreenenter"",""1"",""2703""
","
","
","""event"",""trial"",""time""
""fullscreenenter"",""1"",""2703""
","
",,null,run_exp/static/images/task_images/gems/5.jpg,null,,,,,,,1,,,9,,,,,5,0.271540958,0.2,,,,,,,
decision,238,642191,0.0-74.0-2.0,"""event"",""trial"",""time""
""fullscreenenter"",""1"",""2703""
","
","
","""event"",""trial"",""time""
""fullscreenenter"",""1"",""2703""
","
",,1450.4,run_exp/static/images/task_images/land.jpg,76,,,,,,,1,,,9,,,,,,,,18062,2,2,TRUE,,,
travel,239,650750,0.0-75.0-0.0,"""event"",""trial"",""time""
""fullscreenenter"",""1"",""2703""
","
","
","""event"",""trial"",""time""
""fullscreenenter"",""1"",""2703""
","
",,,,,,,,,,,,"[{""stimulus"":""run_exp/static/images/task_images/rocket-01.jpg"",""time"":0},{""stimulus"":""run_exp/static/images/task_images/rocket-02.jpg"",""time"":962.8999998569489},{""stimulus"":""run_exp/static/images/task_images/rocket-03.jpg"",""time"":1906.7000000476837},{""stimulus"":""run_exp/static/images/task_images/rocket-04.jpg"",""time"":2858.5999999046326},{""stimulus"":""run_exp/static/images/task_images/rocket-05.jpg"",""time"":3812.5},{""stimulus"":""run_exp/static/images/task_images/rocket-06.jpg"",""time"":4756.200000047684},{""stimulus"":""run_exp/static/images/task_images/rocket-07.jpg"",""time"":5699.700000047684},{""stimulus"":""run_exp/static/images/task_images/rocket-08.jpg"",""time"":6650.200000047684},{""stimulus"":""run_exp/static/images/task_images/rocket-09.jpg"",""time"":7602.799999952316}]",[],9,,,,,,,,,,,,,,
alien_welcome,240,655767,0.0-75.0-1.0,"""event"",""trial"",""time""
""fullscreenenter"",""1"",""2703""
","
","
","""event"",""trial"",""time""
""fullscreenenter"",""1"",""2703""
","
",,null,run_exp/static/images/task_images/aliens/old_aliens/planet/alien_planet-25.jpg,null,,,,,,,,,,,,,25,"73,30,46,69,70,76,78,75,16,25,55,50,79,77,35,34,6,3,20,42,18,9,45,10,5,8,26,11,47,43,38",,,,,,,,,,
land,241,656284,0.0-75.0-2.0,"""event"",""trial"",""time""
""fullscreenenter"",""1"",""2703""
","
","
","""event"",""trial"",""time""
""fullscreenenter"",""1"",""2703""
","
",,null,run_exp/static/images/task_images/land.jpg,null,,,,,,,92,,,10,,,,,,,,,,,,,,
dig,242,658289,0.0-75.0-3.0,"""event"",""trial"",""time""
""fullscreenenter"",""1"",""2703""
","
","
","""event"",""trial"",""time""
""fullscreenenter"",""1"",""2703""
","
",,,,,,,,,,,,"[{""stimulus"":""run_exp/static/images/task_images/dig.jpg"",""time"":0.20000004768371582},{""stimulus"":""run_exp/static/images/task_images/land.jpg"",""time"":670},{""stimulus"":""run_exp/static/images/task_images/dig.jpg"",""time"":1347.7999999523163}]",[],10,,,,,,,,,,,,,,
harvest,243,659296,0.0-75.0-4.0,"""event"",""trial"",""time""
""fullscreenenter"",""1"",""2703""
","
","
","""event"",""trial"",""time""
""fullscreenenter"",""1"",""2703""
","
",,null,run_exp/static/images/task_images/gems/92.jpg,null,,,,,,,18,,,10,,,,,92,0.192358493,0.195652174,,,,,,,
decision,244,659703,0.0-75.0-5.0,"""event"",""trial"",""time""
""fullscreenenter"",""1"",""2703""
","
","
","""event"",""trial"",""time""
""fullscreenenter"",""1"",""2703""
","
",,406,run_exp/static/images/task_images/land.jpg,65,,,,,,,18,,,10,,,,,,,,35574,2,0,FALSE,,,
dig,245,662301,0.0-76.0-0.0,"""event"",""trial"",""time""
""fullscreenenter"",""1"",""2703""
","
","
","""event"",""trial"",""time""
""fullscreenenter"",""1"",""2703""
","
",,,,,,,,,,,,"[{""stimulus"":""run_exp/static/images/task_images/dig.jpg"",""time"":0.2999999523162842},{""stimulus"":""run_exp/static/images/task_images/land.jpg"",""time"":867.9000000953674},{""stimulus"":""run_exp/static/images/task_images/dig.jpg"",""time"":1737.2000000476837}]",[],10,,,,,,,,,,,,,,
harvest,246,663311,0.0-76.0-1.0,"""event"",""trial"",""time""
""fullscreenenter"",""1"",""2703""
","
","
","""event"",""trial"",""time""
""fullscreenenter"",""1"",""2703""
","
",,null,run_exp/static/images/task_images/gems/18.jpg,null,,,,,,,3,,,10,,,,,18,0.187988184,0.166666667,,,,,,,
decision,247,663340,0.0-76.0-2.0,"""event"",""trial"",""time""
""fullscreenenter"",""1"",""2703""
","
","
","""event"",""trial"",""time""
""fullscreenenter"",""1"",""2703""
","
",,27.9000001,run_exp/static/images/task_images/land.jpg,65,,,,,,,3,,,10,,,,,,,,39212,2,1,FALSE,,,
dig,248,666323,0.0-77.0-0.0,"""event"",""trial"",""time""
""fullscreenenter"",""1"",""2703""
","
","
","""event"",""trial"",""time""
""fullscreenenter"",""1"",""2703""
","
",,,,,,,,,,,,"[{""stimulus"":""run_exp/static/images/task_images/dig.jpg"",""time"":0.2999999523162842},{""stimulus"":""run_exp/static/images/task_images/land.jpg"",""time"":1006.8999998569489},{""stimulus"":""run_exp/static/images/task_images/dig.jpg"",""time"":1984.7999999523163}]",[],10,,,,,,,,,,,,,,
harvest,249,667334,0.0-77.0-1.0,"""event"",""trial"",""time""
""fullscreenenter"",""1"",""2703""
","
","
","""event"",""trial"",""time""
""fullscreenenter"",""1"",""2703""
","
",,null,run_exp/static/images/task_images/gems/3.jpg,null,,,,,,,1,,,10,,,,,3,0.263079412,0.333333333,,,,,,,
decision,250,667484,0.0-77.0-2.0,"""event"",""trial"",""time""
""fullscreenenter"",""1"",""2703""
","
","
","""event"",""trial"",""time""
""fullscreenenter"",""1"",""2703""
","
",,148.7,run_exp/static/images/task_images/land.jpg,76,,,,,,,1,,,10,,,,,,,,43355,2,2,TRUE,,,
travel,251,677345,0.0-78.0-0.0,"""event"",""trial"",""time""
""fullscreenenter"",""1"",""2703""
","
","
","""event"",""trial"",""time""
""fullscreenenter"",""1"",""2703""
","
