trial_type,trial_index,time_elapsed,internal_node_id,success,rt,stimulus,key_press,prompt,subject_id,age,gender,button_pressed,next_reward,animation_sequence,responses,planet,curr_prac_trial,n_prac_rounds,alien,aliens,reward_received,decay_rate_actual,decay_rate_exp,time_in_block,block_num,prt,last_trial_on_planet,button_html,bonus,num_failures
pavlovia,0,8,0.0-0.0,,,,,,,,,,,,,,,,,,,,,,,,,,,
fullscreen,1,4591,0.0-1.0,TRUE,,,,,,,,,,,,,,,,,,,,,,,,,,
instruc_welcome,2,14394,0.0-2.0,,null,run_exp/static/audio/clip_1_welcome.m4a,null,"<p>Howdy! In this experiment, you’ll be an explorer traveling through space to collect space treasure.</p><p>Your mission is to collect as much treasure as possible.</p><br><br><p><img src='run_exp/static/images/task_images/opening_img-01.jpg' height='300' width='auto'></p>",yLNyOKoVGca8bOH_a5Ke5UddwllDBGZ_MLRP_02n83oP619Fco9E,10.93,female,,,,,,,,,,,,,,,,,,,
audio-keyboard-response,3,31012,0.0-3.0,,null,run_exp/static/audio/clip_2_move.m4a,null,,,,,,,,,,,,,,,,,,,,,,,
welcome_dec,4,34186,0.0-4.0,,3169.035,"<p>Howdy! In this experiment, you’ll be an explorer traveling through space to collect space treasure.</p><p>Your mission is to collect as much treasure as possible.</p><br><br><p><img src='run_exp/static/images/task_images/opening_img-01.jpg' height='300' width='auto'></p>",,,,,,1,,,,,,,,,,,,,,,,,,
html-keyboard-response,5,37218,0.0-5.0,,3021.65,"<p>Howdy! In this experiment, you’ll be an explorer traveling through space to collect space treasure.</p><p>Your mission is to collect as much treasure as possible.</p><br><br><p><img src='run_exp/static/images/task_images/opening_img-01.jpg' height='300' width='auto'></p><button class=""jspsych-html-btn-unchosen""><img src=""run_exp/static/images/task_images/planet-01.jpg"" height=""50""></button><button class=""jspsych-html-btn-chosen""><img src=""run_exp/static/images/task_images/planet-02.jpg"" height=""50""></button><p><b>[press the space bar to lock in your answer]<b><br></p>",32,,,,,,,,,,,,,,,,,,,,,,,
instruc_goal,6,47313,0.0-6.0-0.0,,null,run_exp/static/audio/clip_3_goal.m4a,null,"<p> As a space explorer, you’ll visit different planets to dig for space treasure, these pink gems.</p> <p> The more treasure you dig up, the more bonus money you’ll win! </p><br><br><p><img src='run_exp/static/images/task_images/pink_gem.jpg' height='300' width='auto'></p>",,,,,,,,,,,,,,,,,,,,,,
instruc_goal,7,50659,0.0-6.0-1.0,,3337.565,"<p> As a space explorer, you’ll visit different planets to dig for space treasure, these pink gems.</p> <p> The more treasure you dig up, the more bonus money you’ll win! </p><br><br><p><img src='run_exp/static/images/task_images/pink_gem.jpg' height='300' width='auto'></p>",,,,,,1,,,,,,,,,,,,,,,,,,
html-keyboard-response,8,52017,0.0-6.0-2.0,,1354.17,"<p> As a space explorer, you’ll visit different planets to dig for space treasure, these pink gems.</p> <p> The more treasure you dig up, the more bonus money you’ll win! </p><br><br><p><img src='run_exp/static/images/task_images/pink_gem.jpg' height='300' width='auto'></p><button class=""jspsych-html-btn-unchosen""><img src=""run_exp/static/images/task_images/planet-01.jpg"" height=""50""></button><button class=""jspsych-html-btn-chosen""><img src=""run_exp/static/images/task_images/planet-02.jpg"" height=""50""></button><p><b>[press the space bar to lock in your answer]<b><br></p>",32,,,,,,,,,,,,,,,,,,,,,,,
instruc_dig,9,68053,0.0-7.0-0.0,,null,run_exp/static/audio/clip_4_dig.m4a,null,,,,,,100,,,,,,,,,,,,,,,,,
instruc_dig_try,10,68509,0.0-7.0-1.0,,451.3,"<p> When you’ve arrived at a new planet, you will dig once. </p> <p>Then, you get to decide if you want to stay on the planet and dig again or travel to a new planet and dig there.</p> <p> To stay and dig, press the letter <strong>‘A’</strong> on your keyboard. Try pressing it now! </p><p><img src='run_exp/static/images/task_images/land.jpg'  height='700' width='auto'></p>",65,"<p> When you’ve arrived at a new planet, you will dig once. </p> <p>Then, you get to decide if you want to stay on the planet and dig again or travel to a new planet and dig there.</p> <p> To stay and dig, press the letter <strong>‘A’</strong> on your keyboard. Try pressing it now! </p><p><img src='run_exp/static/images/task_images/land.jpg'  height='700' width='auto'></p>",,,,,100,,,,,,,,,,,,,,,,,
dig_prac,11,70551,0.0-7.0-2.0,,,,,,,,,,,"[{""stimulus"":""run_exp/static/images/task_images/dig.jpg"",""time"":0.6699999794363976},{""stimulus"":""run_exp/static/images/task_images/land.jpg"",""time"":679.2249999998603},{""stimulus"":""run_exp/static/images/task_images/dig.jpg"",""time"":1337.2899999958463}]",[],,,,,,,,,,,,,,,
instruc_travel,12,106794,0.0-7.0-3.0,,null,run_exp/static/audio/clip_5_travel.m4a,null,"<p>Every time you dig up gems, there are less gems on the planet, so the more you dig on a planet the fewer gems you’ll get with each dig.</p><p>When gems are running low, you may want to travel to a new planet. </p> <p>  Planets are very far apart in this galaxy, so it will take some time to travel between them. </p> <br><p>There are lots and lots of planets for you to visit, so you won’t be able to return to any planets you’ve seen before. </p><br><p>To leave this planet and travel to a new one, press the letter <strong>‘L’</strong> on your keyboard. Try pressing it now! </p><p><img src='run_exp/static/images/task_images/rocket-01.jpg'  height='600' width='auto'></p>",,,,,,,,,,,,,,,,,,,,,,
instruc_travel_try,13,109311,0.0-7.0-4.0,,2511.235,"<p>Every time you dig up gems, there are less gems on the planet, so the more you dig on a planet the fewer gems you’ll get with each dig.</p><p>When gems are running low, you may want to travel to a new planet. </p> <p>  Planets are very far apart in this galaxy, so it will take some time to travel between them. </p> <br><p>There are lots and lots of planets for you to visit, so you won’t be able to return to any planets you’ve seen before. </p><br><p>To leave this planet and travel to a new one, press the letter <strong>‘L’</strong> on your keyboard. Try pressing it now! </p><p><img src='run_exp/static/images/task_images/rocket-01.jpg'  height='600' width='auto'></p>",76,"<p>Every time you dig up gems, there are less gems on the planet, so the more you dig on a planet the fewer gems you’ll get with each dig.</p><p>When gems are running low, you may want to travel to a new planet. </p> <p>  Planets are very far apart in this galaxy, so it will take some time to travel between them. </p> <br><p>There are lots and lots of planets for you to visit, so you won’t be able to return to any planets you’ve seen before. </p><br><p>To leave this planet and travel to a new one, press the letter <strong>‘L’</strong> on your keyboard. Try pressing it now! </p><p><img src='run_exp/static/images/task_images/rocket-01.jpg'  height='600' width='auto'></p>",,,,,,,,,,,,,,,,,,,,,,
travel_prac,14,119332,0.0-7.0-5.0,,,,,,,,,,,"[{""stimulus"":""run_exp/static/images/task_images/rocket-01.jpg"",""time"":0.7200000109151006},{""stimulus"":""run_exp/static/images/task_images/rocket-02.jpg"",""time"":1126.7050000024028},{""stimulus"":""run_exp/static/images/task_images/rocket-03.jpg"",""time"":2236.445000016829},{""stimulus"":""run_exp/static/images/task_images/rocket-04.jpg"",""time"":3357.3250000190455},{""stimulus"":""run_exp/static/images/task_images/rocket-05.jpg"",""time"":4456.790000025649},{""stimulus"":""run_exp/static/images/task_images/rocket-06.jpg"",""time"":5566.655000002356},{""stimulus"":""run_exp/static/images/task_images/rocket-07.jpg"",""time"":6676.7800000088755},{""stimulus"":""run_exp/static/images/task_images/rocket-08.jpg"",""time"":7786.690000008093},{""stimulus"":""run_exp/static/images/task_images/rocket-09.jpg"",""time"":8895.97500002128}]",[],0,,,,,,,,,,,,,,
instruc_alien_greet,15,146512,0.0-7.0-6.0,,null,run_exp/static/audio/clip_6_alien.m4a,null,"<p>When you arrive at a new planet, the alien who owns the treasure mine on that planet will greet you!</p><p>The better an alien takes care of their mine the easier it is to dig for gems. Some aliens take better care of their mine than others. So, you won’t get exactly the same amount of gems on each planet.</p><p>What the alien looks like does not tell you anything about how many gems there are on the planet.</p><br><p><img src=""run_exp/static/images/task_images/aliens/instructions_aliens/planet/alien_planet-1.jpg""  height=""600"" width=""auto""></p>",,,,,,,,,,,,,,,,,,,,,,
instruc_alien_greet,16,150758,0.0-7.0-7.0,,4241.875,"<p>When you arrive at a new planet, the alien who owns the treasure mine on that planet will greet you!</p><p>The better an alien takes care of their mine the easier it is to dig for gems. Some aliens take better care of their mine than others. So, you won’t get exactly the same amount of gems on each planet.</p><p>What the alien looks like does not tell you anything about how many gems there are on the planet.</p><br><p><img src=""run_exp/static/images/task_images/aliens/instructions_aliens/planet/alien_planet-1.jpg""  height=""600"" width=""auto""></p>",,,,,,1,,,,,,,,,,,,,,,,,,
html-keyboard-response,17,155270,0.0-7.0-8.0,,4506.66,"<p>When you arrive at a new planet, the alien who owns the treasure mine on that planet will greet you!</p><p>The better an alien takes care of their mine the easier it is to dig for gems. Some aliens take better care of their mine than others. So, you won’t get exactly the same amount of gems on each planet.</p><p>What the alien looks like does not tell you anything about how many gems there are on the planet.</p><br><p><img src=""run_exp/static/images/task_images/aliens/instructions_aliens/planet/alien_planet-1.jpg""  height=""600"" width=""auto""></p><button class=""jspsych-html-btn-unchosen""><img src=""run_exp/static/images/task_images/planet-01.jpg"" height=""50""></button><button class=""jspsych-html-btn-chosen""><img src=""run_exp/static/images/task_images/planet-02.jpg"" height=""50""></button><p><b>[press the space bar to lock in your answer]<b><br></p>",32,,,,,,,,,,,,,,,,,,,,,,,
time_out,18,166415,0.0-8.0-0.0,,null,run_exp/static/audio/clip_7_timeout.m4a,null,"<p>If you don't make your choice fast enough, you’ll have to wait a few seconds before you can make another one.</p><p>You can’t dig for more gems or travel to new planets. You just have to sit and wait.</p><br><p><img src='run_exp/static/images/task_images/time_out.jpg'  height='600' width='auto'></p>",,,,,,,,,,,,,,,,,,,,,,
time_out,19,169755,0.0-8.0-1.0,,3329.74,"<p>If you don't make your choice fast enough, you’ll have to wait a few seconds before you can make another one.</p><p>You can’t dig for more gems or travel to new planets. You just have to sit and wait.</p><br><p><img src='run_exp/static/images/task_images/time_out.jpg'  height='600' width='auto'></p>",,,,,,1,,,,,,,,,,,,,,,,,,
html-keyboard-response,20,172751,0.0-8.0-2.0,,2991.95,"<p>If you don't make your choice fast enough, you’ll have to wait a few seconds before you can make another one.</p><p>You can’t dig for more gems or travel to new planets. You just have to sit and wait.</p><br><p><img src='run_exp/static/images/task_images/time_out.jpg'  height='600' width='auto'></p><button class=""jspsych-html-btn-unchosen""><img src=""run_exp/static/images/task_images/planet-01.jpg"" height=""50""></button><button class=""jspsych-html-btn-chosen""><img src=""run_exp/static/images/task_images/planet-02.jpg"" height=""50""></button><p><b>[press the space bar to lock in your answer]<b><br></p>",32,,,,,,,,,,,,,,,,,,,,,,,
instruc_break,21,188475,0.0-9.0-0.0,,null,run_exp/static/audio/clip_8_break.m4a,null,"<p> After digging and traveling for a while, you’ll be able to take a break at home base. </p><p>The game will last 20 minutes no matter what.</p><p>You will visit home base every 5 minutes, so, you will visit home base three times during the game.</p><br><p><img src='run_exp/static/images/task_images/home_base.jpg' height='600' width='auto'></p>",,,,,,,,,,,,,,,,,,,,,,
instruc_break,22,192255,0.0-9.0-1.0,,3768.69,"<p> After digging and traveling for a while, you’ll be able to take a break at home base. </p><p>The game will last 20 minutes no matter what.</p><p>You will visit home base every 5 minutes, so, you will visit home base three times during the game.</p><br><p><img src='run_exp/static/images/task_images/home_base.jpg' height='600' width='auto'></p>",,,,,,1,,,,,,,,,,,,,,,,,,
html-keyboard-response,23,193313,0.0-9.0-2.0,,1054,"<p> After digging and traveling for a while, you’ll be able to take a break at home base. </p><p>The game will last 20 minutes no matter what.</p><p>You will visit home base every 5 minutes, so, you will visit home base three times during the game.</p><br><p><img src='run_exp/static/images/task_images/home_base.jpg' height='600' width='auto'></p><button class=""jspsych-html-btn-unchosen""><img src=""run_exp/static/images/task_images/planet-01.jpg"" height=""50""></button><button class=""jspsych-html-btn-chosen""><img src=""run_exp/static/images/task_images/planet-02.jpg"" height=""50""></button><p><b>[press the space bar to lock in your answer]<b><br></p>",32,,,,,,,,,,,,,,,,,,,,,,,
instruc_prac_game,24,203474,0.0-10.0-0.0,,null,run_exp/static/audio/clip_9_practice.m4a,null,"<p> Are you ready to play a practice game? </p> <p>In this practice game, you'll be digging up barrels of gems. But, in the real game, you'll be digging up the gems themselves. </p>",,,,,,,,,,,,,,,,,,,,,,
html-button-response,25,205277,0.0-10.0-1.0,,1798.895,"<p> Are you ready to play a practice game? </p> <p>In this practice game, you'll be digging up barrels of gems. But, in the real game, you'll be digging up the gems themselves. </p>",,,,,,0,,,,,,,,,,,,,,,,,,
alien_welcome_prac,26,210287,0.0-11.0-0.0,,null,run_exp/static/images/task_images/aliens/practice_aliens/planet/alien_planet-5.jpg,null,,,,,,,,,,,,,,,,,,,,,,,
land_prac,27,210798,0.0-11.0-1.0,,null,run_exp/static/images/task_images/land.jpg,null,,,,,,98,,,0,,,,,,,,,,,,,,
dig_prac,28,212812,0.0-11.0-2.0,,,,,,,,,,,"[{""stimulus"":""run_exp/static/images/task_images/dig.jpg"",""time"":0.7149999728426337},{""stimulus"":""run_exp/static/images/task_images/land.jpg"",""time"":676.3050000008661},{""stimulus"":""run_exp/static/images/task_images/dig.jpg"",""time"":1349.274999985937}]",[],,,,,,,,,,,,,,,
harvest_prac,29,213822,0.0-11.0-3.0,,null,run_exp/static/images/task_images/barrel_text.jpg,null,,,,,,,,,,,,,,,,,,,,,,,
decision_prac,30,214615,0.0-11.0-4.0,,789.17,run_exp/static/images/task_images/land.jpg,65,,,,,,,,,,1,,,,,,,,,,,,,
dig_prac,31,216652,0.0-12.0-0.0,,,,,,,,,,,"[{""stimulus"":""run_exp/static/images/task_images/dig.jpg"",""time"":0.46499999007210135},{""stimulus"":""run_exp/static/images/task_images/land.jpg"",""time"":676.6999999817926},{""stimulus"":""run_exp/static/images/task_images/dig.jpg"",""time"":1335.819999978412}]",[],,,,,,,,,,,,,,,
harvest_prac,32,217662,0.0-12.0-1.0,,null,run_exp/static/images/task_images/barrel_text.jpg,null,,,,,,,,,,,,,,,,,,,,,,,
decision_prac,33,217977,0.0-12.0-2.0,,311.795,run_exp/static/images/task_images/land.jpg,65,,,,,,,,,,2,,,,,,,,,,,,,
dig_prac,34,220002,0.0-13.0-0.0,,,,,,,,,,,"[{""stimulus"":""run_exp/static/images/task_images/dig.jpg"",""time"":0.4600000102072954},{""stimulus"":""run_exp/static/images/task_images/land.jpg"",""time"":679.7800000058487},{""stimulus"":""run_exp/static/images/task_images/dig.jpg"",""time"":1347.570000012638}]",[],,,,,,,,,,,,,,,
harvest_prac,35,221022,0.0-13.0-1.0,,null,run_exp/static/images/task_images/barrel_text.jpg,null,,,,,,,,,,,,,,,,,,,,,,,
decision_prac,36,221474,0.0-13.0-2.0,,448.5,run_exp/static/images/task_images/land.jpg,65,,,,,,,,,,3,,,,,,,,,,,,,
dig_prac,37,223502,0.0-14.0-0.0,,,,,,,,,,,"[{""stimulus"":""run_exp/static/images/task_images/dig.jpg"",""time"":0.49000000581145287},{""stimulus"":""run_exp/static/images/task_images/land.jpg"",""time"":681.0150000092108},{""stimulus"":""run_exp/static/images/task_images/dig.jpg"",""time"":1349.9100000190083}]",[],,,,,,,,,,,,,,,
harvest_prac,38,224524,0.0-14.0-1.0,,null,run_exp/static/images/task_images/barrel_text.jpg,null,,,,,,,,,,,,,,,,,,,,,,,
decision_prac,39,225172,0.0-14.0-2.0,,643.045,run_exp/static/images/task_images/land.jpg,65,,,,,,,,,,4,,,,,,,,,,,,,
dig_prac,40,227202,0.0-15.0-0.0,,,,,,,,,,,"[{""stimulus"":""run_exp/static/images/task_images/dig.jpg"",""time"":0.4600000102072954},{""stimulus"":""run_exp/static/images/task_images/land.jpg"",""time"":680.9200000134297},{""stimulus"":""run_exp/static/images/task_images/dig.jpg"",""time"":1347.0000000088476}]",[],,,,,,,,,,,,,,,
harvest_prac,41,228222,0.0-15.0-1.0,,null,run_exp/static/images/task_images/barrel_text.jpg,null,,,,,,,,,,,,,,,,,,,,,,,
decision_prac,42,229798,0.0-15.0-2.0,,1572.36,run_exp/static/images/task_images/land.jpg,76,,,,,,,,,,,1,,,,,,,,,,,,
quiz_instruc,43,245412,0.0-16.0-0.0,,15604.52,run_exp/static/audio/clip_10_quiz.m4a,,,,,,0,,,,,,,,,,,,,,,,,,
instruc_repeat,44,288174,0.0-16.0-1.0,,null,"<p> Are you ready to play a practice game? </p> <p>In this practice game, you'll be digging up barrels of gems. But, in the real game, you'll be digging up the gems themselves. </p>",null,"<p>In this game, your goal is to collect as many gems as you can. That’s how you will win bonus money. </p> <p>The entire game will last 20 minutes no matter how many gems you collect or how many planets you visit. </p><p>To stay on a planet and dig again, press the letter A on your keyboard. To leave for a new planet, press the letter L.</p><p>The more you dig on a planet, the fewer gems you’ll get with each dig which is why you might consider leaving for a new planet. </p><p>When you arrive at a new planet, you’ll be greeted by an alien. What the alien looks like does not tell you anything about how much treasure is on the planet. </p>",,,,,,,,,,,,,,,,,,,,,,
instruc_repeat_continue,45,292022,0.0-16.0-2.0,,3844.185,"<p> Are you ready to play a practice game? </p> <p>In this practice game, you'll be digging up barrels of gems. But, in the real game, you'll be digging up the gems themselves. </p>",,,,,,0,,,,,,,,,,,,,,,,,,
quiz_q_1_ask,46,295875,0.0-16.0-3.0,,3847.97,run_exp/static/audio/clip_11_q1_ask.m4a,,,,,,2,,,,,,,,,,,,,,,,,,
quiz_q_1_fb_correct,47,299755,0.0-17.0-0.0,,null,run_exp/static/audio/clip_12_q1_corrrect.m4a,null,<p>That’s correct. You win extra money by collecting more gems.</p>,,,,,,,,,,,,,,,,,,,,,,
quiz_q_2_ask,48,302715,0.0-17.0-1.0,,2953.805,run_exp/static/audio/clip_14_q2_ask.m4a,,,,,,1,,,,,,,,,,,,,,,,,,
quiz_q_2_fb_correct,49,306774,0.0-18.0-0.0,,null,run_exp/static/audio/clip_15_q2_correct.m4a,null,<p>That’s correct. The experiment is 20 minutes no matter what.</p>,,,,,,,,,,,,,,,,,,,,,,
quiz_q_3_ask,50,309215,0.0-18.0-1.0,,2435.66,run_exp/static/audio/clip_17_q3_ask.m4a,,,,,,1,,,,,,,,,,,,,,,,,,
quiz_q_3_fb_correct,51,313234,0.0-19.0-0.0,,null,run_exp/static/audio/clip_18_q3_correct.m4a,null,<p> That’s correct. You press the letter L to travel to a new planet.</p>,,,,,,,,,,,,,,,,,,,,,,
quiz_q_4_ask,52,316844,0.0-19.0-1.0,,3604.09,run_exp/static/audio/clip_20_q4_ask.m4a,,,,,,0,,,,,,,,,,,,,,,,,,
quiz_q_4_fb_correct,53,322214,0.0-20.0-0.0,,null,run_exp/static/audio/clip_21_q4_correct.m4a,null,<p> That’s correct. The more you dig on a planet the fewer gems you’ll get with each dig. </p>,,,,,,,,,,,,,,,,,,,,,,
quiz_q_5_ask,54,324106,0.0-20.0-1.0,,1885.76,run_exp/static/audio/clip_23_q5_ask.m4a,,,,,,1,,,,,,,,,,,,,,,,,,
quiz_q_5_fb_correct,55,329174,0.0-21.0-0.0,,null,run_exp/static/audio/clip_24_q5_correct.m4a,null,<p> That’s correct. The alien tells you nothing about how much treasure is on the planet.</p>,,,,,,,,,,,,,,,,,,,,,,
quiz_correct,56,332674,0.0-22.0-0.0,,null,run_exp/static/audio/clip_26_correct_quiz.m4a,null,,,,,,,,,,,,,,,,,,,,,,,
quiz_correct_continue,57,334362,0.0-22.0-1.0,,1680.485,<p>Good job! You're now ready to move on to the real game!</p>,,,,,,0,,,,,,,,,,,,,,,,,,
audio-keyboard-response,58,344531,0.0-22.0-2.0,,null,run_exp/static/audio/clip_28_real_game.m4a,null,,,,,,,,,,,,,,,,,,,,,,,
instruc_begin_exp_contine,59,346141,0.0-22.0-3.0,,1608.725,"<p>Now that you know how  to dig for space treasure and travel to new planets,you can start exploring! </p><p>Do you want to go over the instructions again or get started with the real game?</p>",,,,,,1,,,,,,1,,,,,,,,,,,,
alien_welcome,60,351146,0.0-23.0-0.0,,null,run_exp/static/images/task_images/aliens/old_aliens/planet/alien_planet-77.jpg,null,,,,,,,,,,,,77,"77,40,44,39,80,38,25,34,9,72,78,36,54,42,60,11,7,8,75,27,79,18,76,64,29,37,59,49,51,46,70,32",,,,,,,,,,
land,61,351651,0.0-23.0-1.0,,null,run_exp/static/images/task_images/land.jpg,null,,,,,,96,,,1,,,,,,,,,,,,,,
dig,62,353671,0.0-23.0-2.0,,,,,,,,,,,"[{""stimulus"":""run_exp/static/images/task_images/dig.jpg"",""time"":0.39500001003034413},{""stimulus"":""run_exp/static/images/task_images/land.jpg"",""time"":675.1300000178162},{""stimulus"":""run_exp/static/images/task_images/dig.jpg"",""time"":1341.7699999990873}]",[],1,,,,,,,,,,,,,,
harvest,63,354692,0.0-23.0-3.0,,null,run_exp/static/images/task_images/gems/96.jpg,null,,,,,,16,,,1,,,,,96,0.171869914,0.166666667,,,,,,,
decision,64,355318,0.0-23.0-4.0,,621.46,run_exp/static/images/task_images/land.jpg,65,,,,,,16,,,1,,,,,,,,9175,1,0,FALSE,,,
dig,65,357711,0.0-24.0-0.0,,,,,,,,,,,"[{""stimulus"":""run_exp/static/images/task_images/dig.jpg"",""time"":0.44999999227002263},{""stimulus"":""run_exp/static/images/task_images/land.jpg"",""time"":802.8699999849778},{""stimulus"":""run_exp/static/images/task_images/dig.jpg"",""time"":1593.6349999974482}]",[],1,,,,,,,,,,,,,,
harvest,66,358732,0.0-24.0-1.0,,null,run_exp/static/images/task_images/gems/16.jpg,null,,,,,,3,,,1,,,,,16,0.214073076,0.1875,,,,,,,
decision,67,359616,0.0-24.0-2.0,,879.98,run_exp/static/images/task_images/land.jpg,65,,,,,,3,,,1,,,,,,,,13472,1,1,FALSE,,,
dig,68,361752,0.0-25.0-0.0,,,,,,,,,,,"[{""stimulus"":""run_exp/static/images/task_images/dig.jpg"",""time"":0.6449999928008765},{""stimulus"":""run_exp/static/images/task_images/land.jpg"",""time"":725.9199999971315},{""stimulus"":""run_exp/static/images/task_images/dig.jpg"",""time"":1416.4549999986775}]",[],1,,,,,,,,,,,,,,
harvest,69,362772,0.0-25.0-1.0,,null,run_exp/static/images/task_images/gems/3.jpg,null,,,,,,1,,,1,,,,,3,0.287566445,0.333333333,,,,,,,
decision,70,363753,0.0-25.0-2.0,,977.13,run_exp/static/images/task_images/land.jpg,76,,,,,,1,,,1,,,,,,,,17610,1,2,TRUE,,,
travel,71,372792,0.0-26.0-0.0,,,,,,,,,,,"[{""stimulus"":""run_exp/static/images/task_images/rocket-01.jpg"",""time"":0.46499999007210135},{""stimulus"":""run_exp/static/images/task_images/rocket-02.jpg"",""time"":1008.9150000130758},{""stimulus"":""run_exp/static/images/task_images/rocket-03.jpg"",""time"":2008.8350000150967},{""stimulus"":""run_exp/static/images/task_images/rocket-04.jpg"",""time"":3018.2849999982864},{""stimulus"":""run_exp/static/images/task_images/rocket-05.jpg"",""time"":4017.9300000017975},{""stimulus"":""run_exp/static/images/task_images/rocket-06.jpg"",""time"":5018.190000002505},{""stimulus"":""run_exp/static/images/task_images/rocket-07.jpg"",""time"":6018.905000004452},{""stimulus"":""run_exp/static/images/task_images/rocket-08.jpg"",""time"":7027.995000011288},{""stimulus"":""run_exp/static/images/task_images/rocket-09.jpg"",""time"":8028.064999991329}]",[],1,,,,,,,,,,,,,,
alien_welcome,72,377812,0.0-26.0-1.0,,null,run_exp/static/images/task_images/aliens/old_aliens/planet/alien_planet-40.jpg,null,,,,,,,,,,,,40,"77,40,44,39,80,38,25,34,9,72,78,36,54,42,60,11,7,8,75,27,79,18,76,64,29,37,59,49,51,46,70,32",,,,,,,,,,
land,73,378332,0.0-26.0-2.0,,null,run_exp/static/images/task_images/land.jpg,null,,,,,,109,,,2,,,,,,,,,,,,,,
dig,74,380351,0.0-26.0-3.0,,,,,,,,,,,"[{""stimulus"":""run_exp/static/images/task_images/dig.jpg"",""time"":0.5599999858532101},{""stimulus"":""run_exp/static/images/task_images/land.jpg"",""time"":675.8249999838881},{""stimulus"":""run_exp/static/images/task_images/dig.jpg"",""time"":1343.909999995958}]",[],2,,,,,,,,,,,,,,
harvest,75,381362,0.0-26.0-4.0,,null,run_exp/static/images/task_images/gems/109.jpg,null,,,,,,18,,,2,,,,,109,0.165395223,0.165137615,,,,,,,
decision,76,381742,0.0-26.0-5.0,,376.19,run_exp/static/images/task_images/land.jpg,65,,,,,,18,,,2,,,,,,,,35599,1,0,FALSE,,,
dig,77,384391,0.0-27.0-0.0,,,,,,,,,,,"[{""stimulus"":""run_exp/static/images/task_images/dig.jpg"",""time"":0.49000000581145287},{""stimulus"":""run_exp/static/images/task_images/land.jpg"",""time"":877.5750000204425},{""stimulus"":""run_exp/static/images/task_images/dig.jpg"",""time"":1759.7100000130013}]",[],2,,,,,,,,,,,,,,
harvest,78,385409,0.0-27.0-1.0,,null,run_exp/static/images/task_images/gems/18.jpg,null,,,,,,3,,,2,,,,,18,0.167315506,0.166666667,,,,,,,
decision,79,385867,0.0-27.0-2.0,,454.01,run_exp/static/images/task_images/land.jpg,65,,,,,,3,,,2,,,,,,,,39724,1,1,FALSE,,,
dig,80,388441,0.0-28.0-0.0,,,,,,,,,,,"[{""stimulus"":""run_exp/static/images/task_images/dig.jpg"",""time"":0.4999999946448952},{""stimulus"":""run_exp/static/images/task_images/land.jpg"",""time"":870.6200000015087},{""stimulus"":""run_exp/static/images/task_images/dig.jpg"",""time"":1699.594999983674}]",[],2,,,,,,,,,,,,,,
harvest,81,389457,0.0-28.0-1.0,,null,run_exp/static/images/task_images/gems/3.jpg,null,,,,,,1,,,2,,,,,3,0.19717125,0.333333333,,,,,,,
decision,82,389818,0.0-28.0-2.0,,356.46,run_exp/static/images/task_images/land.jpg,65,,,,,,1,,,2,,,,,,,,43674,1,2,FALSE,,,
dig,83,392481,0.0-29.0-0.0,,,,,,,,,,,"[{""stimulus"":""run_exp/static/images/task_images/dig.jpg"",""time"":0.4999999946448952},{""stimulus"":""run_exp/static/images/task_images/land.jpg"",""time"":903.6699999996927},{""stimulus"":""run_exp/static/images/task_images/dig.jpg"",""time"":1773.3049999806099}]",[],2,,,,,,,,,,,,,,
harvest,84,393487,0.0-29.0-1.0,,null,run_exp/static/images/task_images/gems/1.jpg,null,,,,,,0,,,2,,,,,1,0.227208441,0,,,,,,,
decision,85,394621,0.0-29.0-2.0,,1129.395,run_exp/static/images/task_images/land.jpg,76,,,,,,0,,,2,,,,,,,,48477,1,3,TRUE,,,
travel,86,403512,0.0-30.0-0.0,,,,,,,,,,,"[{""stimulus"":""run_exp/static/images/task_images/rocket-01.jpg"",""time"":0.5449999880511314},{""stimulus"":""run_exp/static/images/task_images/rocket-02.jpg"",""time"":1001.4099999971222},{""stimulus"":""run_exp/static/images/task_images/rocket-03.jpg"",""time"":1981.7399999883492},{""stimulus"":""run_exp/static/images/task_images/rocket-04.jpg"",""time"":2970.8699999901},{""stimulus"":""run_exp/static/images/task_images/rocket-05.jpg"",""time"":3961.349999997765},{""stimulus"":""run_exp/static/images/task_images/rocket-06.jpg"",""time"":4936.424999992596},{""stimulus"":""run_exp/static/images/task_images/rocket-07.jpg"",""time"":5931.354999978794},{""stimulus"":""run_exp/static/images/task_images/rocket-08.jpg"",""time"":6911.664999992354},{""stimulus"":""run_exp/static/images/task_images/rocket-09.jpg"",""time"":7901.684999989811}]",[],2,,,,,,,,,,,,,,
alien_welcome,87,408532,0.0-30.0-1.0,,null,run_exp/static/images/task_images/aliens/old_aliens/planet/alien_planet-44.jpg,null,,,,,,,,,,,,44,"77,40,44,39,80,38,25,34,9,72,78,36,54,42,60,11,7,8,75,27,79,18,76,64,29,37,59,49,51,46,70,32",,,,,,,,,,
land,88,409052,0.0-30.0-2.0,,null,run_exp/static/images/task_images/land.jpg,null,,,,,,100,,,3,,,,,,,,,,,,,,
dig,89,411061,0.0-30.0-3.0,,,,,,,,,,,"[{""stimulus"":""run_exp/static/images/task_images/dig.jpg"",""time"":0.6600000197067857},{""stimulus"":""run_exp/static/images/task_images/land.jpg"",""time"":685.4800000146497},{""stimulus"":""run_exp/static/images/task_images/dig.jpg"",""time"":1353.8899999985006}]",[],3,,,,,,,,,,,,,,
harvest,90,412071,0.0-30.0-4.0,,null,run_exp/static/images/task_images/gems/100.jpg,null,,,,,,42,,,3,,,,,100,0.418005332,0.42,,,,,,,
decision,91,412454,0.0-30.0-5.0,,379.175,run_exp/static/images/task_images/land.jpg,65,,,,,,42,,,3,,,,,,,,66310,1,0,FALSE,,,
dig,92,415090,0.0-31.0-0.0,,,,,,,,,,,"[{""stimulus"":""run_exp/static/images/task_images/dig.jpg"",""time"":0.4799999878741801},{""stimulus"":""run_exp/static/images/task_images/land.jpg"",""time"":892.5599999784026},{""stimulus"":""run_exp/static/images/task_images/dig.jpg"",""time"":1765.7949999847915}]",[],3,,,,,,,,,,,,,,
harvest,93,416102,0.0-31.0-1.0,,null,run_exp/static/images/task_images/gems/42.jpg,null,,,,,,20,,,3,,,,,42,0.474689743,0.476190476,,,,,,,
decision,94,416432,0.0-31.0-2.0,,320.005,run_exp/static/images/task_images/land.jpg,65,,,,,,20,,,3,,,,,,,,70288,1,1,FALSE,,,
dig,95,419141,0.0-32.0-0.0,,,,,,,,,,,"[{""stimulus"":""run_exp/static/images/task_images/dig.jpg"",""time"":0.5050000036135316},{""stimulus"":""run_exp/static/images/task_images/land.jpg"",""time"":911.2350000068545},{""stimulus"":""run_exp/static/images/task_images/dig.jpg"",""time"":1800.7349999970756}]",[],3,,,,,,,,,,,,,,
harvest,96,420154,0.0-32.0-1.0,,null,run_exp/static/images/task_images/gems/20.jpg,null,,,,,,12,,,3,,,,,20,0.583410676,0.6,,,,,,,
decision,97,420828,0.0-32.0-2.0,,670.295,run_exp/static/images/task_images/land.jpg,76,,,,,,12,,,3,,,,,,,,74684,1,2,TRUE,,,
travel,98,430172,0.0-33.0-0.0,,,,,,,,,,,"[{""stimulus"":""run_exp/static/images/task_images/rocket-01.jpg"",""time"":0.5300000193528831},{""stimulus"":""run_exp/static/images/task_images/rocket-02.jpg"",""time"":1055.3300000028685},{""stimulus"":""run_exp/static/images/task_images/rocket-03.jpg"",""time"":2075.570000015432},{""stimulus"":""run_exp/static/images/task_images/rocket-04.jpg"",""time"":3125.255000020843},{""stimulus"":""run_exp/static/images/task_images/rocket-05.jpg"",""time"":4164.82000000542},{""stimulus"":""run_exp/static/images/task_images/rocket-06.jpg"",""time"":5184.690000023693},{""stimulus"":""run_exp/static/images/task_images/rocket-07.jpg"",""time"":6234.415000013541},{""stimulus"":""run_exp/static/images/task_images/rocket-08.jpg"",""time"":7265.675000002375},{""stimulus"":""run_exp/static/images/task_images/rocket-09.jpg"",""time"":8295.315000024857}]",[],3,,,,,,,,,,,,,,
alien_welcome,99,435192,0.0-33.0-1.0,,null,run_exp/static/images/task_images/aliens/old_aliens/planet/alien_planet-39.jpg,null,,,,,,,,,,,,39,"77,40,44,39,80,38,25,34,9,72,78,36,54,42,60,11,7,8,75,27,79,18,76,64,29,37,59,49,51,46,70,32",,,,,,,,,,
land,100,435712,0.0-33.0-2.0,,null,run_exp/static/images/task_images/land.jpg,null,,,,,,98,,,4,,,,,,,,,,,,,,
dig,101,437732,0.0-33.0-3.0,,,,,,,,,,,"[{""stimulus"":""run_exp/static/images/task_images/dig.jpg"",""time"":0.1500000071246177},{""stimulus"":""run_exp/static/images/task_images/land.jpg"",""time"":676.8450000090525},{""stimulus"":""run_exp/static/images/task_images/dig.jpg"",""time"":1344.489999988582}]",[],4,,,,,,,,,,,,,,
harvest,102,438741,0.0-33.0-4.0,,null,run_exp/static/images/task_images/gems/98.jpg,null,,,,,,52,,,4,,,,,98,0.531154984,0.530612245,,,,,,,
decision,103,439027,0.0-33.0-5.0,,281.895,run_exp/static/images/task_images/land.jpg,65,,,,,,52,,,4,,,,,,,,92884,1,0,FALSE,,,
dig,104,441761,0.0-34.0-0.0,,,,,,,,,,,"[{""stimulus"":""run_exp/static/images/task_images/dig.jpg"",""time"":0.4250000056345016},{""stimulus"":""run_exp/static/images/task_images/land.jpg"",""time"":920.7149999856483},{""stimulus"":""run_exp/static/images/task_images/dig.jpg"",""time"":1823.9949999842793}]",[],4,,,,,,,,,,,,,,
harvest,105,442772,0.0-34.0-1.0,,null,run_exp/static/images/task_images/gems/52.jpg,null,,,,,,25,,,4,,,,,52,0.48791082,0.480769231,,,,,,,
decision,106,443107,0.0-34.0-2.0,,330.045,run_exp/static/images/task_images/land.jpg,65,,,,,,25,,,4,,,,,,,,96963,1,1,FALSE,,,
dig,107,445791,0.0-35.0-0.0,,,,,,,,,,,"[{""stimulus"":""run_exp/static/images/task_images/dig.jpg"",""time"":0.455000001238659},{""stimulus"":""run_exp/static/images/task_images/land.jpg"",""time"":895.2400000125635},{""stimulus"":""run_exp/static/images/task_images/dig.jpg"",""time"":1785.375000006752}]",[],4,,,,,,,,,,,,,,
harvest,108,446804,0.0-35.0-1.0,,null,run_exp/static/images/task_images/gems/25.jpg,null,,,,,,13,,,4,,,,,25,0.532318912,0.52,,,,,,,
decision,109,448016,0.0-35.0-2.0,,1207.925,run_exp/static/images/task_images/land.jpg,65,,,,,,13,,,4,,,,,,,,101872,1,2,FALSE,,,
dig,110,449821,0.0-36.0-0.0,,,,,,,,,,,"[{""stimulus"":""run_exp/static/images/task_images/dig.jpg"",""time"":0.455000001238659},{""stimulus"":""run_exp/static/images/task_images/land.jpg"",""time"":607.1449999872129},{""stimulus"":""run_exp/static/images/task_images/dig.jpg"",""time"":1210.5049999954645}]",[],4,,,,,,,,,,,,,,
harvest,111,450832,0.0-36.0-1.0,,null,run_exp/static/images/task_images/gems/13.jpg,null,,,,,,7,,,4,,,,,13,0.524860878,0.538461538,,,,,,,
decision,112,451095,0.0-36.0-2.0,,259.525,run_exp/static/images/task_images/land.jpg,65,,,,,,7,,,4,,,,,,,,104951,1,3,FALSE,,,
dig,113,453861,0.0-37.0-0.0,,,,,,,,,,,"[{""stimulus"":""run_exp/static/images/task_images/dig.jpg"",""time"":0.39000000106170774},{""stimulus"":""run_exp/static/images/task_images/land.jpg"",""time"":930.8899999887217},{""stimulus"":""run_exp/static/images/task_images/dig.jpg"",""time"":1848.3000000123866}]",[],4,,,,,,,,,,,,,,
harvest,114,454882,0.0-37.0-1.0,,null,run_exp/static/images/task_images/gems/7.jpg,null,,,,,,4,,,4,,,,,7,0.507377362,0.571428571,,,,,,,
decision,115,456602,0.0-37.0-2.0,,1716.79,run_exp/static/images/task_images/land.jpg,65,,,,,,4,,,4,,,,,,,,110459,1,4,FALSE,,,
dig,116,457895,0.0-38.0-0.0,,,,,,,,,,,"[{""stimulus"":""run_exp/static/images/task_images/dig.jpg"",""time"":0.5149999924469739},{""stimulus"":""run_exp/static/images/task_images/land.jpg"",""time"":441.579999984242},{""stimulus"":""run_exp/static/images/task_images/dig.jpg"",""time"":871.1599999805912}]",[],4,,,,,,,,,,,,,,
harvest,117,458912,0.0-38.0-1.0,,null,run_exp/static/images/task_images/gems/4.jpg,null,,,,,,2,,,4,,,,,4,0.516788274,0.5,,,,,,,
decision,118,459187,0.0-38.0-2.0,,270.65,run_exp/static/images/task_images/land.jpg,65,,,,,,2,,,4,,,,,,,,113044,1,5,FALSE,,,
dig,119,461931,0.0-39.0-0.0,,,,,,,,,,,"[{""stimulus"":""run_exp/static/images/task_images/dig.jpg"",""time"":0.46999999904073775},{""stimulus"":""run_exp/static/images/task_images/land.jpg"",""time"":914.1600000148173},{""stimulus"":""run_exp/static/images/task_images/dig.jpg"",""time"":1834.549999999581}]",[],4,,,,,,,,,,,,,,
harvest,120,462943,0.0-39.0-1.0,,null,run_exp/static/images/task_images/gems/2.jpg,null,,,,,,1,,,4,,,,,2,0.420265659,0.5,,,,,,,
decision,121,463216,0.0-39.0-2.0,,268.12,run_exp/static/images/task_images/land.jpg,65,,,,,,1,,,4,,,,,,,,117072,1,6,FALSE,,,
dig,122,465971,0.0-40.0-0.0,,,,,,,,,,,"[{""stimulus"":""run_exp/static/images/task_images/dig.jpg"",""time"":0.4250000056345016},{""stimulus"":""run_exp/static/images/task_images/land.jpg"",""time"":915.8400000014808},{""stimulus"":""run_exp/static/images/task_images/dig.jpg"",""time"":1825.7600000069942}]",[],4,,,,,,,,,,,,,,
harvest,123,466992,0.0-40.0-1.0,,null,run_exp/static/images/task_images/gems/1.jpg,null,,,,,,1,,,4,,,,,1,0.545102887,1,,,,,,,
decision,124,467282,0.0-40.0-2.0,,284.89,run_exp/static/images/task_images/land.jpg,65,,,,,,1,,,4,,,,,,,,121138,1,7,FALSE,,,
dig,125,470021,0.0-41.0-0.0,,,,,,,,,,,"[{""stimulus"":""run_exp/static/images/task_images/dig.jpg"",""time"":0.6299999949987978},{""stimulus"":""run_exp/static/images/task_images/land.jpg"",""time"":911.2000000022817},{""stimulus"":""run_exp/static/images/task_images/dig.jpg"",""time"":1830.1550000032876}]",[],4,,,,,,,,,,,,,,
harvest,126,471037,0.0-41.0-1.0,,null,run_exp/static/images/task_images/gems/1.jpg,null,,,,,,0,,,4,,,,,1,0.475518969,0,,,,,,,
decision,127,471299,0.0-41.0-2.0,,258.33,run_exp/static/images/task_images/land.jpg,65,,,,,,0,,,4,,,,,,,,125155,1,8,FALSE,,,
dig,128,474061,0.0-42.0-0.0,,,,,,,,,,,"[{""stimulus"":""run_exp/static/images/task_images/dig.jpg"",""time"":0.46499999007210135},{""stimulus"":""run_exp/static/images/task_images/land.jpg"",""time"":923.1100000033621},{""stimulus"":""run_exp/static/images/task_images/dig.jpg"",""time"":1832.4549999961164}]",[],4,,,,,,,,,,,,,,
harvest,129,475068,0.0-42.0-1.0,,null,run_exp/static/images/task_images/gems/0.jpg,null,,,,,,0,,,4,,,,,0,0.505004308,NaN,,,,,,,
decision,130,475519,0.0-42.0-2.0,,446.97,run_exp/static/images/task_images/land.jpg,65,,,,,,0,,,4,,,,,,,,129375,1,9,FALSE,,,
dig,131,478101,0.0-43.0-0.0,,,,,,,,,,,"[{""stimulus"":""run_exp/static/images/task_images/dig.jpg"",""time"":0.43000001460313797},{""stimulus"":""run_exp/static/images/task_images/land.jpg"",""time"":862.634999997681},{""stimulus"":""run_exp/static/images/task_images/dig.jpg"",""time"":1722.7700000221375}]",[],4,,,,,,,,,,,,,,
harvest,132,479116,0.0-43.0-1.0,,null,run_exp/static/images/task_images/gems/0.jpg,null,,,,,,0,,,4,,,,,0,0.54026357,NaN,,,,,,,
decision,133,480587,0.0-43.0-2.0,,1466.43,run_exp/static/images/task_images/land.jpg,76,,,,,,0,,,4,,,,,,,,134443,1,10,TRUE,,,
travel,134,489151,0.0-44.0-0.0,,,,,,,,,,,"[{""stimulus"":""run_exp/static/images/task_images/rocket-01.jpg"",""time"":0.6950000242795795},{""stimulus"":""run_exp/static/images/task_images/rocket-02.jpg"",""time"":952.7999999991152},{""stimulus"":""run_exp/static/images/task_images/rocket-03.jpg"",""time"":1913.5750000132248},{""stimulus"":""run_exp/static/images/task_images/rocket-04.jpg"",""time"":2862.955000018701},{""stimulus"":""run_exp/static/images/task_images/rocket-05.jpg"",""time"":3803.475000022445},{""stimulus"":""run_exp/static/images/task_images/rocket-06.jpg"",""time"":4753.055000008317},{""stimulus"":""run_exp/static/images/task_images/rocket-07.jpg"",""time"":5703.195000009146},{""stimulus"":""run_exp/static/images/task_images/rocket-08.jpg"",""time"":6642.44000002509},{""stimulus"":""run_exp/static/images/task_images/rocket-09.jpg"",""time"":7592.935000022408}]",[],4,,,,,,,,,,,,,,
alien_welcome,135,494171,0.0-44.0-1.0,,null,run_exp/static/images/task_images/aliens/old_aliens/planet/alien_planet-80.jpg,null,,,,,,,,,,,,80,"77,40,44,39,80,38,25,34,9,72,78,36,54,42,60,11,7,8,75,27,79,18,76,64,29,37,59,49,51,46,70,32",,,,,,,,,,
land,136,494691,0.0-44.0-2.0,,null,run_exp/static/images/task_images/land.jpg,null,,,,,,102,,,5,,,,,,,,,,,,,,
dig,137,496711,0.0-44.0-3.0,,,,,,,,,,,"[{""stimulus"":""run_exp/static/images/task_images/dig.jpg"",""time"":0.534999999217689},{""stimulus"":""run_exp/static/images/task_images/land.jpg"",""time"":676.9149999890942},{""stimulus"":""run_exp/static/images/task_images/dig.jpg"",""time"":1343.5449999815319}]",[],5,,,,,,,,,,,,,,
harvest,138,497732,0.0-44.0-4.0,,null,run_exp/static/images/task_images/gems/102.jpg,null,,,,,,52,,,5,,,,,102,0.505300481,0.509803922,,,,,,,
decision,139,498104,0.0-44.0-5.0,,366.325,run_exp/static/images/task_images/land.jpg,65,,,,,,52,,,5,,,,,,,,151961,1,0,FALSE,,,
dig,140,500741,0.0-45.0-0.0,,,,,,,,,,,"[{""stimulus"":""run_exp/static/images/task_images/dig.jpg"",""time"":0.18999999156221747},{""stimulus"":""run_exp/static/images/task_images/land.jpg"",""time"":894.9599999759812},{""stimulus"":""run_exp/static/images/task_images/dig.jpg"",""time"":1762.974999990547}]",[],5,,,,,,,,,,,,,,
harvest,141,501751,0.0-45.0-1.0,,null,run_exp/static/images/task_images/gems/52.jpg,null,,,,,,28,,,5,,,,,52,0.531618381,0.538461538,,,,,,,
decision,142,502112,0.0-45.0-2.0,,356.3,run_exp/static/images/task_images/land.jpg,65,,,,,,28,,,5,,,,,,,,155968,1,1,FALSE,,,
dig,143,504772,0.0-46.0-0.0,,,,,,,,,,,"[{""stimulus"":""run_exp/static/images/task_images/dig.jpg"",""time"":0.5049999745097011},{""stimulus"":""run_exp/static/images/task_images/land.jpg"",""time"":889.4499999878462},{""stimulus"":""run_exp/static/images/task_images/dig.jpg"",""time"":1769.0099999890663}]",[],5,,,,,,,,,,,,,,
harvest,144,505782,0.0-46.0-1.0,,null,run_exp/static/images/task_images/gems/28.jpg,null,,,,,,14,,,5,,,,,28,0.494420172,0.5,,,,,,,
decision,145,507024,0.0-46.0-2.0,,1237.76,run_exp/static/images/task_images/land.jpg,65,,,,,,14,,,5,,,,,,,,160881,1,2,FALSE,,,
dig,146,508801,0.0-47.0-0.0,,,,,,,,,,,"[{""stimulus"":""run_exp/static/images/task_images/dig.jpg"",""time"":0.15499998698942363},{""stimulus"":""run_exp/static/images/task_images/land.jpg"",""time"":593.7949999934062},{""stimulus"":""run_exp/static/images/task_images/dig.jpg"",""time"":1186.119999998482}]",[],5,,,,,,,,,,,,,,
harvest,147,509811,0.0-47.0-1.0,,null,run_exp/static/images/task_images/gems/14.jpg,null,,,,,,6,,,5,,,,,14,0.463858828,0.428571429,,,,,,,
decision,148,509942,0.0-47.0-2.0,,125.28,run_exp/static/images/task_images/land.jpg,76,,,,,,6,,,5,,,,,,,,163798,1,3,TRUE,,,
travel,149,519831,0.0-48.0-0.0,,,,,,,,,,,"[{""stimulus"":""run_exp/static/images/task_images/rocket-01.jpg"",""time"":0.45999998110346496},{""stimulus"":""run_exp/static/images/task_images/rocket-02.jpg"",""time"":1117.8950000030454},{""stimulus"":""run_exp/static/images/task_images/rocket-03.jpg"",""time"":2197.5749999983236},{""stimulus"":""run_exp/static/images/task_images/rocket-04.jpg"",""time"":3297.6699999999255},{""stimulus"":""run_exp/static/images/task_images/rocket-05.jpg"",""time"":4397.6350000011735},{""stimulus"":""run_exp/static/images/task_images/rocket-06.jpg"",""time"":5487.969999987399},{""stimulus"":""run_exp/static/images/task_images/rocket-07.jpg"",""time"":6597.890000004554},{""stimulus"":""run_exp/static/images/task_images/rocket-08.jpg"",""time"":7687.730000005104},{""stimulus"":""run_exp/static/images/task_images/rocket-09.jpg"",""time"":8797.850000002654}]",[],5,,,,,,,,,,,,,,
alien_welcome,150,524851,0.0-48.0-1.0,,null,run_exp/static/images/task_images/aliens/old_aliens/planet/alien_planet-38.jpg,null,,,,,,,,,,,,38,"77,40,44,39,80,38,25,34,9,72,78,36,54,42,60,11,7,8,75,27,79,18,76,64,29,37,59,49,51,46,70,32",,,,,,,,,,
land,151,525361,0.0-48.0-2.0,,null,run_exp/static/images/task_images/land.jpg,null,,,,,,102,,,6,,,,,,,,,,,,,,
dig,152,527381,0.0-48.0-3.0,,,,,,,,,,,"[{""stimulus"":""run_exp/static/images/task_images/dig.jpg"",""time"":0.645000021904707},{""stimulus"":""run_exp/static/images/task_images/land.jpg"",""time"":677.0350000006147},{""stimulus"":""run_exp/static/images/task_images/dig.jpg"",""time"":1353.3250000036787}]",[],6,,,,,,,,,,,,,,
harvest,153,528390,0.0-48.0-4.0,,null,run_exp/static/images/task_images/gems/102.jpg,null,,,,,,85,,,6,,,,,102,0.82937262,0.833333333,,,,,,,
decision,154,528736,0.0-48.0-5.0,,341.455,run_exp/static/images/task_images/land.jpg,65,,,,,,85,,,6,,,,,,,,182592,1,0,FALSE,,,
dig,155,531412,0.0-49.0-0.0,,,,,,,,,,,"[{""stimulus"":""run_exp/static/images/task_images/dig.jpg"",""time"":0.455000001238659},{""stimulus"":""run_exp/static/images/task_images/land.jpg"",""time"":888.7000000104308},{""stimulus"":""run_exp/static/images/task_images/dig.jpg"",""time"":1786.4450000051875}]",[],6,,,,,,,,,,,,,,
harvest,156,532415,0.0-49.0-1.0,,null,run_exp/static/images/task_images/gems/85.jpg,null,,,,,,69,,,6,,,,,85,0.812797658,0.811764706,,,,,,,
decision,157,532713,0.0-49.0-2.0,,294.245,run_exp/static/images/task_images/land.jpg,65,,,,,,69,,,6,,,,,,,,186569,1,1,FALSE,,,
dig,158,535431,0.0-50.0-0.0,,,,,,,,,,,"[{""stimulus"":""run_exp/static/images/task_images/dig.jpg"",""time"":0.21999998716637492},{""stimulus"":""run_exp/static/images/task_images/land.jpg"",""time"":904.6950000047218},{""stimulus"":""run_exp/static/images/task_images/dig.jpg"",""time"":1805.1350000023376}]",[],6,,,,,,,,,,,,,,
harvest,159,536447,0.0-50.0-1.0,,null,run_exp/static/images/task_images/gems/69.jpg,null,,,,,,60,,,6,,,,,69,0.866705469,0.869565217,,,,,,,
decision,160,536764,0.0-50.0-2.0,,312.325,run_exp/static/images/task_images/land.jpg,65,,,,,,60,,,6,,,,,,,,190620,1,2,FALSE,,,
dig,161,539482,0.0-51.0-0.0,,,,,,,,,,,"[{""stimulus"":""run_exp/static/images/task_images/dig.jpg"",""time"":0.49000000581145287},{""stimulus"":""run_exp/static/images/task_images/land.jpg"",""time"":908.3950000058394},{""stimulus"":""run_exp/static/images/task_images/dig.jpg"",""time"":1798.5000000044238}]",[],6,,,,,,,,,,,,,,
harvest,162,540494,0.0-51.0-1.0,,null,run_exp/static/images/task_images/gems/60.jpg,null,,,,,,42,,,6,,,,,60,0.700073538,0.7,,,,,,,
decision,163,540772,0.0-51.0-2.0,,273.415,run_exp/static/images/task_images/land.jpg,65,,,,,,42,,,6,,,,,,,,194629,1,3,FALSE,,,
dig,164,543536,0.0-52.0-0.0,,,,,,,,,,,"[{""stimulus"":""run_exp/static/images/task_images/dig.jpg"",""time"":0.44499998330138624},{""stimulus"":""run_exp/static/images/task_images/land.jpg"",""time"":924.0199999767356},{""stimulus"":""run_exp/static/images/task_images/dig.jpg"",""time"":1833.329999994021}]",[],6,,,,,,,,,,,,,,
harvest,165,544544,0.0-52.0-1.0,,null,run_exp/static/images/task_images/gems/42.jpg,null,,,,,,34,,,6,,,,,42,0.80816368,0.80952381,,,,,,,
decision,166,544649,0.0-52.0-2.0,,99.16000001,run_exp/static/images/task_images/land.jpg,65,,,,,,34,,,6,,,,,,,,198505,1,4,FALSE,,,
dig,167,547572,0.0-53.0-0.0,,,,,,,,,,,"[{""stimulus"":""run_exp/static/images/task_images/dig.jpg"",""time"":0.5299999902490526},{""stimulus"":""run_exp/static/images/task_images/land.jpg"",""time"":982.3099999921396},{""stimulus"":""run_exp/static/images/task_images/dig.jpg"",""time"":1952.9399999883026}]",[],6,,,,,,,,,,,,,,
harvest,168,548589,0.0-53.0-1.0,,null,run_exp/static/images/task_images/gems/34.jpg,null,,,,,,27,,,6,,,,,34,0.80745795,0.794117647,,,,,,,
decision,169,548778,0.0-53.0-2.0,,185.255,run_exp/static/images/task_images/land.jpg,65,,,,,,27,,,6,,,,,,,,202634,1,5,FALSE,,,
dig,170,551622,0.0-54.0-0.0,,,,,,,,,,,"[{""stimulus"":""run_exp/static/images/task_images/dig.jpg"",""time"":0.5299999902490526},{""stimulus"":""run_exp/static/images/task_images/land.jpg"",""time"":953.3900000096764},{""stimulus"":""run_exp/static/images/task_images/dig.jpg"",""time"":1893.9100000134204}]",[],6,,,,,,,,,,,,,,
harvest,171,552638,0.0-54.0-1.0,,null,run_exp/static/images/task_images/gems/27.jpg,null,,,,,,20,,,6,,,,,27,0.743383506,0.740740741,,,,,,,
decision,172,552954,0.0-54.0-2.0,,311.905,run_exp/static/images/task_images/land.jpg,65,,,,,,20,,,6,,,,,,,,206810,1,6,FALSE,,,
dig,173,555671,0.0-55.0-0.0,,,,,,,,,,,"[{""stimulus"":""run_exp/static/images/task_images/dig.jpg"",""time"":0.46499999007210135},{""stimulus"":""run_exp/static/images/task_images/land.jpg"",""time"":909.1999999945983},{""stimulus"":""run_exp/static/images/task_images/dig.jpg"",""time"":1809.6350000123493}]",[],6,,,,,,,,,,,,,,
harvest,174,556683,0.0-55.0-1.0,,null,run_exp/static/images/task_images/gems/20.jpg,null,,,,,,14,,,6,,,,,20,0.690662951,0.7,,,,,,,
decision,175,556922,0.0-55.0-2.0,,233.935,run_exp/static/images/task_images/land.jpg,65,,,,,,14,,,6,,,,,,,,210778,1,7,FALSE,,,
dig,176,559711,0.0-56.0-0.0,,,,,,,,,,,"[{""stimulus"":""run_exp/static/images/task_images/dig.jpg"",""time"":1.480000006267801},{""stimulus"":""run_exp/static/images/task_images/land.jpg"",""time"":941.3650000060443},{""stimulus"":""run_exp/static/images/task_images/dig.jpg"",""time"":1850.9550000017043}]",[],6,,,,,,,,,,,,,,
harvest,177,560732,0.0-56.0-1.0,,null,run_exp/static/images/task_images/gems/14.jpg,null,,,,,,12,,,6,,,,,14,0.824436083,0.857142857,,,,,,,
decision,178,561288,0.0-56.0-2.0,,552.075,run_exp/static/images/task_images/land.jpg,76,,,,,,12,,,6,,,,,,,,215144,1,8,TRUE,,,
travel,179,570762,0.0-57.0-0.0,,,,,,,,,,,"[{""stimulus"":""run_exp/static/images/task_images/rocket-01.jpg"",""time"":0.5250000103842467},{""stimulus"":""run_exp/static/images/task_images/rocket-02.jpg"",""time"":1064.299999998184},{""stimulus"":""run_exp/static/images/task_images/rocket-03.jpg"",""time"":2103.655000013532},{""stimulus"":""run_exp/static/images/task_images/rocket-04.jpg"",""time"":3163.265000010142},{""stimulus"":""run_exp/static/images/task_images/rocket-05.jpg"",""time"":4203.94999999553},{""stimulus"":""run_exp/static/images/task_images/rocket-06.jpg"",""time"":5263.55999999214},{""stimulus"":""run_exp/static/images/task_images/rocket-07.jpg"",""time"":6313.240000017686},{""stimulus"":""run_exp/static/images/task_images/rocket-08.jpg"",""time"":7363.955000007991},{""stimulus"":""run_exp/static/images/task_images/rocket-09.jpg"",""time"":8403.970000013942}]",[],6,,,,,,,,,,,,,,
alien_welcome,180,575782,0.0-57.0-1.0,,null,run_exp/static/images/task_images/aliens/old_aliens/planet/alien_planet-25.jpg,null,,,,,,,,,,,,25,"77,40,44,39,80,38,25,34,9,72,78,36,54,42,60,11,7,8,75,27,79,18,76,64,29,37,59,49,51,46,70,32",,,,,,,,,,
land,181,576292,0.0-57.0-2.0,,null,run_exp/static/images/task_images/land.jpg,null,,,,,,98,,,7,,,,,,,,,,,,,,
dig,182,578302,0.0-57.0-3.0,,,,,,,,,,,"[{""stimulus"":""run_exp/static/images/task_images/dig.jpg"",""time"":0.5449999880511314},{""stimulus"":""run_exp/static/images/task_images/land.jpg"",""time"":686.7249999777414},{""stimulus"":""run_exp/static/images/task_images/dig.jpg"",""time"":1341.969999979483}]",[],7,,,,,,,,,,,,,,
harvest,183,579322,0.0-57.0-4.0,,null,run_exp/static/images/task_images/gems/98.jpg,null,,,,,,85,,,7,,,,,98,0.870076904,0.867346939,,,,,,,
decision,184,580158,0.0-57.0-5.0,,830.185,run_exp/static/images/task_images/land.jpg,65,,,,,,85,,,7,,,,,,,,234014,1,0,FALSE,,,
dig,185,582341,0.0-58.0-0.0,,,,,,,,,,,"[{""stimulus"":""run_exp/static/images/task_images/dig.jpg"",""time"":0.6400000129360706},{""stimulus"":""run_exp/static/images/task_images/land.jpg"",""time"":738.6750000005122},{""stimulus"":""run_exp/static/images/task_images/dig.jpg"",""time"":1454.2300000030082}]",[],7,,,,,,,,,,,,,,
harvest,186,583364,0.0-58.0-1.0,,null,run_exp/static/images/task_images/gems/85.jpg,null,,,,,,69,,,7,,,,,85,0.815739956,0.811764706,,,,,,,
decision,187,584039,0.0-58.0-2.0,,668.805,run_exp/static/images/task_images/land.jpg,65,,,,,,69,,,7,,,,,,,,237895,1,1,FALSE,,,
dig,188,586401,0.0-59.0-0.0,,,,,,,,,,,"[{""stimulus"":""run_exp/static/images/task_images/dig.jpg"",""time"":0.5050000036135316},{""stimulus"":""run_exp/static/images/task_images/land.jpg"",""time"":792.730000015581},{""stimulus"":""run_exp/static/images/task_images/dig.jpg"",""time"":1572.4050000135321}]",[],7,,,,,,,,,,,,,,
harvest,189,587425,0.0-59.0-1.0,,null,run_exp/static/images/task_images/gems/69.jpg,null,,,,,,52,,,7,,,,,69,0.755131119,0.753623188,,,,,,,
decision,190,588037,0.0-59.0-2.0,,605.07,run_exp/static/images/task_images/land.jpg,65,,,,,,52,,,7,,,,,,,,241893,1,2,FALSE,,,
dig,191,590459,0.0-60.0-0.0,,,,,,,,,,,"[{""stimulus"":""run_exp/static/images/task_images/dig.jpg"",""time"":0.4899999767076224},{""stimulus"":""run_exp/static/images/task_images/land.jpg"",""time"":819.5600000035483},{""stimulus"":""run_exp/static/images/task_images/dig.jpg"",""time"":1614.5200000028126}]",[],7,,,,,,,,,,,,,,
harvest,192,591469,0.0-60.0-1.0,,null,run_exp/static/images/task_images/gems/52.jpg,null,,,,,,43,,,7,,,,,52,0.827982363,0.826923077,,,,,,,
decision,193,592014,0.0-60.0-2.0,,540.185,run_exp/static/images/task_images/land.jpg,65,,,,,,43,,,7,,,,,,,,245871,1,3,FALSE,,,
dig,194,594489,0.0-61.0-0.0,,,,,,,,,,,"[{""stimulus"":""run_exp/static/images/task_images/dig.jpg"",""time"":0.5449999880511314},{""stimulus"":""run_exp/static/images/task_images/land.jpg"",""time"":824.0549999754876},{""stimulus"":""run_exp/static/images/task_images/dig.jpg"",""time"":1654.3449999880977}]",[],7,,,,,,,,,,,,,,
harvest,195,595506,0.0-61.0-1.0,,null,run_exp/static/images/task_images/gems/43.jpg,null,,,,,,35,,,7,,,,,43,0.817973925,0.813953488,,,,,,,
decision,196,595823,0.0-61.0-2.0,,311.515,run_exp/static/images/task_images/land.jpg,65,,,,,,35,,,7,,,,,,,,249679,1,4,FALSE,,,
dig,197,598539,0.0-62.0-0.0,,,,,,,,,,,"[{""stimulus"":""run_exp/static/images/task_images/dig.jpg"",""time"":0.4400000034365803},{""stimulus"":""run_exp/static/images/task_images/land.jpg"",""time"":905.7349999784492},{""stimulus"":""run_exp/static/images/task_images/dig.jpg"",""time"":1805.419999989681}]",[],7,,,,,,,,,,,,,,
harvest,198,599553,0.0-62.0-1.0,,null,run_exp/static/images/task_images/gems/35.jpg,null,,,,,,28,,,7,,,,,35,0.808702863,0.8,,,,,,,
decision,199,600316,0.0-62.0-2.0,,758.48,run_exp/static/images/task_images/land.jpg,65,,,,,,28,,,7,,,,,,,,254172,1,5,FALSE,,,
dig,200,602579,0.0-63.0-0.0,,,,,,,,,,,"[{""stimulus"":""run_exp/static/images/task_images/dig.jpg"",""time"":0.4250000056345016},{""stimulus"":""run_exp/static/images/task_images/land.jpg"",""time"":753.0100000149105},{""stimulus"":""run_exp/static/images/task_images/dig.jpg"",""time"":1512.715000018943}]",[],7,,,,,,,,,,,,,,
harvest,201,603599,0.0-63.0-1.0,,null,run_exp/static/images/task_images/gems/28.jpg,null,,,,,,23,,,7,,,,,28,0.809391247,0.821428571,,,,,,,
decision,202,604567,0.0-63.0-2.0,,964.385,run_exp/static/images/task_images/land.jpg,65,,,,,,23,,,7,,,,,,,,258424,1,6,FALSE,,,
dig,203,606619,0.0-64.0-0.0,,,,,,,,,,,"[{""stimulus"":""run_exp/static/images/task_images/dig.jpg"",""time"":0.510000012582168},{""stimulus"":""run_exp/static/images/task_images/land.jpg"",""time"":681.3700000056997},{""stimulus"":""run_exp/static/images/task_images/dig.jpg"",""time"":1371.6699999931734}]",[],7,,,,,,,,,,,,,,
harvest,204,607639,0.0-64.0-1.0,,null,run_exp/static/images/task_images/gems/23.jpg,null,,,,,,19,,,7,,,,,23,0.841703563,0.826086957,,,,,,,
decision,205,608711,0.0-64.0-2.0,,1067.53,run_exp/static/images/task_images/land.jpg,76,,,,,,19,,,7,,,,,,,,262567,1,7,TRUE,,,
travel,206,617658,0.0-65.0-0.0,,,,,,,,,,,"[{""stimulus"":""run_exp/static/images/task_images/rocket-01.jpg"",""time"":0.44999999227002263},{""stimulus"":""run_exp/static/images/task_images/rocket-02.jpg"",""time"":996.33999998332},{""stimulus"":""run_exp/static/images/task_images/rocket-03.jpg"",""time"":1996.0549999959767},{""stimulus"":""run_exp/static/images/task_images/rocket-04.jpg"",""time"":2996.595000004163},{""stimulus"":""run_exp/static/images/task_images/rocket-05.jpg"",""time"":3976.3199999870267},{""stimulus"":""run_exp/static/images/task_images/rocket-06.jpg"",""time"":4976.445000007516},{""stimulus"":""run_exp/static/images/task_images/rocket-07.jpg"",""time"":5956.130000005942},{""stimulus"":""run_exp/static/images/task_images/rocket-08.jpg"",""time"":6956.910000008065},{""stimulus"":""run_exp/static/images/task_images/rocket-09.jpg"",""time"":7956.310000008671}]",[],7,,,,,,,,,,,,,,
alien_welcome,207,622678,0.0-65.0-1.0,,null,run_exp/static/images/task_images/aliens/old_aliens/planet/alien_planet-34.jpg,null,,,,,,,,,,,,34,"77,40,44,39,80,38,25,34,9,72,78,36,54,42,60,11,7,8,75,27,79,18,76,64,29,37,59,49,51,46,70,32",,,,,,,,,,
land,208,623199,0.0-65.0-2.0,,null,run_exp/static/images/task_images/land.jpg,null,,,,,,105,,,8,,,,,,,,,,,,,,
dig,209,625218,0.0-65.0-3.0,,,,,,,,,,,"[{""stimulus"":""run_exp/static/images/task_images/dig.jpg"",""time"":0.670000008540228},{""stimulus"":""run_exp/static/images/task_images/land.jpg"",""time"":676.9250000070315},{""stimulus"":""run_exp/static/images/task_images/dig.jpg"",""time"":1346.060000010766}]",[],8,,,,,,,,,,,,,,
harvest,210,626239,0.0-65.0-4.0,,null,run_exp/static/images/task_images/gems/105.jpg,null,,,,,,92,,,8,,,,,105,0.877577395,0.876190476,,,,,,,
decision,211,626799,0.0-65.0-5.0,,555.155,run_exp/static/images/task_images/land.jpg,65,,,,,,92,,,8,,,,,,,,280656,1,0,FALSE,,,
dig,212,629259,0.0-66.0-0.0,,,,,,,,,,,"[{""stimulus"":""run_exp/static/images/task_images/dig.jpg"",""time"":0.455000001238659},{""stimulus"":""run_exp/static/images/task_images/land.jpg"",""time"":825.3200000035577},{""stimulus"":""run_exp/static/images/task_images/dig.jpg"",""time"":1648.3749999897555}]",[],8,,,,,,,,,,,,,,
harvest,213,630267,0.0-66.0-1.0,,null,run_exp/static/images/task_images/gems/92.jpg,null,,,,,,71,,,8,,,,,92,0.771492898,0.77173913,,,,,,,
decision,214,631034,0.0-66.0-2.0,,761.095,run_exp/static/images/task_images/land.jpg,65,,,,,,71,,,8,,,,,,,,284890,1,1,FALSE,,,
dig,215,633296,0.0-67.0-0.0,,,,,,,,,,,"[{""stimulus"":""run_exp/static/images/task_images/dig.jpg"",""time"":0.39999998989515007},{""stimulus"":""run_exp/static/images/task_images/land.jpg"",""time"":756.9450000009965},{""stimulus"":""run_exp/static/images/task_images/dig.jpg"",""time"":1506.744999991497}]",[],8,,,,,,,,,,,,,,
harvest,216,634312,0.0-67.0-1.0,,null,run_exp/static/images/task_images/gems/71.jpg,null,,,,,,57,,,8,,,,,71,0.799681331,0.802816901,,,,,,,
decision,217,635043,0.0-67.0-2.0,,728.62,run_exp/static/images/task_images/land.jpg,65,,,,,,57,,,8,,,,,,,,288900,1,2,FALSE,,,
dig,218,637334,0.0-68.0-0.0,,,,,,,,,,,"[{""stimulus"":""run_exp/static/images/task_images/dig.jpg"",""time"":0.4250000056345016},{""stimulus"":""run_exp/static/images/task_images/land.jpg"",""time"":766.0750000213739},{""stimulus"":""run_exp/static/images/task_images/dig.jpg"",""time"":1535.0800000014715}]",[],8,,,,,,,,,,,,,,
harvest,219,638339,0.0-68.0-1.0,,null,run_exp/static/images/task_images/gems/57.jpg,null,,,,,,42,,,8,,,,,57,0.737269113,0.736842105,,,,,,,
decision,220,638367,0.0-68.0-2.0,,24.06999998,run_exp/static/images/task_images/land.jpg,65,,,,,,42,,,8,,,,,,,,292223,1,3,FALSE,,,
dig,221,641369,0.0-69.0-0.0,,,,,,,,,,,"[{""stimulus"":""run_exp/static/images/task_images/dig.jpg"",""time"":0.46499999007210135},{""stimulus"":""run_exp/static/images/task_images/land.jpg"",""time"":1002.3999999975786},{""stimulus"":""run_exp/static/images/task_images/dig.jpg"",""time"":2002.9149999900255}]",[],8,,,,,,,,,,,,,,
harvest,222,642378,0.0-69.0-1.0,,null,run_exp/static/images/task_images/gems/42.jpg,null,,,,,,34,,,8,,,,,42,0.804404899,0.80952381,,,,,,,
decision,223,642753,0.0-69.0-2.0,,370.84,run_exp/static/images/task_images/land.jpg,65,,,,,,34,,,8,,,,,,,,296610,1,4,FALSE,,,
dig,224,645398,0.0-70.0-0.0,,,,,,,,,,,"[{""stimulus"":""run_exp/static/images/task_images/dig.jpg"",""time"":0.4400000034365803},{""stimulus"":""run_exp/static/images/task_images/land.jpg"",""time"":879.8100000130944},{""stimulus"":""run_exp/static/images/task_images/dig.jpg"",""time"":1772.0350000017788}]",[],8,,,,,,,,,,,,,,
harvest,225,646408,0.0-70.0-1.0,,null,run_exp/static/images/task_images/gems/34.jpg,null,,,,,,26,,,8,,,,,34,0.775173267,0.764705882,,,,,,,
decision,226,648718,0.0-70.0-2.0,,2304.695,run_exp/static/images/task_images/land.jpg,76,,,,,,26,,,8,,,,,,,,302574,1,5,TRUE,,,
end_of_block_continue,227,657604,0.0-71.0-0.0,,null,run_exp/static/audio/clip_32_block_end.m4a,,,,,,null,,,,,,,,,,,,,,,,,,
alien_welcome,228,662632,0.0-72.0-0.0,,null,run_exp/static/images/task_images/aliens/old_aliens/planet/alien_planet-9.jpg,null,,,,,,,,,,,,9,"77,40,44,39,80,38,25,34,9,72,78,36,54,42,60,11,7,8,75,27,79,18,76,64,29,37,59,49,51,46,70,32",,,,,,,,,,
land,229,663151,0.0-72.0-1.0,,null,run_exp/static/images/task_images/land.jpg,null,,,,,,101,,,9,,,,,,,,,,,,,,
dig,230,665161,0.0-72.0-2.0,,,,,,,,,,,"[{""stimulus"":""run_exp/static/images/task_images/dig.jpg"",""time"":0.4949999856762588},{""stimulus"":""run_exp/static/images/task_images/land.jpg"",""time"":686.3700000103563},{""stimulus"":""run_exp/static/images/task_images/dig.jpg"",""time"":1343.2749999919906}]",[],9,,,,,,,,,,,,,,
harvest,231,666171,0.0-72.0-3.0,,null,run_exp/static/images/task_images/gems/101.jpg,null,,,,,,33,,,9,,,,,101,0.322944154,0.326732673,,,,,,,
decision,232,666596,0.0-72.0-4.0,,420.695,run_exp/static/images/task_images/land.jpg,65,,,,,,33,,,9,,,,,,,,8973,2,0,FALSE,,,
dig,233,669196,0.0-73.0-0.0,,,,,,,,,,,"[{""stimulus"":""run_exp/static/images/task_images/dig.jpg"",""time"":0.37999998312443495},{""stimulus"":""run_exp/static/images/task_images/land.jpg"",""time"":874.6549999923445},{""stimulus"":""run_exp/static/images/task_images/dig.jpg"",""time"":1736.830000008922}]",[],9,,,,,,,,,,,,,,
harvest,234,670211,0.0-73.0-1.0,,null,run_exp/static/images/task_images/gems/33.jpg,null,,,,,,7,,,9,,,,,33,0.222258041,0.212121212,,,,,,,
decision,235,670421,0.0-73.0-2.0,,204.52,run_exp/static/images/task_images/land.jpg,65,,,,,,7,,,9,,,,,,,,12798,2,1,FALSE,,,
dig,236,673241,0.0-74.0-0.0,,,,,,,,,,,"[{""stimulus"":""run_exp/static/images/task_images/dig.jpg"",""time"":0.4949999856762588},{""stimulus"":""run_exp/static/images/task_images/land.jpg"",""time"":949.0250000089873},{""stimulus"":""run_exp/static/images/task_images/dig.jpg"",""time"":1869.5599999919068}]",[],9,,,,,,,,,,,,,,
harvest,237,674259,0.0-74.0-1.0,,null,run_exp/static/images/task_images/gems/7.jpg,null,,,,,,1,,,9,,,,,7,0.202872122,0.142857143,,,,,,,
decision,238,675000,0.0-74.0-2.0,,737.58,run_exp/static/images/task_images/land.jpg,76,,,,,,1,,,9,,,,,,,,17377,2,2,TRUE,,,
travel,239,684282,0.0-75.0-0.0,,,,,,,,,,,"[{""stimulus"":""run_exp/static/images/task_images/rocket-01.jpg"",""time"":0.5299999902490526},{""stimulus"":""run_exp/static/images/task_images/rocket-02.jpg"",""time"":1048.2849999971222},{""stimulus"":""run_exp/static/images/task_images/rocket-03.jpg"",""time"":2070.9499999939},{""stimulus"":""run_exp/static/images/task_images/rocket-04.jpg"",""time"":3090.3349999862257},{""stimulus"":""run_exp/static/images/task_images/rocket-05.jpg"",""time"":4130.7899999956135},{""stimulus"":""run_exp/static/images/task_images/rocket-06.jpg"",""time"":5150.815000000875},{""stimulus"":""run_exp/static/images/task_images/rocket-07.jpg"",""time"":6190.984999993816},{""stimulus"":""run_exp/static/images/task_images/rocket-08.jpg"",""time"":7212.720000010449},{""stimulus"":""run_exp/static/images/task_images/rocket-09.jpg"",""time"":8250.729999999749}]",[],9,,,,,,,,,,,,,,
alien_welcome,240,689299,0.0-75.0-1.0,,null,run_exp/static/images/task_images/aliens/old_aliens/planet/alien_planet-72.jpg,null,,,,,,,,,,,,72,"77,40,44,39,80,38,25,34,9,72,78,36,54,42,60,11,7,8,75,27,79,18,76,64,29,37,59,49,51,46,70,32",,,,,,,,,,
land,241,689812,0.0-75.0-2.0,,null,run_exp/static/images/task_images/land.jpg,null,,,,,,100,,,10,,,,,,,,,,,,,,
dig,242,691821,0.0-75.0-3.0,,,,,,,,,,,"[{""stimulus"":""run_exp/static/images/task_images/dig.jpg"",""time"":0.5999999993946403},{""stimulus"":""run_exp/static/images/task_images/land.jpg"",""time"":685.540000005858},{""stimulus"":""run_exp/static/images/task_images/dig.jpg"",""time"":1345.2300000062678}]",[],10,,,,,,,,,,,,,,
harvest,243,692845,0.0-75.0-4.0,,null,run_exp/static/images/task_images/gems/100.jpg,null,,,,,,27,,,10,,,,,100,0.270837539,0.27,,,,,,,
decision,244,694358,0.0-75.0-5.0,,1507.085,run_exp/static/images/task_images/land.jpg,65,,,,,,27,,,10,,,,,,,,36735,2,0,FALSE,,,
dig,245,695881,0.0-76.0-0.0,,,,,,,,,,,"[{""stimulus"":""run_exp/static/images/task_images/dig.jpg"",""time"":0.455000001238659},{""stimulus"":""run_exp/static/images/task_images/land.jpg"",""time"":509.444999974221},{""stimulus"":""run_exp/static/images/task_images/dig.jpg"",""time"":1008.4999999962747}]",[],10,,,,,,,,,,,,,,
harvest,246,696901,0.0-76.0-1.0,,null,run_exp/static/images/task_images/gems/27.jpg,null,,,,,,5,,,10,,,,,27,0.189019017,0.185185185,,,,,,,
decision,247,699338,0.0-76.0-2.0,,2431.565,run_exp/static/images/task_images/land.jpg,65,,,,,,5,,,10,,,,,,,,41715,2,1,FALSE,,,
dig,248,699922,0.0-77.0-0.0,,,,,,,,,,,"[{""stimulus"":""run_exp/static/images/task_images/dig.jpg"",""time"":0.46499999007210135},{""stimulus"":""run_exp/static/images/task_images/land.jpg"",""time"":212.04499999294057},{""stimulus"":""run_exp/static/images/task_images/dig.jpg"",""time"":392.1949999930803}]",[],10,,,,,,,,,,,,,,
harvest,249,700945,0.0-77.0-1.0,,null,run_exp/static/images/task_images/gems/5.jpg,null,,,,,,1,,,10,,,,,5,0.187332952,0.2,,,,,,,
decision,250,701697,0.0-77.0-2.0,,746.435,run_exp/static/images/task_images/land.jpg,76,,,,,,1,,,10,,,,,,,,44075,2,2,TRUE,,,
travel,251,710982,0.0-78.0-0.0,,,,,,,,,,,"[{""stimulus"":""run_exp/static/images/task_images/rocket-01.jpg"",""time"":0.7350000087171793},{""stimulus"":""run_exp/static/images/task_images/rocket-02.jpg"",""time"":1040.9299999882933},{""stimulus"":""run_exp/static/images/task_images/rocket-03.jpg"",""time"":2062.0700000145007},{""stimulus"":""run_exp/static/images/task_images/rocket-04.jpg"",""time"":3091.6100000031292},{""stimulus"":""run_exp/static/images/task_images/rocket-05.jpg"",""time"":4132.994999992661},{""stimulus"":""run_exp/static/images/task_images/rocket-06.jpg"",""time"":5151.914999994915},{""stimulus"":""run_exp/static/images/task_images/rocket-07.jpg"",""time"":6176.964999991469},{""stimulus"":""run_exp/static/images/task_images/rocket-08.jpg"",""time"":7212.0299999951385},{""stimulus"":""run_exp/static/images/task_images/rocket-09.jpg"",""time"":8230.730000010226}]",[],10,,,,,,,,,,,,,,
alien_welcome,252,716002,0.0-78.0-1.0,,null,run_exp/static/images/task_images/aliens/old_aliens/planet/alien_planet-78.jpg,null,,,,,,,,,,,,78,"77,40,44,39,80,38,25,34,9,72,78,36,54,42,60,11,7,8,75,27,79,18,76,64,29,37,59,49,51,46,70,32",,,,,,,,,,
land,253,716522,0.0-78.0-2.0,,null,run_exp/static/images/task_images/land.jpg,null,,,,,,96,,,11,,,,,,,,,,,,,,
dig,254,718536,0.0-78.0-3.0,,,,,,,,,,,"[{""stimulus"":""run_exp/static/images/task_images/dig.jpg"",""time"":0.614999997196719},{""stimulus"":""run_exp/static/images/task_images/land.jpg"",""time"":675.8449999906588},{""stimulus"":""run_exp/static/images/task_images/dig.jpg"",""time"":1338.514999981271}]",[],11,,,,,,,,,,,,,,
harvest,255,719543,0.0-78.0-4.0,,null,run_exp/static/images/task_images/gems/96.jpg,null,,,,,,23,,,11,,,,,96,0.242510965,0.239583333,,,,,,,
decision,256,719993,0.0-78.0-5.0,,443.855,run_exp/static/images/task_images/land.jpg,65,,,,,,23,,,11,,,,,,,,62370,2,0,FALSE,,,
dig,257,722577,0.0-79.0-0.0,,,,,,,,,,,"[{""stimulus"":""run_exp/static/images/task_images/dig.jpg"",""time"":0.4400000034365803},{""stimulus"":""run_exp/static/images/task_images/land.jpg"",""time"":857.2200000053272},{""stimulus"":""run_exp/static/images/task_images/dig.jpg"",""time"":1715.0050000054762}]",[],11,,,,,,,,,,,,,,
harvest,258,723594,0.0-79.0-1.0,,null,run_exp/static/images/task_images/gems/23.jpg,null,,,,,,4,,,11,,,,,23,0.191208988,0.173913043,,,,,,,
decision,259,725506,0.0-79.0-2.0,,1907.49,run_exp/static/images/task_images/land.jpg,76,,,,,,4,,,11,,,,,,,,67884,2,1,TRUE,,,
travel,260,733621,0.0-80.0-0.0,,,,,,,,,,,"[{""stimulus"":""run_exp/static/images/task_images/rocket-01.jpg"",""time"":0.13499998021870852},{""stimulus"":""run_exp/static/images/task_images/rocket-02.jpg"",""time"":910.1999999838881},{""stimulus"":""run_exp/static/images/task_images/rocket-03.jpg"",""time"":1810.189999989234},{""stimulus"":""run_exp/static/images/task_images/rocket-04.jpg"",""time"":2712.344999978086},{""stimulus"":""run_exp/static/images/task_images/rocket-05.jpg"",""time"":3610.2999999711756},{""stimulus"":""run_exp/static/images/task_images/rocket-06.jpg"",""time"":4510.129999980563},{""stimulus"":""run_exp/static/images/task_images/rocket-07.jpg"",""time"":5410.184999986086},{""stimulus"":""run_exp/static/images/task_images/rocket-08.jpg"",""time"":6310.514999990119},{""stimulus"":""run_exp/static/images/task_images/rocket-09.jpg"",""time"":7200.519999983953}]",[],11,,,,,,,,,,,,,,
alien_welcome,261,738644,0.0-80.0-1.0,,null,run_exp/static/images/task_images/aliens/old_aliens/planet/alien_planet-36.jpg,null,,,,,,,,,,,,36,"77,40,44,39,80,38,25,34,9,72,78,36,54,42,60,11,7,8,75,27,79,18,76,64,29,37,59,49,51,46,70,32",,,,,,,,,,
land,262,739161,0.0-80.0-2.0,,null,run_exp/static/images/task_images/land.jpg,null,,,,,,104,,,12,,,,,,,,,,,,,,
dig,263,741181,0.0-80.0-3.0,,,,,,,,,,,"[{""stimulus"":""run_exp/static/images/task_images/dig.jpg"",""time"":0.15499998698942363},{""stimulus"":""run_exp/static/images/task_images/land.jpg"",""time"":687.0049999852199},{""stimulus"":""run_exp/static/images/task_images/dig.jpg"",""time"":1351.2350000091828}]",[],12,,,,,,,,,,,,,,
harvest,264,742202,0.0-80.0-4.0,,null,run_exp/static/images/task_images/gems/104.jpg,null,,,,,,95,,,12,,,,,104,0.90896876,0.913461538,,,,,,,
decision,265,742592,0.0-80.0-5.0,,386.115,run_exp/static/images/task_images/land.jpg,65,,,,,,95,,,12,,,,,,,,84970,2,0,FALSE,,,
dig,266,745231,0.0-81.0-0.0,,,,,,,,,,,"[{""stimulus"":""run_exp/static/images/task_images/dig.jpg"",""time"":0.43500002357177436},{""stimulus"":""run_exp/static/images/task_images/land.jpg"",""time"":876.5600000042468},{""stimulus"":""run_exp/static/images/task_images/dig.jpg"",""time"":1756.5150000154972}]",[],12,,,,,,,,,,,,,,
harvest,267,746245,0.0-81.0-1.0,,null,run_exp/static/images/task_images/gems/95.jpg,null,,,,,,72,,,12,,,,,95,0.759238423,0.757894737,,,,,,,
decision,268,746556,0.0-81.0-2.0,,304.955,run_exp/static/images/task_images/land.jpg,65,,,,,,72,,,12,,,,,,,,88934,2,1,FALSE,,,
dig,269,749271,0.0-82.0-0.0,,,,,,,,,,,"[{""stimulus"":""run_exp/static/images/task_images/dig.jpg"",""time"":0.48000001697801054},{""stimulus"":""run_exp/static/images/task_images/land.jpg"",""time"":910.3699999977835},{""stimulus"":""run_exp/static/images/task_images/dig.jpg"",""time"":1810.330000007525}]",[],12,,,,,,,,,,,,,,
harvest,270,750276,0.0-82.0-1.0,,null,run_exp/static/images/task_images/gems/72.jpg,null,,,,,,59,,,12,,,,,72,0.814553386,0.819444444,,,,,,,
decision,271,750664,0.0-82.0-2.0,,383.84,run_exp/static/images/task_images/land.jpg,65,,,,,,59,,,12,,,,,,,,93041,2,2,FALSE,,,
dig,272,753301,0.0-83.0-0.0,,,,,,,,,,,"[{""stimulus"":""run_exp/static/images/task_images/dig.jpg"",""time"":0.5099999834783375},{""stimulus"":""run_exp/static/images/task_images/land.jpg"",""time"":885.2049999986775},{""stimulus"":""run_exp/static/images/task_images/dig.jpg"",""time"":1765.2850000013132}]",[],12,,,,,,,,,,,,,,
harvest,273,754306,0.0-83.0-1.0,,null,run_exp/static/images/task_images/gems/59.jpg,null,,,,,,46,,,12,,,,,59,0.779055383,0.779661017,,,,,,,
decision,274,754648,0.0-83.0-2.0,,338.2,run_exp/static/images/task_images/land.jpg,65,,,,,,46,,,12,,,,,,,,97025,2,3,FALSE,,,
dig,275,757341,0.0-84.0-0.0,,,,,,,,,,,"[{""stimulus"":""run_exp/static/images/task_images/dig.jpg"",""time"":0.6050000083632767},{""stimulus"":""run_exp/static/images/task_images/land.jpg"",""time"":898.6950000107754},{""stimulus"":""run_exp/static/images/task_images/dig.jpg"",""time"":1777.925000002142}]",[],12,,,,,,,,,,,,,,
harvest,276,758354,0.0-84.0-1.0,,null,run_exp/static/images/task_images/gems/46.jpg,null,,,,,,39,,,12,,,,,46,0.848067137,0.847826087,,,,,,,
decision,277,758675,0.0-84.0-2.0,,316.495,run_exp/static/images/task_images/land.jpg,65,,,,,,39,,,12,,,,,,,,101052,2,4,FALSE,,,
dig,278,761372,0.0-85.0-0.0,,,,,,,,,,,"[{""stimulus"":""run_exp/static/images/task_images/dig.jpg"",""time"":0.6449999928008765},{""stimulus"":""run_exp/static/images/task_images/land.jpg"",""time"":914.8699999786913},{""stimulus"":""run_exp/static/images/task_images/dig.jpg"",""time"":1794.724999985192}]",[],12,,,,,,,,,,,,,,
harvest,279,762384,0.0-85.0-1.0,,null,run_exp/static/images/task_images/gems/39.jpg,null,,,,,,32,,,12,,,,,39,0.820052705,0.820512821,,,,,,,
decision,280,763319,0.0-85.0-2.0,,930.705,run_exp/static/images/task_images/land.jpg,65,,,,,,32,,,12,,,,,,,,105696,2,5,FALSE,,,
dig,281,765421,0.0-86.0-0.0,,,,,,,,,,,"[{""stimulus"":""run_exp/static/images/task_images/dig.jpg"",""time"":0.37999998312443495},{""stimulus"":""run_exp/static/images/task_images/land.jpg"",""time"":702.2849999775644},{""stimulus"":""run_exp/static/images/task_images/dig.jpg"",""time"":1391.3449999818113}]",[],12,,,,,,,,,,,,,,
harvest,282,766441,0.0-86.0-1.0,,null,run_exp/static/images/task_images/gems/32.jpg,null,,,,,,26,,,12,,,,,32,0.811062856,0.8125,,,,,,,
decision,283,767015,0.0-86.0-2.0,,570.055,run_exp/static/images/task_images/land.jpg,65,,,,,,26,,,12,,,,,,,,109393,2,6,FALSE,,,
dig,284,769461,0.0-87.0-0.0,,,,,,,,,,,"[{""stimulus"":""run_exp/static/images/task_images/dig.jpg"",""time"":0.45999998110346496},{""stimulus"":""run_exp/static/images/task_images/land.jpg"",""time"":817.1449999790639},{""stimulus"":""run_exp/static/images/task_images/dig.jpg"",""time"":1633.189999993192}]",[],12,,,,,,,,,,,,,,
harvest,285,770481,0.0-87.0-1.0,,null,run_exp/static/images/task_images/gems/26.jpg,null,,,,,,21,,,12,,,,,26,0.816792158,0.807692308,,,,,,,
decision,286,773501,0.0-87.0-2.0,,null,run_exp/static/images/task_images/land.jpg,null,,,,,,21,,,12,,,,,,,,115878,2,7,FALSE,,,
time_out,287,775521,0.0-88.0-0.0,,null,run_exp/static/images/task_images/time_out.jpg,null,,,,,,21,,,,,,,,,,,,,,,,,
decision,288,776234,0.0-88.0-1.0,,707.615,run_exp/static/images/task_images/land.jpg,76,,,,,,21,,,12,,,,,,,,118611,2,7,TRUE,,,
travel,289,785541,0.0-89.0-0.0,,,,,,,,,,,"[{""stimulus"":""run_exp/static/images/task_images/rocket-01.jpg"",""time"":0.3800000122282654},{""stimulus"":""run_exp/static/images/task_images/rocket-02.jpg"",""time"":1037.1049999957904},{""stimulus"":""run_exp/static/images/task_images/rocket-03.jpg"",""time"":2077.0049999991897},{""stimulus"":""run_exp/static/images/task_images/rocket-04.jpg"",""time"":3107.385000010254},{""stimulus"":""run_exp/static/images/task_images/rocket-05.jpg"",""time"":4137.7100000099745},{""stimulus"":""run_exp/static/images/task_images/rocket-06.jpg"",""time"":5166.995000006864},{""stimulus"":""run_exp/static/images/task_images/rocket-07.jpg"",""time"":6196.859999996377},{""stimulus"":""run_exp/static/images/task_images/rocket-08.jpg"",""time"":7227.279999991879},{""stimulus"":""run_exp/static/images/task_images/rocket-09.jpg"",""time"":8267.519999993965}]",[],12,,,,,,,,,,,,,,
alien_welcome,290,790551,0.0-89.0-1.0,,null,run_exp/static/images/task_images/aliens/old_aliens/planet/alien_planet-54.jpg,null,,,,,,,,,,,,54,"77,40,44,39,80,38,25,34,9,72,78,36,54,42,60,11,7,8,75,27,79,18,76,64,29,37,59,49,51,46,70,32",,,,,,,,,,
land,291,791061,0.0-89.0-2.0,,null,run_exp/static/images/task_images/land.jpg,null,,,,,,102,,,13,,,,,,,,,,,,,,
dig,292,793081,0.0-89.0-3.0,,,,,,,,,,,"[{""stimulus"":""run_exp/static/images/task_images/dig.jpg"",""time"":0.4999999946448952},{""stimulus"":""run_exp/static/images/task_images/land.jpg"",""time"":677.5250000064261},{""stimulus"":""run_exp/static/images/task_images/dig.jpg"",""time"":1347.2649999894202}]",[],13,,,,,,,,,,,,,,
harvest,293,794101,0.0-89.0-4.0,,null,run_exp/static/images/task_images/gems/102.jpg,null,,,,,,85,,,13,,,,,102,0.837041366,0.833333333,,,,,,,
decision,294,794457,0.0-89.0-5.0,,350.03,run_exp/static/images/task_images/land.jpg,65,,,,,,85,,,13,,,,,,,,136835,2,0,FALSE,,,
dig,295,797121,0.0-90.0-0.0,,,,,,,,,,,"[{""stimulus"":""run_exp/static/images/task_images/dig.jpg"",""time"":0.48499999684281647},{""stimulus"":""run_exp/static/images/task_images/land.jpg"",""time"":895.1649999944493},{""stimulus"":""run_exp/static/images/task_images/dig.jpg"",""time"":1772.045000019716}]",[],13,,,,,,,,,,,,,,
harvest,296,798130,0.0-90.0-1.0,,null,run_exp/static/images/task_images/gems/85.jpg,null,,,,,,76,,,13,,,,,85,0.89141781,0.894117647,,,,,,,
decision,297,798305,0.0-90.0-2.0,,169.135,run_exp/static/images/task_images/land.jpg,65,,,,,,76,,,13,,,,,,,,140682,2,1,FALSE,,,
dig,298,801151,0.0-91.0-0.0,,,,,,,,,,,"[{""stimulus"":""run_exp/static/images/task_images/dig.jpg"",""time"":0.4450000124052167},{""stimulus"":""run_exp/static/images/task_images/land.jpg"",""time"":953.6950000037905},{""stimulus"":""run_exp/static/images/task_images/dig.jpg"",""time"":1903.3950000011828}]",[],13,,,,,,,,,,,,,,
harvest,299,802160,0.0-91.0-1.0,,null,run_exp/static/images/task_images/gems/76.jpg,null,,,,,,58,,,13,,,,,76,0.768714437,0.763157895,,,,,,,
decision,300,803167,0.0-91.0-2.0,,1002.06,run_exp/static/images/task_images/land.jpg,65,,,,,,58,,,13,,,,,,,,145544,2,2,FALSE,,,
dig,301,805191,0.0-92.0-0.0,,,,,,,,,,,"[{""stimulus"":""run_exp/static/images/task_images/dig.jpg"",""time"":0.4999999946448952},{""stimulus"":""run_exp/static/images/task_images/land.jpg"",""time"":671.9150000135414},{""stimulus"":""run_exp/static/images/task_images/dig.jpg"",""time"":1346.0699999995995}]",[],13,,,,,,,,,,,,,,
harvest,302,806211,0.0-92.0-1.0,,null,run_exp/static/images/task_images/gems/58.jpg,null,,,,,,54,,,13,,,,,58,0.934878681,0.931034483,,,,,,,
decision,303,806532,0.0-92.0-2.0,,317.115,run_exp/static/images/task_images/land.jpg,65,,,,,,54,,,13,,,,,,,,148909,2,3,FALSE,,,
dig,304,809231,0.0-93.0-0.0,,,,,,,,,,,"[{""stimulus"":""run_exp/static/images/task_images/dig.jpg"",""time"":0.44999999227002263},{""stimulus"":""run_exp/static/images/task_images/land.jpg"",""time"":896.7399999964982},{""stimulus"":""run_exp/static/images/task_images/dig.jpg"",""time"":1807.3549999971874}]",[],13,,,,,,,,,,,,,,
harvest,305,810238,0.0-93.0-1.0,,null,run_exp/static/images/task_images/gems/54.jpg,null,,,,,,44,,,13,,,,,54,0.821412913,0.814814815,,,,,,,
decision,306,810528,0.0-93.0-2.0,,285.855,run_exp/static/images/task_images/land.jpg,65,,,,,,44,,,13,,,,,,,,152906,2,4,FALSE,,,
dig,307,813271,0.0-94.0-0.0,,,,,,,,,,,"[{""stimulus"":""run_exp/static/images/task_images/dig.jpg"",""time"":0.46499999007210135},{""stimulus"":""run_exp/static/images/task_images/land.jpg"",""time"":907.8149999841116},{""stimulus"":""run_exp/static/images/task_images/dig.jpg"",""time"":1828.0549999908544}]",[],13,,,,,,,,,,,,,,
harvest,308,814286,0.0-94.0-1.0,,null,run_exp/static/images/task_images/gems/44.jpg,null,,,,,,36,,,13,,,,,44,0.809081634,0.818181818,,,,,,,
decision,309,815382,0.0-94.0-2.0,,1091.415,run_exp/static/images/task_images/land.jpg,65,,,,,,36,,,13,,,,,,,,157759,2,5,FALSE,,,
dig,310,817301,0.0-95.0-0.0,,,,,,,,,,,"[{""stimulus"":""run_exp/static/images/task_images/dig.jpg"",""time"":0.12499999138526618},{""stimulus"":""run_exp/static/images/task_images/land.jpg"",""time"":643.1049999955576},{""stimulus"":""run_exp/static/images/task_images/dig.jpg"",""time"":1280.0400000123773}]",[],13,,,,,,,,,,,,,,
harvest,311,818311,0.0-95.0-1.0,,null,run_exp/static/images/task_images/gems/36.jpg,null,,,,,,28,,,13,,,,,36,0.776673877,0.777777778,,,,,,,
decision,312,818911,0.0-95.0-2.0,,596.005,run_exp/static/images/task_images/land.jpg,65,,,,,,28,,,13,,,,,,,,161289,2,6,FALSE,,,
dig,313,821331,0.0-96.0-0.0,,,,,,,,,,,"[{""stimulus"":""run_exp/static/images/task_images/dig.jpg"",""time"":0.4349999944679439},{""stimulus"":""run_exp/static/images/task_images/land.jpg"",""time"":806.5399999904912},{""stimulus"":""run_exp/static/images/task_images/dig.jpg"",""time"":1606.0599999909755}]",[],13,,,,,,,,,,,,,,
harvest,314,822341,0.0-96.0-1.0,,null,run_exp/static/images/task_images/gems/28.jpg,null,,,,,,24,,,13,,,,,28,0.84284406,0.857142857,,,,,,,
decision,315,822816,0.0-96.0-2.0,,471.085,run_exp/static/images/task_images/land.jpg,65,,,,,,24,,,13,,,,,,,,165194,2,7,FALSE,,,
dig,316,825371,0.0-97.0-0.0,,,,,,,,,,,"[{""stimulus"":""run_exp/static/images/task_images/dig.jpg"",""time"":0.5400000081863254},{""stimulus"":""run_exp/static/images/task_images/land.jpg"",""time"":849.5899999979883},{""stimulus"":""run_exp/static/images/task_images/dig.jpg"",""time"":1690.0650000025053}]",[],13,,,,,,,,,,,,,,
harvest,317,826378,0.0-97.0-1.0,,null,run_exp/static/images/task_images/gems/24.jpg,null,,,,,,19,,,13,,,,,24,0.801300038,0.791666667,,,,,,,
decision,318,827141,0.0-97.0-2.0,,758.4,run_exp/static/images/task_images/land.jpg,76,,,,,,19,,,13,,,,,,,,169518,2,8,TRUE,,,
travel,319,836392,0.0-98.0-0.0,,,,,,,,,,,"[{""stimulus"":""run_exp/static/images/task_images/rocket-01.jpg"",""time"":0.8049999887589365},{""stimulus"":""run_exp/static/images/task_images/rocket-02.jpg"",""time"":1035.150000010617},{""stimulus"":""run_exp/static/images/task_images/rocket-03.jpg"",""time"":2067.5000000046566},{""stimulus"":""run_exp/static/images/task_images/rocket-04.jpg"",""time"":3086.585000011837},{""stimulus"":""run_exp/static/images/task_images/rocket-05.jpg"",""time"":4107.820000004722},{""stimulus"":""run_exp/static/images/task_images/rocket-06.jpg"",""time"":5137.350000004517},{""stimulus"":""run_exp/static/images/task_images/rocket-07.jpg"",""time"":6173.999999999069},{""stimulus"":""run_exp/static/images/task_images/rocket-08.jpg"",""time"":7197.080000012647},{""stimulus"":""run_exp/static/images/task_images/rocket-09.jpg"",""time"":8223.854999989271}]",[],13,,,,,,,,,,,,,,
alien_welcome,320,841402,0.0-98.0-1.0,,null,run_exp/static/images/task_images/aliens/old_aliens/planet/alien_planet-42.jpg,null,,,,,,,,,,,,42,"77,40,44,39,80,38,25,34,9,72,78,36,54,42,60,11,7,8,75,27,79,18,76,64,29,37,59,49,51,46,70,32",,,,,,,,,,
land,321,841921,0.0-98.0-2.0,,null,run_exp/static/images/task_images/land.jpg,null,,,,,,104,,,14,,,,,,,,,,,,,,
dig,322,843931,0.0-98.0-3.0,,,,,,,,,,,"[{""stimulus"":""run_exp/static/images/task_images/dig.jpg"",""time"":0.5850000015925616},{""stimulus"":""run_exp/static/images/task_images/land.jpg"",""time"":676.5700000105426},{""stimulus"":""run_exp/static/images/task_images/dig.jpg"",""time"":1342.5100000167731}]",[],14,,,,,,,,,,,,,,
harvest,323,844941,0.0-98.0-4.0,,null,run_exp/static/images/task_images/gems/104.jpg,null,,,,,,90,,,14,,,,,104,0.864561067,0.865384615,,,,,,,
decision,324,845358,0.0-98.0-5.0,,412.565,run_exp/static/images/task_images/land.jpg,65,,,,,,90,,,14,,,,,,,,187735,2,0,FALSE,,,
dig,325,847971,0.0-99.0-0.0,,,,,,,,,,,"[{""stimulus"":""run_exp/static/images/task_images/dig.jpg"",""time"":0.5000000237487257},{""stimulus"":""run_exp/static/images/task_images/land.jpg"",""time"":877.0099999965169},{""stimulus"":""run_exp/static/images/task_images/dig.jpg"",""time"":1729.5049999956973}]",[],14,,,,,,,,,,,,,,
harvest,326,848981,0.0-99.0-1.0,,null,run_exp/static/images/task_images/gems/90.jpg,null,,,,,,70,,,14,,,,,90,0.781361104,0.777777778,,,,,,,
decision,327,849353,0.0-99.0-2.0,,367.6,run_exp/static/images/task_images/land.jpg,65,,,,,,70,,,14,,,,,,,,191730,2,1,FALSE,,,
dig,328,852009,0.0-100.0-0.0,,,,,,,,,,,"[{""stimulus"":""run_exp/static/images/task_images/dig.jpg"",""time"":0.455000001238659},{""stimulus"":""run_exp/static/images/task_images/land.jpg"",""time"":884.0000000200234},{""stimulus"":""run_exp/static/images/task_images/dig.jpg"",""time"":1774.055000016233}]",[],14,,,,,,,,,,,,,,
harvest,329,853028,0.0-100.0-1.0,,null,run_exp/static/images/task_images/gems/70.jpg,null,,,,,,54,,,14,,,,,70,0.772485138,0.771428571,,,,,,,
decision,330,853663,0.0-100.0-2.0,,630.49,run_exp/static/images/task_images/land.jpg,65,,,,,,54,,,14,,,,,,,,196041,2,2,FALSE,,,
dig,331,856051,0.0-101.0-0.0,,,,,,,,,,,"[{""stimulus"":""run_exp/static/images/task_images/dig.jpg"",""time"":0.6150000263005495},{""stimulus"":""run_exp/static/images/task_images/land.jpg"",""time"":795.3700000070967},{""stimulus"":""run_exp/static/images/task_images/dig.jpg"",""time"":1595.8700000192039}]",[],14,,,,,,,,,,,,,,
harvest,332,857072,0.0-101.0-1.0,,null,run_exp/static/images/task_images/gems/54.jpg,null,,,,,,42,,,14,,,,,54,0.775478448,0.777777778,,,,,,,
decision,333,857436,0.0-101.0-2.0,,358.71,run_exp/static/images/task_images/land.jpg,65,,,,,,42,,,14,,,,,,,,199814,2,3,FALSE,,,
dig,334,860111,0.0-102.0-0.0,,,,,,,,,,,"[{""stimulus"":""run_exp/static/images/task_images/dig.jpg"",""time"":0.5949999904260039},{""stimulus"":""run_exp/static/images/task_images/land.jpg"",""time"":891.8200000189245},{""stimulus"":""run_exp/static/images/task_images/dig.jpg"",""time"":1771.8999999924563}]",[],14,,,,,,,,,,,,,,
harvest,335,861123,0.0-102.0-1.0,,null,run_exp/static/images/task_images/gems/42.jpg,null,,,,,,32,,,14,,,,,42,0.769790986,0.761904762,,,,,,,
decision,336,861234,0.0-102.0-2.0,,103.775,run_exp/static/images/task_images/land.jpg,65,,,,,,32,,,14,,,,,,,,203611,2,4,FALSE,,,
dig,337,864161,0.0-103.0-0.0,,,,,,,,,,,"[{""stimulus"":""run_exp/static/images/task_images/dig.jpg"",""time"":0.3699999942909926},{""stimulus"":""run_exp/static/images/task_images/land.jpg"",""time"":987.2549999854527},{""stimulus"":""run_exp/static/images/task_images/dig.jpg"",""time"":1946.9999999855645}]",[],14,,,,,,,,,,,,,,
harvest,338,865169,0.0-103.0-1.0,,null,run_exp/static/images/task_images/gems/32.jpg,null,,,,,,27,,,14,,,,,32,0.835958452,0.84375,,,,,,,
decision,339,866471,0.0-103.0-2.0,,1296.58,run_exp/static/images/task_images/land.jpg,76,,,,,,27,,,14,,,,,,,,208849,2,5,TRUE,,,
travel,340,875191,0.0-104.0-0.0,,,,,,,,,,,"[{""stimulus"":""run_exp/static/images/task_images/rocket-01.jpg"",""time"":0.4199999966658652},{""stimulus"":""run_exp/static/images/task_images/rocket-02.jpg"",""time"":988.8199999986682},{""stimulus"":""run_exp/static/images/task_images/rocket-03.jpg"",""time"":1948.8650000130292},{""stimulus"":""run_exp/static/images/task_images/rocket-04.jpg"",""time"":2919.30500001763},{""stimulus"":""run_exp/static/images/task_images/rocket-05.jpg"",""time"":3888.940000004368},{""stimulus"":""run_exp/static/images/task_images/rocket-06.jpg"",""time"":4839.110000000801},{""stimulus"":""run_exp/static/images/task_images/rocket-07.jpg"",""time"":5818.140000017593},{""stimulus"":""run_exp/static/images/task_images/rocket-08.jpg"",""time"":6789.099999994505},{""stimulus"":""run_exp/static/images/task_images/rocket-09.jpg"",""time"":7749.045000004116}]",[],14,,,,,,,,,,,,,,
alien_welcome,341,880211,0.0-104.0-1.0,,null,run_exp/static/images/task_images/aliens/old_aliens/planet/alien_planet-60.jpg,null,,,,,,,,,,,,60,"77,40,44,39,80,38,25,34,9,72,78,36,54,42,60,11,7,8,75,27,79,18,76,64,29,37,59,49,51,46,70,32",,,,,,,,,,
land,342,880721,0.0-104.0-2.0,,null,run_exp/static/images/task_images/land.jpg,null,,,,,,98,,,15,,,,,,,,,,,,,,
dig,343,882741,0.0-104.0-3.0,,,,,,,,,,,"[{""stimulus"":""run_exp/static/images/task_images/dig.jpg"",""time"":0.3800000122282654},{""stimulus"":""run_exp/static/images/task_images/land.jpg"",""time"":677.1799999987707},{""stimulus"":""run_exp/static/images/task_images/dig.jpg"",""time"":1357.5400000263471}]",[],15,,,,,,,,,,,,,,
harvest,344,883751,0.0-104.0-4.0,,null,run_exp/static/images/task_images/gems/98.jpg,null,,,,,,74,,,15,,,,,98,0.759847479,0.755102041,,,,,,,
decision,345,884050,0.0-104.0-5.0,,294.825,run_exp/static/images/task_images/land.jpg,65,,,,,,74,,,15,,,,,,,,226428,2,0,FALSE,,,
dig,346,886776,0.0-105.0-0.0,,,,,,,,,,,"[{""stimulus"":""run_exp/static/images/task_images/dig.jpg"",""time"":0.44499998330138624},{""stimulus"":""run_exp/static/images/task_images/land.jpg"",""time"":910.6499999761581},{""stimulus"":""run_exp/static/images/task_images/dig.jpg"",""time"":1818.4149999869987}]",[],15,,,,,,,,,,,,,,
harvest,347,887789,0.0-105.0-1.0,,null,run_exp/static/images/task_images/gems/74.jpg,null,,,,,,59,,,15,,,,,74,0.801611626,0.797297297,,,,,,,
decision,348,888248,0.0-105.0-2.0,,454.365,run_exp/static/images/task_images/land.jpg,65,,,,,,59,,,15,,,,,,,,230626,2,1,FALSE,,,
dig,349,890811,0.0-106.0-0.0,,,,,,,,,,,"[{""stimulus"":""run_exp/static/images/task_images/dig.jpg"",""time"":0.4749999789055437},{""stimulus"":""run_exp/static/images/task_images/land.jpg"",""time"":869.4399999803863},{""stimulus"":""run_exp/static/images/task_images/dig.jpg"",""time"":1699.0399999776855}]",[],15,,,,,,,,,,,,,,
harvest,350,891820,0.0-106.0-1.0,,null,run_exp/static/images/task_images/gems/59.jpg,null,,,,,,51,,,15,,,,,59,0.863518288,0.86440678,,,,,,,
decision,351,892306,0.0-106.0-2.0,,481.36,run_exp/static/images/task_images/land.jpg,65,,,,,,51,,,15,,,,,,,,234683,2,2,FALSE,,,
dig,352,894851,0.0-107.0-0.0,,,,,,,,,,,"[{""stimulus"":""run_exp/static/images/task_images/dig.jpg"",""time"":0.5999999993946403},{""stimulus"":""run_exp/static/images/task_images/land.jpg"",""time"":853.2449999765959},{""stimulus"":""run_exp/static/images/task_images/dig.jpg"",""time"":1682.889999996405}]",[],15,,,,,,,,,,,,,,
harvest,353,895861,0.0-107.0-1.0,,null,run_exp/static/images/task_images/gems/51.jpg,null,,,,,,45,,,15,,,,,51,0.879604176,0.882352941,,,,,,,
decision,354,896235,0.0-107.0-2.0,,368.22,run_exp/static/images/task_images/land.jpg,65,,,,,,45,,,15,,,,,,,,238612,2,3,FALSE,,,
dig,355,898891,0.0-108.0-0.0,,,,,,,,,,,"[{""stimulus"":""run_exp/static/images/task_images/dig.jpg"",""time"":0.3649999853223562},{""stimulus"":""run_exp/static/images/task_images/land.jpg"",""time"":894.334999989951},{""stimulus"":""run_exp/static/images/task_images/dig.jpg"",""time"":1764.5250000059605}]",[],15,,,,,,,,,,,,,,
harvest,356,899898,0.0-108.0-1.0,,null,run_exp/static/images/task_images/gems/45.jpg,null,,,,,,34,,,15,,,,,45,0.766534181,0.755555556,,,,,,,
decision,357,900223,0.0-108.0-2.0,,321.305,run_exp/static/images/task_images/land.jpg,65,,,,,,34,,,15,,,,,,,,242601,2,4,FALSE,,,
dig,358,902921,0.0-109.0-0.0,,,,,,,,,,,"[{""stimulus"":""run_exp/static/images/task_images/dig.jpg"",""time"":0.4400000034365803},{""stimulus"":""run_exp/static/images/task_images/land.jpg"",""time"":895.6499999912921},{""stimulus"":""run_exp/static/images/task_images/dig.jpg"",""time"":1795.140000001993}]",[],15,,,,,,,,,,,,,,
harvest,359,903929,0.0-109.0-1.0,,null,run_exp/static/images/task_images/gems/34.jpg,null,,,,,,27,,,15,,,,,34,0.791784783,0.794117647,,,,,,,
decision,360,904169,0.0-109.0-2.0,,235.49,run_exp/static/images/task_images/land.jpg,65,,,,,,27,,,15,,,,,,,,246547,2,5,FALSE,,,
dig,361,906951,0.0-110.0-0.0,,,,,,,,,,,"[{""stimulus"":""run_exp/static/images/task_images/dig.jpg"",""time"":0.4400000034365803},{""stimulus"":""run_exp/static/images/task_images/land.jpg"",""time"":926.690000022063},{""stimulus"":""run_exp/static/images/task_images/dig.jpg"",""time"":1856.4900000055786}]",[],15,,,,,,,,,,,,,,
harvest,362,907960,0.0-110.0-1.0,,null,run_exp/static/images/task_images/gems/27.jpg,null,,,,,,22,,,15,,,,,27,0.79988711,0.814814815,,,,,,,
decision,363,908259,0.0-110.0-2.0,,295.22,run_exp/static/images/task_images/land.jpg,65,,,,,,22,,,15,,,,,,,,250636,2,6,FALSE,,,
dig,364,910980,0.0-111.0-0.0,,,,,,,,,,,"[{""stimulus"":""run_exp/static/images/task_images/dig.jpg"",""time"":0.47500000800937414},{""stimulus"":""run_exp/static/images/task_images/land.jpg"",""time"":909.0950000099838},{""stimulus"":""run_exp/static/images/task_images/dig.jpg"",""time"":1808.1349999993108}]",[],15,,,,,,,,,,,,,,
harvest,365,911989,0.0-111.0-1.0,,null,run_exp/static/images/task_images/gems/22.jpg,null,,,,,,18,,,15,,,,,22,0.823301807,0.818181818,,,,,,,
decision,366,912177,0.0-111.0-2.0,,184.145,run_exp/static/images/task_images/land.jpg,65,,,,,,18,,,15,,,,,,,,254554,2,7,FALSE,,,
dig,367,915020,0.0-112.0-0.0,,,,,,,,,,,"[{""stimulus"":""run_exp/static/images/task_images/dig.jpg"",""time"":0.2800000074785203},{""stimulus"":""run_exp/static/images/task_images/land.jpg"",""time"":959.530000021914},{""stimulus"":""run_exp/static/images/task_images/dig.jpg"",""time"":1890.1500000210945}]",[],15,,,,,,,,,,,,,,
harvest,368,916037,0.0-112.0-1.0,,null,run_exp/static/images/task_images/gems/18.jpg,null,,,,,,15,,,15,,,,,18,0.853175307,0.833333333,,,,,,,
decision,369,917873,0.0-112.0-2.0,,1831.35,run_exp/static/images/task_images/land.jpg,76,,,,,,15,,,15,,,,,,,,260251,2,8,TRUE,,,
travel,370,926058,0.0-113.0-0.0,,,,,,,,,,,"[{""stimulus"":""run_exp/static/images/task_images/rocket-01.jpg"",""time"":0.12000001152046025},{""stimulus"":""run_exp/static/images/task_images/rocket-02.jpg"",""time"":913.3750000037253},{""stimulus"":""run_exp/static/images/task_images/rocket-03.jpg"",""time"":1833.6399999971036},{""stimulus"":""run_exp/static/images/task_images/rocket-04.jpg"",""time"":2743.610000004992},{""stimulus"":""run_exp/static/images/task_images/rocket-05.jpg"",""time"":3643.0550000222865},{""stimulus"":""run_exp/static/images/task_images/rocket-06.jpg"",""time"":4540.845000010449},{""stimulus"":""run_exp/static/images/task_images/rocket-07.jpg"",""time"":5444.660000008298},{""stimulus"":""run_exp/static/images/task_images/rocket-08.jpg"",""time"":6354.735000000801},{""stimulus"":""run_exp/static/images/task_images/rocket-09.jpg"",""time"":7265.565000008792}]",[],15,,,,,,,,,,,,,,
alien_welcome,371,931081,0.0-113.0-1.0,,null,run_exp/static/images/task_images/aliens/old_aliens/planet/alien_planet-11.jpg,null,,,,,,,,,,,,11,"77,40,44,39,80,38,25,34,9,72,78,36,54,42,60,11,7,8,75,27,79,18,76,64,29,37,59,49,51,46,70,32",,,,,,,,,,
land,372,931591,0.0-113.0-2.0,,null,run_exp/static/images/task_images/land.jpg,null,,,,,,102,,,16,,,,,,,,,,,,,,
dig,373,933601,0.0-113.0-3.0,,,,,,,,,,,"[{""stimulus"":""run_exp/static/images/task_images/dig.jpg"",""time"":0.6299999949987978},{""stimulus"":""run_exp/static/images/task_images/land.jpg"",""time"":675.9650000021793},{""stimulus"":""run_exp/static/images/task_images/dig.jpg"",""time"":1347.879999986617}]",[],16,,,,,,,,,,,,,,
harvest,374,934611,0.0-113.0-4.0,,null,run_exp/static/images/task_images/gems/102.jpg,null,,,,,,81,,,16,,,,,102,0.791388232,0.794117647,,,,,,,
decision,375,935027,0.0-113.0-5.0,,412.145,run_exp/static/images/task_images/land.jpg,65,,,,,,81,,,16,,,,,,,,277405,2,0,FALSE,,,
dig,376,937631,0.0-114.0-0.0,,,,,,,,,,,"[{""stimulus"":""run_exp/static/images/task_images/dig.jpg"",""time"":0.6950000242795795},{""stimulus"":""run_exp/static/images/task_images/land.jpg"",""time"":868.0900000035763},{""stimulus"":""run_exp/static/images/task_images/dig.jpg"",""time"":1730.2850000269245}]",[],16,,,,,,,,,,,,,,
harvest,377,938637,0.0-114.0-1.0,,null,run_exp/static/images/task_images/gems/81.jpg,null,,,,,,67,,,16,,,,,81,0.825240606,0.827160494,,,,,,,
decision,378,939133,0.0-114.0-2.0,,490.96,run_exp/static/images/task_images/land.jpg,65,,,,,,67,,,16,,,,,,,,281510,2,1,FALSE,,,
dig,379,941671,0.0-115.0-0.0,,,,,,,,,,,"[{""stimulus"":""run_exp/static/images/task_images/dig.jpg"",""time"":0.5449999880511314},{""stimulus"":""run_exp/static/images/task_images/land.jpg"",""time"":848.664999997709},{""stimulus"":""run_exp/static/images/task_images/dig.jpg"",""time"":1688.2650000043213}]",[],16,,,,,,,,,,,,,,
harvest,380,942687,0.0-115.0-1.0,,null,run_exp/static/images/task_images/gems/67.jpg,null,,,,,,52,,,16,,,,,67,0.771936539,0.776119403,,,,,,,
decision,381,942957,0.0-115.0-2.0,,264.895,run_exp/static/images/task_images/land.jpg,65,,,,,,52,,,16,,,,,,,,285334,2,2,FALSE,,,
dig,382,945711,0.0-116.0-0.0,,,,,,,,,,,"[{""stimulus"":""run_exp/static/images/task_images/dig.jpg"",""time"":0.5300000193528831},{""stimulus"":""run_exp/static/images/task_images/land.jpg"",""time"":920.0800000107847},{""stimulus"":""run_exp/static/images/task_images/dig.jpg"",""time"":1829.470000026049}]",[],16,,,,,,,,,,,,,,
harvest,383,946718,0.0-116.0-1.0,,null,run_exp/static/images/task_images/gems/52.jpg,null,,,,,,41,,,16,,,,,52,0.793715308,0.788461538,,,,,,,
decision,384,946807,0.0-116.0-2.0,,84.795,run_exp/static/images/task_images/land.jpg,65,,,,,,41,,,16,,,,,,,,289184,2,3,FALSE,,,
dig,385,949740,0.0-117.0-0.0,,,,,,,,,,,"[{""stimulus"":""run_exp/static/images/task_images/dig.jpg"",""time"":0.44999999227002263},{""stimulus"":""run_exp/static/images/task_images/land.jpg"",""time"":984.4900000025518},{""stimulus"":""run_exp/static/images/task_images/dig.jpg"",""time"":1949.3450000009034}]",[],16,,,,,,,,,,,,,,
harvest,386,950749,0.0-117.0-1.0,,null,run_exp/static/images/task_images/gems/41.jpg,null,,,,,,30,,,16,,,,,41,0.727771729,0.731707317,,,,,,,
decision,387,950948,0.0-117.0-2.0,,194.52,run_exp/static/images/task_images/land.jpg,65,,,,,,30,,,16,,,,,,,,293325,2,4,FALSE,,,
dig,388,953781,0.0-118.0-0.0,,,,,,,,,,,"[{""stimulus"":""run_exp/static/images/task_images/dig.jpg"",""time"":0.4999999946448952},{""stimulus"":""run_exp/static/images/task_images/land.jpg"",""time"":942.3200000019278},{""stimulus"":""run_exp/static/images/task_images/dig.jpg"",""time"":1876.0250000050291}]",[],16,,,,,,,,,,,,,,
harvest,389,954796,0.0-118.0-1.0,,null,run_exp/static/images/task_images/gems/30.jpg,null,,,,,,24,,,16,,,,,30,0.791547316,0.8,,,,,,,
decision,390,955198,0.0-118.0-2.0,,396.355,run_exp/static/images/task_images/land.jpg,65,,,,,,24,,,16,,,,,,,,297575,2,5,FALSE,,,
dig,391,957821,0.0-119.0-0.0,,,,,,,,,,,"[{""stimulus"":""run_exp/static/images/task_images/dig.jpg"",""time"":0.5400000081863254},{""stimulus"":""run_exp/static/images/task_images/land.jpg"",""time"":888.1600000022445},{""stimulus"":""run_exp/static/images/task_images/dig.jpg"",""time"":1738.2050000014715}]",[],16,,,,,,,,,,,,,,
harvest,392,958827,0.0-119.0-1.0,,null,run_exp/static/images/task_images/gems/24.jpg,null,,,,,,19,,,16,,,,,24,0.794848186,0.791666667,,,,,,,
decision,393,959093,0.0-119.0-2.0,,261.3,run_exp/static/images/task_images/land.jpg,65,,,,,,19,,,16,,,,,,,,301471,2,6,TRUE,,,
end_of_block_continue,394,967974,0.0-120.0-0.0,,null,run_exp/static/audio/clip_32_block_end.m4a,,,,,,null,,,,,,,,,,,,,,,,,,
alien_welcome,395,973012,0.0-121.0-0.0,,null,run_exp/static/images/task_images/aliens/old_aliens/planet/alien_planet-7.jpg,null,,,,,,,,,,,,7,"77,40,44,39,80,38,25,34,9,72,78,36,54,42,60,11,7,8,75,27,79,18,76,64,29,37,59,49,51,46,70,32",,,,,,,,,,
land,396,973531,0.0-121.0-1.0,,null,run_exp/static/images/task_images/land.jpg,null,,,,,,91,,,17,,,,,,,,,,,,,,
dig,397,975541,0.0-121.0-2.0,,,,,,,,,,,"[{""stimulus"":""run_exp/static/images/task_images/dig.jpg"",""time"":0.4899999767076224},{""stimulus"":""run_exp/static/images/task_images/land.jpg"",""time"":686.5299999772105},{""stimulus"":""run_exp/static/images/task_images/dig.jpg"",""time"":1348.3999999880325}]",[],17,,,,,,,,,,,,,,
harvest,398,976552,0.0-121.0-3.0,,null,run_exp/static/images/task_images/gems/91.jpg,null,,,,,,44,,,17,,,,,91,0.480475625,0.483516484,,,,,,,
decision,399,976972,0.0-121.0-4.0,,415.265,run_exp/static/images/task_images/land.jpg,65,,,,,,44,,,17,,,,,,,,8974,3,0,FALSE,,,
dig,400,979582,0.0-122.0-0.0,,,,,,,,,,,"[{""stimulus"":""run_exp/static/images/task_images/dig.jpg"",""time"":0.4450000124052167},{""stimulus"":""run_exp/static/images/task_images/land.jpg"",""time"":877.4050000065472},{""stimulus"":""run_exp/static/images/task_images/dig.jpg"",""time"":1734.390000026906}]",[],17,,,,,,,,,,,,,,
harvest,401,980597,0.0-122.0-1.0,,null,run_exp/static/images/task_images/gems/44.jpg,null,,,,,,25,,,17,,,,,44,0.569302795,0.568181818,,,,,,,
decision,402,980930,0.0-122.0-2.0,,328.46,run_exp/static/images/task_images/land.jpg,65,,,,,,25,,,17,,,,,,,,12933,3,1,FALSE,,,
dig,403,983621,0.0-123.0-0.0,,,,,,,,,,,"[{""stimulus"":""run_exp/static/images/task_images/dig.jpg"",""time"":0.4949999856762588},{""stimulus"":""run_exp/static/images/task_images/land.jpg"",""time"":895.4549999907613},{""stimulus"":""run_exp/static/images/task_images/dig.jpg"",""time"":1795.1750000065658}]",[],17,,,,,,,,,,,,,,
harvest,404,984628,0.0-123.0-1.0,,null,run_exp/static/images/task_images/gems/25.jpg,null,,,,,,13,,,17,,,,,25,0.526779061,0.52,,,,,,,
decision,405,986546,0.0-123.0-2.0,,1914.27,run_exp/static/images/task_images/land.jpg,76,,,,,,13,,,17,,,,,,,,18548,3,2,TRUE,,,
travel,406,994662,0.0-124.0-0.0,,,,,,,,,,,"[{""stimulus"":""run_exp/static/images/task_images/rocket-01.jpg"",""time"":0.43999997433274984},{""stimulus"":""run_exp/static/images/task_images/rocket-02.jpg"",""time"":909.8349999985658},{""stimulus"":""run_exp/static/images/task_images/rocket-03.jpg"",""time"":1799.379999982193},{""stimulus"":""run_exp/static/images/task_images/rocket-04.jpg"",""time"":2699.719999975059},{""stimulus"":""run_exp/static/images/task_images/rocket-05.jpg"",""time"":3608.734999987064},{""stimulus"":""run_exp/static/images/task_images/rocket-06.jpg"",""time"":4499.384999973699},{""stimulus"":""run_exp/static/images/task_images/rocket-07.jpg"",""time"":5395.08499999647},{""stimulus"":""run_exp/static/images/task_images/rocket-08.jpg"",""time"":6289.404999988619},{""stimulus"":""run_exp/static/images/task_images/rocket-09.jpg"",""time"":7189.039999997476}]",[],17,,,,,,,,,,,,,,
alien_welcome,407,999667,0.0-124.0-1.0,,null,run_exp/static/images/task_images/aliens/old_aliens/planet/alien_planet-8.jpg,null,,,,,,,,,,,,8,"77,40,44,39,80,38,25,34,9,72,78,36,54,42,60,11,7,8,75,27,79,18,76,64,29,37,59,49,51,46,70,32",,,,,,,,,,
land,408,1000171,0.0-124.0-2.0,,null,run_exp/static/images/task_images/land.jpg,null,,,,,,106,,,18,,,,,,,,,,,,,,
dig,409,1002191,0.0-124.0-3.0,,,,,,,,,,,"[{""stimulus"":""run_exp/static/images/task_images/dig.jpg"",""time"":0.49500001478008926},{""stimulus"":""run_exp/static/images/task_images/land.jpg"",""time"":686.7050000000745},{""stimulus"":""run_exp/static/images/task_images/dig.jpg"",""time"":1342.065000004368}]",[],18,,,,,,,,,,,,,,
harvest,410,1003212,0.0-124.0-4.0,,null,run_exp/static/images/task_images/gems/106.jpg,null,,,,,,83,,,18,,,,,106,0.782428042,0.783018868,,,,,,,
decision,411,1003735,0.0-124.0-5.0,,517.97,run_exp/static/images/task_images/land.jpg,65,,,,,,83,,,18,,,,,,,,35737,3,0,FALSE,,,
dig,412,1006242,0.0-125.0-0.0,,,,,,,,,,,"[{""stimulus"":""run_exp/static/images/task_images/dig.jpg"",""time"":0.4799999878741801},{""stimulus"":""run_exp/static/images/task_images/land.jpg"",""time"":831.1249999969732},{""stimulus"":""run_exp/static/images/task_images/dig.jpg"",""time"":1671.4700000011362}]",[],18,,,,,,,,,,,,,,
