"trial_type","trial_index","time_elapsed","internal_node_id","interactions","blur_events","focus_events","fullscreenenter_events","fullscreenexit_events","success"
"pavlovia","0","3","0.0-0.0","""event"",""trial"",""time""
""blur"",""0"",""0""
""focus"",""0"",""0""
""focus"",""0"",""0""
""blur"",""0"",""0""
""focus"",""0"",""0""
""focus"",""0"",""0""
""blur"",""0"",""0""
""focus"",""1"",""62049""
""fullscreenenter"",""1"",""64065""
""fullscreenenter"",""1"",""64066""
","""event"",""trial"",""time""
""blur"",""0"",""0""
""blur"",""0"",""0""
""blur"",""0"",""0""
","""event"",""trial"",""time""
""focus"",""0"",""0""
""focus"",""0"",""0""
""focus"",""0"",""0""
""focus"",""0"",""0""
""focus"",""1"",""62049""
","""event"",""trial"",""time""
""fullscreenenter"",""1"",""64065""
""fullscreenenter"",""1"",""64066""
","
",""
"fullscreen","1","65037","0.0-1.0","""event"",""trial"",""time""
""blur"",""0"",""0""
""focus"",""0"",""0""
""focus"",""0"",""0""
""blur"",""0"",""0""
""focus"",""0"",""0""
""focus"",""0"",""0""
""blur"",""0"",""0""
""focus"",""1"",""62049""
""fullscreenenter"",""1"",""64065""
""fullscreenenter"",""1"",""64066""
""blur"",""2"",""86953""
""focus"",""2"",""100501""
""fullscreenexit"",""2"",""105975""
""fullscreenexit"",""2"",""105975""
""blur"",""2"",""108798""
""focus"",""2"",""218171""
""blur"",""2"",""222849""
""focus"",""2"",""222936""
","""event"",""trial"",""time""
""blur"",""0"",""0""
""blur"",""0"",""0""
""blur"",""0"",""0""
""blur"",""2"",""86953""
""blur"",""2"",""108798""
""blur"",""2"",""222849""
","""event"",""trial"",""time""
""focus"",""0"",""0""
""focus"",""0"",""0""
""focus"",""0"",""0""
""focus"",""0"",""0""
""focus"",""1"",""62049""
""focus"",""2"",""100501""
""focus"",""2"",""218171""
""focus"",""2"",""222936""
","""event"",""trial"",""time""
""fullscreenenter"",""1"",""64065""
""fullscreenenter"",""1"",""64066""
","""event"",""trial"",""time""
""fullscreenexit"",""2"",""105975""
""fullscreenexit"",""2"",""105975""
","true"
