trial_type,trial_index,time_elapsed,internal_node_id,interactions,blur_events,focus_events,fullscreenenter_events,fullscreenexit_events,success,rt,stimulus,key_press,prompt,subject_id,participant_id,age,gender,button_pressed,next_reward,animation_sequence,responses,planet,curr_prac_trial,n_prac_rounds,alien,aliens,reward_received,decay_rate_actual,decay_rate_exp,time_in_block,block_num,prt,last_trial_on_planet,button_html,bonus,num_failures
pavlovia,0,8,0.0-0.0,"""event"",""trial"",""time""
""fullscreenenter"",""1"",""7592""
","
","
","""event"",""trial"",""time""
""fullscreenenter"",""1"",""7592""
","
",,,,,,,,,,,,,,,,,,,,,,,,,,,,
fullscreen,1,8580,0.0-1.0,"""event"",""trial"",""time""
""fullscreenenter"",""1"",""7592""
","
","
","""event"",""trial"",""time""
""fullscreenenter"",""1"",""7592""
","
",TRUE,,,,,,,,,,,,,,,,,,,,,,,,,,,
instruc_welcome,2,18458,0.0-2.0,"""event"",""trial"",""time""
""fullscreenenter"",""1"",""7592""
","
","
","""event"",""trial"",""time""
""fullscreenenter"",""1"",""7592""
","
",,null,run_exp/static/audio/clip_1_welcome.m4a,null,"<p>Howdy! In this experiment, you’ll be an explorer traveling through space to collect space treasure.</p><p>Your mission is to collect as much treasure as possible.</p><br><br><p><img src='run_exp/static/images/task_images/opening_img-01.jpg' height='300' width='auto'></p>",9336,1854,13.58,Female,,,,,,,,,,,,,,,,,,,
audio-keyboard-response,3,35483,0.0-3.0,"""event"",""trial"",""time""
""fullscreenenter"",""1"",""7592""
","
","
","""event"",""trial"",""time""
""fullscreenenter"",""1"",""7592""
","
",,null,run_exp/static/audio/clip_2_move.m4a,null,,,,,,,,,,,,,,,,,,,,,,,,
welcome_dec,4,36045,0.0-4.0,"""event"",""trial"",""time""
""fullscreenenter"",""1"",""7592""
","
","
","""event"",""trial"",""time""
""fullscreenenter"",""1"",""7592""
","
",,559.5,"<p>Howdy! In this experiment, you’ll be an explorer traveling through space to collect space treasure.</p><p>Your mission is to collect as much treasure as possible.</p><br><br><p><img src='run_exp/static/images/task_images/opening_img-01.jpg' height='300' width='auto'></p>",,,,,,,1,,,,,,,,,,,,,,,,,,
html-keyboard-response,5,36632,0.0-5.0,"""event"",""trial"",""time""
""fullscreenenter"",""1"",""7592""
","
","
","""event"",""trial"",""time""
""fullscreenenter"",""1"",""7592""
","
",,583.3,"<p>Howdy! In this experiment, you’ll be an explorer traveling through space to collect space treasure.</p><p>Your mission is to collect as much treasure as possible.</p><br><br><p><img src='run_exp/static/images/task_images/opening_img-01.jpg' height='300' width='auto'></p><button class=""jspsych-html-btn-unchosen""><img src=""run_exp/static/images/task_images/planet-01.jpg"" height=""50""></button><button class=""jspsych-html-btn-chosen""><img src=""run_exp/static/images/task_images/planet-02.jpg"" height=""50""></button><p><b>[press the space bar to lock in your answer]<b><br></p>",32,,,,,,,,,,,,,,,,,,,,,,,,
instruc_goal,6,47131,0.0-6.0-0.0,"""event"",""trial"",""time""
""fullscreenenter"",""1"",""7592""
","
","
","""event"",""trial"",""time""
""fullscreenenter"",""1"",""7592""
","
",,null,run_exp/static/audio/clip_3_goal.m4a,null,"<p> As a space explorer, you’ll visit different planets to dig for space treasure, these pink gems.</p> <p> The more treasure you dig up, the more bonus money you’ll win! </p><br><br><p><img src='run_exp/static/images/task_images/pink_gem.jpg' height='300' width='auto'></p>",,,,,,,,,,,,,,,,,,,,,,,
instruc_goal,7,51259,0.0-6.0-1.0,"""event"",""trial"",""time""
""fullscreenenter"",""1"",""7592""
","
","
","""event"",""trial"",""time""
""fullscreenenter"",""1"",""7592""
","
",,4125,"<p> As a space explorer, you’ll visit different planets to dig for space treasure, these pink gems.</p> <p> The more treasure you dig up, the more bonus money you’ll win! </p><br><br><p><img src='run_exp/static/images/task_images/pink_gem.jpg' height='300' width='auto'></p>",,,,,,,1,,,,,,,,,,,,,,,,,,
html-keyboard-response,8,51329,0.0-6.0-2.0,"""event"",""trial"",""time""
""fullscreenenter"",""1"",""7592""
","
","
","""event"",""trial"",""time""
""fullscreenenter"",""1"",""7592""
","
",,67.1,"<p> As a space explorer, you’ll visit different planets to dig for space treasure, these pink gems.</p> <p> The more treasure you dig up, the more bonus money you’ll win! </p><br><br><p><img src='run_exp/static/images/task_images/pink_gem.jpg' height='300' width='auto'></p><button class=""jspsych-html-btn-unchosen""><img src=""run_exp/static/images/task_images/planet-01.jpg"" height=""50""></button><button class=""jspsych-html-btn-chosen""><img src=""run_exp/static/images/task_images/planet-02.jpg"" height=""50""></button><p><b>[press the space bar to lock in your answer]<b><br></p>",32,,,,,,,,,,,,,,,,,,,,,,,,
instruc_dig,9,67611,0.0-7.0-0.0,"""event"",""trial"",""time""
""fullscreenenter"",""1"",""7592""
","
","
","""event"",""trial"",""time""
""fullscreenenter"",""1"",""7592""
","
",,null,run_exp/static/audio/clip_4_dig.m4a,null,,,,,,,100,,,,,,,,,,,,,,,,,
instruc_dig_try,10,67747,0.0-7.0-1.0,"""event"",""trial"",""time""
""fullscreenenter"",""1"",""7592""
","
","
","""event"",""trial"",""time""
""fullscreenenter"",""1"",""7592""
","
",,134.1,"<p> When you’ve arrived at a new planet, you will dig once. </p> <p>Then, you get to decide if you want to stay on the planet and dig again or travel to a new planet and dig there.</p> <p> To stay and dig, press the letter <strong>‘A’</strong> on your keyboard. Try pressing it now! </p><p><img src='run_exp/static/images/task_images/land.jpg'  height='700' width='auto'></p>",65,"<p> When you’ve arrived at a new planet, you will dig once. </p> <p>Then, you get to decide if you want to stay on the planet and dig again or travel to a new planet and dig there.</p> <p> To stay and dig, press the letter <strong>‘A’</strong> on your keyboard. Try pressing it now! </p><p><img src='run_exp/static/images/task_images/land.jpg'  height='700' width='auto'></p>",,,,,,100,,,,,,,,,,,,,,,,,
dig_prac,11,69781,0.0-7.0-2.0,"""event"",""trial"",""time""
""fullscreenenter"",""1"",""7592""
","
","
","""event"",""trial"",""time""
""fullscreenenter"",""1"",""7592""
","
",,,,,,,,,,,,"[{""stimulus"":""run_exp/static/images/task_images/dig.jpg"",""time"":0.6000000000931323},{""stimulus"":""run_exp/static/images/task_images/land.jpg"",""time"":673.1000000000931},{""stimulus"":""run_exp/static/images/task_images/dig.jpg"",""time"":1337.6000000000931}]",[],,,,,,,,,,,,,,,
instruc_travel,12,106395,0.0-7.0-3.0,"""event"",""trial"",""time""
""fullscreenenter"",""1"",""7592""
","
","
","""event"",""trial"",""time""
""fullscreenenter"",""1"",""7592""
","
",,null,run_exp/static/audio/clip_5_travel.m4a,null,"<p>Every time you dig up gems, there are less gems on the planet, so the more you dig on a planet the fewer gems you’ll get with each dig.</p><p>When gems are running low, you may want to travel to a new planet. </p> <p>  Planets are very far apart in this galaxy, so it will take some time to travel between them. </p> <br><p>There are lots and lots of planets for you to visit, so you won’t be able to return to any planets you’ve seen before. </p><br><p>To leave this planet and travel to a new one, press the letter <strong>‘L’</strong> on your keyboard. Try pressing it now! </p><p><img src='run_exp/static/images/task_images/rocket-01.jpg'  height='600' width='auto'></p>",,,,,,,,,,,,,,,,,,,,,,,
instruc_travel_try,13,107196,0.0-7.0-4.0,"""event"",""trial"",""time""
""fullscreenenter"",""1"",""7592""
","
","
","""event"",""trial"",""time""
""fullscreenenter"",""1"",""7592""
","
",,798.8,"<p>Every time you dig up gems, there are less gems on the planet, so the more you dig on a planet the fewer gems you’ll get with each dig.</p><p>When gems are running low, you may want to travel to a new planet. </p> <p>  Planets are very far apart in this galaxy, so it will take some time to travel between them. </p> <br><p>There are lots and lots of planets for you to visit, so you won’t be able to return to any planets you’ve seen before. </p><br><p>To leave this planet and travel to a new one, press the letter <strong>‘L’</strong> on your keyboard. Try pressing it now! </p><p><img src='run_exp/static/images/task_images/rocket-01.jpg'  height='600' width='auto'></p>",76,"<p>Every time you dig up gems, there are less gems on the planet, so the more you dig on a planet the fewer gems you’ll get with each dig.</p><p>When gems are running low, you may want to travel to a new planet. </p> <p>  Planets are very far apart in this galaxy, so it will take some time to travel between them. </p> <br><p>There are lots and lots of planets for you to visit, so you won’t be able to return to any planets you’ve seen before. </p><br><p>To leave this planet and travel to a new one, press the letter <strong>‘L’</strong> on your keyboard. Try pressing it now! </p><p><img src='run_exp/static/images/task_images/rocket-01.jpg'  height='600' width='auto'></p>",,,,,,,,,,,,,,,,,,,,,,,
travel_prac,14,117204,0.0-7.0-5.0,"""event"",""trial"",""time""
""fullscreenenter"",""1"",""7592""
""blur"",""15"",""118157""
""focus"",""15"",""118159""
""blur"",""15"",""118663""
""focus"",""15"",""118665""
","""event"",""trial"",""time""
""blur"",""15"",""118157""
""blur"",""15"",""118663""
","""event"",""trial"",""time""
""focus"",""15"",""118159""
""focus"",""15"",""118665""
","""event"",""trial"",""time""
""fullscreenenter"",""1"",""7592""
","
",,,,,,,,,,,,"[{""stimulus"":""run_exp/static/images/task_images/rocket-01.jpg"",""time"":0.39999999990686774},{""stimulus"":""run_exp/static/images/task_images/rocket-02.jpg"",""time"":1118.6000000000931},{""stimulus"":""run_exp/static/images/task_images/rocket-03.jpg"",""time"":2230.399999999907},{""stimulus"":""run_exp/static/images/task_images/rocket-04.jpg"",""time"":3342.5},{""stimulus"":""run_exp/static/images/task_images/rocket-05.jpg"",""time"":4446.600000000093},{""stimulus"":""run_exp/static/images/task_images/rocket-06.jpg"",""time"":5558.399999999907},{""stimulus"":""run_exp/static/images/task_images/rocket-07.jpg"",""time"":6670.300000000279},{""stimulus"":""run_exp/static/images/task_images/rocket-08.jpg"",""time"":7782.300000000279},{""stimulus"":""run_exp/static/images/task_images/rocket-09.jpg"",""time"":8894.899999999907}]",[],0,,,,,,,,,,,,,,
instruc_alien_greet,15,144621,0.0-7.0-6.0,"""event"",""trial"",""time""
""fullscreenenter"",""1"",""7592""
""blur"",""15"",""118157""
""focus"",""15"",""118159""
""blur"",""15"",""118663""
""focus"",""15"",""118665""
","""event"",""trial"",""time""
""blur"",""15"",""118157""
""blur"",""15"",""118663""
","""event"",""trial"",""time""
""focus"",""15"",""118159""
""focus"",""15"",""118665""
","""event"",""trial"",""time""
""fullscreenenter"",""1"",""7592""
","
",,null,run_exp/static/audio/clip_6_alien.m4a,null,"<p>When you arrive at a new planet, the alien who owns the treasure mine on that planet will greet you!</p><p>The better an alien takes care of their mine the easier it is to dig for gems. Some aliens take better care of their mine than others. So, you won’t get exactly the same amount of gems on each planet.</p><p>What the alien looks like does not tell you anything about how many gems there are on the planet.</p><br><p><img src=""run_exp/static/images/task_images/aliens/instructions_aliens/planet/alien_planet-1.jpg""  height=""600"" width=""auto""></p>",,,,,,,,,,,,,,,,,,,,,,,
instruc_alien_greet,16,149893,0.0-7.0-7.0,"""event"",""trial"",""time""
""fullscreenenter"",""1"",""7592""
""blur"",""15"",""118157""
""focus"",""15"",""118159""
""blur"",""15"",""118663""
""focus"",""15"",""118665""
","""event"",""trial"",""time""
""blur"",""15"",""118157""
""blur"",""15"",""118663""
","""event"",""trial"",""time""
""focus"",""15"",""118159""
""focus"",""15"",""118665""
","""event"",""trial"",""time""
""fullscreenenter"",""1"",""7592""
","
",,5269.4,"<p>When you arrive at a new planet, the alien who owns the treasure mine on that planet will greet you!</p><p>The better an alien takes care of their mine the easier it is to dig for gems. Some aliens take better care of their mine than others. So, you won’t get exactly the same amount of gems on each planet.</p><p>What the alien looks like does not tell you anything about how many gems there are on the planet.</p><br><p><img src=""run_exp/static/images/task_images/aliens/instructions_aliens/planet/alien_planet-1.jpg""  height=""600"" width=""auto""></p>",,,,,,,1,,,,,,,,,,,,,,,,,,
html-keyboard-response,17,149929,0.0-7.0-8.0,"""event"",""trial"",""time""
""fullscreenenter"",""1"",""7592""
""blur"",""15"",""118157""
""focus"",""15"",""118159""
""blur"",""15"",""118663""
""focus"",""15"",""118665""
","""event"",""trial"",""time""
""blur"",""15"",""118157""
""blur"",""15"",""118663""
","""event"",""trial"",""time""
""focus"",""15"",""118159""
""focus"",""15"",""118665""
","""event"",""trial"",""time""
""fullscreenenter"",""1"",""7592""
","
",,33.2,"<p>When you arrive at a new planet, the alien who owns the treasure mine on that planet will greet you!</p><p>The better an alien takes care of their mine the easier it is to dig for gems. Some aliens take better care of their mine than others. So, you won’t get exactly the same amount of gems on each planet.</p><p>What the alien looks like does not tell you anything about how many gems there are on the planet.</p><br><p><img src=""run_exp/static/images/task_images/aliens/instructions_aliens/planet/alien_planet-1.jpg""  height=""600"" width=""auto""></p><button class=""jspsych-html-btn-unchosen""><img src=""run_exp/static/images/task_images/planet-01.jpg"" height=""50""></button><button class=""jspsych-html-btn-chosen""><img src=""run_exp/static/images/task_images/planet-02.jpg"" height=""50""></button><p><b>[press the space bar to lock in your answer]<b><br></p>",32,,,,,,,,,,,,,,,,,,,,,,,,
time_out,18,161388,0.0-8.0-0.0,"""event"",""trial"",""time""
""fullscreenenter"",""1"",""7592""
""blur"",""15"",""118157""
""focus"",""15"",""118159""
""blur"",""15"",""118663""
""focus"",""15"",""118665""
","""event"",""trial"",""time""
""blur"",""15"",""118157""
""blur"",""15"",""118663""
","""event"",""trial"",""time""
""focus"",""15"",""118159""
""focus"",""15"",""118665""
","""event"",""trial"",""time""
""fullscreenenter"",""1"",""7592""
","
",,null,run_exp/static/audio/clip_7_timeout.m4a,null,"<p>If you don't make your choice fast enough, you’ll have to wait a few seconds before you can make another one.</p><p>You can’t dig for more gems or travel to new planets. You just have to sit and wait.</p><br><p><img src='run_exp/static/images/task_images/time_out.jpg'  height='600' width='auto'></p>",,,,,,,,,,,,,,,,,,,,,,,
time_out,19,167817,0.0-8.0-1.0,"""event"",""trial"",""time""
""fullscreenenter"",""1"",""7592""
""blur"",""15"",""118157""
""focus"",""15"",""118159""
""blur"",""15"",""118663""
""focus"",""15"",""118665""
","""event"",""trial"",""time""
""blur"",""15"",""118157""
""blur"",""15"",""118663""
","""event"",""trial"",""time""
""focus"",""15"",""118159""
""focus"",""15"",""118665""
","""event"",""trial"",""time""
""fullscreenenter"",""1"",""7592""
","
",,6426.1,"<p>If you don't make your choice fast enough, you’ll have to wait a few seconds before you can make another one.</p><p>You can’t dig for more gems or travel to new planets. You just have to sit and wait.</p><br><p><img src='run_exp/static/images/task_images/time_out.jpg'  height='600' width='auto'></p>",,,,,,,1,,,,,,,,,,,,,,,,,,
html-keyboard-response,20,167899,0.0-8.0-2.0,"""event"",""trial"",""time""
""fullscreenenter"",""1"",""7592""
""blur"",""15"",""118157""
""focus"",""15"",""118159""
""blur"",""15"",""118663""
""focus"",""15"",""118665""
","""event"",""trial"",""time""
""blur"",""15"",""118157""
""blur"",""15"",""118663""
","""event"",""trial"",""time""
""focus"",""15"",""118159""
""focus"",""15"",""118665""
","""event"",""trial"",""time""
""fullscreenenter"",""1"",""7592""
","
",,79.7,"<p>If you don't make your choice fast enough, you’ll have to wait a few seconds before you can make another one.</p><p>You can’t dig for more gems or travel to new planets. You just have to sit and wait.</p><br><p><img src='run_exp/static/images/task_images/time_out.jpg'  height='600' width='auto'></p><button class=""jspsych-html-btn-unchosen""><img src=""run_exp/static/images/task_images/planet-01.jpg"" height=""50""></button><button class=""jspsych-html-btn-chosen""><img src=""run_exp/static/images/task_images/planet-02.jpg"" height=""50""></button><p><b>[press the space bar to lock in your answer]<b><br></p>",32,,,,,,,,,,,,,,,,,,,,,,,,
instruc_break,21,183790,0.0-9.0-0.0,"""event"",""trial"",""time""
""fullscreenenter"",""1"",""7592""
""blur"",""15"",""118157""
""focus"",""15"",""118159""
""blur"",""15"",""118663""
""focus"",""15"",""118665""
","""event"",""trial"",""time""
""blur"",""15"",""118157""
""blur"",""15"",""118663""
","""event"",""trial"",""time""
""focus"",""15"",""118159""
""focus"",""15"",""118665""
","""event"",""trial"",""time""
""fullscreenenter"",""1"",""7592""
","
",,null,run_exp/static/audio/clip_8_break.m4a,null,"<p> After digging and traveling for a while, you’ll be able to take a break at home base. </p><p>The game will last 20 minutes no matter what.</p><p>You will visit home base every 5 minutes, so, you will visit home base three times during the game.</p><br><p><img src='run_exp/static/images/task_images/home_base.jpg' height='600' width='auto'></p>",,,,,,,,,,,,,,,,,,,,,,,
instruc_break,22,188358,0.0-9.0-1.0,"""event"",""trial"",""time""
""fullscreenenter"",""1"",""7592""
""blur"",""15"",""118157""
""focus"",""15"",""118159""
""blur"",""15"",""118663""
""focus"",""15"",""118665""
","""event"",""trial"",""time""
""blur"",""15"",""118157""
""blur"",""15"",""118663""
","""event"",""trial"",""time""
""focus"",""15"",""118159""
""focus"",""15"",""118665""
","""event"",""trial"",""time""
""fullscreenenter"",""1"",""7592""
","
",,4565.2,"<p> After digging and traveling for a while, you’ll be able to take a break at home base. </p><p>The game will last 20 minutes no matter what.</p><p>You will visit home base every 5 minutes, so, you will visit home base three times during the game.</p><br><p><img src='run_exp/static/images/task_images/home_base.jpg' height='600' width='auto'></p>",,,,,,,1,,,,,,,,,,,,,,,,,,
html-keyboard-response,23,188486,0.0-9.0-2.0,"""event"",""trial"",""time""
""fullscreenenter"",""1"",""7592""
""blur"",""15"",""118157""
""focus"",""15"",""118159""
""blur"",""15"",""118663""
""focus"",""15"",""118665""
","""event"",""trial"",""time""
""blur"",""15"",""118157""
""blur"",""15"",""118663""
","""event"",""trial"",""time""
""focus"",""15"",""118159""
""focus"",""15"",""118665""
","""event"",""trial"",""time""
""fullscreenenter"",""1"",""7592""
","
",,125.9,"<p> After digging and traveling for a while, you’ll be able to take a break at home base. </p><p>The game will last 20 minutes no matter what.</p><p>You will visit home base every 5 minutes, so, you will visit home base three times during the game.</p><br><p><img src='run_exp/static/images/task_images/home_base.jpg' height='600' width='auto'></p><button class=""jspsych-html-btn-unchosen""><img src=""run_exp/static/images/task_images/planet-01.jpg"" height=""50""></button><button class=""jspsych-html-btn-chosen""><img src=""run_exp/static/images/task_images/planet-02.jpg"" height=""50""></button><p><b>[press the space bar to lock in your answer]<b><br></p>",32,,,,,,,,,,,,,,,,,,,,,,,,
instruc_prac_game,24,198893,0.0-10.0-0.0,"""event"",""trial"",""time""
""fullscreenenter"",""1"",""7592""
""blur"",""15"",""118157""
""focus"",""15"",""118159""
""blur"",""15"",""118663""
""focus"",""15"",""118665""
","""event"",""trial"",""time""
""blur"",""15"",""118157""
""blur"",""15"",""118663""
","""event"",""trial"",""time""
""focus"",""15"",""118159""
""focus"",""15"",""118665""
","""event"",""trial"",""time""
""fullscreenenter"",""1"",""7592""
","
",,null,run_exp/static/audio/clip_9_practice.m4a,null,"<p> Are you ready to play a practice game? </p> <p>In this practice game, you'll be digging up barrels of gems. But, in the real game, you'll be digging up the gems themselves. </p>",,,,,,,,,,,,,,,,,,,,,,,
html-button-response,25,202256,0.0-10.0-1.0,"""event"",""trial"",""time""
""fullscreenenter"",""1"",""7592""
""blur"",""15"",""118157""
""focus"",""15"",""118159""
""blur"",""15"",""118663""
""focus"",""15"",""118665""
","""event"",""trial"",""time""
""blur"",""15"",""118157""
""blur"",""15"",""118663""
","""event"",""trial"",""time""
""focus"",""15"",""118159""
""focus"",""15"",""118665""
","""event"",""trial"",""time""
""fullscreenenter"",""1"",""7592""
","
",,3361.4,"<p> Are you ready to play a practice game? </p> <p>In this practice game, you'll be digging up barrels of gems. But, in the real game, you'll be digging up the gems themselves. </p>",,,,,,,0,,,,,,,,,,,,,,,,,,
alien_welcome_prac,26,207261,0.0-11.0-0.0,"""event"",""trial"",""time""
""fullscreenenter"",""1"",""7592""
""blur"",""15"",""118157""
""focus"",""15"",""118159""
""blur"",""15"",""118663""
""focus"",""15"",""118665""
","""event"",""trial"",""time""
""blur"",""15"",""118157""
""blur"",""15"",""118663""
","""event"",""trial"",""time""
""focus"",""15"",""118159""
""focus"",""15"",""118665""
","""event"",""trial"",""time""
""fullscreenenter"",""1"",""7592""
","
",,null,run_exp/static/images/task_images/aliens/practice_aliens/planet/alien_planet-5.jpg,null,,,,,,,,,,,,,,,,,,,,,,,,
land_prac,27,207764,0.0-11.0-1.0,"""event"",""trial"",""time""
""fullscreenenter"",""1"",""7592""
""blur"",""15"",""118157""
""focus"",""15"",""118159""
""blur"",""15"",""118663""
""focus"",""15"",""118665""
","""event"",""trial"",""time""
""blur"",""15"",""118157""
""blur"",""15"",""118663""
","""event"",""trial"",""time""
""focus"",""15"",""118159""
""focus"",""15"",""118665""
","""event"",""trial"",""time""
""fullscreenenter"",""1"",""7592""
","
",,null,run_exp/static/images/task_images/land.jpg,null,,,,,,,104,,,0,,,,,,,,,,,,,,
dig_prac,28,209772,0.0-11.0-2.0,"""event"",""trial"",""time""
""fullscreenenter"",""1"",""7592""
""blur"",""15"",""118157""
""focus"",""15"",""118159""
""blur"",""15"",""118663""
""focus"",""15"",""118665""
","""event"",""trial"",""time""
""blur"",""15"",""118157""
""blur"",""15"",""118663""
","""event"",""trial"",""time""
""focus"",""15"",""118159""
""focus"",""15"",""118665""
","""event"",""trial"",""time""
""fullscreenenter"",""1"",""7592""
","
",,,,,,,,,,,,"[{""stimulus"":""run_exp/static/images/task_images/dig.jpg"",""time"":0.6000000000931323},{""stimulus"":""run_exp/static/images/task_images/land.jpg"",""time"":670.5},{""stimulus"":""run_exp/static/images/task_images/dig.jpg"",""time"":1342.7000000001863}]",[],,,,,,,,,,,,,,,
harvest_prac,29,210780,0.0-11.0-3.0,"""event"",""trial"",""time""
""fullscreenenter"",""1"",""7592""
""blur"",""15"",""118157""
""focus"",""15"",""118159""
""blur"",""15"",""118663""
""focus"",""15"",""118665""
","""event"",""trial"",""time""
""blur"",""15"",""118157""
""blur"",""15"",""118663""
","""event"",""trial"",""time""
""focus"",""15"",""118159""
""focus"",""15"",""118665""
","""event"",""trial"",""time""
""fullscreenenter"",""1"",""7592""
","
",,null,run_exp/static/images/task_images/barrel_text.jpg,null,,,,,,,,,,,,,,,,,,,,,,,,
decision_prac,30,212758,0.0-11.0-4.0,"""event"",""trial"",""time""
""fullscreenenter"",""1"",""7592""
""blur"",""15"",""118157""
""focus"",""15"",""118159""
""blur"",""15"",""118663""
""focus"",""15"",""118665""
","""event"",""trial"",""time""
""blur"",""15"",""118157""
""blur"",""15"",""118663""
","""event"",""trial"",""time""
""focus"",""15"",""118159""
""focus"",""15"",""118665""
","""event"",""trial"",""time""
""fullscreenenter"",""1"",""7592""
","
",,1976.4,run_exp/static/images/task_images/land.jpg,65,,,,,,,,,,,1,,,,,,,,,,,,,
dig_prac,31,214772,0.0-12.0-0.0,"""event"",""trial"",""time""
""fullscreenenter"",""1"",""7592""
""blur"",""15"",""118157""
""focus"",""15"",""118159""
""blur"",""15"",""118663""
""focus"",""15"",""118665""
","""event"",""trial"",""time""
""blur"",""15"",""118157""
""blur"",""15"",""118663""
","""event"",""trial"",""time""
""focus"",""15"",""118159""
""focus"",""15"",""118665""
","""event"",""trial"",""time""
""fullscreenenter"",""1"",""7592""
","
",,,,,,,,,,,,"[{""stimulus"":""run_exp/static/images/task_images/dig.jpg"",""time"":0.20000000018626451},{""stimulus"":""run_exp/static/images/task_images/land.jpg"",""time"":673.6000000000931},{""stimulus"":""run_exp/static/images/task_images/dig.jpg"",""time"":1337.7000000001863}]",[],,,,,,,,,,,,,,,
harvest_prac,32,215781,0.0-12.0-1.0,"""event"",""trial"",""time""
""fullscreenenter"",""1"",""7592""
""blur"",""15"",""118157""
""focus"",""15"",""118159""
""blur"",""15"",""118663""
""focus"",""15"",""118665""
","""event"",""trial"",""time""
""blur"",""15"",""118157""
""blur"",""15"",""118663""
","""event"",""trial"",""time""
""focus"",""15"",""118159""
""focus"",""15"",""118665""
","""event"",""trial"",""time""
""fullscreenenter"",""1"",""7592""
","
",,null,run_exp/static/images/task_images/barrel_text.jpg,null,,,,,,,,,,,,,,,,,,,,,,,,
decision_prac,33,216342,0.0-12.0-2.0,"""event"",""trial"",""time""
""fullscreenenter"",""1"",""7592""
""blur"",""15"",""118157""
""focus"",""15"",""118159""
""blur"",""15"",""118663""
""focus"",""15"",""118665""
","""event"",""trial"",""time""
""blur"",""15"",""118157""
""blur"",""15"",""118663""
","""event"",""trial"",""time""
""focus"",""15"",""118159""
""focus"",""15"",""118665""
","""event"",""trial"",""time""
""fullscreenenter"",""1"",""7592""
","
",,559.4,run_exp/static/images/task_images/land.jpg,76,,,,,,,,,,,2,,,,,,,,,,,,,
travel,34,225780,0.0-13.0-0.0,"""event"",""trial"",""time""
""fullscreenenter"",""1"",""7592""
""blur"",""15"",""118157""
""focus"",""15"",""118159""
""blur"",""15"",""118663""
""focus"",""15"",""118665""
","""event"",""trial"",""time""
""blur"",""15"",""118157""
""blur"",""15"",""118663""
","""event"",""trial"",""time""
""focus"",""15"",""118159""
""focus"",""15"",""118665""
","""event"",""trial"",""time""
""fullscreenenter"",""1"",""7592""
","
",,,,,,,,,,,,"[{""stimulus"":""run_exp/static/images/task_images/rocket-01.jpg"",""time"":0.3000000002793968},{""stimulus"":""run_exp/static/images/task_images/rocket-02.jpg"",""time"":1051.7000000001863},{""stimulus"":""run_exp/static/images/task_images/rocket-03.jpg"",""time"":2099.2000000001863},{""stimulus"":""run_exp/static/images/task_images/rocket-04.jpg"",""time"":3147.5},{""stimulus"":""run_exp/static/images/task_images/rocket-05.jpg"",""time"":4195.300000000279},{""stimulus"":""run_exp/static/images/task_images/rocket-06.jpg"",""time"":5243.5},{""stimulus"":""run_exp/static/images/task_images/rocket-07.jpg"",""time"":6291.5},{""stimulus"":""run_exp/static/images/task_images/rocket-08.jpg"",""time"":7339.5},{""stimulus"":""run_exp/static/images/task_images/rocket-09.jpg"",""time"":8387.80000000028}]",[],0,,,,,,,,,,,,,,
alien_welcome_prac,35,230789,0.0-13.0-1.0,"""event"",""trial"",""time""
""fullscreenenter"",""1"",""7592""
""blur"",""15"",""118157""
""focus"",""15"",""118159""
""blur"",""15"",""118663""
""focus"",""15"",""118665""
","""event"",""trial"",""time""
""blur"",""15"",""118157""
""blur"",""15"",""118663""
","""event"",""trial"",""time""
""focus"",""15"",""118159""
""focus"",""15"",""118665""
","""event"",""trial"",""time""
""fullscreenenter"",""1"",""7592""
","
",,null,run_exp/static/images/task_images/aliens/practice_aliens/planet/alien_planet-4.jpg,null,,,,,,,,,,,,,,,,,,,,,,,,
land_prac,36,231292,0.0-13.0-2.0,"""event"",""trial"",""time""
""fullscreenenter"",""1"",""7592""
""blur"",""15"",""118157""
""focus"",""15"",""118159""
""blur"",""15"",""118663""
""focus"",""15"",""118665""
","""event"",""trial"",""time""
""blur"",""15"",""118157""
""blur"",""15"",""118663""
","""event"",""trial"",""time""
""focus"",""15"",""118159""
""focus"",""15"",""118665""
","""event"",""trial"",""time""
""fullscreenenter"",""1"",""7592""
","
",,null,run_exp/static/images/task_images/land.jpg,null,,,,,,,94,,,0,,,,,,,,,,,,,,
dig_prac,37,233300,0.0-13.0-3.0,"""event"",""trial"",""time""
""fullscreenenter"",""1"",""7592""
""blur"",""15"",""118157""
""focus"",""15"",""118159""
""blur"",""15"",""118663""
""focus"",""15"",""118665""
","""event"",""trial"",""time""
""blur"",""15"",""118157""
""blur"",""15"",""118663""
","""event"",""trial"",""time""
""focus"",""15"",""118159""
""focus"",""15"",""118665""
","""event"",""trial"",""time""
""fullscreenenter"",""1"",""7592""
","
",,,,,,,,,,,,"[{""stimulus"":""run_exp/static/images/task_images/dig.jpg"",""time"":0.39999999990686774},{""stimulus"":""run_exp/static/images/task_images/land.jpg"",""time"":670.6000000000931},{""stimulus"":""run_exp/static/images/task_images/dig.jpg"",""time"":1342.7000000001863}]",[],,,,,,,,,,,,,,,
harvest_prac,38,234309,0.0-13.0-4.0,"""event"",""trial"",""time""
""fullscreenenter"",""1"",""7592""
""blur"",""15"",""118157""
""focus"",""15"",""118159""
""blur"",""15"",""118663""
""focus"",""15"",""118665""
","""event"",""trial"",""time""
""blur"",""15"",""118157""
""blur"",""15"",""118663""
","""event"",""trial"",""time""
""focus"",""15"",""118159""
""focus"",""15"",""118665""
","""event"",""trial"",""time""
""fullscreenenter"",""1"",""7592""
","
",,null,run_exp/static/images/task_images/barrel_text.jpg,null,,,,,,,,,,,,,,,,,,,,,,,,
decision_prac,39,234582,0.0-13.0-5.0,"""event"",""trial"",""time""
""fullscreenenter"",""1"",""7592""
""blur"",""15"",""118157""
""focus"",""15"",""118159""
""blur"",""15"",""118663""
""focus"",""15"",""118665""
","""event"",""trial"",""time""
""blur"",""15"",""118157""
""blur"",""15"",""118663""
","""event"",""trial"",""time""
""focus"",""15"",""118159""
""focus"",""15"",""118665""
","""event"",""trial"",""time""
""fullscreenenter"",""1"",""7592""
","
",,271.5,run_exp/static/images/task_images/land.jpg,65,,,,,,,,,,,3,,,,,,,,,,,,,
dig_prac,40,236588,0.0-14.0-0.0,"""event"",""trial"",""time""
""fullscreenenter"",""1"",""7592""
""blur"",""15"",""118157""
""focus"",""15"",""118159""
""blur"",""15"",""118663""
""focus"",""15"",""118665""
","""event"",""trial"",""time""
""blur"",""15"",""118157""
""blur"",""15"",""118663""
","""event"",""trial"",""time""
""focus"",""15"",""118159""
""focus"",""15"",""118665""
","""event"",""trial"",""time""
""fullscreenenter"",""1"",""7592""
","
",,,,,,,,,,,,"[{""stimulus"":""run_exp/static/images/task_images/dig.jpg"",""time"":0.19999999972060323},{""stimulus"":""run_exp/static/images/task_images/land.jpg"",""time"":675.6000000000931},{""stimulus"":""run_exp/static/images/task_images/dig.jpg"",""time"":1339.6999999997206}]",[],,,,,,,,,,,,,,,
harvest_prac,41,237596,0.0-14.0-1.0,"""event"",""trial"",""time""
""fullscreenenter"",""1"",""7592""
""blur"",""15"",""118157""
""focus"",""15"",""118159""
""blur"",""15"",""118663""
""focus"",""15"",""118665""
","""event"",""trial"",""time""
""blur"",""15"",""118157""
""blur"",""15"",""118663""
","""event"",""trial"",""time""
""focus"",""15"",""118159""
""focus"",""15"",""118665""
","""event"",""trial"",""time""
""fullscreenenter"",""1"",""7592""
","
",,null,run_exp/static/images/task_images/barrel_text.jpg,null,,,,,,,,,,,,,,,,,,,,,,,,
decision_prac,42,238291,0.0-14.0-2.0,"""event"",""trial"",""time""
""fullscreenenter"",""1"",""7592""
""blur"",""15"",""118157""
""focus"",""15"",""118159""
""blur"",""15"",""118663""
""focus"",""15"",""118665""
","""event"",""trial"",""time""
""blur"",""15"",""118157""
""blur"",""15"",""118663""
","""event"",""trial"",""time""
""focus"",""15"",""118159""
""focus"",""15"",""118665""
","""event"",""trial"",""time""
""fullscreenenter"",""1"",""7592""
","
",,692.7,run_exp/static/images/task_images/land.jpg,76,,,,,,,,,,,4,,,,,,,,,,,,,
travel,43,247606,0.0-15.0-0.0,"""event"",""trial"",""time""
""fullscreenenter"",""1"",""7592""
""blur"",""15"",""118157""
""focus"",""15"",""118159""
""blur"",""15"",""118663""
""focus"",""15"",""118665""
","""event"",""trial"",""time""
""blur"",""15"",""118157""
""blur"",""15"",""118663""
","""event"",""trial"",""time""
""focus"",""15"",""118159""
""focus"",""15"",""118665""
","""event"",""trial"",""time""
""fullscreenenter"",""1"",""7592""
","
",,,,,,,,,,,,"[{""stimulus"":""run_exp/static/images/task_images/rocket-01.jpg"",""time"":0.19999999972060323},{""stimulus"":""run_exp/static/images/task_images/rocket-02.jpg"",""time"":1036.2999999998137},{""stimulus"":""run_exp/static/images/task_images/rocket-03.jpg"",""time"":2076.2999999998137},{""stimulus"":""run_exp/static/images/task_images/rocket-04.jpg"",""time"":3109.2999999998137},{""stimulus"":""run_exp/static/images/task_images/rocket-05.jpg"",""time"":4140.100000000093},{""stimulus"":""run_exp/static/images/task_images/rocket-06.jpg"",""time"":5172.100000000093},{""stimulus"":""run_exp/static/images/task_images/rocket-07.jpg"",""time"":6212.100000000093},{""stimulus"":""run_exp/static/images/task_images/rocket-08.jpg"",""time"":7244},{""stimulus"":""run_exp/static/images/task_images/rocket-09.jpg"",""time"":8276.299999999814}]",[],0,,,,,,,,,,,,,,
alien_welcome_prac,44,252613,0.0-15.0-1.0,"""event"",""trial"",""time""
""fullscreenenter"",""1"",""7592""
""blur"",""15"",""118157""
""focus"",""15"",""118159""
""blur"",""15"",""118663""
""focus"",""15"",""118665""
","""event"",""trial"",""time""
""blur"",""15"",""118157""
""blur"",""15"",""118663""
","""event"",""trial"",""time""
""focus"",""15"",""118159""
""focus"",""15"",""118665""
","""event"",""trial"",""time""
""fullscreenenter"",""1"",""7592""
","
",,null,run_exp/static/images/task_images/aliens/practice_aliens/planet/alien_planet-3.jpg,null,,,,,,,,,,,,,,,,,,,,,,,,
land_prac,45,253116,0.0-15.0-2.0,"""event"",""trial"",""time""
""fullscreenenter"",""1"",""7592""
""blur"",""15"",""118157""
""focus"",""15"",""118159""
""blur"",""15"",""118663""
""focus"",""15"",""118665""
","""event"",""trial"",""time""
""blur"",""15"",""118157""
""blur"",""15"",""118663""
","""event"",""trial"",""time""
""focus"",""15"",""118159""
""focus"",""15"",""118665""
","""event"",""trial"",""time""
""fullscreenenter"",""1"",""7592""
","
",,null,run_exp/static/images/task_images/land.jpg,null,,,,,,,101,,,0,,,,,,,,,,,,,,
dig_prac,46,255124,0.0-15.0-3.0,"""event"",""trial"",""time""
""fullscreenenter"",""1"",""7592""
""blur"",""15"",""118157""
""focus"",""15"",""118159""
""blur"",""15"",""118663""
""focus"",""15"",""118665""
","""event"",""trial"",""time""
""blur"",""15"",""118157""
""blur"",""15"",""118663""
","""event"",""trial"",""time""
""focus"",""15"",""118159""
""focus"",""15"",""118665""
","""event"",""trial"",""time""
""fullscreenenter"",""1"",""7592""
","
",,,,,,,,,,,,"[{""stimulus"":""run_exp/static/images/task_images/dig.jpg"",""time"":0.2999999998137355},{""stimulus"":""run_exp/static/images/task_images/land.jpg"",""time"":670.7999999998137},{""stimulus"":""run_exp/static/images/task_images/dig.jpg"",""time"":1342.6000000000931}]",[],,,,,,,,,,,,,,,
harvest_prac,47,256132,0.0-15.0-4.0,"""event"",""trial"",""time""
""fullscreenenter"",""1"",""7592""
""blur"",""15"",""118157""
""focus"",""15"",""118159""
""blur"",""15"",""118663""
""focus"",""15"",""118665""
","""event"",""trial"",""time""
""blur"",""15"",""118157""
""blur"",""15"",""118663""
","""event"",""trial"",""time""
""focus"",""15"",""118159""
""focus"",""15"",""118665""
","""event"",""trial"",""time""
""fullscreenenter"",""1"",""7592""
","
",,null,run_exp/static/images/task_images/barrel_text.jpg,null,,,,,,,,,,,,,,,,,,,,,,,,
decision_prac,48,256215,0.0-15.0-5.0,"""event"",""trial"",""time""
""fullscreenenter"",""1"",""7592""
""blur"",""15"",""118157""
""focus"",""15"",""118159""
""blur"",""15"",""118663""
""focus"",""15"",""118665""
","""event"",""trial"",""time""
""blur"",""15"",""118157""
""blur"",""15"",""118663""
","""event"",""trial"",""time""
""focus"",""15"",""118159""
""focus"",""15"",""118665""
","""event"",""trial"",""time""
""fullscreenenter"",""1"",""7592""
","
",,81.5,run_exp/static/images/task_images/land.jpg,65,,,,,,,,,,,,1,,,,,,,,,,,,
quiz_instruc,49,259343,0.0-16.0-0.0,"""event"",""trial"",""time""
""fullscreenenter"",""1"",""7592""
""blur"",""15"",""118157""
""focus"",""15"",""118159""
""blur"",""15"",""118663""
""focus"",""15"",""118665""
","""event"",""trial"",""time""
""blur"",""15"",""118157""
""blur"",""15"",""118663""
","""event"",""trial"",""time""
""focus"",""15"",""118159""
""focus"",""15"",""118665""
","""event"",""trial"",""time""
""fullscreenenter"",""1"",""7592""
","
",,3122.2,run_exp/static/audio/clip_10_quiz.m4a,,,,,,,0,,,,,,,,,,,,,,,,,,
instruc_repeat,50,302451,0.0-16.0-1.0,"""event"",""trial"",""time""
""fullscreenenter"",""1"",""7592""
""blur"",""15"",""118157""
""focus"",""15"",""118159""
""blur"",""15"",""118663""
""focus"",""15"",""118665""
","""event"",""trial"",""time""
""blur"",""15"",""118157""
""blur"",""15"",""118663""
","""event"",""trial"",""time""
""focus"",""15"",""118159""
""focus"",""15"",""118665""
","""event"",""trial"",""time""
""fullscreenenter"",""1"",""7592""
","
",,null,"<p> Are you ready to play a practice game? </p> <p>In this practice game, you'll be digging up barrels of gems. But, in the real game, you'll be digging up the gems themselves. </p>",null,"<p>In this game, your goal is to collect as many gems as you can. That’s how you will win bonus money. </p> <p>The entire game will last 20 minutes no matter how many gems you collect or how many planets you visit. </p><p>To stay on a planet and dig again, press the letter A on your keyboard. To leave for a new planet, press the letter L.</p><p>The more you dig on a planet, the fewer gems you’ll get with each dig which is why you might consider leaving for a new planet. </p><p>When you arrive at a new planet, you’ll be greeted by an alien. What the alien looks like does not tell you anything about how much treasure is on the planet. </p>",,,,,,,,,,,,,,,,,,,,,,,
instruc_repeat_continue,51,307906,0.0-16.0-2.0,"""event"",""trial"",""time""
""fullscreenenter"",""1"",""7592""
""blur"",""15"",""118157""
""focus"",""15"",""118159""
""blur"",""15"",""118663""
""focus"",""15"",""118665""
","""event"",""trial"",""time""
""blur"",""15"",""118157""
""blur"",""15"",""118663""
","""event"",""trial"",""time""
""focus"",""15"",""118159""
""focus"",""15"",""118665""
","""event"",""trial"",""time""
""fullscreenenter"",""1"",""7592""
","
",,5453.1,"<p> Are you ready to play a practice game? </p> <p>In this practice game, you'll be digging up barrels of gems. But, in the real game, you'll be digging up the gems themselves. </p>",,,,,,,0,,,,,,,,,,,,,,,,,,
quiz_q_1_ask,52,310623,0.0-16.0-3.0,"""event"",""trial"",""time""
""fullscreenenter"",""1"",""7592""
""blur"",""15"",""118157""
""focus"",""15"",""118159""
""blur"",""15"",""118663""
""focus"",""15"",""118665""
","""event"",""trial"",""time""
""blur"",""15"",""118157""
""blur"",""15"",""118663""
","""event"",""trial"",""time""
""focus"",""15"",""118159""
""focus"",""15"",""118665""
","""event"",""trial"",""time""
""fullscreenenter"",""1"",""7592""
","
",,2713.6,run_exp/static/audio/clip_11_q1_ask.m4a,,,,,,,2,,,,,,,,,,,,,,,,,,
quiz_q_1_fb_correct,53,314739,0.0-17.0-0.0,"""event"",""trial"",""time""
""fullscreenenter"",""1"",""7592""
""blur"",""15"",""118157""
""focus"",""15"",""118159""
""blur"",""15"",""118663""
""focus"",""15"",""118665""
","""event"",""trial"",""time""
""blur"",""15"",""118157""
""blur"",""15"",""118663""
","""event"",""trial"",""time""
""focus"",""15"",""118159""
""focus"",""15"",""118665""
","""event"",""trial"",""time""
""fullscreenenter"",""1"",""7592""
","
",,null,run_exp/static/audio/clip_12_q1_correct.m4a,null,<p>That’s correct. You win extra money by collecting more gems.</p>,,,,,,,,,,,,,,,,,,,,,,,
quiz_q_2_ask,54,316572,0.0-17.0-1.0,"""event"",""trial"",""time""
""fullscreenenter"",""1"",""7592""
""blur"",""15"",""118157""
""focus"",""15"",""118159""
""blur"",""15"",""118663""
""focus"",""15"",""118665""
","""event"",""trial"",""time""
""blur"",""15"",""118157""
""blur"",""15"",""118663""
","""event"",""trial"",""time""
""focus"",""15"",""118159""
""focus"",""15"",""118665""
","""event"",""trial"",""time""
""fullscreenenter"",""1"",""7592""
","
",,1829.7,run_exp/static/audio/clip_14_q2_ask.m4a,,,,,,,1,,,,,,,,,,,,,,,,,,
quiz_q_2_fb_correct,55,320755,0.0-18.0-0.0,"""event"",""trial"",""time""
""fullscreenenter"",""1"",""7592""
""blur"",""15"",""118157""
""focus"",""15"",""118159""
""blur"",""15"",""118663""
""focus"",""15"",""118665""
","""event"",""trial"",""time""
""blur"",""15"",""118157""
""blur"",""15"",""118663""
","""event"",""trial"",""time""
""focus"",""15"",""118159""
""focus"",""15"",""118665""
","""event"",""trial"",""time""
""fullscreenenter"",""1"",""7592""
","
",,null,run_exp/static/audio/clip_15_q2_correct.m4a,null,<p>That’s correct. The experiment is 20 minutes no matter what.</p>,,,,,,,,,,,,,,,,,,,,,,,
quiz_q_3_ask,56,323416,0.0-18.0-1.0,"""event"",""trial"",""time""
""fullscreenenter"",""1"",""7592""
""blur"",""15"",""118157""
""focus"",""15"",""118159""
""blur"",""15"",""118663""
""focus"",""15"",""118665""
","""event"",""trial"",""time""
""blur"",""15"",""118157""
""blur"",""15"",""118663""
","""event"",""trial"",""time""
""focus"",""15"",""118159""
""focus"",""15"",""118665""
","""event"",""trial"",""time""
""fullscreenenter"",""1"",""7592""
","
",,2658.6,run_exp/static/audio/clip_17_q3_ask.m4a,,,,,,,1,,,,,,,,,,,,,,,,,,
quiz_q_3_fb_correct,57,327668,0.0-19.0-0.0,"""event"",""trial"",""time""
""fullscreenenter"",""1"",""7592""
""blur"",""15"",""118157""
""focus"",""15"",""118159""
""blur"",""15"",""118663""
""focus"",""15"",""118665""
","""event"",""trial"",""time""
""blur"",""15"",""118157""
""blur"",""15"",""118663""
","""event"",""trial"",""time""
""focus"",""15"",""118159""
""focus"",""15"",""118665""
","""event"",""trial"",""time""
""fullscreenenter"",""1"",""7592""
","
",,null,run_exp/static/audio/clip_18_q3_correct.m4a,null,<p> That’s correct. You press the letter L to travel to a new planet.</p>,,,,,,,,,,,,,,,,,,,,,,,
quiz_q_4_ask,58,330399,0.0-19.0-1.0,"""event"",""trial"",""time""
""fullscreenenter"",""1"",""7592""
""blur"",""15"",""118157""
""focus"",""15"",""118159""
""blur"",""15"",""118663""
""focus"",""15"",""118665""
","""event"",""trial"",""time""
""blur"",""15"",""118157""
""blur"",""15"",""118663""
","""event"",""trial"",""time""
""focus"",""15"",""118159""
""focus"",""15"",""118665""
","""event"",""trial"",""time""
""fullscreenenter"",""1"",""7592""
","
",,2729,run_exp/static/audio/clip_20_q4_ask.m4a,,,,,,,0,,,,,,,,,,,,,,,,,,
quiz_q_4_fb_correct,59,335988,0.0-20.0-0.0,"""event"",""trial"",""time""
""fullscreenenter"",""1"",""7592""
""blur"",""15"",""118157""
""focus"",""15"",""118159""
""blur"",""15"",""118663""
""focus"",""15"",""118665""
","""event"",""trial"",""time""
""blur"",""15"",""118157""
""blur"",""15"",""118663""
","""event"",""trial"",""time""
""focus"",""15"",""118159""
""focus"",""15"",""118665""
","""event"",""trial"",""time""
""fullscreenenter"",""1"",""7592""
","
",,null,run_exp/static/audio/clip_21_q4_correct.m4a,null,<p> That’s correct. The more you dig on a planet the fewer gems you’ll get with each dig. </p>,,,,,,,,,,,,,,,,,,,,,,,
quiz_q_5_ask,60,338798,0.0-20.0-1.0,"""event"",""trial"",""time""
""fullscreenenter"",""1"",""7592""
""blur"",""15"",""118157""
""focus"",""15"",""118159""
""blur"",""15"",""118663""
""focus"",""15"",""118665""
","""event"",""trial"",""time""
""blur"",""15"",""118157""
""blur"",""15"",""118663""
","""event"",""trial"",""time""
""focus"",""15"",""118159""
""focus"",""15"",""118665""
","""event"",""trial"",""time""
""fullscreenenter"",""1"",""7592""
","
",,2808.7,run_exp/static/audio/clip_23_q5_ask.m4a,,,,,,,1,,,,,,,,,,,,,,,,,,
quiz_q_5_fb_correct,61,344179,0.0-21.0-0.0,"""event"",""trial"",""time""
""fullscreenenter"",""1"",""7592""
""blur"",""15"",""118157""
""focus"",""15"",""118159""
""blur"",""15"",""118663""
""focus"",""15"",""118665""
","""event"",""trial"",""time""
""blur"",""15"",""118157""
""blur"",""15"",""118663""
","""event"",""trial"",""time""
""focus"",""15"",""118159""
""focus"",""15"",""118665""
","""event"",""trial"",""time""
""fullscreenenter"",""1"",""7592""
","
",,null,run_exp/static/audio/clip_24_q5_correct.m4a,null,<p> That’s correct. The alien tells you nothing about how much treasure is on the planet.</p>,,,,,,,,,,,,,,,,,,,,,,,
quiz_correct,62,348020,0.0-22.0-0.0,"""event"",""trial"",""time""
""fullscreenenter"",""1"",""7592""
""blur"",""15"",""118157""
""focus"",""15"",""118159""
""blur"",""15"",""118663""
""focus"",""15"",""118665""
","""event"",""trial"",""time""
""blur"",""15"",""118157""
""blur"",""15"",""118663""
","""event"",""trial"",""time""
""focus"",""15"",""118159""
""focus"",""15"",""118665""
","""event"",""trial"",""time""
""fullscreenenter"",""1"",""7592""
","
",,null,run_exp/static/audio/clip_26_correct_quiz.m4a,null,,,,,,,,,,,,,,,,,,,,,,,,
quiz_correct_continue,63,351574,0.0-22.0-1.0,"""event"",""trial"",""time""
""fullscreenenter"",""1"",""7592""
""blur"",""15"",""118157""
""focus"",""15"",""118159""
""blur"",""15"",""118663""
""focus"",""15"",""118665""
","""event"",""trial"",""time""
""blur"",""15"",""118157""
""blur"",""15"",""118663""
","""event"",""trial"",""time""
""focus"",""15"",""118159""
""focus"",""15"",""118665""
","""event"",""trial"",""time""
""fullscreenenter"",""1"",""7592""
","
",,3553.2,<p>Good job! You're now ready to move on to the real game!</p>,,,,,,,0,,,,,,,,,,,,,,,,,,
audio-keyboard-response,64,361971,0.0-22.0-2.0,"""event"",""trial"",""time""
""fullscreenenter"",""1"",""7592""
""blur"",""15"",""118157""
""focus"",""15"",""118159""
""blur"",""15"",""118663""
""focus"",""15"",""118665""
","""event"",""trial"",""time""
""blur"",""15"",""118157""
""blur"",""15"",""118663""
","""event"",""trial"",""time""
""focus"",""15"",""118159""
""focus"",""15"",""118665""
","""event"",""trial"",""time""
""fullscreenenter"",""1"",""7592""
","
",,null,run_exp/static/audio/clip_28_real_game.m4a,null,,,,,,,,,,,,,,,,,,,,,,,,
instruc_begin_exp_contine,65,362825,0.0-22.0-3.0,"""event"",""trial"",""time""
""fullscreenenter"",""1"",""7592""
""blur"",""15"",""118157""
""focus"",""15"",""118159""
""blur"",""15"",""118663""
""focus"",""15"",""118665""
","""event"",""trial"",""time""
""blur"",""15"",""118157""
""blur"",""15"",""118663""
","""event"",""trial"",""time""
""focus"",""15"",""118159""
""focus"",""15"",""118665""
","""event"",""trial"",""time""
""fullscreenenter"",""1"",""7592""
","
",,851.8,"<p>Now that you know how  to dig for space treasure and travel to new planets,you can start exploring! </p><p>Do you want to go over the instructions again or get started with the real game?</p>",,,,,,,1,,,,,,1,,,,,,,,,,,,
alien_welcome,66,367837,0.0-23.0-0.0,"""event"",""trial"",""time""
""fullscreenenter"",""1"",""7592""
""blur"",""15"",""118157""
""focus"",""15"",""118159""
""blur"",""15"",""118663""
""focus"",""15"",""118665""
","""event"",""trial"",""time""
""blur"",""15"",""118157""
""blur"",""15"",""118663""
","""event"",""trial"",""time""
""focus"",""15"",""118159""
""focus"",""15"",""118665""
","""event"",""trial"",""time""
""fullscreenenter"",""1"",""7592""
","
",,null,run_exp/static/images/task_images/aliens/old_aliens/planet/alien_planet-76.jpg,null,,,,,,,,,,,,,76,"76,23,70,73,45,77,52,59,63,24,71,72,57,42,55,64,18,67,40,51,30,13,49,41,29,37,53,32,54,12,31,7,56,20,43,60,2,10,58,75,11,21,4,14,3",,,,,,,,,,
land,67,368340,0.0-23.0-1.0,"""event"",""trial"",""time""
""fullscreenenter"",""1"",""7592""
""blur"",""15"",""118157""
""focus"",""15"",""118159""
""blur"",""15"",""118663""
""focus"",""15"",""118665""
","""event"",""trial"",""time""
""blur"",""15"",""118157""
""blur"",""15"",""118663""
","""event"",""trial"",""time""
""focus"",""15"",""118159""
""focus"",""15"",""118665""
","""event"",""trial"",""time""
""fullscreenenter"",""1"",""7592""
","
",,null,run_exp/static/images/task_images/land.jpg,null,,,,,,,105,,,1,,,,,,,,,,,,,,
dig,68,370348,0.0-23.0-2.0,"""event"",""trial"",""time""
""fullscreenenter"",""1"",""7592""
""blur"",""15"",""118157""
""focus"",""15"",""118159""
""blur"",""15"",""118663""
""focus"",""15"",""118665""
","""event"",""trial"",""time""
""blur"",""15"",""118157""
""blur"",""15"",""118663""
","""event"",""trial"",""time""
""focus"",""15"",""118159""
""focus"",""15"",""118665""
","""event"",""trial"",""time""
""fullscreenenter"",""1"",""7592""
","
",,,,,,,,,,,,"[{""stimulus"":""run_exp/static/images/task_images/dig.jpg"",""time"":0.39999999990686774},{""stimulus"":""run_exp/static/images/task_images/land.jpg"",""time"":670.7999999998137},{""stimulus"":""run_exp/static/images/task_images/dig.jpg"",""time"":1342.6000000000931}]",[],1,,,,,,,,,,,,,,
harvest,69,371357,0.0-23.0-3.0,"""event"",""trial"",""time""
""fullscreenenter"",""1"",""7592""
""blur"",""15"",""118157""
""focus"",""15"",""118159""
""blur"",""15"",""118663""
""focus"",""15"",""118665""
","""event"",""trial"",""time""
""blur"",""15"",""118157""
""blur"",""15"",""118663""
","""event"",""trial"",""time""
""focus"",""15"",""118159""
""focus"",""15"",""118665""
","""event"",""trial"",""time""
""fullscreenenter"",""1"",""7592""
","
",,null,run_exp/static/images/task_images/gems/105.jpg,null,,,,,,,21,,,1,,,,,105,0.201235396,0.2,,,,,,,
decision,70,371913,0.0-23.0-4.0,"""event"",""trial"",""time""
""fullscreenenter"",""1"",""7592""
""blur"",""15"",""118157""
""focus"",""15"",""118159""
""blur"",""15"",""118663""
""focus"",""15"",""118665""
","""event"",""trial"",""time""
""blur"",""15"",""118157""
""blur"",""15"",""118663""
","""event"",""trial"",""time""
""focus"",""15"",""118159""
""focus"",""15"",""118665""
","""event"",""trial"",""time""
""fullscreenenter"",""1"",""7592""
","
",,554.3,run_exp/static/images/task_images/land.jpg,65,,,,,,,21,,,1,,,,,,,,9086,1,0,FALSE,,,
dig,71,374372,0.0-24.0-0.0,"""event"",""trial"",""time""
""fullscreenenter"",""1"",""7592""
""blur"",""15"",""118157""
""focus"",""15"",""118159""
""blur"",""15"",""118663""
""focus"",""15"",""118665""
","""event"",""trial"",""time""
""blur"",""15"",""118157""
""blur"",""15"",""118663""
","""event"",""trial"",""time""
""focus"",""15"",""118159""
""focus"",""15"",""118665""
","""event"",""trial"",""time""
""fullscreenenter"",""1"",""7592""
","
",,,,,,,,,,,,"[{""stimulus"":""run_exp/static/images/task_images/dig.jpg"",""time"":0.2999999998137355},{""stimulus"":""run_exp/static/images/task_images/land.jpg"",""time"":822.2999999998137},{""stimulus"":""run_exp/static/images/task_images/dig.jpg"",""time"":1638.2999999998137}]",[],1,,,,,,,,,,,,,,
harvest,72,375380,0.0-24.0-1.0,"""event"",""trial"",""time""
""fullscreenenter"",""1"",""7592""
""blur"",""15"",""118157""
""focus"",""15"",""118159""
""blur"",""15"",""118663""
""focus"",""15"",""118665""
","""event"",""trial"",""time""
""blur"",""15"",""118157""
""blur"",""15"",""118663""
","""event"",""trial"",""time""
""focus"",""15"",""118159""
""focus"",""15"",""118665""
","""event"",""trial"",""time""
""fullscreenenter"",""1"",""7592""
","
",,null,run_exp/static/images/task_images/gems/21.jpg,null,,,,,,,4,,,1,,,,,21,0.173547324,0.19047619,,,,,,,
decision,73,375922,0.0-24.0-2.0,"""event"",""trial"",""time""
""fullscreenenter"",""1"",""7592""
""blur"",""15"",""118157""
""focus"",""15"",""118159""
""blur"",""15"",""118663""
""focus"",""15"",""118665""
","""event"",""trial"",""time""
""blur"",""15"",""118157""
""blur"",""15"",""118663""
","""event"",""trial"",""time""
""focus"",""15"",""118159""
""focus"",""15"",""118665""
","""event"",""trial"",""time""
""fullscreenenter"",""1"",""7592""
","
",,540.3,run_exp/static/images/task_images/land.jpg,76,,,,,,,4,,,1,,,,,,,,13095,1,1,TRUE,,,
travel,74,385388,0.0-25.0-0.0,"""event"",""trial"",""time""
""fullscreenenter"",""1"",""7592""
""blur"",""15"",""118157""
""focus"",""15"",""118159""
""blur"",""15"",""118663""
""focus"",""15"",""118665""
","""event"",""trial"",""time""
""blur"",""15"",""118157""
""blur"",""15"",""118663""
","""event"",""trial"",""time""
""focus"",""15"",""118159""
""focus"",""15"",""118665""
","""event"",""trial"",""time""
""fullscreenenter"",""1"",""7592""
","
",,,,,,,,,,,,"[{""stimulus"":""run_exp/static/images/task_images/rocket-01.jpg"",""time"":0.2999999998137355},{""stimulus"":""run_exp/static/images/task_images/rocket-02.jpg"",""time"":1055},{""stimulus"":""run_exp/static/images/task_images/rocket-03.jpg"",""time"":2111},{""stimulus"":""run_exp/static/images/task_images/rocket-04.jpg"",""time"":3158.7999999998137},{""stimulus"":""run_exp/static/images/task_images/rocket-05.jpg"",""time"":4207.199999999721},{""stimulus"":""run_exp/static/images/task_images/rocket-06.jpg"",""time"":5263.799999999814},{""stimulus"":""run_exp/static/images/task_images/rocket-07.jpg"",""time"":6311.0999999996275},{""stimulus"":""run_exp/static/images/task_images/rocket-08.jpg"",""time"":7359.199999999721},{""stimulus"":""run_exp/static/images/task_images/rocket-09.jpg"",""time"":8415.399999999907}]",[],1,,,,,,,,,,,,,,
alien_welcome,75,390396,0.0-25.0-1.0,"""event"",""trial"",""time""
""fullscreenenter"",""1"",""7592""
""blur"",""15"",""118157""
""focus"",""15"",""118159""
""blur"",""15"",""118663""
""focus"",""15"",""118665""
","""event"",""trial"",""time""
""blur"",""15"",""118157""
""blur"",""15"",""118663""
","""event"",""trial"",""time""
""focus"",""15"",""118159""
""focus"",""15"",""118665""
","""event"",""trial"",""time""
""fullscreenenter"",""1"",""7592""
","
",,null,run_exp/static/images/task_images/aliens/old_aliens/planet/alien_planet-23.jpg,null,,,,,,,,,,,,,23,"76,23,70,73,45,77,52,59,63,24,71,72,57,42,55,64,18,67,40,51,30,13,49,41,29,37,53,32,54,12,31,7,56,20,43,60,2,10,58,75,11,21,4,14,3",,,,,,,,,,
land,76,390899,0.0-25.0-2.0,"""event"",""trial"",""time""
""fullscreenenter"",""1"",""7592""
""blur"",""15"",""118157""
""focus"",""15"",""118159""
""blur"",""15"",""118663""
""focus"",""15"",""118665""
","""event"",""trial"",""time""
""blur"",""15"",""118157""
""blur"",""15"",""118663""
","""event"",""trial"",""time""
""focus"",""15"",""118159""
""focus"",""15"",""118665""
","""event"",""trial"",""time""
""fullscreenenter"",""1"",""7592""
","
",,null,run_exp/static/images/task_images/land.jpg,null,,,,,,,107,,,2,,,,,,,,,,,,,,
dig,77,392908,0.0-25.0-3.0,"""event"",""trial"",""time""
""fullscreenenter"",""1"",""7592""
""blur"",""15"",""118157""
""focus"",""15"",""118159""
""blur"",""15"",""118663""
""focus"",""15"",""118665""
","""event"",""trial"",""time""
""blur"",""15"",""118157""
""blur"",""15"",""118663""
","""event"",""trial"",""time""
""focus"",""15"",""118159""
""focus"",""15"",""118665""
","""event"",""trial"",""time""
""fullscreenenter"",""1"",""7592""
","
",,,,,,,,,,,,"[{""stimulus"":""run_exp/static/images/task_images/dig.jpg"",""time"":0.2999999998137355},{""stimulus"":""run_exp/static/images/task_images/land.jpg"",""time"":671.7999999998137},{""stimulus"":""run_exp/static/images/task_images/dig.jpg"",""time"":1342.2999999998137}]",[],2,,,,,,,,,,,,,,
harvest,78,393916,0.0-25.0-4.0,"""event"",""trial"",""time""
""fullscreenenter"",""1"",""7592""
""blur"",""15"",""118157""
""focus"",""15"",""118159""
""blur"",""15"",""118663""
""focus"",""15"",""118665""
","""event"",""trial"",""time""
""blur"",""15"",""118157""
""blur"",""15"",""118663""
","""event"",""trial"",""time""
""focus"",""15"",""118159""
""focus"",""15"",""118665""
","""event"",""trial"",""time""
""fullscreenenter"",""1"",""7592""
","
",,null,run_exp/static/images/task_images/gems/107.jpg,null,,,,,,,20,,,2,,,,,107,0.190214693,0.186915888,,,,,,,
decision,79,396924,0.0-25.0-5.0,"""event"",""trial"",""time""
""fullscreenenter"",""1"",""7592""
""blur"",""15"",""118157""
""focus"",""15"",""118159""
""blur"",""15"",""118663""
""focus"",""15"",""118665""
","""event"",""trial"",""time""
""blur"",""15"",""118157""
""blur"",""15"",""118663""
","""event"",""trial"",""time""
""focus"",""15"",""118159""
""focus"",""15"",""118665""
","""event"",""trial"",""time""
""fullscreenenter"",""1"",""7592""
","
",,null,run_exp/static/images/task_images/land.jpg,null,,,,,,,20,,,2,,,,,,,,34097,1,0,FALSE,,,
time_out,80,398933,0.0-26.0-0.0,"""event"",""trial"",""time""
""fullscreenenter"",""1"",""7592""
""blur"",""15"",""118157""
""focus"",""15"",""118159""
""blur"",""15"",""118663""
""focus"",""15"",""118665""
","""event"",""trial"",""time""
""blur"",""15"",""118157""
""blur"",""15"",""118663""
","""event"",""trial"",""time""
""focus"",""15"",""118159""
""focus"",""15"",""118665""
","""event"",""trial"",""time""
""fullscreenenter"",""1"",""7592""
","
",,null,run_exp/static/images/task_images/time_out.jpg,null,,,,,,,20,,,,,,,,,,,,,,,,,
decision,81,400023,0.0-26.0-1.0,"""event"",""trial"",""time""
""fullscreenenter"",""1"",""7592""
""blur"",""15"",""118157""
""focus"",""15"",""118159""
""blur"",""15"",""118663""
""focus"",""15"",""118665""
","""event"",""trial"",""time""
""blur"",""15"",""118157""
""blur"",""15"",""118663""
","""event"",""trial"",""time""
""focus"",""15"",""118159""
""focus"",""15"",""118665""
","""event"",""trial"",""time""
""fullscreenenter"",""1"",""7592""
","
",,1088.5,run_exp/static/images/task_images/land.jpg,65,,,,,,,20,,,2,,,,,,,,37196,1,0,FALSE,,,
dig,82,401940,0.0-27.0-0.0,"""event"",""trial"",""time""
""fullscreenenter"",""1"",""7592""
""blur"",""15"",""118157""
""focus"",""15"",""118159""
""blur"",""15"",""118663""
""focus"",""15"",""118665""
","""event"",""trial"",""time""
""blur"",""15"",""118157""
""blur"",""15"",""118663""
","""event"",""trial"",""time""
""focus"",""15"",""118159""
""focus"",""15"",""118665""
","""event"",""trial"",""time""
""fullscreenenter"",""1"",""7592""
","
",,,,,,,,,,,,"[{""stimulus"":""run_exp/static/images/task_images/dig.jpg"",""time"":0.19999999972060323},{""stimulus"":""run_exp/static/images/task_images/land.jpg"",""time"":642.0999999996275},{""stimulus"":""run_exp/static/images/task_images/dig.jpg"",""time"":1282.0999999996275}]",[],2,,,,,,,,,,,,,,
harvest,83,402948,0.0-27.0-1.0,"""event"",""trial"",""time""
""fullscreenenter"",""1"",""7592""
""blur"",""15"",""118157""
""focus"",""15"",""118159""
""blur"",""15"",""118663""
""focus"",""15"",""118665""
","""event"",""trial"",""time""
""blur"",""15"",""118157""
""blur"",""15"",""118663""
","""event"",""trial"",""time""
""focus"",""15"",""118159""
""focus"",""15"",""118665""
","""event"",""trial"",""time""
""fullscreenenter"",""1"",""7592""
","
",,null,run_exp/static/images/task_images/gems/20.jpg,null,,,,,,,5,,,2,,,,,20,0.250956373,0.25,,,,,,,
decision,84,403201,0.0-27.0-2.0,"""event"",""trial"",""time""
""fullscreenenter"",""1"",""7592""
""blur"",""15"",""118157""
""focus"",""15"",""118159""
""blur"",""15"",""118663""
""focus"",""15"",""118665""
","""event"",""trial"",""time""
""blur"",""15"",""118157""
""blur"",""15"",""118663""
","""event"",""trial"",""time""
""focus"",""15"",""118159""
""focus"",""15"",""118665""
","""event"",""trial"",""time""
""fullscreenenter"",""1"",""7592""
","
",,250.6,run_exp/static/images/task_images/land.jpg,76,,,,,,,5,,,2,,,,,,,,40375,1,1,TRUE,,,
travel,85,412956,0.0-28.0-0.0,"""event"",""trial"",""time""
""fullscreenenter"",""1"",""7592""
""blur"",""15"",""118157""
""focus"",""15"",""118159""
""blur"",""15"",""118663""
""focus"",""15"",""118665""
","""event"",""trial"",""time""
""blur"",""15"",""118157""
""blur"",""15"",""118663""
","""event"",""trial"",""time""
""focus"",""15"",""118159""
""focus"",""15"",""118665""
","""event"",""trial"",""time""
""fullscreenenter"",""1"",""7592""
","
",,,,,,,,,,,,"[{""stimulus"":""run_exp/static/images/task_images/rocket-01.jpg"",""time"":0.2999999998137355},{""stimulus"":""run_exp/static/images/task_images/rocket-02.jpg"",""time"":1087},{""stimulus"":""run_exp/static/images/task_images/rocket-03.jpg"",""time"":2175.100000000093},{""stimulus"":""run_exp/static/images/task_images/rocket-04.jpg"",""time"":3255.2999999998137},{""stimulus"":""run_exp/static/images/task_images/rocket-05.jpg"",""time"":4335.600000000093},{""stimulus"":""run_exp/static/images/task_images/rocket-06.jpg"",""time"":5423},{""stimulus"":""run_exp/static/images/task_images/rocket-07.jpg"",""time"":6502.899999999907},{""stimulus"":""run_exp/static/images/task_images/rocket-08.jpg"",""time"":7582.699999999721},{""stimulus"":""run_exp/static/images/task_images/rocket-09.jpg"",""time"":8671.299999999814}]",[],2,,,,,,,,,,,,,,
alien_welcome,86,417964,0.0-28.0-1.0,"""event"",""trial"",""time""
""fullscreenenter"",""1"",""7592""
""blur"",""15"",""118157""
""focus"",""15"",""118159""
""blur"",""15"",""118663""
""focus"",""15"",""118665""
","""event"",""trial"",""time""
""blur"",""15"",""118157""
""blur"",""15"",""118663""
","""event"",""trial"",""time""
""focus"",""15"",""118159""
""focus"",""15"",""118665""
","""event"",""trial"",""time""
""fullscreenenter"",""1"",""7592""
","
",,null,run_exp/static/images/task_images/aliens/old_aliens/planet/alien_planet-70.jpg,null,,,,,,,,,,,,,70,"76,23,70,73,45,77,52,59,63,24,71,72,57,42,55,64,18,67,40,51,30,13,49,41,29,37,53,32,54,12,31,7,56,20,43,60,2,10,58,75,11,21,4,14,3",,,,,,,,,,
land,87,418471,0.0-28.0-2.0,"""event"",""trial"",""time""
""fullscreenenter"",""1"",""7592""
""blur"",""15"",""118157""
""focus"",""15"",""118159""
""blur"",""15"",""118663""
""focus"",""15"",""118665""
","""event"",""trial"",""time""
""blur"",""15"",""118157""
""blur"",""15"",""118663""
","""event"",""trial"",""time""
""focus"",""15"",""118159""
""focus"",""15"",""118665""
","""event"",""trial"",""time""
""fullscreenenter"",""1"",""7592""
","
",,null,run_exp/static/images/task_images/land.jpg,null,,,,,,,97,,,3,,,,,,,,,,,,,,
dig,88,420476,0.0-28.0-3.0,"""event"",""trial"",""time""
""fullscreenenter"",""1"",""7592""
""blur"",""15"",""118157""
""focus"",""15"",""118159""
""blur"",""15"",""118663""
""focus"",""15"",""118665""
","""event"",""trial"",""time""
""blur"",""15"",""118157""
""blur"",""15"",""118663""
","""event"",""trial"",""time""
""focus"",""15"",""118159""
""focus"",""15"",""118665""
","""event"",""trial"",""time""
""fullscreenenter"",""1"",""7592""
","
",,,,,,,,,,,,"[{""stimulus"":""run_exp/static/images/task_images/dig.jpg"",""time"":0.39999999990686774},{""stimulus"":""run_exp/static/images/task_images/land.jpg"",""time"":676.7000000001863},{""stimulus"":""run_exp/static/images/task_images/dig.jpg"",""time"":1340.1000000000931}]",[],3,,,,,,,,,,,,,,
harvest,89,421484,0.0-28.0-4.0,"""event"",""trial"",""time""
""fullscreenenter"",""1"",""7592""
""blur"",""15"",""118157""
""focus"",""15"",""118159""
""blur"",""15"",""118663""
""focus"",""15"",""118665""
","""event"",""trial"",""time""
""blur"",""15"",""118157""
""blur"",""15"",""118663""
","""event"",""trial"",""time""
""focus"",""15"",""118159""
""focus"",""15"",""118665""
","""event"",""trial"",""time""
""fullscreenenter"",""1"",""7592""
","
",,null,run_exp/static/images/task_images/gems/97.jpg,null,,,,,,,43,,,3,,,,,97,0.447587508,0.443298969,,,,,,,
decision,90,422179,0.0-28.0-5.0,"""event"",""trial"",""time""
""fullscreenenter"",""1"",""7592""
""blur"",""15"",""118157""
""focus"",""15"",""118159""
""blur"",""15"",""118663""
""focus"",""15"",""118665""
","""event"",""trial"",""time""
""blur"",""15"",""118157""
""blur"",""15"",""118663""
","""event"",""trial"",""time""
""focus"",""15"",""118159""
""focus"",""15"",""118665""
","""event"",""trial"",""time""
""fullscreenenter"",""1"",""7592""
","
",,692.6,run_exp/static/images/task_images/land.jpg,76,,,,,,,43,,,3,,,,,,,,59352,1,0,TRUE,,,
travel,91,431492,0.0-29.0-0.0,"""event"",""trial"",""time""
""fullscreenenter"",""1"",""7592""
""blur"",""15"",""118157""
""focus"",""15"",""118159""
""blur"",""15"",""118663""
""focus"",""15"",""118665""
","""event"",""trial"",""time""
""blur"",""15"",""118157""
""blur"",""15"",""118663""
","""event"",""trial"",""time""
""focus"",""15"",""118159""
""focus"",""15"",""118665""
","""event"",""trial"",""time""
""fullscreenenter"",""1"",""7592""
","
",,,,,,,,,,,,"[{""stimulus"":""run_exp/static/images/task_images/rocket-01.jpg"",""time"":0.3000000002793968},{""stimulus"":""run_exp/static/images/task_images/rocket-02.jpg"",""time"":1038.2000000001863},{""stimulus"":""run_exp/static/images/task_images/rocket-03.jpg"",""time"":2070.399999999907},{""stimulus"":""run_exp/static/images/task_images/rocket-04.jpg"",""time"":3110.5},{""stimulus"":""run_exp/static/images/task_images/rocket-05.jpg"",""time"":4142.200000000186},{""stimulus"":""run_exp/static/images/task_images/rocket-06.jpg"",""time"":5174.200000000186},{""stimulus"":""run_exp/static/images/task_images/rocket-07.jpg"",""time"":6206.200000000186},{""stimulus"":""run_exp/static/images/task_images/rocket-08.jpg"",""time"":7246.600000000093},{""stimulus"":""run_exp/static/images/task_images/rocket-09.jpg"",""time"":8278.100000000093}]",[],3,,,,,,,,,,,,,,
alien_welcome,92,436500,0.0-29.0-1.0,"""event"",""trial"",""time""
""fullscreenenter"",""1"",""7592""
""blur"",""15"",""118157""
""focus"",""15"",""118159""
""blur"",""15"",""118663""
""focus"",""15"",""118665""
","""event"",""trial"",""time""
""blur"",""15"",""118157""
""blur"",""15"",""118663""
","""event"",""trial"",""time""
""focus"",""15"",""118159""
""focus"",""15"",""118665""
","""event"",""trial"",""time""
""fullscreenenter"",""1"",""7592""
","
",,null,run_exp/static/images/task_images/aliens/old_aliens/planet/alien_planet-73.jpg,null,,,,,,,,,,,,,73,"76,23,70,73,45,77,52,59,63,24,71,72,57,42,55,64,18,67,40,51,30,13,49,41,29,37,53,32,54,12,31,7,56,20,43,60,2,10,58,75,11,21,4,14,3",,,,,,,,,,
land,93,437008,0.0-29.0-2.0,"""event"",""trial"",""time""
""fullscreenenter"",""1"",""7592""
""blur"",""15"",""118157""
""focus"",""15"",""118159""
""blur"",""15"",""118663""
""focus"",""15"",""118665""
","""event"",""trial"",""time""
""blur"",""15"",""118157""
""blur"",""15"",""118663""
","""event"",""trial"",""time""
""focus"",""15"",""118159""
""focus"",""15"",""118665""
","""event"",""trial"",""time""
""fullscreenenter"",""1"",""7592""
","
",,null,run_exp/static/images/task_images/land.jpg,null,,,,,,,99,,,4,,,,,,,,,,,,,,
dig,94,439020,0.0-29.0-3.0,"""event"",""trial"",""time""
""fullscreenenter"",""1"",""7592""
""blur"",""15"",""118157""
""focus"",""15"",""118159""
""blur"",""15"",""118663""
""focus"",""15"",""118665""
","""event"",""trial"",""time""
""blur"",""15"",""118157""
""blur"",""15"",""118663""
","""event"",""trial"",""time""
""focus"",""15"",""118159""
""focus"",""15"",""118665""
","""event"",""trial"",""time""
""fullscreenenter"",""1"",""7592""
","
",,,,,,,,,,,,"[{""stimulus"":""run_exp/static/images/task_images/dig.jpg"",""time"":0.39999999990686774},{""stimulus"":""run_exp/static/images/task_images/land.jpg"",""time"":674.1999999997206},{""stimulus"":""run_exp/static/images/task_images/dig.jpg"",""time"":1338.0999999996275}]",[],4,,,,,,,,,,,,,,
harvest,95,440028,0.0-29.0-4.0,"""event"",""trial"",""time""
""fullscreenenter"",""1"",""7592""
""blur"",""15"",""118157""
""focus"",""15"",""118159""
""blur"",""15"",""118663""
""focus"",""15"",""118665""
","""event"",""trial"",""time""
""blur"",""15"",""118157""
""blur"",""15"",""118663""
","""event"",""trial"",""time""
""focus"",""15"",""118159""
""focus"",""15"",""118665""
","""event"",""trial"",""time""
""fullscreenenter"",""1"",""7592""
","
",,null,run_exp/static/images/task_images/gems/99.jpg,null,,,,,,,51,,,4,,,,,99,0.512378283,0.515151515,,,,,,,
decision,96,440070,0.0-29.0-5.0,"""event"",""trial"",""time""
""fullscreenenter"",""1"",""7592""
""blur"",""15"",""118157""
""focus"",""15"",""118159""
""blur"",""15"",""118663""
""focus"",""15"",""118665""
","""event"",""trial"",""time""
""blur"",""15"",""118157""
""blur"",""15"",""118663""
","""event"",""trial"",""time""
""focus"",""15"",""118159""
""focus"",""15"",""118665""
","""event"",""trial"",""time""
""fullscreenenter"",""1"",""7592""
","
",,40,run_exp/static/images/task_images/land.jpg,76,,,,,,,51,,,4,,,,,,,,77243,1,0,TRUE,,,
travel,97,450036,0.0-30.0-0.0,"""event"",""trial"",""time""
""fullscreenenter"",""1"",""7592""
""blur"",""15"",""118157""
""focus"",""15"",""118159""
""blur"",""15"",""118663""
""focus"",""15"",""118665""
","""event"",""trial"",""time""
""blur"",""15"",""118157""
""blur"",""15"",""118663""
","""event"",""trial"",""time""
""focus"",""15"",""118159""
""focus"",""15"",""118665""
","""event"",""trial"",""time""
""fullscreenenter"",""1"",""7592""
","
",,,,,,,,,,,,"[{""stimulus"":""run_exp/static/images/task_images/rocket-01.jpg"",""time"":0.40000000037252903},{""stimulus"":""run_exp/static/images/task_images/rocket-02.jpg"",""time"":1116.1000000000931},{""stimulus"":""run_exp/static/images/task_images/rocket-03.jpg"",""time"":2218.9000000003725},{""stimulus"":""run_exp/static/images/task_images/rocket-04.jpg"",""time"":3322.8000000002794},{""stimulus"":""run_exp/static/images/task_images/rocket-05.jpg"",""time"":4426.9000000003725},{""stimulus"":""run_exp/static/images/task_images/rocket-06.jpg"",""time"":5539.100000000093},{""stimulus"":""run_exp/static/images/task_images/rocket-07.jpg"",""time"":6643.100000000093},{""stimulus"":""run_exp/static/images/task_images/rocket-08.jpg"",""time"":7746.800000000279},{""stimulus"":""run_exp/static/images/task_images/rocket-09.jpg"",""time"":8851.200000000186}]",[],4,,,,,,,,,,,,,,
alien_welcome,98,455045,0.0-30.0-1.0,"""event"",""trial"",""time""
""fullscreenenter"",""1"",""7592""
""blur"",""15"",""118157""
""focus"",""15"",""118159""
""blur"",""15"",""118663""
""focus"",""15"",""118665""
","""event"",""trial"",""time""
""blur"",""15"",""118157""
""blur"",""15"",""118663""
","""event"",""trial"",""time""
""focus"",""15"",""118159""
""focus"",""15"",""118665""
","""event"",""trial"",""time""
""fullscreenenter"",""1"",""7592""
","
",,null,run_exp/static/images/task_images/aliens/old_aliens/planet/alien_planet-45.jpg,null,,,,,,,,,,,,,45,"76,23,70,73,45,77,52,59,63,24,71,72,57,42,55,64,18,67,40,51,30,13,49,41,29,37,53,32,54,12,31,7,56,20,43,60,2,10,58,75,11,21,4,14,3",,,,,,,,,,
land,99,455548,0.0-30.0-2.0,"""event"",""trial"",""time""
""fullscreenenter"",""1"",""7592""
""blur"",""15"",""118157""
""focus"",""15"",""118159""
""blur"",""15"",""118663""
""focus"",""15"",""118665""
","""event"",""trial"",""time""
""blur"",""15"",""118157""
""blur"",""15"",""118663""
","""event"",""trial"",""time""
""focus"",""15"",""118159""
""focus"",""15"",""118665""
","""event"",""trial"",""time""
""fullscreenenter"",""1"",""7592""
","
",,null,run_exp/static/images/task_images/land.jpg,null,,,,,,,97,,,5,,,,,,,,,,,,,,
dig,100,457556,0.0-30.0-3.0,"""event"",""trial"",""time""
""fullscreenenter"",""1"",""7592""
""blur"",""15"",""118157""
""focus"",""15"",""118159""
""blur"",""15"",""118663""
""focus"",""15"",""118665""
","""event"",""trial"",""time""
""blur"",""15"",""118157""
""blur"",""15"",""118663""
","""event"",""trial"",""time""
""focus"",""15"",""118159""
""focus"",""15"",""118665""
","""event"",""trial"",""time""
""fullscreenenter"",""1"",""7592""
","
",,,,,,,,,,,,"[{""stimulus"":""run_exp/static/images/task_images/dig.jpg"",""time"":0.39999999990686774},{""stimulus"":""run_exp/static/images/task_images/land.jpg"",""time"":670.5},{""stimulus"":""run_exp/static/images/task_images/dig.jpg"",""time"":1336.7000000001863}]",[],5,,,,,,,,,,,,,,
harvest,101,458564,0.0-30.0-4.0,"""event"",""trial"",""time""
""fullscreenenter"",""1"",""7592""
""blur"",""15"",""118157""
""focus"",""15"",""118159""
""blur"",""15"",""118663""
""focus"",""15"",""118665""
","""event"",""trial"",""time""
""blur"",""15"",""118157""
""blur"",""15"",""118663""
","""event"",""trial"",""time""
""focus"",""15"",""118159""
""focus"",""15"",""118665""
","""event"",""trial"",""time""
""fullscreenenter"",""1"",""7592""
","
",,null,run_exp/static/images/task_images/gems/97.jpg,null,,,,,,,54,,,5,,,,,97,0.556377057,0.556701031,,,,,,,
decision,102,459114,0.0-30.0-5.0,"""event"",""trial"",""time""
""fullscreenenter"",""1"",""7592""
""blur"",""15"",""118157""
""focus"",""15"",""118159""
""blur"",""15"",""118663""
""focus"",""15"",""118665""
","""event"",""trial"",""time""
""blur"",""15"",""118157""
""blur"",""15"",""118663""
","""event"",""trial"",""time""
""focus"",""15"",""118159""
""focus"",""15"",""118665""
","""event"",""trial"",""time""
""fullscreenenter"",""1"",""7592""
","
",,548.1,run_exp/static/images/task_images/land.jpg,76,,,,,,,54,,,5,,,,,,,,96287,1,0,TRUE,,,
travel,103,468573,0.0-31.0-0.0,"""event"",""trial"",""time""
""fullscreenenter"",""1"",""7592""
""blur"",""15"",""118157""
""focus"",""15"",""118159""
""blur"",""15"",""118663""
""focus"",""15"",""118665""
","""event"",""trial"",""time""
""blur"",""15"",""118157""
""blur"",""15"",""118663""
","""event"",""trial"",""time""
""focus"",""15"",""118159""
""focus"",""15"",""118665""
","""event"",""trial"",""time""
""fullscreenenter"",""1"",""7592""
","
",,,,,,,,,,,,"[{""stimulus"":""run_exp/static/images/task_images/rocket-01.jpg"",""time"":0.3000000002793968},{""stimulus"":""run_exp/static/images/task_images/rocket-02.jpg"",""time"":1054.3999999999069},{""stimulus"":""run_exp/static/images/task_images/rocket-03.jpg"",""time"":2102.399999999907},{""stimulus"":""run_exp/static/images/task_images/rocket-04.jpg"",""time"":3158.2000000001863},{""stimulus"":""run_exp/static/images/task_images/rocket-05.jpg"",""time"":4206.700000000186},{""stimulus"":""run_exp/static/images/task_images/rocket-06.jpg"",""time"":5254.5},{""stimulus"":""run_exp/static/images/task_images/rocket-07.jpg"",""time"":6302.200000000186},{""stimulus"":""run_exp/static/images/task_images/rocket-08.jpg"",""time"":7358.600000000093},{""stimulus"":""run_exp/static/images/task_images/rocket-09.jpg"",""time"":8406.30000000028}]",[],5,,,,,,,,,,,,,,
alien_welcome,104,473580,0.0-31.0-1.0,"""event"",""trial"",""time""
""fullscreenenter"",""1"",""7592""
""blur"",""15"",""118157""
""focus"",""15"",""118159""
""blur"",""15"",""118663""
""focus"",""15"",""118665""
","""event"",""trial"",""time""
""blur"",""15"",""118157""
""blur"",""15"",""118663""
","""event"",""trial"",""time""
""focus"",""15"",""118159""
""focus"",""15"",""118665""
","""event"",""trial"",""time""
""fullscreenenter"",""1"",""7592""
","
",,null,run_exp/static/images/task_images/aliens/old_aliens/planet/alien_planet-77.jpg,null,,,,,,,,,,,,,77,"76,23,70,73,45,77,52,59,63,24,71,72,57,42,55,64,18,67,40,51,30,13,49,41,29,37,53,32,54,12,31,7,56,20,43,60,2,10,58,75,11,21,4,14,3",,,,,,,,,,
land,105,474084,0.0-31.0-2.0,"""event"",""trial"",""time""
""fullscreenenter"",""1"",""7592""
""blur"",""15"",""118157""
""focus"",""15"",""118159""
""blur"",""15"",""118663""
""focus"",""15"",""118665""
","""event"",""trial"",""time""
""blur"",""15"",""118157""
""blur"",""15"",""118663""
","""event"",""trial"",""time""
""focus"",""15"",""118159""
""focus"",""15"",""118665""
","""event"",""trial"",""time""
""fullscreenenter"",""1"",""7592""
","
",,null,run_exp/static/images/task_images/land.jpg,null,,,,,,,104,,,6,,,,,,,,,,,,,,
dig,106,476093,0.0-31.0-3.0,"""event"",""trial"",""time""
""fullscreenenter"",""1"",""7592""
""blur"",""15"",""118157""
""focus"",""15"",""118159""
""blur"",""15"",""118663""
""focus"",""15"",""118665""
","""event"",""trial"",""time""
""blur"",""15"",""118157""
""blur"",""15"",""118663""
","""event"",""trial"",""time""
""focus"",""15"",""118159""
""focus"",""15"",""118665""
","""event"",""trial"",""time""
""fullscreenenter"",""1"",""7592""
","
",,,,,,,,,,,,"[{""stimulus"":""run_exp/static/images/task_images/dig.jpg"",""time"":0.2999999998137355},{""stimulus"":""run_exp/static/images/task_images/land.jpg"",""time"":670.8999999999069},{""stimulus"":""run_exp/static/images/task_images/dig.jpg"",""time"":1342.7999999998137}]",[],6,,,,,,,,,,,,,,
harvest,107,477102,0.0-31.0-4.0,"""event"",""trial"",""time""
""fullscreenenter"",""1"",""7592""
""blur"",""15"",""118157""
""focus"",""15"",""118159""
""blur"",""15"",""118663""
""focus"",""15"",""118665""
","""event"",""trial"",""time""
""blur"",""15"",""118157""
""blur"",""15"",""118663""
","""event"",""trial"",""time""
""focus"",""15"",""118159""
""focus"",""15"",""118665""
","""event"",""trial"",""time""
""fullscreenenter"",""1"",""7592""
","
",,null,run_exp/static/images/task_images/gems/104.jpg,null,,,,,,,90,,,6,,,,,104,0.865668409,0.865384615,,,,,,,
decision,108,479386,0.0-31.0-5.0,"""event"",""trial"",""time""
""fullscreenenter"",""1"",""7592""
""blur"",""15"",""118157""
""focus"",""15"",""118159""
""blur"",""15"",""118663""
""focus"",""15"",""118665""
","""event"",""trial"",""time""
""blur"",""15"",""118157""
""blur"",""15"",""118663""
","""event"",""trial"",""time""
""focus"",""15"",""118159""
""focus"",""15"",""118665""
","""event"",""trial"",""time""
""fullscreenenter"",""1"",""7592""
","
",,2282.2,run_exp/static/images/task_images/land.jpg,65,,,,,,,90,,,6,,,,,,,,116559,1,0,FALSE,,,
dig,109,480108,0.0-32.0-0.0,"""event"",""trial"",""time""
""fullscreenenter"",""1"",""7592""
""blur"",""15"",""118157""
""focus"",""15"",""118159""
""blur"",""15"",""118663""
""focus"",""15"",""118665""
","""event"",""trial"",""time""
""blur"",""15"",""118157""
""blur"",""15"",""118663""
","""event"",""trial"",""time""
""focus"",""15"",""118159""
""focus"",""15"",""118665""
","""event"",""trial"",""time""
""fullscreenenter"",""1"",""7592""
","
",,,,,,,,,,,,"[{""stimulus"":""run_exp/static/images/task_images/dig.jpg"",""time"":0.20000000018626451},{""stimulus"":""run_exp/static/images/task_images/land.jpg"",""time"":247.10000000009313},{""stimulus"":""run_exp/static/images/task_images/dig.jpg"",""time"":486.8000000002794}]",[],6,,,,,,,,,,,,,,
harvest,110,481117,0.0-32.0-1.0,"""event"",""trial"",""time""
""fullscreenenter"",""1"",""7592""
""blur"",""15"",""118157""
""focus"",""15"",""118159""
""blur"",""15"",""118663""
""focus"",""15"",""118665""
","""event"",""trial"",""time""
""blur"",""15"",""118157""
""blur"",""15"",""118663""
","""event"",""trial"",""time""
""focus"",""15"",""118159""
""focus"",""15"",""118665""
","""event"",""trial"",""time""
""fullscreenenter"",""1"",""7592""
","
",,null,run_exp/static/images/task_images/gems/90.jpg,null,,,,,,,75,,,6,,,,,90,0.82951507,0.833333333,,,,,,,
decision,111,481155,0.0-32.0-2.0,"""event"",""trial"",""time""
""fullscreenenter"",""1"",""7592""
""blur"",""15"",""118157""
""focus"",""15"",""118159""
""blur"",""15"",""118663""
""focus"",""15"",""118665""
","""event"",""trial"",""time""
""blur"",""15"",""118157""
""blur"",""15"",""118663""
","""event"",""trial"",""time""
""focus"",""15"",""118159""
""focus"",""15"",""118665""
","""event"",""trial"",""time""
""fullscreenenter"",""1"",""7592""
","
",,36.1,run_exp/static/images/task_images/land.jpg,76,,,,,,,75,,,6,,,,,,,,118328,1,1,TRUE,,,
travel,112,491124,0.0-33.0-0.0,"""event"",""trial"",""time""
""fullscreenenter"",""1"",""7592""
""blur"",""15"",""118157""
""focus"",""15"",""118159""
""blur"",""15"",""118663""
""focus"",""15"",""118665""
","""event"",""trial"",""time""
""blur"",""15"",""118157""
""blur"",""15"",""118663""
","""event"",""trial"",""time""
""focus"",""15"",""118159""
""focus"",""15"",""118665""
","""event"",""trial"",""time""
""fullscreenenter"",""1"",""7592""
","
",,,,,,,,,,,,"[{""stimulus"":""run_exp/static/images/task_images/rocket-01.jpg"",""time"":0.20000000018626451},{""stimulus"":""run_exp/static/images/task_images/rocket-02.jpg"",""time"":1110.2000000001863},{""stimulus"":""run_exp/static/images/task_images/rocket-03.jpg"",""time"":2222.2000000001863},{""stimulus"":""run_exp/static/images/task_images/rocket-04.jpg"",""time"":3326.2999999998137},{""stimulus"":""run_exp/static/images/task_images/rocket-05.jpg"",""time"":4430.200000000186},{""stimulus"":""run_exp/static/images/task_images/rocket-06.jpg"",""time"":5542.399999999907},{""stimulus"":""run_exp/static/images/task_images/rocket-07.jpg"",""time"":6646.200000000186},{""stimulus"":""run_exp/static/images/task_images/rocket-08.jpg"",""time"":7758},{""stimulus"":""run_exp/static/images/task_images/rocket-09.jpg"",""time"":8862.299999999814}]",[],6,,,,,,,,,,,,,,
alien_welcome,113,496132,0.0-33.0-1.0,"""event"",""trial"",""time""
""fullscreenenter"",""1"",""7592""
""blur"",""15"",""118157""
""focus"",""15"",""118159""
""blur"",""15"",""118663""
""focus"",""15"",""118665""
","""event"",""trial"",""time""
""blur"",""15"",""118157""
""blur"",""15"",""118663""
","""event"",""trial"",""time""
""focus"",""15"",""118159""
""focus"",""15"",""118665""
","""event"",""trial"",""time""
""fullscreenenter"",""1"",""7592""
","
",,null,run_exp/static/images/task_images/aliens/old_aliens/planet/alien_planet-52.jpg,null,,,,,,,,,,,,,52,"76,23,70,73,45,77,52,59,63,24,71,72,57,42,55,64,18,67,40,51,30,13,49,41,29,37,53,32,54,12,31,7,56,20,43,60,2,10,58,75,11,21,4,14,3",,,,,,,,,,
land,114,496636,0.0-33.0-2.0,"""event"",""trial"",""time""
""fullscreenenter"",""1"",""7592""
""blur"",""15"",""118157""
""focus"",""15"",""118159""
""blur"",""15"",""118663""
""focus"",""15"",""118665""
","""event"",""trial"",""time""
""blur"",""15"",""118157""
""blur"",""15"",""118663""
","""event"",""trial"",""time""
""focus"",""15"",""118159""
""focus"",""15"",""118665""
","""event"",""trial"",""time""
""fullscreenenter"",""1"",""7592""
","
",,null,run_exp/static/images/task_images/land.jpg,null,,,,,,,100,,,7,,,,,,,,,,,,,,
dig,115,498644,0.0-33.0-3.0,"""event"",""trial"",""time""
""fullscreenenter"",""1"",""7592""
""blur"",""15"",""118157""
""focus"",""15"",""118159""
""blur"",""15"",""118663""
""focus"",""15"",""118665""
","""event"",""trial"",""time""
""blur"",""15"",""118157""
""blur"",""15"",""118663""
","""event"",""trial"",""time""
""focus"",""15"",""118159""
""focus"",""15"",""118665""
","""event"",""trial"",""time""
""fullscreenenter"",""1"",""7592""
","
",,,,,,,,,,,,"[{""stimulus"":""run_exp/static/images/task_images/dig.jpg"",""time"":0.39999999990686774},{""stimulus"":""run_exp/static/images/task_images/land.jpg"",""time"":669.6000000000931},{""stimulus"":""run_exp/static/images/task_images/dig.jpg"",""time"":1341.7999999998137}]",[],7,,,,,,,,,,,,,,
harvest,116,499652,0.0-33.0-4.0,"""event"",""trial"",""time""
""fullscreenenter"",""1"",""7592""
""blur"",""15"",""118157""
""focus"",""15"",""118159""
""blur"",""15"",""118663""
""focus"",""15"",""118665""
","""event"",""trial"",""time""
""blur"",""15"",""118157""
""blur"",""15"",""118663""
","""event"",""trial"",""time""
""focus"",""15"",""118159""
""focus"",""15"",""118665""
","""event"",""trial"",""time""
""fullscreenenter"",""1"",""7592""
","
",,null,run_exp/static/images/task_images/gems/100.jpg,null,,,,,,,76,,,7,,,,,100,0.758090035,0.76,,,,,,,
decision,117,499945,0.0-33.0-5.0,"""event"",""trial"",""time""
""fullscreenenter"",""1"",""7592""
""blur"",""15"",""118157""
""focus"",""15"",""118159""
""blur"",""15"",""118663""
""focus"",""15"",""118665""
","""event"",""trial"",""time""
""blur"",""15"",""118157""
""blur"",""15"",""118663""
","""event"",""trial"",""time""
""focus"",""15"",""118159""
""focus"",""15"",""118665""
","""event"",""trial"",""time""
""fullscreenenter"",""1"",""7592""
","
",,290.7,run_exp/static/images/task_images/land.jpg,65,,,,,,,76,,,7,,,,,,,,137118,1,0,FALSE,,,
dig,118,502660,0.0-34.0-0.0,"""event"",""trial"",""time""
""fullscreenenter"",""1"",""7592""
""blur"",""15"",""118157""
""focus"",""15"",""118159""
""blur"",""15"",""118663""
""focus"",""15"",""118665""
","""event"",""trial"",""time""
""blur"",""15"",""118157""
""blur"",""15"",""118663""
","""event"",""trial"",""time""
""focus"",""15"",""118159""
""focus"",""15"",""118665""
","""event"",""trial"",""time""
""fullscreenenter"",""1"",""7592""
","
",,,,,,,,,,,,"[{""stimulus"":""run_exp/static/images/task_images/dig.jpg"",""time"":0.2999999998137355},{""stimulus"":""run_exp/static/images/task_images/land.jpg"",""time"":912},{""stimulus"":""run_exp/static/images/task_images/dig.jpg"",""time"":1808}]",[],7,,,,,,,,,,,,,,
harvest,119,503668,0.0-34.0-1.0,"""event"",""trial"",""time""
""fullscreenenter"",""1"",""7592""
""blur"",""15"",""118157""
""focus"",""15"",""118159""
""blur"",""15"",""118663""
""focus"",""15"",""118665""
","""event"",""trial"",""time""
""blur"",""15"",""118157""
""blur"",""15"",""118663""
","""event"",""trial"",""time""
""focus"",""15"",""118159""
""focus"",""15"",""118665""
","""event"",""trial"",""time""
""fullscreenenter"",""1"",""7592""
","
",,null,run_exp/static/images/task_images/gems/76.jpg,null,,,,,,,62,,,7,,,,,76,0.821342672,0.815789474,,,,,,,
decision,120,504710,0.0-34.0-2.0,"""event"",""trial"",""time""
""fullscreenenter"",""1"",""7592""
""blur"",""15"",""118157""
""focus"",""15"",""118159""
""blur"",""15"",""118663""
""focus"",""15"",""118665""
","""event"",""trial"",""time""
""blur"",""15"",""118157""
""blur"",""15"",""118663""
","""event"",""trial"",""time""
""focus"",""15"",""118159""
""focus"",""15"",""118665""
","""event"",""trial"",""time""
""fullscreenenter"",""1"",""7592""
","
",,1039.9,run_exp/static/images/task_images/land.jpg,65,,,,,,,62,,,7,,,,,,,,141883,1,1,FALSE,,,
dig,121,506681,0.0-35.0-0.0,"""event"",""trial"",""time""
""fullscreenenter"",""1"",""7592""
""blur"",""15"",""118157""
""focus"",""15"",""118159""
""blur"",""15"",""118663""
""focus"",""15"",""118665""
","""event"",""trial"",""time""
""blur"",""15"",""118157""
""blur"",""15"",""118663""
","""event"",""trial"",""time""
""focus"",""15"",""118159""
""focus"",""15"",""118665""
","""event"",""trial"",""time""
""fullscreenenter"",""1"",""7592""
","
",,,,,,,,,,,,"[{""stimulus"":""run_exp/static/images/task_images/dig.jpg"",""time"":0.20000000018626451},{""stimulus"":""run_exp/static/images/task_images/land.jpg"",""time"":658.7000000001863},{""stimulus"":""run_exp/static/images/task_images/dig.jpg"",""time"":1314.8999999999069}]",[],7,,,,,,,,,,,,,,
harvest,122,507684,0.0-35.0-1.0,"""event"",""trial"",""time""
""fullscreenenter"",""1"",""7592""
""blur"",""15"",""118157""
""focus"",""15"",""118159""
""blur"",""15"",""118663""
""focus"",""15"",""118665""
","""event"",""trial"",""time""
""blur"",""15"",""118157""
""blur"",""15"",""118663""
","""event"",""trial"",""time""
""focus"",""15"",""118159""
""focus"",""15"",""118665""
","""event"",""trial"",""time""
""fullscreenenter"",""1"",""7592""
","
",,null,run_exp/static/images/task_images/gems/62.jpg,null,,,,,,,50,,,7,,,,,62,0.811016071,0.806451613,,,,,,,
decision,123,507727,0.0-35.0-2.0,"""event"",""trial"",""time""
""fullscreenenter"",""1"",""7592""
""blur"",""15"",""118157""
""focus"",""15"",""118159""
""blur"",""15"",""118663""
""focus"",""15"",""118665""
","""event"",""trial"",""time""
""blur"",""15"",""118157""
""blur"",""15"",""118663""
","""event"",""trial"",""time""
""focus"",""15"",""118159""
""focus"",""15"",""118665""
","""event"",""trial"",""time""
""fullscreenenter"",""1"",""7592""
","
",,41.4,run_exp/static/images/task_images/land.jpg,76,,,,,,,50,,,7,,,,,,,,144901,1,2,TRUE,,,
travel,124,517692,0.0-36.0-0.0,"""event"",""trial"",""time""
""fullscreenenter"",""1"",""7592""
""blur"",""15"",""118157""
""focus"",""15"",""118159""
""blur"",""15"",""118663""
""focus"",""15"",""118665""
","""event"",""trial"",""time""
""blur"",""15"",""118157""
""blur"",""15"",""118663""
","""event"",""trial"",""time""
""focus"",""15"",""118159""
""focus"",""15"",""118665""
","""event"",""trial"",""time""
""fullscreenenter"",""1"",""7592""
","
",,,,,,,,,,,,"[{""stimulus"":""run_exp/static/images/task_images/rocket-01.jpg"",""time"":0.40000000037252903},{""stimulus"":""run_exp/static/images/task_images/rocket-02.jpg"",""time"":1113.6000000000931},{""stimulus"":""run_exp/static/images/task_images/rocket-03.jpg"",""time"":2217.4000000003725},{""stimulus"":""run_exp/static/images/task_images/rocket-04.jpg"",""time"":3321.100000000093},{""stimulus"":""run_exp/static/images/task_images/rocket-05.jpg"",""time"":4433.4000000003725},{""stimulus"":""run_exp/static/images/task_images/rocket-06.jpg"",""time"":5537.600000000093},{""stimulus"":""run_exp/static/images/task_images/rocket-07.jpg"",""time"":6641.600000000093},{""stimulus"":""run_exp/static/images/task_images/rocket-08.jpg"",""time"":7745.4000000003725},{""stimulus"":""run_exp/static/images/task_images/rocket-09.jpg"",""time"":8857.200000000186}]",[],7,,,,,,,,,,,,,,
alien_welcome,125,522700,0.0-36.0-1.0,"""event"",""trial"",""time""
""fullscreenenter"",""1"",""7592""
""blur"",""15"",""118157""
""focus"",""15"",""118159""
""blur"",""15"",""118663""
""focus"",""15"",""118665""
","""event"",""trial"",""time""
""blur"",""15"",""118157""
""blur"",""15"",""118663""
","""event"",""trial"",""time""
""focus"",""15"",""118159""
""focus"",""15"",""118665""
","""event"",""trial"",""time""
""fullscreenenter"",""1"",""7592""
","
",,null,run_exp/static/images/task_images/aliens/old_aliens/planet/alien_planet-59.jpg,null,,,,,,,,,,,,,59,"76,23,70,73,45,77,52,59,63,24,71,72,57,42,55,64,18,67,40,51,30,13,49,41,29,37,53,32,54,12,31,7,56,20,43,60,2,10,58,75,11,21,4,14,3",,,,,,,,,,
land,126,523204,0.0-36.0-2.0,"""event"",""trial"",""time""
""fullscreenenter"",""1"",""7592""
""blur"",""15"",""118157""
""focus"",""15"",""118159""
""blur"",""15"",""118663""
""focus"",""15"",""118665""
","""event"",""trial"",""time""
""blur"",""15"",""118157""
""blur"",""15"",""118663""
","""event"",""trial"",""time""
""focus"",""15"",""118159""
""focus"",""15"",""118665""
","""event"",""trial"",""time""
""fullscreenenter"",""1"",""7592""
","
",,null,run_exp/static/images/task_images/land.jpg,null,,,,,,,99,,,8,,,,,,,,,,,,,,
dig,127,525212,0.0-36.0-3.0,"""event"",""trial"",""time""
""fullscreenenter"",""1"",""7592""
""blur"",""15"",""118157""
""focus"",""15"",""118159""
""blur"",""15"",""118663""
""focus"",""15"",""118665""
","""event"",""trial"",""time""
""blur"",""15"",""118157""
""blur"",""15"",""118663""
","""event"",""trial"",""time""
""focus"",""15"",""118159""
""focus"",""15"",""118665""
","""event"",""trial"",""time""
""fullscreenenter"",""1"",""7592""
","
",,,,,,,,,,,,"[{""stimulus"":""run_exp/static/images/task_images/dig.jpg"",""time"":0.39999999990686774},{""stimulus"":""run_exp/static/images/task_images/land.jpg"",""time"":670.6000000000931},{""stimulus"":""run_exp/static/images/task_images/dig.jpg"",""time"":1343.7000000001863}]",[],8,,,,,,,,,,,,,,
harvest,128,526221,0.0-36.0-4.0,"""event"",""trial"",""time""
""fullscreenenter"",""1"",""7592""
""blur"",""15"",""118157""
""focus"",""15"",""118159""
""blur"",""15"",""118663""
""focus"",""15"",""118665""
","""event"",""trial"",""time""
""blur"",""15"",""118157""
""blur"",""15"",""118663""
","""event"",""trial"",""time""
""focus"",""15"",""118159""
""focus"",""15"",""118665""
","""event"",""trial"",""time""
""fullscreenenter"",""1"",""7592""
","
",,null,run_exp/static/images/task_images/gems/99.jpg,null,,,,,,,79,,,8,,,,,99,0.799353817,0.797979798,,,,,,,
decision,129,526575,0.0-36.0-5.0,"""event"",""trial"",""time""
""fullscreenenter"",""1"",""7592""
""blur"",""15"",""118157""
""focus"",""15"",""118159""
""blur"",""15"",""118663""
""focus"",""15"",""118665""
","""event"",""trial"",""time""
""blur"",""15"",""118157""
""blur"",""15"",""118663""
","""event"",""trial"",""time""
""focus"",""15"",""118159""
""focus"",""15"",""118665""
","""event"",""trial"",""time""
""fullscreenenter"",""1"",""7592""
","
",,353.1,run_exp/static/images/task_images/land.jpg,65,,,,,,,79,,,8,,,,,,,,163748,1,0,FALSE,,,
dig,130,529228,0.0-37.0-0.0,"""event"",""trial"",""time""
""fullscreenenter"",""1"",""7592""
""blur"",""15"",""118157""
""focus"",""15"",""118159""
""blur"",""15"",""118663""
""focus"",""15"",""118665""
","""event"",""trial"",""time""
""blur"",""15"",""118157""
""blur"",""15"",""118663""
","""event"",""trial"",""time""
""focus"",""15"",""118159""
""focus"",""15"",""118665""
","""event"",""trial"",""time""
""fullscreenenter"",""1"",""7592""
","
",,,,,,,,,,,,"[{""stimulus"":""run_exp/static/images/task_images/dig.jpg"",""time"":0.3000000002793968},{""stimulus"":""run_exp/static/images/task_images/land.jpg"",""time"":889.2000000001863},{""stimulus"":""run_exp/static/images/task_images/dig.jpg"",""time"":1769.3000000002794}]",[],8,,,,,,,,,,,,,,
harvest,131,530236,0.0-37.0-1.0,"""event"",""trial"",""time""
""fullscreenenter"",""1"",""7592""
""blur"",""15"",""118157""
""focus"",""15"",""118159""
""blur"",""15"",""118663""
""focus"",""15"",""118665""
","""event"",""trial"",""time""
""blur"",""15"",""118157""
""blur"",""15"",""118663""
","""event"",""trial"",""time""
""focus"",""15"",""118159""
""focus"",""15"",""118665""
","""event"",""trial"",""time""
""fullscreenenter"",""1"",""7592""
","
",,null,run_exp/static/images/task_images/gems/79.jpg,null,,,,,,,69,,,8,,,,,79,0.87804421,0.873417722,,,,,,,
decision,132,530353,0.0-37.0-2.0,"""event"",""trial"",""time""
""fullscreenenter"",""1"",""7592""
""blur"",""15"",""118157""
""focus"",""15"",""118159""
""blur"",""15"",""118663""
""focus"",""15"",""118665""
","""event"",""trial"",""time""
""blur"",""15"",""118157""
""blur"",""15"",""118663""
","""event"",""trial"",""time""
""focus"",""15"",""118159""
""focus"",""15"",""118665""
","""event"",""trial"",""time""
""fullscreenenter"",""1"",""7592""
","
",,114.9,run_exp/static/images/task_images/land.jpg,76,,,,,,,69,,,8,,,,,,,,167526,1,1,TRUE,,,
travel,133,540244,0.0-38.0-0.0,"""event"",""trial"",""time""
""fullscreenenter"",""1"",""7592""
""blur"",""15"",""118157""
""focus"",""15"",""118159""
""blur"",""15"",""118663""
""focus"",""15"",""118665""
","""event"",""trial"",""time""
""blur"",""15"",""118157""
""blur"",""15"",""118663""
","""event"",""trial"",""time""
""focus"",""15"",""118159""
""focus"",""15"",""118665""
","""event"",""trial"",""time""
""fullscreenenter"",""1"",""7592""
","
",,,,,,,,,,,,"[{""stimulus"":""run_exp/static/images/task_images/rocket-01.jpg"",""time"":0.2999999998137355},{""stimulus"":""run_exp/static/images/task_images/rocket-02.jpg"",""time"":1103.2999999998137},{""stimulus"":""run_exp/static/images/task_images/rocket-03.jpg"",""time"":2198.899999999907},{""stimulus"":""run_exp/static/images/task_images/rocket-04.jpg"",""time"":3303},{""stimulus"":""run_exp/static/images/task_images/rocket-05.jpg"",""time"":4399},{""stimulus"":""run_exp/static/images/task_images/rocket-06.jpg"",""time"":5495},{""stimulus"":""run_exp/static/images/task_images/rocket-07.jpg"",""time"":6591.199999999721},{""stimulus"":""run_exp/static/images/task_images/rocket-08.jpg"",""time"":7694.899999999907},{""stimulus"":""run_exp/static/images/task_images/rocket-09.jpg"",""time"":8791.5}]",[],8,,,,,,,,,,,,,,
alien_welcome,134,545252,0.0-38.0-1.0,"""event"",""trial"",""time""
""fullscreenenter"",""1"",""7592""
""blur"",""15"",""118157""
""focus"",""15"",""118159""
""blur"",""15"",""118663""
""focus"",""15"",""118665""
","""event"",""trial"",""time""
""blur"",""15"",""118157""
""blur"",""15"",""118663""
","""event"",""trial"",""time""
""focus"",""15"",""118159""
""focus"",""15"",""118665""
","""event"",""trial"",""time""
""fullscreenenter"",""1"",""7592""
","
",,null,run_exp/static/images/task_images/aliens/old_aliens/planet/alien_planet-63.jpg,null,,,,,,,,,,,,,63,"76,23,70,73,45,77,52,59,63,24,71,72,57,42,55,64,18,67,40,51,30,13,49,41,29,37,53,32,54,12,31,7,56,20,43,60,2,10,58,75,11,21,4,14,3",,,,,,,,,,
land,135,545759,0.0-38.0-2.0,"""event"",""trial"",""time""
""fullscreenenter"",""1"",""7592""
""blur"",""15"",""118157""
""focus"",""15"",""118159""
""blur"",""15"",""118663""
""focus"",""15"",""118665""
","""event"",""trial"",""time""
""blur"",""15"",""118157""
""blur"",""15"",""118663""
","""event"",""trial"",""time""
""focus"",""15"",""118159""
""focus"",""15"",""118665""
","""event"",""trial"",""time""
""fullscreenenter"",""1"",""7592""
","
",,null,run_exp/static/images/task_images/land.jpg,null,,,,,,,108,,,9,,,,,,,,,,,,,,
dig,136,547764,0.0-38.0-3.0,"""event"",""trial"",""time""
""fullscreenenter"",""1"",""7592""
""blur"",""15"",""118157""
""focus"",""15"",""118159""
""blur"",""15"",""118663""
""focus"",""15"",""118665""
","""event"",""trial"",""time""
""blur"",""15"",""118157""
""blur"",""15"",""118663""
","""event"",""trial"",""time""
""focus"",""15"",""118159""
""focus"",""15"",""118665""
","""event"",""trial"",""time""
""fullscreenenter"",""1"",""7592""
","
",,,,,,,,,,,,"[{""stimulus"":""run_exp/static/images/task_images/dig.jpg"",""time"":0.5},{""stimulus"":""run_exp/static/images/task_images/land.jpg"",""time"":676.5},{""stimulus"":""run_exp/static/images/task_images/dig.jpg"",""time"":1339.8999999999069}]",[],9,,,,,,,,,,,,,,
harvest,137,548773,0.0-38.0-4.0,"""event"",""trial"",""time""
""fullscreenenter"",""1"",""7592""
""blur"",""15"",""118157""
""focus"",""15"",""118159""
""blur"",""15"",""118663""
""focus"",""15"",""118665""
","""event"",""trial"",""time""
""blur"",""15"",""118157""
""blur"",""15"",""118663""
","""event"",""trial"",""time""
""focus"",""15"",""118159""
""focus"",""15"",""118665""
","""event"",""trial"",""time""
""fullscreenenter"",""1"",""7592""
","
",,null,run_exp/static/images/task_images/gems/108.jpg,null,,,,,,,16,,,9,,,,,108,0.146119403,0.148148148,,,,,,,
decision,138,549688,0.0-38.0-5.0,"""event"",""trial"",""time""
""fullscreenenter"",""1"",""7592""
""blur"",""15"",""118157""
""focus"",""15"",""118159""
""blur"",""15"",""118663""
""focus"",""15"",""118665""
","""event"",""trial"",""time""
""blur"",""15"",""118157""
""blur"",""15"",""118663""
","""event"",""trial"",""time""
""focus"",""15"",""118159""
""focus"",""15"",""118665""
","""event"",""trial"",""time""
""fullscreenenter"",""1"",""7592""
","
",,914.3,run_exp/static/images/task_images/land.jpg,65,,,,,,,16,,,9,,,,,,,,186862,1,0,FALSE,,,
dig,139,551780,0.0-39.0-0.0,"""event"",""trial"",""time""
""fullscreenenter"",""1"",""7592""
""blur"",""15"",""118157""
""focus"",""15"",""118159""
""blur"",""15"",""118663""
""focus"",""15"",""118665""
","""event"",""trial"",""time""
""blur"",""15"",""118157""
""blur"",""15"",""118663""
","""event"",""trial"",""time""
""focus"",""15"",""118159""
""focus"",""15"",""118665""
","""event"",""trial"",""time""
""fullscreenenter"",""1"",""7592""
","
",,,,,,,,,,,,"[{""stimulus"":""run_exp/static/images/task_images/dig.jpg"",""time"":0.3000000002793968},{""stimulus"":""run_exp/static/images/task_images/land.jpg"",""time"":704.4000000003725},{""stimulus"":""run_exp/static/images/task_images/dig.jpg"",""time"":1392.3000000002794}]",[],9,,,,,,,,,,,,,,
harvest,140,552788,0.0-39.0-1.0,"""event"",""trial"",""time""
""fullscreenenter"",""1"",""7592""
""blur"",""15"",""118157""
""focus"",""15"",""118159""
""blur"",""15"",""118663""
""focus"",""15"",""118665""
","""event"",""trial"",""time""
""blur"",""15"",""118157""
""blur"",""15"",""118663""
","""event"",""trial"",""time""
""focus"",""15"",""118159""
""focus"",""15"",""118665""
","""event"",""trial"",""time""
""fullscreenenter"",""1"",""7592""
","
",,null,run_exp/static/images/task_images/gems/16.jpg,null,,,,,,,3,,,9,,,,,16,0.206886079,0.1875,,,,,,,
decision,141,552916,0.0-39.0-2.0,"""event"",""trial"",""time""
""fullscreenenter"",""1"",""7592""
""blur"",""15"",""118157""
""focus"",""15"",""118159""
""blur"",""15"",""118663""
""focus"",""15"",""118665""
","""event"",""trial"",""time""
""blur"",""15"",""118157""
""blur"",""15"",""118663""
","""event"",""trial"",""time""
""focus"",""15"",""118159""
""focus"",""15"",""118665""
","""event"",""trial"",""time""
""fullscreenenter"",""1"",""7592""
","
",,125.9,run_exp/static/images/task_images/land.jpg,76,,,,,,,3,,,9,,,,,,,,190089,1,1,TRUE,,,
travel,142,562796,0.0-40.0-0.0,"""event"",""trial"",""time""
""fullscreenenter"",""1"",""7592""
""blur"",""15"",""118157""
""focus"",""15"",""118159""
""blur"",""15"",""118663""
""focus"",""15"",""118665""
","""event"",""trial"",""time""
""blur"",""15"",""118157""
""blur"",""15"",""118663""
","""event"",""trial"",""time""
""focus"",""15"",""118159""
""focus"",""15"",""118665""
","""event"",""trial"",""time""
""fullscreenenter"",""1"",""7592""
","
