trial_type,trial_index,time_elapsed,internal_node_id,success,rt,stimulus,key_press,prompt,subject_id,age,gender,button_pressed,next_reward,animation_sequence,responses,planet,curr_prac_trial,n_prac_rounds,alien,aliens,reward_received,decay_rate_actual,decay_rate_exp,time_in_block,block_num,prt,last_trial_on_planet,button_html,bonus,num_failures
pavlovia,0,4,0.0-0.0,,,,,,,,,,,,,,,,,,,,,,,,,,,
fullscreen,1,31438,0.0-1.0,TRUE,,,,,,,,,,,,,,,,,,,,,,,,,,
instruc_welcome,2,41362,0.0-2.0,,null,run_exp/static/audio/clip_1_welcome.m4a,null,"<p>Howdy! In this experiment, you’ll be an explorer traveling through space to collect space treasure.</p><p>Your mission is to collect as much treasure as possible.</p><br><br><p><img src='run_exp/static/images/task_images/opening_img-01.jpg' height='300' width='auto'></p>",TWHKk5jGgmBhUct_a5Ke5UddwllDBGZ_MLRP_cYipufCpBbgzA90,8.35,male,,,,,,,,,,,,,,,,,,,
audio-keyboard-response,3,57961,0.0-3.0,,null,run_exp/static/audio/clip_2_move.m4a,null,,,,,,,,,,,,,,,,,,,,,,,
welcome_dec,4,59661,0.0-4.0,,1695.465,"<p>Howdy! In this experiment, you’ll be an explorer traveling through space to collect space treasure.</p><p>Your mission is to collect as much treasure as possible.</p><br><br><p><img src='run_exp/static/images/task_images/opening_img-01.jpg' height='300' width='auto'></p>",,,,,,1,,,,,,,,,,,,,,,,,,
html-keyboard-response,5,60777,0.0-5.0,,1112.595,"<p>Howdy! In this experiment, you’ll be an explorer traveling through space to collect space treasure.</p><p>Your mission is to collect as much treasure as possible.</p><br><br><p><img src='run_exp/static/images/task_images/opening_img-01.jpg' height='300' width='auto'></p><button class=""jspsych-html-btn-unchosen""><img src=""run_exp/static/images/task_images/planet-01.jpg"" height=""50""></button><button class=""jspsych-html-btn-chosen""><img src=""run_exp/static/images/task_images/planet-02.jpg"" height=""50""></button><p><b>[press the space bar to lock in your answer]<b><br></p>",32,,,,,,,,,,,,,,,,,,,,,,,
instruc_goal,6,70860,0.0-6.0-0.0,,null,run_exp/static/audio/clip_3_goal.m4a,null,"<p> As a space explorer, you’ll visit different planets to dig for space treasure, these pink gems.</p> <p> The more treasure you dig up, the more bonus money you’ll win! </p><br><br><p><img src='run_exp/static/images/task_images/pink_gem.jpg' height='300' width='auto'></p>",,,,,,,,,,,,,,,,,,,,,,
instruc_goal,7,72445,0.0-6.0-1.0,,1582.955,"<p> As a space explorer, you’ll visit different planets to dig for space treasure, these pink gems.</p> <p> The more treasure you dig up, the more bonus money you’ll win! </p><br><br><p><img src='run_exp/static/images/task_images/pink_gem.jpg' height='300' width='auto'></p>",,,,,,1,,,,,,,,,,,,,,,,,,
html-keyboard-response,8,72887,0.0-6.0-2.0,,440.9100001,"<p> As a space explorer, you’ll visit different planets to dig for space treasure, these pink gems.</p> <p> The more treasure you dig up, the more bonus money you’ll win! </p><br><br><p><img src='run_exp/static/images/task_images/pink_gem.jpg' height='300' width='auto'></p><button class=""jspsych-html-btn-unchosen""><img src=""run_exp/static/images/task_images/planet-01.jpg"" height=""50""></button><button class=""jspsych-html-btn-chosen""><img src=""run_exp/static/images/task_images/planet-02.jpg"" height=""50""></button><p><b>[press the space bar to lock in your answer]<b><br></p>",32,,,,,,,,,,,,,,,,,,,,,,,
instruc_dig,9,88901,0.0-7.0-0.0,,null,run_exp/static/audio/clip_4_dig.m4a,null,,,,,,100,,,,,,,,,,,,,,,,,
instruc_dig_try,10,98885,0.0-7.0-1.0,,9981.2,"<p> When you’ve arrived at a new planet, you will dig once. </p> <p>Then, you get to decide if you want to stay on the planet and dig again or travel to a new planet and dig there.</p> <p> To stay and dig, press the letter <strong>‘A’</strong> on your keyboard. Try pressing it now! </p><p><img src='run_exp/static/images/task_images/land.jpg'  height='700' width='auto'></p>",65,"<p> When you’ve arrived at a new planet, you will dig once. </p> <p>Then, you get to decide if you want to stay on the planet and dig again or travel to a new planet and dig there.</p> <p> To stay and dig, press the letter <strong>‘A’</strong> on your keyboard. Try pressing it now! </p><p><img src='run_exp/static/images/task_images/land.jpg'  height='700' width='auto'></p>",,,,,100,,,,,,,,,,,,,,,,,
dig_prac,11,100892,0.0-7.0-2.0,,,,,,,,,,,"[{""stimulus"":""run_exp/static/images/task_images/dig.jpg"",""time"":0.2000001259148121},{""stimulus"":""run_exp/static/images/task_images/land.jpg"",""time"":683.8500001467764},{""stimulus"":""run_exp/static/images/task_images/dig.jpg"",""time"":1336.0650001559407}]",[],,,,,,,,,,,,,,,
instruc_travel,12,137132,0.0-7.0-3.0,,null,run_exp/static/audio/clip_5_travel.m4a,null,"<p>Every time you dig up gems, there are less gems on the planet, so the more you dig on a planet the fewer gems you’ll get with each dig.</p><p>When gems are running low, you may want to travel to a new planet. </p> <p>  Planets are very far apart in this galaxy, so it will take some time to travel between them. </p> <br><p>There are lots and lots of planets for you to visit, so you won’t be able to return to any planets you’ve seen before. </p><br><p>To leave this planet and travel to a new one, press the letter <strong>‘L’</strong> on your keyboard. Try pressing it now! </p><p><img src='run_exp/static/images/task_images/rocket-01.jpg'  height='600' width='auto'></p>",,,,,,,,,,,,,,,,,,,,,,
instruc_travel_try,13,137231,0.0-7.0-4.0,,95.43500002,"<p>Every time you dig up gems, there are less gems on the planet, so the more you dig on a planet the fewer gems you’ll get with each dig.</p><p>When gems are running low, you may want to travel to a new planet. </p> <p>  Planets are very far apart in this galaxy, so it will take some time to travel between them. </p> <br><p>There are lots and lots of planets for you to visit, so you won’t be able to return to any planets you’ve seen before. </p><br><p>To leave this planet and travel to a new one, press the letter <strong>‘L’</strong> on your keyboard. Try pressing it now! </p><p><img src='run_exp/static/images/task_images/rocket-01.jpg'  height='600' width='auto'></p>",76,"<p>Every time you dig up gems, there are less gems on the planet, so the more you dig on a planet the fewer gems you’ll get with each dig.</p><p>When gems are running low, you may want to travel to a new planet. </p> <p>  Planets are very far apart in this galaxy, so it will take some time to travel between them. </p> <br><p>There are lots and lots of planets for you to visit, so you won’t be able to return to any planets you’ve seen before. </p><br><p>To leave this planet and travel to a new one, press the letter <strong>‘L’</strong> on your keyboard. Try pressing it now! </p><p><img src='run_exp/static/images/task_images/rocket-01.jpg'  height='600' width='auto'></p>",,,,,,,,,,,,,,,,,,,,,,
travel_prac,14,147238,0.0-7.0-5.0,,,,,,,,,,,"[{""stimulus"":""run_exp/static/images/task_images/rocket-01.jpg"",""time"":0.4350000526756048},{""stimulus"":""run_exp/static/images/task_images/rocket-02.jpg"",""time"":1124.3950000498444},{""stimulus"":""run_exp/static/images/task_images/rocket-03.jpg"",""time"":2226.340000052005},{""stimulus"":""run_exp/static/images/task_images/rocket-04.jpg"",""time"":3344.5749999955297},{""stimulus"":""run_exp/static/images/task_images/rocket-05.jpg"",""time"":4449.340000050142},{""stimulus"":""run_exp/static/images/task_images/rocket-06.jpg"",""time"":5556.80499994196},{""stimulus"":""run_exp/static/images/task_images/rocket-07.jpg"",""time"":6677.810000022873},{""stimulus"":""run_exp/static/images/task_images/rocket-08.jpg"",""time"":7783.904999960214},{""stimulus"":""run_exp/static/images/task_images/rocket-09.jpg"",""time"":8890.70999994874}]",[],0,,,,,,,,,,,,,,
instruc_alien_greet,15,174431,0.0-7.0-6.0,,null,run_exp/static/audio/clip_6_alien.m4a,null,"<p>When you arrive at a new planet, the alien who owns the treasure mine on that planet will greet you!</p><p>The better an alien takes care of their mine the easier it is to dig for gems. Some aliens take better care of their mine than others. So, you won’t get exactly the same amount of gems on each planet.</p><p>What the alien looks like does not tell you anything about how many gems there are on the planet.</p><br><p><img src=""run_exp/static/images/task_images/aliens/instructions_aliens/planet/alien_planet-1.jpg""  height=""600"" width=""auto""></p>",,,,,,,,,,,,,,,,,,,,,,
instruc_alien_greet,16,184965,0.0-7.0-7.0,,10530.76,"<p>When you arrive at a new planet, the alien who owns the treasure mine on that planet will greet you!</p><p>The better an alien takes care of their mine the easier it is to dig for gems. Some aliens take better care of their mine than others. So, you won’t get exactly the same amount of gems on each planet.</p><p>What the alien looks like does not tell you anything about how many gems there are on the planet.</p><br><p><img src=""run_exp/static/images/task_images/aliens/instructions_aliens/planet/alien_planet-1.jpg""  height=""600"" width=""auto""></p>",,,,,,1,,,,,,,,,,,,,,,,,,
html-keyboard-response,17,197076,0.0-7.0-8.0,,12109.185,"<p>When you arrive at a new planet, the alien who owns the treasure mine on that planet will greet you!</p><p>The better an alien takes care of their mine the easier it is to dig for gems. Some aliens take better care of their mine than others. So, you won’t get exactly the same amount of gems on each planet.</p><p>What the alien looks like does not tell you anything about how many gems there are on the planet.</p><br><p><img src=""run_exp/static/images/task_images/aliens/instructions_aliens/planet/alien_planet-1.jpg""  height=""600"" width=""auto""></p><button class=""jspsych-html-btn-unchosen""><img src=""run_exp/static/images/task_images/planet-01.jpg"" height=""50""></button><button class=""jspsych-html-btn-chosen""><img src=""run_exp/static/images/task_images/planet-02.jpg"" height=""50""></button><p><b>[press the space bar to lock in your answer]<b><br></p>",32,,,,,,,,,,,,,,,,,,,,,,,
time_out,18,208397,0.0-8.0-0.0,,null,run_exp/static/audio/clip_7_timeout.m4a,null,"<p>If you don't make your choice fast enough, you’ll have to wait a few seconds before you can make another one.</p><p>You can’t dig for more gems or travel to new planets. You just have to sit and wait.</p><br><p><img src='run_exp/static/images/task_images/time_out.jpg'  height='600' width='auto'></p>",,,,,,,,,,,,,,,,,,,,,,
time_out,19,211300,0.0-8.0-1.0,,2900.26,"<p>If you don't make your choice fast enough, you’ll have to wait a few seconds before you can make another one.</p><p>You can’t dig for more gems or travel to new planets. You just have to sit and wait.</p><br><p><img src='run_exp/static/images/task_images/time_out.jpg'  height='600' width='auto'></p>",,,,,,1,,,,,,,,,,,,,,,,,,
html-keyboard-response,20,212223,0.0-8.0-2.0,,920.585,"<p>If you don't make your choice fast enough, you’ll have to wait a few seconds before you can make another one.</p><p>You can’t dig for more gems or travel to new planets. You just have to sit and wait.</p><br><p><img src='run_exp/static/images/task_images/time_out.jpg'  height='600' width='auto'></p><button class=""jspsych-html-btn-unchosen""><img src=""run_exp/static/images/task_images/planet-01.jpg"" height=""50""></button><button class=""jspsych-html-btn-chosen""><img src=""run_exp/static/images/task_images/planet-02.jpg"" height=""50""></button><p><b>[press the space bar to lock in your answer]<b><br></p>",32,,,,,,,,,,,,,,,,,,,,,,,
instruc_break,21,227897,0.0-9.0-0.0,,null,run_exp/static/audio/clip_8_break.m4a,null,"<p> After digging and traveling for a while, you’ll be able to take a break at home base. </p><p>The game will last 20 minutes no matter what.</p><p>You will visit home base every 5 minutes, so, you will visit home base three times during the game.</p><br><p><img src='run_exp/static/images/task_images/home_base.jpg' height='600' width='auto'></p>",,,,,,,,,,,,,,,,,,,,,,
instruc_break,22,229509,0.0-9.0-1.0,,1607.97,"<p> After digging and traveling for a while, you’ll be able to take a break at home base. </p><p>The game will last 20 minutes no matter what.</p><p>You will visit home base every 5 minutes, so, you will visit home base three times during the game.</p><br><p><img src='run_exp/static/images/task_images/home_base.jpg' height='600' width='auto'></p>",,,,,,1,,,,,,,,,,,,,,,,,,
html-keyboard-response,23,230659,0.0-9.0-2.0,,1149.255,"<p> After digging and traveling for a while, you’ll be able to take a break at home base. </p><p>The game will last 20 minutes no matter what.</p><p>You will visit home base every 5 minutes, so, you will visit home base three times during the game.</p><br><p><img src='run_exp/static/images/task_images/home_base.jpg' height='600' width='auto'></p><button class=""jspsych-html-btn-unchosen""><img src=""run_exp/static/images/task_images/planet-01.jpg"" height=""50""></button><button class=""jspsych-html-btn-chosen""><img src=""run_exp/static/images/task_images/planet-02.jpg"" height=""50""></button><p><b>[press the space bar to lock in your answer]<b><br></p>",32,,,,,,,,,,,,,,,,,,,,,,,
instruc_prac_game,24,240797,0.0-10.0-0.0,,null,run_exp/static/audio/clip_9_practice.m4a,null,"<p> Are you ready to play a practice game? </p> <p>In this practice game, you'll be digging up barrels of gems. But, in the real game, you'll be digging up the gems themselves. </p>",,,,,,,,,,,,,,,,,,,,,,
html-button-response,25,242717,0.0-10.0-1.0,,1917.845,"<p> Are you ready to play a practice game? </p> <p>In this practice game, you'll be digging up barrels of gems. But, in the real game, you'll be digging up the gems themselves. </p>",,,,,,0,,,,,,,,,,,,,,,,,,
alien_welcome_prac,26,247722,0.0-11.0-0.0,,null,run_exp/static/images/task_images/aliens/practice_aliens/planet/alien_planet-5.jpg,null,,,,,,,,,,,,,,,,,,,,,,,
land_prac,27,248226,0.0-11.0-1.0,,null,run_exp/static/images/task_images/land.jpg,null,,,,,,99,,,0,,,,,,,,,,,,,,
dig_prac,28,250242,0.0-11.0-2.0,,,,,,,,,,,"[{""stimulus"":""run_exp/static/images/task_images/dig.jpg"",""time"":0.4450001288205385},{""stimulus"":""run_exp/static/images/task_images/land.jpg"",""time"":682.2050001937896},{""stimulus"":""run_exp/static/images/task_images/dig.jpg"",""time"":1347.7249999996275}]",[],,,,,,,,,,,,,,,
harvest_prac,29,251252,0.0-11.0-3.0,,null,run_exp/static/images/task_images/barrel_text.jpg,null,,,,,,,,,,,,,,,,,,,,,,,
decision_prac,30,253401,0.0-11.0-4.0,,2145.875,run_exp/static/images/task_images/land.jpg,65,,,,,,,,,,1,,,,,,,,,,,,,
dig_prac,31,255412,0.0-12.0-0.0,,,,,,,,,,,"[{""stimulus"":""run_exp/static/images/task_images/dig.jpg"",""time"":0.3899999428540468},{""stimulus"":""run_exp/static/images/task_images/land.jpg"",""time"":668.779999949038},{""stimulus"":""run_exp/static/images/task_images/dig.jpg"",""time"":1337.129999883473}]",[],,,,,,,,,,,,,,,
harvest_prac,32,256419,0.0-12.0-1.0,,null,run_exp/static/images/task_images/barrel_text.jpg,null,,,,,,,,,,,,,,,,,,,,,,,
decision_prac,33,257324,0.0-12.0-2.0,,904.23,run_exp/static/images/task_images/land.jpg,65,,,,,,,,,,2,,,,,,,,,,,,,
dig_prac,34,259335,0.0-13.0-0.0,,,,,,,,,,,"[{""stimulus"":""run_exp/static/images/task_images/dig.jpg"",""time"":0.3450000658631325},{""stimulus"":""run_exp/static/images/task_images/land.jpg"",""time"":673.4599999617785},{""stimulus"":""run_exp/static/images/task_images/dig.jpg"",""time"":1339.4250001292676}]",[],,,,,,,,,,,,,,,
harvest_prac,35,260346,0.0-13.0-1.0,,null,run_exp/static/images/task_images/barrel_text.jpg,null,,,,,,,,,,,,,,,,,,,,,,,
decision_prac,36,260696,0.0-13.0-2.0,,348.8149999,run_exp/static/images/task_images/land.jpg,65,,,,,,,,,,3,,,,,,,,,,,,,
dig_prac,37,262712,0.0-14.0-0.0,,,,,,,,,,,"[{""stimulus"":""run_exp/static/images/task_images/dig.jpg"",""time"":0.22500008344650269},{""stimulus"":""run_exp/static/images/task_images/land.jpg"",""time"":681.2200001440942},{""stimulus"":""run_exp/static/images/task_images/dig.jpg"",""time"":1347.4500000011176}]",[],,,,,,,,,,,,,,,
harvest_prac,38,263720,0.0-14.0-1.0,,null,run_exp/static/images/task_images/barrel_text.jpg,null,,,,,,,,,,,,,,,,,,,,,,,
decision_prac,39,263875,0.0-14.0-2.0,,152.3850001,run_exp/static/images/task_images/land.jpg,65,,,,,,,,,,4,,,,,,,,,,,,,
dig_prac,40,265897,0.0-15.0-0.0,,,,,,,,,,,"[{""stimulus"":""run_exp/static/images/task_images/dig.jpg"",""time"":0.4249999765306711},{""stimulus"":""run_exp/static/images/task_images/land.jpg"",""time"":679.9900000914931},{""stimulus"":""run_exp/static/images/task_images/dig.jpg"",""time"":1336.6650000680238}]",[],,,,,,,,,,,,,,,
harvest_prac,41,266903,0.0-15.0-1.0,,null,run_exp/static/images/task_images/barrel_text.jpg,null,,,,,,,,,,,,,,,,,,,,,,,
decision_prac,42,267514,0.0-15.0-2.0,,608.0700001,run_exp/static/images/task_images/land.jpg,65,,,,,,,,,,,1,,,,,,,,,,,,
quiz_instruc,43,278901,0.0-16.0-0.0,,11381.235,run_exp/static/audio/clip_10_quiz.m4a,,,,,,0,,,,,,,,,,,,,,,,,,
instruc_repeat,44,321667,0.0-16.0-1.0,,null,"<p> Are you ready to play a practice game? </p> <p>In this practice game, you'll be digging up barrels of gems. But, in the real game, you'll be digging up the gems themselves. </p>",null,"<p>In this game, your goal is to collect as many gems as you can. That’s how you will win bonus money. </p> <p>The entire game will last 20 minutes no matter how many gems you collect or how many planets you visit. </p><p>To stay on a planet and dig again, press the letter A on your keyboard. To leave for a new planet, press the letter L.</p><p>The more you dig on a planet, the fewer gems you’ll get with each dig which is why you might consider leaving for a new planet. </p><p>When you arrive at a new planet, you’ll be greeted by an alien. What the alien looks like does not tell you anything about how much treasure is on the planet. </p>",,,,,,,,,,,,,,,,,,,,,,
instruc_repeat_continue,45,322837,0.0-16.0-2.0,,1167.405,"<p> Are you ready to play a practice game? </p> <p>In this practice game, you'll be digging up barrels of gems. But, in the real game, you'll be digging up the gems themselves. </p>",,,,,,0,,,,,,,,,,,,,,,,,,
quiz_q_1_ask,46,333373,0.0-16.0-3.0,,10534.175,run_exp/static/audio/clip_11_q1_ask.m4a,,,,,,2,,,,,,,,,,,,,,,,,,
quiz_q_1_fb_correct,47,337227,0.0-17.0-0.0,,null,run_exp/static/audio/clip_12_q1_corrrect.m4a,null,<p>That’s correct. You win extra money by collecting more gems.</p>,,,,,,,,,,,,,,,,,,,,,,
quiz_q_2_ask,48,348668,0.0-17.0-1.0,,11439.34,run_exp/static/audio/clip_14_q2_ask.m4a,,,,,,1,,,,,,,,,,,,,,,,,,
quiz_q_2_fb_correct,49,352667,0.0-18.0-0.0,,null,run_exp/static/audio/clip_15_q2_correct.m4a,null,<p>That’s correct. The experiment is 20 minutes no matter what.</p>,,,,,,,,,,,,,,,,,,,,,,
quiz_q_3_ask,50,358141,0.0-18.0-1.0,,5471.705,run_exp/static/audio/clip_17_q3_ask.m4a,,,,,,1,,,,,,,,,,,,,,,,,,
quiz_q_3_fb_correct,51,362127,0.0-19.0-0.0,,null,run_exp/static/audio/clip_18_q3_correct.m4a,null,<p> That’s correct. You press the letter L to travel to a new planet.</p>,,,,,,,,,,,,,,,,,,,,,,
quiz_q_4_ask,52,366884,0.0-19.0-1.0,,4754.355,run_exp/static/audio/clip_20_q4_ask.m4a,,,,,,0,,,,,,,,,,,,,,,,,,
quiz_q_4_fb_correct,53,372206,0.0-20.0-0.0,,null,run_exp/static/audio/clip_21_q4_correct.m4a,null,<p> That’s correct. The more you dig on a planet the fewer gems you’ll get with each dig. </p>,,,,,,,,,,,,,,,,,,,,,,
quiz_q_5_ask,54,376789,0.0-20.0-1.0,,4580.39,run_exp/static/audio/clip_23_q5_ask.m4a,,,,,,1,,,,,,,,,,,,,,,,,,
quiz_q_5_fb_correct,55,381786,0.0-21.0-0.0,,null,run_exp/static/audio/clip_24_q5_correct.m4a,null,<p> That’s correct. The alien tells you nothing about how much treasure is on the planet.</p>,,,,,,,,,,,,,,,,,,,,,,
quiz_correct,56,385268,0.0-22.0-0.0,,null,run_exp/static/audio/clip_26_correct_quiz.m4a,null,,,,,,,,,,,,,,,,,,,,,,,
quiz_correct_continue,57,386716,0.0-22.0-1.0,,1445.7,<p>Good job! You're now ready to move on to the real game!</p>,,,,,,0,,,,,,,,,,,,,,,,,,
audio-keyboard-response,58,396846,0.0-22.0-2.0,,null,run_exp/static/audio/clip_28_real_game.m4a,null,,,,,,,,,,,,,,,,,,,,,,,
instruc_begin_exp_contine,59,398292,0.0-22.0-3.0,,1444.09,"<p>Now that you know how  to dig for space treasure and travel to new planets,you can start exploring! </p><p>Do you want to go over the instructions again or get started with the real game?</p>",,,,,,1,,,,,,1,,,,,,,,,,,,
alien_welcome,60,403297,0.0-23.0-0.0,,null,run_exp/static/images/task_images/aliens/old_aliens/planet/alien_planet-62.jpg,null,,,,,,,,,,,,62,"62,53,52,19,25,68,70,73,33,79,22,48,9,29,1,43,80,69,20,5,23,8,71,44,40,45,38,16,75,3,18,55,56,2,78,64,34,77,76,7,42,58,63,60,61,32,59,49,4,17,67,14,36,27,11",,,,,,,,,,
land,61,403801,0.0-23.0-1.0,,null,run_exp/static/images/task_images/land.jpg,null,,,,,,103,,,1,,,,,,,,,,,,,,
dig,62,405819,0.0-23.0-2.0,,,,,,,,,,,"[{""stimulus"":""run_exp/static/images/task_images/dig.jpg"",""time"":0.4150001332163811},{""stimulus"":""run_exp/static/images/task_images/land.jpg"",""time"":668.874999973923},{""stimulus"":""run_exp/static/images/task_images/dig.jpg"",""time"":1347.4950001109391}]",[],1,,,,,,,,,,,,,,
harvest,63,406829,0.0-23.0-3.0,,null,run_exp/static/images/task_images/gems/103.jpg,null,,,,,,23,,,1,,,,,103,0.2200969,0.223300971,,,,,,,
decision,64,409716,0.0-23.0-4.0,,2883.575,run_exp/static/images/task_images/land.jpg,65,,,,,,23,,,1,,,,,,,,11423,1,0,FALSE,,,
dig,65,409842,0.0-24.0-0.0,,,,,,,,,,,"[{""stimulus"":""run_exp/static/images/task_images/dig.jpg"",""time"":0.3799998667091131},{""stimulus"":""run_exp/static/images/task_images/land.jpg"",""time"":39.32500001974404},{""stimulus"":""run_exp/static/images/task_images/dig.jpg"",""time"":78.74499983154237}]",[],1,,,,,,,,,,,,,,
harvest,66,410859,0.0-24.0-1.0,,null,run_exp/static/images/task_images/gems/23.jpg,null,,,,,,3,,,1,,,,,23,0.123824753,0.130434783,,,,,,,
decision,67,411710,0.0-24.0-2.0,,848.64,run_exp/static/images/task_images/land.jpg,65,,,,,,3,,,1,,,,,,,,13416,1,1,FALSE,,,
dig,68,413882,0.0-25.0-0.0,,,,,,,,,,,"[{""stimulus"":""run_exp/static/images/task_images/dig.jpg"",""time"":0.3400000277906656},{""stimulus"":""run_exp/static/images/task_images/land.jpg"",""time"":734.0100000146776},{""stimulus"":""run_exp/static/images/task_images/dig.jpg"",""time"":1436.0700000543147}]",[],1,,,,,,,,,,,,,,
harvest,69,414893,0.0-25.0-1.0,,null,run_exp/static/images/task_images/gems/3.jpg,null,,,,,,1,,,1,,,,,3,0.221271144,0.333333333,,,,,,,
decision,70,415786,0.0-25.0-2.0,,889.6049999,run_exp/static/images/task_images/land.jpg,76,,,,,,1,,,1,,,,,,,,17491,1,2,TRUE,,,
travel,71,424909,0.0-26.0-0.0,,,,,,,,,,,"[{""stimulus"":""run_exp/static/images/task_images/rocket-01.jpg"",""time"":0.4100000951439142},{""stimulus"":""run_exp/static/images/task_images/rocket-02.jpg"",""time"":1024.0100000519305},{""stimulus"":""run_exp/static/images/task_images/rocket-03.jpg"",""time"":2035.9600000083447},{""stimulus"":""run_exp/static/images/task_images/rocket-04.jpg"",""time"":3045.365000143647},{""stimulus"":""run_exp/static/images/task_images/rocket-05.jpg"",""time"":4054.8350000754},{""stimulus"":""run_exp/static/images/task_images/rocket-06.jpg"",""time"":5063.785000005737},{""stimulus"":""run_exp/static/images/task_images/rocket-07.jpg"",""time"":6075.470000039786},{""stimulus"":""run_exp/static/images/task_images/rocket-08.jpg"",""time"":7097.575000021607},{""stimulus"":""run_exp/static/images/task_images/rocket-09.jpg"",""time"":8110.860000131652}]",[],1,,,,,,,,,,,,,,
alien_welcome,72,429915,0.0-26.0-1.0,,null,run_exp/static/images/task_images/aliens/old_aliens/planet/alien_planet-53.jpg,null,,,,,,,,,,,,53,"62,53,52,19,25,68,70,73,33,79,22,48,9,29,1,43,80,69,20,5,23,8,71,44,40,45,38,16,75,3,18,55,56,2,78,64,34,77,76,7,42,58,63,60,61,32,59,49,4,17,67,14,36,27,11",,,,,,,,,,
land,73,430427,0.0-26.0-2.0,,null,run_exp/static/images/task_images/land.jpg,null,,,,,,97,,,2,,,,,,,,,,,,,,
dig,74,432444,0.0-26.0-3.0,,,,,,,,,,,"[{""stimulus"":""run_exp/static/images/task_images/dig.jpg"",""time"":0.45499997213482857},{""stimulus"":""run_exp/static/images/task_images/land.jpg"",""time"":683.750000083819},{""stimulus"":""run_exp/static/images/task_images/dig.jpg"",""time"":1348.9900000859052}]",[],2,,,,,,,,,,,,,,
harvest,75,433456,0.0-26.0-4.0,,null,run_exp/static/images/task_images/gems/97.jpg,null,,,,,,20,,,2,,,,,97,0.202366894,0.206185567,,,,,,,
decision,76,435450,0.0-26.0-5.0,,1991.655,run_exp/static/images/task_images/land.jpg,65,,,,,,20,,,2,,,,,,,,37156,1,0,FALSE,,,
dig,77,436469,0.0-27.0-0.0,,,,,,,,,,,"[{""stimulus"":""run_exp/static/images/task_images/dig.jpg"",""time"":0.3400000277906656},{""stimulus"":""run_exp/static/images/task_images/land.jpg"",""time"":347.3699998576194},{""stimulus"":""run_exp/static/images/task_images/dig.jpg"",""time"":687.4249998945743}]",[],2,,,,,,,,,,,,,,
harvest,78,437476,0.0-27.0-1.0,,null,run_exp/static/images/task_images/gems/20.jpg,null,,,,,,5,,,2,,,,,20,0.255064335,0.25,,,,,,,
decision,79,437876,0.0-27.0-2.0,,398.63,run_exp/static/images/task_images/land.jpg,65,,,,,,5,,,2,,,,,,,,39581,1,1,FALSE,,,
dig,80,440484,0.0-28.0-0.0,,,,,,,,,,,"[{""stimulus"":""run_exp/static/images/task_images/dig.jpg"",""time"":0.3550001420080662},{""stimulus"":""run_exp/static/images/task_images/land.jpg"",""time"":880.3950001019984},{""stimulus"":""run_exp/static/images/task_images/dig.jpg"",""time"":1747.4700000602752}]",[],2,,,,,,,,,,,,,,
harvest,81,441498,0.0-28.0-1.0,,null,run_exp/static/images/task_images/gems/5.jpg,null,,,,,,1,,,2,,,,,5,0.187310353,0.2,,,,,,,
decision,82,442018,0.0-28.0-2.0,,518.9999999,run_exp/static/images/task_images/land.jpg,76,,,,,,1,,,2,,,,,,,,43724,1,2,TRUE,,,
travel,83,451507,0.0-29.0-0.0,,,,,,,,,,,"[{""stimulus"":""run_exp/static/images/task_images/rocket-01.jpg"",""time"":0.3599999472498894},{""stimulus"":""run_exp/static/images/task_images/rocket-02.jpg"",""time"":1056.0850000474602},{""stimulus"":""run_exp/static/images/task_images/rocket-03.jpg"",""time"":2116.114999866113},{""stimulus"":""run_exp/static/images/task_images/rocket-04.jpg"",""time"":3176.2949998956174},{""stimulus"":""run_exp/static/images/task_images/rocket-05.jpg"",""time"":4218.464999925345},{""stimulus"":""run_exp/static/images/task_images/rocket-06.jpg"",""time"":5277.340000029653},{""stimulus"":""run_exp/static/images/task_images/rocket-07.jpg"",""time"":6333.009999943897},{""stimulus"":""run_exp/static/images/task_images/rocket-08.jpg"",""time"":7384.115000022575},{""stimulus"":""run_exp/static/images/task_images/rocket-09.jpg"",""time"":8427.154999924824}]",[],2,,,,,,,,,,,,,,
alien_welcome,84,456516,0.0-29.0-1.0,,null,run_exp/static/images/task_images/aliens/old_aliens/planet/alien_planet-52.jpg,null,,,,,,,,,,,,52,"62,53,52,19,25,68,70,73,33,79,22,48,9,29,1,43,80,69,20,5,23,8,71,44,40,45,38,16,75,3,18,55,56,2,78,64,34,77,76,7,42,58,63,60,61,32,59,49,4,17,67,14,36,27,11",,,,,,,,,,
land,85,457032,0.0-29.0-2.0,,null,run_exp/static/images/task_images/land.jpg,null,,,,,,102,,,3,,,,,,,,,,,,,,
dig,86,459048,0.0-29.0-3.0,,,,,,,,,,,"[{""stimulus"":""run_exp/static/images/task_images/dig.jpg"",""time"":0.4249999765306711},{""stimulus"":""run_exp/static/images/task_images/land.jpg"",""time"":681.3650000840425},{""stimulus"":""run_exp/static/images/task_images/dig.jpg"",""time"":1346.9150001183152}]",[],3,,,,,,,,,,,,,,
harvest,87,460059,0.0-29.0-4.0,,null,run_exp/static/images/task_images/gems/102.jpg,null,,,,,,48,,,3,,,,,102,0.47541268,0.470588235,,,,,,,
decision,88,461158,0.0-29.0-5.0,,1096.82,run_exp/static/images/task_images/land.jpg,65,,,,,,48,,,3,,,,,,,,62865,1,0,FALSE,,,
dig,89,463068,0.0-30.0-0.0,,,,,,,,,,,"[{""stimulus"":""run_exp/static/images/task_images/dig.jpg"",""time"":0.12500002048909664},{""stimulus"":""run_exp/static/images/task_images/land.jpg"",""time"":649.6700001880527},{""stimulus"":""run_exp/static/images/task_images/dig.jpg"",""time"":1277.3600001819432}]",[],3,,,,,,,,,,,,,,
harvest,90,464083,0.0-30.0-1.0,,null,run_exp/static/images/task_images/gems/48.jpg,null,,,,,,24,,,3,,,,,48,0.495583539,0.5,,,,,,,
decision,91,464608,0.0-30.0-2.0,,522.565,run_exp/static/images/task_images/land.jpg,65,,,,,,24,,,3,,,,,,,,66314,1,1,FALSE,,,
dig,92,467092,0.0-31.0-0.0,,,,,,,,,,,"[{""stimulus"":""run_exp/static/images/task_images/dig.jpg"",""time"":0.49000000581145287},{""stimulus"":""run_exp/static/images/task_images/land.jpg"",""time"":831.220000050962},{""stimulus"":""run_exp/static/images/task_images/dig.jpg"",""time"":1652.9600000940263}]",[],3,,,,,,,,,,,,,,
harvest,93,468101,0.0-31.0-1.0,,null,run_exp/static/images/task_images/gems/24.jpg,null,,,,,,13,,,3,,,,,24,0.522711331,0.541666667,,,,,,,
decision,94,469022,0.0-31.0-2.0,,918.18,run_exp/static/images/task_images/land.jpg,76,,,,,,13,,,3,,,,,,,,70727,1,2,TRUE,,,
travel,95,478122,0.0-32.0-0.0,,,,,,,,,,,"[{""stimulus"":""run_exp/static/images/task_images/rocket-01.jpg"",""time"":0.37499982863664627},{""stimulus"":""run_exp/static/images/task_images/rocket-02.jpg"",""time"":1010.7299999799579},{""stimulus"":""run_exp/static/images/task_images/rocket-03.jpg"",""time"":2020.825000014156},{""stimulus"":""run_exp/static/images/task_images/rocket-04.jpg"",""time"":3039.46499992162},{""stimulus"":""run_exp/static/images/task_images/rocket-05.jpg"",""time"":4049.4999999646097},{""stimulus"":""run_exp/static/images/task_images/rocket-06.jpg"",""time"":5059.914999874309},{""stimulus"":""run_exp/static/images/task_images/rocket-07.jpg"",""time"":6071.269999956712},{""stimulus"":""run_exp/static/images/task_images/rocket-08.jpg"",""time"":7067.499999888241},{""stimulus"":""run_exp/static/images/task_images/rocket-09.jpg"",""time"":8074.169999919832}]",[],3,,,,,,,,,,,,,,
alien_welcome,96,483131,0.0-32.0-1.0,,null,run_exp/static/images/task_images/aliens/old_aliens/planet/alien_planet-19.jpg,null,,,,,,,,,,,,19,"62,53,52,19,25,68,70,73,33,79,22,48,9,29,1,43,80,69,20,5,23,8,71,44,40,45,38,16,75,3,18,55,56,2,78,64,34,77,76,7,42,58,63,60,61,32,59,49,4,17,67,14,36,27,11",,,,,,,,,,
land,97,483640,0.0-32.0-2.0,,null,run_exp/static/images/task_images/land.jpg,null,,,,,,101,,,4,,,,,,,,,,,,,,
dig,98,485657,0.0-32.0-3.0,,,,,,,,,,,"[{""stimulus"":""run_exp/static/images/task_images/dig.jpg"",""time"":0.4100000951439142},{""stimulus"":""run_exp/static/images/task_images/land.jpg"",""time"":680.835000006482},{""stimulus"":""run_exp/static/images/task_images/dig.jpg"",""time"":1348.7150000873953}]",[],4,,,,,,,,,,,,,,
harvest,99,486668,0.0-32.0-4.0,,null,run_exp/static/images/task_images/gems/101.jpg,null,,,,,,44,,,4,,,,,101,0.435082479,0.435643564,,,,,,,
decision,100,486705,0.0-32.0-5.0,,35.42000009,run_exp/static/images/task_images/land.jpg,65,,,,,,44,,,4,,,,,,,,88410,1,0,FALSE,,,
dig,101,489677,0.0-33.0-0.0,,,,,,,,,,,"[{""stimulus"":""run_exp/static/images/task_images/dig.jpg"",""time"":0.08999998681247234},{""stimulus"":""run_exp/static/images/task_images/land.jpg"",""time"":999.7749999165535},{""stimulus"":""run_exp/static/images/task_images/dig.jpg"",""time"":1978.2300000078976}]",[],4,,,,,,,,,,,,,,
harvest,102,490688,0.0-33.0-1.0,,null,run_exp/static/images/task_images/gems/44.jpg,null,,,,,,21,,,4,,,,,44,0.470232992,0.477272727,,,,,,,
decision,103,490850,0.0-33.0-2.0,,158.8099999,run_exp/static/images/task_images/land.jpg,65,,,,,,21,,,4,,,,,,,,92555,1,1,FALSE,,,
dig,104,493712,0.0-34.0-0.0,,,,,,,,,,,"[{""stimulus"":""run_exp/static/images/task_images/dig.jpg"",""time"":0.3700000233948231},{""stimulus"":""run_exp/static/images/task_images/land.jpg"",""time"":950.6850000470877},{""stimulus"":""run_exp/static/images/task_images/dig.jpg"",""time"":1911.5850001107901}]",[],4,,,,,,,,,,,,,,
harvest,105,494720,0.0-34.0-1.0,,null,run_exp/static/images/task_images/gems/21.jpg,null,,,,,,12,,,4,,,,,21,0.586765828,0.571428571,,,,,,,
decision,106,495259,0.0-34.0-2.0,,536.1249999,run_exp/static/images/task_images/land.jpg,65,,,,,,12,,,4,,,,,,,,96964,1,2,FALSE,,,
dig,107,497739,0.0-35.0-0.0,,,,,,,,,,,"[{""stimulus"":""run_exp/static/images/task_images/dig.jpg"",""time"":0.4649998154491186},{""stimulus"":""run_exp/static/images/task_images/land.jpg"",""time"":832.6149999629706},{""stimulus"":""run_exp/static/images/task_images/dig.jpg"",""time"":1651.754999998957}]",[],4,,,,,,,,,,,,,,
harvest,108,498743,0.0-35.0-1.0,,null,run_exp/static/images/task_images/gems/12.jpg,null,,,,,,7,,,4,,,,,12,0.567065542,0.583333333,,,,,,,
decision,109,499129,0.0-35.0-2.0,,384.1200001,run_exp/static/images/task_images/land.jpg,65,,,,,,7,,,4,,,,,,,,100835,1,3,FALSE,,,
dig,110,501766,0.0-36.0-0.0,,,,,,,,,,,"[{""stimulus"":""run_exp/static/images/task_images/dig.jpg"",""time"":0.3699997905641794},{""stimulus"":""run_exp/static/images/task_images/land.jpg"",""time"":876.0349999647588},{""stimulus"":""run_exp/static/images/task_images/dig.jpg"",""time"":1759.139999980107}]",[],4,,,,,,,,,,,,,,
harvest,111,502779,0.0-36.0-1.0,,null,run_exp/static/images/task_images/gems/7.jpg,null,,,,,,4,,,4,,,,,7,0.516352707,0.571428571,,,,,,,
decision,112,503497,0.0-36.0-2.0,,715.7100001,run_exp/static/images/task_images/land.jpg,65,,,,,,4,,,4,,,,,,,,105202,1,4,FALSE,,,
dig,113,505789,0.0-37.0-0.0,,,,,,,,,,,"[{""stimulus"":""run_exp/static/images/task_images/dig.jpg"",""time"":0.3599999472498894},{""stimulus"":""run_exp/static/images/task_images/land.jpg"",""time"":767.5749999471009},{""stimulus"":""run_exp/static/images/task_images/dig.jpg"",""time"":1523.56499992311}]",[],4,,,,,,,,,,,,,,
harvest,114,506796,0.0-37.0-1.0,,null,run_exp/static/images/task_images/gems/4.jpg,null,,,,,,2,,,4,,,,,4,0.453464827,0.5,,,,,,,
decision,115,507154,0.0-37.0-2.0,,355.7750001,run_exp/static/images/task_images/land.jpg,76,,,,,,2,,,4,,,,,,,,108859,1,5,TRUE,,,
travel,116,516809,0.0-38.0-0.0,,,,,,,,,,,"[{""stimulus"":""run_exp/static/images/task_images/rocket-01.jpg"",""time"":0.3499998711049557},{""stimulus"":""run_exp/static/images/task_images/rocket-02.jpg"",""time"":1084.084999980405},{""stimulus"":""run_exp/static/images/task_images/rocket-03.jpg"",""time"":2153.2850000075996},{""stimulus"":""run_exp/static/images/task_images/rocket-04.jpg"",""time"":3223.7899999599904},{""stimulus"":""run_exp/static/images/task_images/rocket-05.jpg"",""time"":4293.964999960735},{""stimulus"":""run_exp/static/images/task_images/rocket-06.jpg"",""time"":5368.399999802932},{""stimulus"":""run_exp/static/images/task_images/rocket-07.jpg"",""time"":6438.819999806583},{""stimulus"":""run_exp/static/images/task_images/rocket-08.jpg"",""time"":7506.404999876395},{""stimulus"":""run_exp/static/images/task_images/rocket-09.jpg"",""time"":8572.524999966845}]",[],4,,,,,,,,,,,,,,
alien_welcome,117,521813,0.0-38.0-1.0,,null,run_exp/static/images/task_images/aliens/old_aliens/planet/alien_planet-25.jpg,null,,,,,,,,,,,,25,"62,53,52,19,25,68,70,73,33,79,22,48,9,29,1,43,80,69,20,5,23,8,71,44,40,45,38,16,75,3,18,55,56,2,78,64,34,77,76,7,42,58,63,60,61,32,59,49,4,17,67,14,36,27,11",,,,,,,,,,
land,118,522322,0.0-38.0-2.0,,null,run_exp/static/images/task_images/land.jpg,null,,,,,,104,,,5,,,,,,,,,,,,,,
dig,119,524331,0.0-38.0-3.0,,,,,,,,,,,"[{""stimulus"":""run_exp/static/images/task_images/dig.jpg"",""time"":0.439999857917428},{""stimulus"":""run_exp/static/images/task_images/land.jpg"",""time"":680.7949999347329},{""stimulus"":""run_exp/static/images/task_images/dig.jpg"",""time"":1350.1649999525398}]",[],5,,,,,,,,,,,,,,
harvest,120,525342,0.0-38.0-4.0,,null,run_exp/static/images/task_images/gems/104.jpg,null,,,,,,50,,,5,,,,,104,0.479120309,0.480769231,,,,,,,
decision,121,526260,0.0-38.0-5.0,,915.5450002,run_exp/static/images/task_images/land.jpg,65,,,,,,50,,,5,,,,,,,,127965,1,0,FALSE,,,
dig,122,528351,0.0-39.0-0.0,,,,,,,,,,,"[{""stimulus"":""run_exp/static/images/task_images/dig.jpg"",""time"":0.11499994434416294},{""stimulus"":""run_exp/static/images/task_images/land.jpg"",""time"":706.1099999118596},{""stimulus"":""run_exp/static/images/task_images/dig.jpg"",""time"":1404.0099999401718}]",[],5,,,,,,,,,,,,,,
harvest,123,529363,0.0-39.0-1.0,,null,run_exp/static/images/task_images/gems/50.jpg,null,,,,,,26,,,5,,,,,50,0.513713122,0.52,,,,,,,
decision,124,530028,0.0-39.0-2.0,,662.575,run_exp/static/images/task_images/land.jpg,65,,,,,,26,,,5,,,,,,,,131734,1,1,FALSE,,,
dig,125,532374,0.0-40.0-0.0,,,,,,,,,,,"[{""stimulus"":""run_exp/static/images/task_images/dig.jpg"",""time"":0.4499999340623617},{""stimulus"":""run_exp/static/images/task_images/land.jpg"",""time"":789.5849999040365},{""stimulus"":""run_exp/static/images/task_images/dig.jpg"",""time"":1561.3850001245737}]",[],5,,,,,,,,,,,,,,
harvest,126,533381,0.0-40.0-1.0,,null,run_exp/static/images/task_images/gems/26.jpg,null,,,,,,12,,,5,,,,,26,0.473255316,0.461538462,,,,,,,
decision,127,533928,0.0-40.0-2.0,,545.74,run_exp/static/images/task_images/land.jpg,76,,,,,,12,,,5,,,,,,,,135633,1,2,TRUE,,,
travel,128,543390,0.0-41.0-0.0,,,,,,,,,,,"[{""stimulus"":""run_exp/static/images/task_images/rocket-01.jpg"",""time"":0.3499998711049557},{""stimulus"":""run_exp/static/images/task_images/rocket-02.jpg"",""time"":1066.9099998194724},{""stimulus"":""run_exp/static/images/task_images/rocket-03.jpg"",""time"":2105.104999849573},{""stimulus"":""run_exp/static/images/task_images/rocket-04.jpg"",""time"":3162.55999985151},{""stimulus"":""run_exp/static/images/task_images/rocket-05.jpg"",""time"":4202.090000035241},{""stimulus"":""run_exp/static/images/task_images/rocket-06.jpg"",""time"":5266.004999866709},{""stimulus"":""run_exp/static/images/task_images/rocket-07.jpg"",""time"":6305.144999874756},{""stimulus"":""run_exp/static/images/task_images/rocket-08.jpg"",""time"":7362.904999870807},{""stimulus"":""run_exp/static/images/task_images/rocket-09.jpg"",""time"":8402.189999818802}]",[],5,,,,,,,,,,,,,,
alien_welcome,129,548408,0.0-41.0-1.0,,null,run_exp/static/images/task_images/aliens/old_aliens/planet/alien_planet-68.jpg,null,,,,,,,,,,,,68,"62,53,52,19,25,68,70,73,33,79,22,48,9,29,1,43,80,69,20,5,23,8,71,44,40,45,38,16,75,3,18,55,56,2,78,64,34,77,76,7,42,58,63,60,61,32,59,49,4,17,67,14,36,27,11",,,,,,,,,,
land,130,548924,0.0-41.0-2.0,,null,run_exp/static/images/task_images/land.jpg,null,,,,,,99,,,6,,,,,,,,,,,,,,
dig,131,550941,0.0-41.0-3.0,,,,,,,,,,,"[{""stimulus"":""run_exp/static/images/task_images/dig.jpg"",""time"":0.4150001332163811},{""stimulus"":""run_exp/static/images/task_images/land.jpg"",""time"":679.5650001149625},{""stimulus"":""run_exp/static/images/task_images/dig.jpg"",""time"":1344.455000013113}]",[],6,,,,,,,,,,,,,,
harvest,132,551951,0.0-41.0-4.0,,null,run_exp/static/images/task_images/gems/99.jpg,null,,,,,,86,,,6,,,,,99,0.868365055,0.868686869,,,,,,,
decision,133,552026,0.0-41.0-5.0,,72.27999996,run_exp/static/images/task_images/land.jpg,65,,,,,,86,,,6,,,,,,,,153731,1,0,FALSE,,,
dig,134,554961,0.0-42.0-0.0,,,,,,,,,,,"[{""stimulus"":""run_exp/static/images/task_images/dig.jpg"",""time"":0.4499999340623617},{""stimulus"":""run_exp/static/images/task_images/land.jpg"",""time"":988.9199999161065},{""stimulus"":""run_exp/static/images/task_images/dig.jpg"",""time"":1952.8899998404086}]",[],6,,,,,,,,,,,,,,
harvest,135,555967,0.0-42.0-1.0,,null,run_exp/static/images/task_images/gems/86.jpg,null,,,,,,70,,,6,,,,,86,0.81410147,0.813953488,,,,,,,
decision,136,556315,0.0-42.0-2.0,,346.0400002,run_exp/static/images/task_images/land.jpg,65,,,,,,70,,,6,,,,,,,,158020,1,1,FALSE,,,
dig,137,558984,0.0-43.0-0.0,,,,,,,,,,,"[{""stimulus"":""run_exp/static/images/task_images/dig.jpg"",""time"":0.3499998711049557},{""stimulus"":""run_exp/static/images/task_images/land.jpg"",""time"":888.4099998977035},{""stimulus"":""run_exp/static/images/task_images/dig.jpg"",""time"":1775.7549998350441}]",[],6,,,,,,,,,,,,,,
harvest,138,559996,0.0-43.0-1.0,,null,run_exp/static/images/task_images/gems/70.jpg,null,,,,,,58,,,6,,,,,70,0.822827598,0.828571429,,,,,,,
decision,139,560393,0.0-43.0-2.0,,395.7549999,run_exp/static/images/task_images/land.jpg,65,,,,,,58,,,6,,,,,,,,162098,1,2,FALSE,,,
dig,140,563008,0.0-44.0-0.0,,,,,,,,,,,"[{""stimulus"":""run_exp/static/images/task_images/dig.jpg"",""time"":0.18000020645558834},{""stimulus"":""run_exp/static/images/task_images/land.jpg"",""time"":874.2850001435727},{""stimulus"":""run_exp/static/images/task_images/dig.jpg"",""time"":1743.7250001821667}]",[],6,,,,,,,,,,,,,,
harvest,141,564021,0.0-44.0-1.0,,null,run_exp/static/images/task_images/gems/58.jpg,null,,,,,,46,,,6,,,,,58,0.788678692,0.793103448,,,,,,,
decision,142,564336,0.0-44.0-2.0,,314.2700002,run_exp/static/images/task_images/land.jpg,65,,,,,,46,,,6,,,,,,,,166041,1,3,FALSE,,,
dig,143,567039,0.0-45.0-0.0,,,,,,,,,,,"[{""stimulus"":""run_exp/static/images/task_images/dig.jpg"",""time"":0.10999990627169609},{""stimulus"":""run_exp/static/images/task_images/land.jpg"",""time"":909.1849999967963},{""stimulus"":""run_exp/static/images/task_images/dig.jpg"",""time"":1802.7699999511242}]",[],6,,,,,,,,,,,,,,
harvest,144,568053,0.0-45.0-1.0,,null,run_exp/static/images/task_images/gems/46.jpg,null,,,,,,35,,,6,,,,,46,0.750489518,0.760869565,,,,,,,
decision,145,568424,0.0-45.0-2.0,,370.4850001,run_exp/static/images/task_images/land.jpg,65,,,,,,35,,,6,,,,,,,,170129,1,4,FALSE,,,
dig,146,571074,0.0-46.0-0.0,,,,,,,,,,,"[{""stimulus"":""run_exp/static/images/task_images/dig.jpg"",""time"":0.3550001420080662},{""stimulus"":""run_exp/static/images/task_images/land.jpg"",""time"":879.6350001357496},{""stimulus"":""run_exp/static/images/task_images/dig.jpg"",""time"":1759.1099999845028}]",[],6,,,,,,,,,,,,,,
harvest,147,572083,0.0-46.0-1.0,,null,run_exp/static/images/task_images/gems/35.jpg,null,,,,,,28,,,6,,,,,35,0.796668146,0.8,,,,,,,
decision,148,572471,0.0-46.0-2.0,,385.555,run_exp/static/images/task_images/land.jpg,65,,,,,,28,,,6,,,,,,,,174176,1,5,FALSE,,,
dig,149,575091,0.0-47.0-0.0,,,,,,,,,,,"[{""stimulus"":""run_exp/static/images/task_images/dig.jpg"",""time"":0.0950000248849392},{""stimulus"":""run_exp/static/images/task_images/land.jpg"",""time"":881.3749998807907},{""stimulus"":""run_exp/static/images/task_images/dig.jpg"",""time"":1748.9849999547005}]",[],6,,,,,,,,,,,,,,
harvest,150,576102,0.0-47.0-1.0,,null,run_exp/static/images/task_images/gems/28.jpg,null,,,,,,23,,,6,,,,,28,0.837230179,0.821428571,,,,,,,
decision,151,576333,0.0-47.0-2.0,,227.9100001,run_exp/static/images/task_images/land.jpg,65,,,,,,23,,,6,,,,,,,,178038,1,6,FALSE,,,
dig,152,579129,0.0-48.0-0.0,,,,,,,,,,,"[{""stimulus"":""run_exp/static/images/task_images/dig.jpg"",""time"":0.43000001460313797},{""stimulus"":""run_exp/static/images/task_images/land.jpg"",""time"":929.1400001384318},{""stimulus"":""run_exp/static/images/task_images/dig.jpg"",""time"":1861.3500001374632}]",[],6,,,,,,,,,,,,,,
harvest,153,580134,0.0-48.0-1.0,,null,run_exp/static/images/task_images/gems/23.jpg,null,,,,,,20,,,6,,,,,23,0.879875119,0.869565217,,,,,,,
decision,154,580798,0.0-48.0-2.0,,661.29,run_exp/static/images/task_images/land.jpg,65,,,,,,20,,,6,,,,,,,,182503,1,7,FALSE,,,
dig,155,583144,0.0-49.0-0.0,,,,,,,,,,,"[{""stimulus"":""run_exp/static/images/task_images/dig.jpg"",""time"":0.09499979205429554},{""stimulus"":""run_exp/static/images/task_images/land.jpg"",""time"":795.1349997892976},{""stimulus"":""run_exp/static/images/task_images/dig.jpg"",""time"":1570.479999994859}]",[],6,,,,,,,,,,,,,,
harvest,156,584151,0.0-49.0-1.0,,null,run_exp/static/images/task_images/gems/20.jpg,null,,,,,,18,,,6,,,,,20,0.876549026,0.9,,,,,,,
decision,157,584583,0.0-49.0-2.0,,427.93,run_exp/static/images/task_images/land.jpg,65,,,,,,18,,,6,,,,,,,,186288,1,8,FALSE,,,
dig,158,587167,0.0-50.0-0.0,,,,,,,,,,,"[{""stimulus"":""run_exp/static/images/task_images/dig.jpg"",""time"":0.3400000277906656},{""stimulus"":""run_exp/static/images/task_images/land.jpg"",""time"":872.5900000426918},{""stimulus"":""run_exp/static/images/task_images/dig.jpg"",""time"":1723.9250000566244}]",[],6,,,,,,,,,,,,,,
harvest,159,588175,0.0-50.0-1.0,,null,run_exp/static/images/task_images/gems/18.jpg,null,,,,,,14,,,6,,,,,18,0.782107033,0.777777778,,,,,,,
decision,160,588624,0.0-50.0-2.0,,447.895,run_exp/static/images/task_images/land.jpg,76,,,,,,14,,,6,,,,,,,,190330,1,9,TRUE,,,
travel,161,598209,0.0-51.0-0.0,,,,,,,,,,,"[{""stimulus"":""run_exp/static/images/task_images/rocket-01.jpg"",""time"":0.4100000951439142},{""stimulus"":""run_exp/static/images/task_images/rocket-02.jpg"",""time"":1072.7550000883639},{""stimulus"":""run_exp/static/images/task_images/rocket-03.jpg"",""time"":2126.8599999602884},{""stimulus"":""run_exp/static/images/task_images/rocket-04.jpg"",""time"":3199.2649999447167},{""stimulus"":""run_exp/static/images/task_images/rocket-05.jpg"",""time"":4256.749999942258},{""stimulus"":""run_exp/static/images/task_images/rocket-06.jpg"",""time"":5312.4100000131875},{""stimulus"":""run_exp/static/images/task_images/rocket-07.jpg"",""time"":6369.819999905303},{""stimulus"":""run_exp/static/images/task_images/rocket-08.jpg"",""time"":7436.2200000323355},{""stimulus"":""run_exp/static/images/task_images/rocket-09.jpg"",""time"":8504.724999889731}]",[],6,,,,,,,,,,,,,,
alien_welcome,162,603211,0.0-51.0-1.0,,null,run_exp/static/images/task_images/aliens/old_aliens/planet/alien_planet-70.jpg,null,,,,,,,,,,,,70,"62,53,52,19,25,68,70,73,33,79,22,48,9,29,1,43,80,69,20,5,23,8,71,44,40,45,38,16,75,3,18,55,56,2,78,64,34,77,76,7,42,58,63,60,61,32,59,49,4,17,67,14,36,27,11",,,,,,,,,,
land,163,603723,0.0-51.0-2.0,,null,run_exp/static/images/task_images/land.jpg,null,,,,,,98,,,7,,,,,,,,,,,,,,
dig,164,605726,0.0-51.0-3.0,,,,,,,,,,,"[{""stimulus"":""run_exp/static/images/task_images/dig.jpg"",""time"":0.17499993555247784},{""stimulus"":""run_exp/static/images/task_images/land.jpg"",""time"":673.6900000832975},{""stimulus"":""run_exp/static/images/task_images/dig.jpg"",""time"":1334.7700000740588}]",[],7,,,,,,,,,,,,,,
harvest,165,606735,0.0-51.0-4.0,,null,run_exp/static/images/task_images/gems/98.jpg,null,,,,,,84,,,7,,,,,98,0.8576328,0.857142857,,,,,,,
decision,166,608016,0.0-51.0-5.0,,1279.945,run_exp/static/images/task_images/land.jpg,76,,,,,,84,,,7,,,,,,,,209721,1,0,TRUE,,,
travel,167,616740,0.0-52.0-0.0,,,,,,,,,,,"[{""stimulus"":""run_exp/static/images/task_images/rocket-01.jpg"",""time"":0.0950000248849392},{""stimulus"":""run_exp/static/images/task_images/rocket-02.jpg"",""time"":975.1299999188632},{""stimulus"":""run_exp/static/images/task_images/rocket-03.jpg"",""time"":1951.3850000221282},{""stimulus"":""run_exp/static/images/task_images/rocket-04.jpg"",""time"":2911.030000075698},{""stimulus"":""run_exp/static/images/task_images/rocket-05.jpg"",""time"":3887.635000050068},{""stimulus"":""run_exp/static/images/task_images/rocket-06.jpg"",""time"":4841.140000149608},{""stimulus"":""run_exp/static/images/task_images/rocket-07.jpg"",""time"":5814.394999993965},{""stimulus"":""run_exp/static/images/task_images/rocket-08.jpg"",""time"":6777.870000107214},{""stimulus"":""run_exp/static/images/task_images/rocket-09.jpg"",""time"":7754.06499998644}]",[],7,,,,,,,,,,,,,,
alien_welcome,168,621755,0.0-52.0-1.0,,null,run_exp/static/images/task_images/aliens/old_aliens/planet/alien_planet-73.jpg,null,,,,,,,,,,,,73,"62,53,52,19,25,68,70,73,33,79,22,48,9,29,1,43,80,69,20,5,23,8,71,44,40,45,38,16,75,3,18,55,56,2,78,64,34,77,76,7,42,58,63,60,61,32,59,49,4,17,67,14,36,27,11",,,,,,,,,,
land,169,622270,0.0-52.0-2.0,,null,run_exp/static/images/task_images/land.jpg,null,,,,,,101,,,8,,,,,,,,,,,,,,
dig,170,624273,0.0-52.0-3.0,,,,,,,,,,,"[{""stimulus"":""run_exp/static/images/task_images/dig.jpg"",""time"":0.13500009663403034},{""stimulus"":""run_exp/static/images/task_images/land.jpg"",""time"":669.5850000251085},{""stimulus"":""run_exp/static/images/task_images/dig.jpg"",""time"":1343.5550001449883}]",[],8,,,,,,,,,,,,,,
harvest,171,625277,0.0-52.0-4.0,,null,run_exp/static/images/task_images/gems/101.jpg,null,,,,,,76,,,8,,,,,101,0.749605781,0.752475248,,,,,,,
decision,172,625416,0.0-52.0-5.0,,137.97,run_exp/static/images/task_images/land.jpg,65,,,,,,76,,,8,,,,,,,,227121,1,0,FALSE,,,
dig,173,628286,0.0-53.0-0.0,,,,,,,,,,,"[{""stimulus"":""run_exp/static/images/task_images/dig.jpg"",""time"":0.0950000248849392},{""stimulus"":""run_exp/static/images/task_images/land.jpg"",""time"":956.0899999924004},{""stimulus"":""run_exp/static/images/task_images/dig.jpg"",""time"":1913.399999961257}]",[],8,,,,,,,,,,,,,,
harvest,174,629288,0.0-53.0-1.0,,null,run_exp/static/images/task_images/gems/76.jpg,null,,,,,,60,,,8,,,,,76,0.793202384,0.789473684,,,,,,,
decision,175,629327,0.0-53.0-2.0,,38.11500012,run_exp/static/images/task_images/land.jpg,65,,,,,,60,,,8,,,,,,,,231032,1,1,FALSE,,,
dig,176,632303,0.0-54.0-0.0,,,,,,,,,,,"[{""stimulus"":""run_exp/static/images/task_images/dig.jpg"",""time"":0.0950000248849392},{""stimulus"":""run_exp/static/images/task_images/land.jpg"",""time"":992.6650000270456},{""stimulus"":""run_exp/static/images/task_images/dig.jpg"",""time"":1984.870000043884}]",[],8,,,,,,,,,,,,,,
harvest,177,633318,0.0-54.0-1.0,,null,run_exp/static/images/task_images/gems/60.jpg,null,,,,,,44,,,8,,,,,60,0.729261276,0.733333333,,,,,,,
decision,178,633465,0.0-54.0-2.0,,145.305,run_exp/static/images/task_images/land.jpg,65,,,,,,44,,,8,,,,,,,,235170,1,2,FALSE,,,
dig,179,636326,0.0-55.0-0.0,,,,,,,,,,,"[{""stimulus"":""run_exp/static/images/task_images/dig.jpg"",""time"":0.11000013910233974},{""stimulus"":""run_exp/static/images/task_images/land.jpg"",""time"":962.2400000225753},{""stimulus"":""run_exp/static/images/task_images/dig.jpg"",""time"":1914.0150002203882}]",[],8,,,,,,,,,,,,,,
harvest,180,637338,0.0-55.0-1.0,,null,run_exp/static/images/task_images/gems/44.jpg,null,,,,,,40,,,8,,,,,44,0.910015698,0.909090909,,,,,,,
decision,181,638056,0.0-55.0-2.0,,715.0650001,run_exp/static/images/task_images/land.jpg,76,,,,,,40,,,8,,,,,,,,239761,1,3,TRUE,,,
travel,182,647346,0.0-56.0-0.0,,,,,,,,,,,"[{""stimulus"":""run_exp/static/images/task_images/rocket-01.jpg"",""time"":0.3899999428540468},{""stimulus"":""run_exp/static/images/task_images/rocket-02.jpg"",""time"":1045.3099999576807},{""stimulus"":""run_exp/static/images/task_images/rocket-03.jpg"",""time"":2070.680000120774},{""stimulus"":""run_exp/static/images/task_images/rocket-04.jpg"",""time"":3096.235000062734},{""stimulus"":""run_exp/static/images/task_images/rocket-05.jpg"",""time"":4136.83500001207},{""stimulus"":""run_exp/static/images/task_images/rocket-06.jpg"",""time"":5158.9399999938905},{""stimulus"":""run_exp/static/images/task_images/rocket-07.jpg"",""time"":6197.884999914095},{""stimulus"":""run_exp/static/images/task_images/rocket-08.jpg"",""time"":7218.709999928251},{""stimulus"":""run_exp/static/images/task_images/rocket-09.jpg"",""time"":8258.894999977201}]",[],8,,,,,,,,,,,,,,
alien_welcome,183,652349,0.0-56.0-1.0,,null,run_exp/static/images/task_images/aliens/old_aliens/planet/alien_planet-33.jpg,null,,,,,,,,,,,,33,"62,53,52,19,25,68,70,73,33,79,22,48,9,29,1,43,80,69,20,5,23,8,71,44,40,45,38,16,75,3,18,55,56,2,78,64,34,77,76,7,42,58,63,60,61,32,59,49,4,17,67,14,36,27,11",,,,,,,,,,
land,184,652852,0.0-56.0-2.0,,null,run_exp/static/images/task_images/land.jpg,null,,,,,,102,,,9,,,,,,,,,,,,,,
dig,185,654857,0.0-56.0-3.0,,,,,,,,,,,"[{""stimulus"":""run_exp/static/images/task_images/dig.jpg"",""time"":0.44499989598989487},{""stimulus"":""run_exp/static/images/task_images/land.jpg"",""time"":669.0650000236928},{""stimulus"":""run_exp/static/images/task_images/dig.jpg"",""time"":1335.7949999626726}]",[],9,,,,,,,,,,,,,,
harvest,186,655860,0.0-56.0-4.0,,null,run_exp/static/images/task_images/gems/102.jpg,null,,,,,,12,,,9,,,,,102,0.115910521,0.117647059,,,,,,,
decision,187,658476,0.0-56.0-5.0,,2614.775,run_exp/static/images/task_images/land.jpg,65,,,,,,12,,,9,,,,,,,,260181,1,0,FALSE,,,
dig,188,658874,0.0-57.0-0.0,,,,,,,,,,,"[{""stimulus"":""run_exp/static/images/task_images/dig.jpg"",""time"":0.360000180080533},{""stimulus"":""run_exp/static/images/task_images/land.jpg"",""time"":141.95000007748604},{""stimulus"":""run_exp/static/images/task_images/dig.jpg"",""time"":265.92999999411404}]",[],9,,,,,,,,,,,,,,
harvest,189,659882,0.0-57.0-1.0,,null,run_exp/static/images/task_images/gems/12.jpg,null,,,,,,2,,,9,,,,,12,0.168041904,0.166666667,,,,,,,
decision,190,662893,0.0-57.0-2.0,,null,run_exp/static/images/task_images/land.jpg,null,,,,,,2,,,9,,,,,,,,264598,1,1,FALSE,,,
time_out,191,664907,0.0-58.0-0.0,,null,run_exp/static/images/task_images/time_out.jpg,null,,,,,,2,,,,,,,,,,,,,,,,,
decision,192,665566,0.0-58.0-1.0,,655.2250001,run_exp/static/images/task_images/land.jpg,76,,,,,,2,,,9,,,,,,,,267271,1,1,TRUE,,,
travel,193,674917,0.0-59.0-0.0,,,,,,,,,,,"[{""stimulus"":""run_exp/static/images/task_images/rocket-01.jpg"",""time"":0.3550001420080662},{""stimulus"":""run_exp/static/images/task_images/rocket-02.jpg"",""time"":1043.650000123307},{""stimulus"":""run_exp/static/images/task_images/rocket-03.jpg"",""time"":2083.070000167936},{""stimulus"":""run_exp/static/images/task_images/rocket-04.jpg"",""time"":3129.7500000800937},{""stimulus"":""run_exp/static/images/task_images/rocket-05.jpg"",""time"":4154.355000006035},{""stimulus"":""run_exp/static/images/task_images/rocket-06.jpg"",""time"":5195.855000056326},{""stimulus"":""run_exp/static/images/task_images/rocket-07.jpg"",""time"":6230.6900001131},{""stimulus"":""run_exp/static/images/task_images/rocket-08.jpg"",""time"":7267.645000014454},{""stimulus"":""run_exp/static/images/task_images/rocket-09.jpg"",""time"":8305.325000081211}]",[],9,,,,,,,,,,,,,,
alien_welcome,194,679920,0.0-59.0-1.0,,null,run_exp/static/images/task_images/aliens/old_aliens/planet/alien_planet-79.jpg,null,,,,,,,,,,,,79,"62,53,52,19,25,68,70,73,33,79,22,48,9,29,1,43,80,69,20,5,23,8,71,44,40,45,38,16,75,3,18,55,56,2,78,64,34,77,76,7,42,58,63,60,61,32,59,49,4,17,67,14,36,27,11",,,,,,,,,,
land,195,680422,0.0-59.0-2.0,,null,run_exp/static/images/task_images/land.jpg,null,,,,,,92,,,10,,,,,,,,,,,,,,
dig,196,682427,0.0-59.0-3.0,,,,,,,,,,,"[{""stimulus"":""run_exp/static/images/task_images/dig.jpg"",""time"":0.1400001347064972},{""stimulus"":""run_exp/static/images/task_images/land.jpg"",""time"":668.8950001262128},{""stimulus"":""run_exp/static/images/task_images/dig.jpg"",""time"":1334.8149999510497}]",[],10,,,,,,,,,,,,,,
harvest,197,683429,0.0-59.0-4.0,,null,run_exp/static/images/task_images/gems/92.jpg,null,,,,,,23,,,10,,,,,92,0.245406566,0.25,,,,,,,
decision,198,686431,0.0-59.0-5.0,,null,run_exp/static/images/task_images/land.jpg,null,,,,,,23,,,10,,,,,,,,288137,1,0,FALSE,,,
time_out,199,688439,0.0-60.0-0.0,,null,run_exp/static/images/task_images/time_out.jpg,null,,,,,,23,,,,,,,,,,,,,,,,,
decision,200,688833,0.0-60.0-1.0,,392.7500001,run_exp/static/images/task_images/land.jpg,65,,,,,,23,,,10,,,,,,,,290538,1,0,FALSE,,,
dig,201,691448,0.0-61.0-0.0,,,,,,,,,,,"[{""stimulus"":""run_exp/static/images/task_images/dig.jpg"",""time"":0.3249999135732651},{""stimulus"":""run_exp/static/images/task_images/land.jpg"",""time"":880.2900000009686},{""stimulus"":""run_exp/static/images/task_images/dig.jpg"",""time"":1753.275000024587}]",[],10,,,,,,,,,,,,,,
harvest,202,692457,0.0-61.0-1.0,,null,run_exp/static/images/task_images/gems/23.jpg,null,,,,,,6,,,10,,,,,23,0.24842348,0.260869565,,,,,,,
decision,203,693044,0.0-61.0-2.0,,584.155,run_exp/static/images/task_images/land.jpg,76,,,,,,6,,,10,,,,,,,,294749,1,1,TRUE,,,
travel,204,702472,0.0-62.0-0.0,,,,,,,,,,,"[{""stimulus"":""run_exp/static/images/task_images/rocket-01.jpg"",""time"":0.360000180080533},{""stimulus"":""run_exp/static/images/task_images/rocket-02.jpg"",""time"":1048.6450002063066},{""stimulus"":""run_exp/static/images/task_images/rocket-03.jpg"",""time"":2103.2500001601875},{""stimulus"":""run_exp/static/images/task_images/rocket-04.jpg"",""time"":3141.160000115633},{""stimulus"":""run_exp/static/images/task_images/rocket-05.jpg"",""time"":4196.895000059158},{""stimulus"":""run_exp/static/images/task_images/rocket-06.jpg"",""time"":5235.435000155121},{""stimulus"":""run_exp/static/images/task_images/rocket-07.jpg"",""time"":6278.170000063255},{""stimulus"":""run_exp/static/images/task_images/rocket-08.jpg"",""time"":7337.690000189468},{""stimulus"":""run_exp/static/images/task_images/rocket-09.jpg"",""time"":8370.535000227392}]",[],10,,,,,,,,,,,,,,
alien_welcome,205,707475,0.0-62.0-1.0,,null,run_exp/static/images/task_images/aliens/old_aliens/planet/alien_planet-22.jpg,null,,,,,,,,,,,,22,"62,53,52,19,25,68,70,73,33,79,22,48,9,29,1,43,80,69,20,5,23,8,71,44,40,45,38,16,75,3,18,55,56,2,78,64,34,77,76,7,42,58,63,60,61,32,59,49,4,17,67,14,36,27,11",,,,,,,,,,
land,206,707978,0.0-62.0-2.0,,null,run_exp/static/images/task_images/land.jpg,null,,,,,,105,,,11,,,,,,,,,,,,,,
dig,207,709983,0.0-62.0-3.0,,,,,,,,,,,"[{""stimulus"":""run_exp/static/images/task_images/dig.jpg"",""time"":0.43000001460313797},{""stimulus"":""run_exp/static/images/task_images/land.jpg"",""time"":668.6450000852346},{""stimulus"":""run_exp/static/images/task_images/dig.jpg"",""time"":1348.2350001577288}]",[],11,,,,,,,,,,,,,,
harvest,208,710985,0.0-62.0-4.0,,null,run_exp/static/images/task_images/gems/105.jpg,null,,,,,,24,,,11,,,,,105,0.22467245,0.228571429,,,,,,,
decision,209,712274,0.0-62.0-5.0,,1286.6,run_exp/static/images/task_images/land.jpg,65,,,,,,24,,,11,,,,,,,,313979,1,0,TRUE,,,
end_of_block_continue,210,721137,0.0-63.0-0.0,,null,run_exp/static/audio/clip_32_block_end.m4a,,,,,,null,,,,,,,,,,,,,,,,,,
alien_welcome,211,726151,0.0-64.0-0.0,,null,run_exp/static/images/task_images/aliens/old_aliens/planet/alien_planet-48.jpg,null,,,,,,,,,,,,48,"62,53,52,19,25,68,70,73,33,79,22,48,9,29,1,43,80,69,20,5,23,8,71,44,40,45,38,16,75,3,18,55,56,2,78,64,34,77,76,7,42,58,63,60,61,32,59,49,4,17,67,14,36,27,11",,,,,,,,,,
land,212,726663,0.0-64.0-1.0,,null,run_exp/static/images/task_images/land.jpg,null,,,,,,100,,,12,,,,,,,,,,,,,,
dig,213,728670,0.0-64.0-2.0,,,,,,,,,,,"[{""stimulus"":""run_exp/static/images/task_images/dig.jpg"",""time"":0.4149999003857374},{""stimulus"":""run_exp/static/images/task_images/land.jpg"",""time"":669.1099999006838},{""stimulus"":""run_exp/static/images/task_images/dig.jpg"",""time"":1336.2999998498708}]",[],12,,,,,,,,,,,,,,
harvest,214,729682,0.0-64.0-3.0,,null,run_exp/static/images/task_images/gems/100.jpg,null,,,,,,20,,,12,,,,,100,0.198443352,0.2,,,,,,,
decision,215,730509,0.0-64.0-4.0,,825.065,run_exp/static/images/task_images/land.jpg,65,,,,,,20,,,12,,,,,,,,9362,2,0,FALSE,,,
dig,216,732705,0.0-65.0-0.0,,,,,,,,,,,"[{""stimulus"":""run_exp/static/images/task_images/dig.jpg"",""time"":0.3799998667091131},{""stimulus"":""run_exp/static/images/task_images/land.jpg"",""time"":733.3100000396371},{""stimulus"":""run_exp/static/images/task_images/dig.jpg"",""time"":1462.0250000152737}]",[],12,,,,,,,,,,,,,,
harvest,217,733714,0.0-65.0-1.0,,null,run_exp/static/images/task_images/gems/20.jpg,null,,,,,,5,,,12,,,,,20,0.236097006,0.25,,,,,,,
decision,218,734089,0.0-65.0-2.0,,371.765,run_exp/static/images/task_images/land.jpg,76,,,,,,5,,,12,,,,,,,,12942,2,1,TRUE,,,
travel,219,743731,0.0-66.0-0.0,,,,,,,,,,,"[{""stimulus"":""run_exp/static/images/task_images/rocket-01.jpg"",""time"":0.3750000614672899},{""stimulus"":""run_exp/static/images/task_images/rocket-02.jpg"",""time"":1073.195000179112},{""stimulus"":""run_exp/static/images/task_images/rocket-03.jpg"",""time"":2142.585000023246},{""stimulus"":""run_exp/static/images/task_images/rocket-04.jpg"",""time"":3211.0250000841916},{""stimulus"":""run_exp/static/images/task_images/rocket-05.jpg"",""time"":4282.505000010133},{""stimulus"":""run_exp/static/images/task_images/rocket-06.jpg"",""time"":5358.115000184625},{""stimulus"":""run_exp/static/images/task_images/rocket-07.jpg"",""time"":6426.280000014231},{""stimulus"":""run_exp/static/images/task_images/rocket-08.jpg"",""time"":7499.105000169948},{""stimulus"":""run_exp/static/images/task_images/rocket-09.jpg"",""time"":8567.754999967292}]",[],12,,,,,,,,,,,,,,
alien_welcome,220,748747,0.0-66.0-1.0,,null,run_exp/static/images/task_images/aliens/old_aliens/planet/alien_planet-9.jpg,null,,,,,,,,,,,,9,"62,53,52,19,25,68,70,73,33,79,22,48,9,29,1,43,80,69,20,5,23,8,71,44,40,45,38,16,75,3,18,55,56,2,78,64,34,77,76,7,42,58,63,60,61,32,59,49,4,17,67,14,36,27,11",,,,,,,,,,
land,221,749262,0.0-66.0-2.0,,null,run_exp/static/images/task_images/land.jpg,null,,,,,,98,,,13,,,,,,,,,,,,,,
dig,222,751269,0.0-66.0-3.0,,,,,,,,,,,"[{""stimulus"":""run_exp/static/images/task_images/dig.jpg"",""time"":0.4350000526756048},{""stimulus"":""run_exp/static/images/task_images/land.jpg"",""time"":681.7550000268966},{""stimulus"":""run_exp/static/images/task_images/dig.jpg"",""time"":1349.8949999921024}]",[],13,,,,,,,,,,,,,,
harvest,223,752280,0.0-66.0-4.0,,null,run_exp/static/images/task_images/gems/98.jpg,null,,,,,,24,,,13,,,,,98,0.247837173,0.244897959,,,,,,,
decision,224,753468,0.0-66.0-5.0,,1186.115,run_exp/static/images/task_images/land.jpg,76,,,,,,24,,,13,,,,,,,,32322,2,0,TRUE,,,
travel,225,762291,0.0-67.0-0.0,,,,,,,,,,,"[{""stimulus"":""run_exp/static/images/task_images/rocket-01.jpg"",""time"":0.3500001039355993},{""stimulus"":""run_exp/static/images/task_images/rocket-02.jpg"",""time"":990.0050000287592},{""stimulus"":""run_exp/static/images/task_images/rocket-03.jpg"",""time"":1969.770000083372},{""stimulus"":""run_exp/static/images/task_images/rocket-04.jpg"",""time"":2939.195000100881},{""stimulus"":""run_exp/static/images/task_images/rocket-05.jpg"",""time"":3917.864999966696},{""stimulus"":""run_exp/static/images/task_images/rocket-06.jpg"",""time"":4911.164999939501},{""stimulus"":""run_exp/static/images/task_images/rocket-07.jpg"",""time"":5888.379999902099},{""stimulus"":""run_exp/static/images/task_images/rocket-08.jpg"",""time"":6869.02999994345},{""stimulus"":""run_exp/static/images/task_images/rocket-09.jpg"",""time"":7836.150000104681}]",[],13,,,,,,,,,,,,,,
alien_welcome,226,767299,0.0-67.0-1.0,,null,run_exp/static/images/task_images/aliens/old_aliens/planet/alien_planet-29.jpg,null,,,,,,,,,,,,29,"62,53,52,19,25,68,70,73,33,79,22,48,9,29,1,43,80,69,20,5,23,8,71,44,40,45,38,16,75,3,18,55,56,2,78,64,34,77,76,7,42,58,63,60,61,32,59,49,4,17,67,14,36,27,11",,,,,,,,,,
land,227,767809,0.0-67.0-2.0,,null,run_exp/static/images/task_images/land.jpg,null,,,,,,94,,,14,,,,,,,,,,,,,,
dig,228,769828,0.0-67.0-3.0,,,,,,,,,,,"[{""stimulus"":""run_exp/static/images/task_images/dig.jpg"",""time"":0.4149999003857374},{""stimulus"":""run_exp/static/images/task_images/land.jpg"",""time"":679.7950000036508},{""stimulus"":""run_exp/static/images/task_images/dig.jpg"",""time"":1345.750000094995}]",[],14,,,,,,,,,,,,,,
harvest,229,770835,0.0-67.0-4.0,,null,run_exp/static/images/task_images/gems/94.jpg,null,,,,,,13,,,14,,,,,94,0.14323429,0.138297872,,,,,,,
decision,230,771294,0.0-67.0-5.0,,455.6400001,run_exp/static/images/task_images/land.jpg,65,,,,,,13,,,14,,,,,,,,50147,2,0,FALSE,,,
dig,231,773856,0.0-68.0-0.0,,,,,,,,,,,"[{""stimulus"":""run_exp/static/images/task_images/dig.jpg"",""time"":0.3450000658631325},{""stimulus"":""run_exp/static/images/task_images/land.jpg"",""time"":856.5499999094754},{""stimulus"":""run_exp/static/images/task_images/dig.jpg"",""time"":1700.2349998801947}]",[],14,,,,,,,,,,,,,,
harvest,232,774863,0.0-68.0-1.0,,null,run_exp/static/images/task_images/gems/13.jpg,null,,,,,,3,,,14,,,,,13,0.217640384,0.230769231,,,,,,,
decision,233,775300,0.0-68.0-2.0,,434.3600001,run_exp/static/images/task_images/land.jpg,65,,,,,,3,,,14,,,,,,,,54153,2,1,FALSE,,,
dig,234,777888,0.0-69.0-0.0,,,,,,,,,,,"[{""stimulus"":""run_exp/static/images/task_images/dig.jpg"",""time"":0.43000001460313797},{""stimulus"":""run_exp/static/images/task_images/land.jpg"",""time"":857.9149998258799},{""stimulus"":""run_exp/static/images/task_images/dig.jpg"",""time"":1726.7199999187142}]",[],14,,,,,,,,,,,,,,
harvest,235,778904,0.0-69.0-1.0,,null,run_exp/static/images/task_images/gems/3.jpg,null,,,,,,1,,,14,,,,,3,0.192920571,0.333333333,,,,,,,
decision,236,779260,0.0-69.0-2.0,,353.1599999,run_exp/static/images/task_images/land.jpg,65,,,,,,1,,,14,,,,,,,,58113,2,2,FALSE,,,
dig,237,781917,0.0-70.0-0.0,,,,,,,,,,,"[{""stimulus"":""run_exp/static/images/task_images/dig.jpg"",""time"":0.3500001039355993},{""stimulus"":""run_exp/static/images/task_images/land.jpg"",""time"":892.0800001360476},{""stimulus"":""run_exp/static/images/task_images/dig.jpg"",""time"":1777.2349999286234}]",[],14,,,,,,,,,,,,,,
harvest,238,782923,0.0-70.0-1.0,,null,run_exp/static/images/task_images/gems/1.jpg,null,,,,,,0,,,14,,,,,1,0.154668062,0,,,,,,,
decision,239,783281,0.0-70.0-2.0,,355.065,run_exp/static/images/task_images/land.jpg,65,,,,,,0,,,14,,,,,,,,62134,2,3,FALSE,,,
dig,240,785937,0.0-71.0-0.0,,,,,,,,,,,"[{""stimulus"":""run_exp/static/images/task_images/dig.jpg"",""time"":0.3649999853223562},{""stimulus"":""run_exp/static/images/task_images/land.jpg"",""time"":895.4700001049787},{""stimulus"":""run_exp/static/images/task_images/dig.jpg"",""time"":1777.005000039935}]",[],14,,,,,,,,,,,,,,
harvest,241,786945,0.0-71.0-1.0,,null,run_exp/static/images/task_images/gems/0.jpg,null,,,,,,0,,,14,,,,,0,0.151193997,NaN,,,,,,,
decision,242,788463,0.0-71.0-2.0,,1515.045,run_exp/static/images/task_images/land.jpg,76,,,,,,0,,,14,,,,,,,,67316,2,4,TRUE,,,
travel,243,796963,0.0-72.0-0.0,,,,,,,,,,,"[{""stimulus"":""run_exp/static/images/task_images/rocket-01.jpg"",""time"":0.45499997213482857},{""stimulus"":""run_exp/static/images/task_images/rocket-02.jpg"",""time"":957.8449998516589},{""stimulus"":""run_exp/static/images/task_images/rocket-03.jpg"",""time"":1886.994999833405},{""stimulus"":""run_exp/static/images/task_images/rocket-04.jpg"",""time"":2829.029999906197},{""stimulus"":""run_exp/static/images/task_images/rocket-05.jpg"",""time"":3775.229999795556},{""stimulus"":""run_exp/static/images/task_images/rocket-06.jpg"",""time"":4725.1899999100715},{""stimulus"":""run_exp/static/images/task_images/rocket-07.jpg"",""time"":5658.159999875352},{""stimulus"":""run_exp/static/images/task_images/rocket-08.jpg"",""time"":6606.144999852404},{""stimulus"":""run_exp/static/images/task_images/rocket-09.jpg"",""time"":7540.054999990389}]",[],14,,,,,,,,,,,,,,
alien_welcome,244,801977,0.0-72.0-1.0,,null,run_exp/static/images/task_images/aliens/old_aliens/planet/alien_planet-1.jpg,null,,,,,,,,,,,,1,"62,53,52,19,25,68,70,73,33,79,22,48,9,29,1,43,80,69,20,5,23,8,71,44,40,45,38,16,75,3,18,55,56,2,78,64,34,77,76,7,42,58,63,60,61,32,59,49,4,17,67,14,36,27,11",,,,,,,,,,
land,245,802489,0.0-72.0-2.0,,null,run_exp/static/images/task_images/land.jpg,null,,,,,,106,,,15,,,,,,,,,,,,,,
dig,246,804508,0.0-72.0-3.0,,,,,,,,,,,"[{""stimulus"":""run_exp/static/images/task_images/dig.jpg"",""time"":0.4050000570714474},{""stimulus"":""run_exp/static/images/task_images/land.jpg"",""time"":679.2000001296401},{""stimulus"":""run_exp/static/images/task_images/dig.jpg"",""time"":1347.950000083074}]",[],15,,,,,,,,,,,,,,
harvest,247,805520,0.0-72.0-4.0,,null,run_exp/static/images/task_images/gems/106.jpg,null,,,,,,87,,,15,,,,,106,0.818788231,0.820754717,,,,,,,
decision,248,807535,0.0-72.0-5.0,,2013.155,run_exp/static/images/task_images/land.jpg,65,,,,,,87,,,15,,,,,,,,86388,2,0,FALSE,,,
dig,249,808531,0.0-73.0-0.0,,,,,,,,,,,"[{""stimulus"":""run_exp/static/images/task_images/dig.jpg"",""time"":0.3599999472498894},{""stimulus"":""run_exp/static/images/task_images/land.jpg"",""time"":337.19999995082617},{""stimulus"":""run_exp/static/images/task_images/dig.jpg"",""time"":660.755000077188}]",[],15,,,,,,,,,,,,,,
harvest,250,809540,0.0-73.0-1.0,,null,run_exp/static/images/task_images/gems/87.jpg,null,,,,,,63,,,15,,,,,87,0.723406775,0.724137931,,,,,,,
decision,251,810239,0.0-73.0-2.0,,695.8649999,run_exp/static/images/task_images/land.jpg,65,,,,,,63,,,15,,,,,,,,89092,2,1,FALSE,,,
dig,252,812550,0.0-74.0-0.0,,,,,,,,,,,"[{""stimulus"":""run_exp/static/images/task_images/dig.jpg"",""time"":0.1300000585615635},{""stimulus"":""run_exp/static/images/task_images/land.jpg"",""time"":771.6649998910725},{""stimulus"":""run_exp/static/images/task_images/dig.jpg"",""time"":1545.2250000089407}]",[],15,,,,,,,,,,,,,,
harvest,253,813563,0.0-74.0-1.0,,null,run_exp/static/images/task_images/gems/63.jpg,null,,,,,,50,,,15,,,,,63,0.796609777,0.793650794,,,,,,,
decision,254,813608,0.0-74.0-2.0,,41.86,run_exp/static/images/task_images/land.jpg,65,,,,,,50,,,15,,,,,,,,92461,2,2,FALSE,,,
dig,255,816586,0.0-75.0-0.0,,,,,,,,,,,"[{""stimulus"":""run_exp/static/images/task_images/dig.jpg"",""time"":0.3599999472498894},{""stimulus"":""run_exp/static/images/task_images/land.jpg"",""time"":1003.1250000465661},{""stimulus"":""run_exp/static/images/task_images/dig.jpg"",""time"":1976.9850000739098}]",[],15,,,,,,,,,,,,,,
harvest,256,817598,0.0-75.0-1.0,,null,run_exp/static/images/task_images/gems/50.jpg,null,,,,,,35,,,15,,,,,50,0.691058401,0.7,,,,,,,
decision,257,818108,0.0-75.0-2.0,,507.49,run_exp/static/images/task_images/land.jpg,76,,,,,,35,,,15,,,,,,,,96961,2,3,TRUE,,,
travel,258,827605,0.0-76.0-0.0,,,,,,,,,,,"[{""stimulus"":""run_exp/static/images/task_images/rocket-01.jpg"",""time"":0.3750000614672899},{""stimulus"":""run_exp/static/images/task_images/rocket-02.jpg"",""time"":1069.4349999539554},{""stimulus"":""run_exp/static/images/task_images/rocket-03.jpg"",""time"":2124.650000128895},{""stimulus"":""run_exp/static/images/task_images/rocket-04.jpg"",""time"":3164.6600000094622},{""stimulus"":""run_exp/static/images/task_images/rocket-05.jpg"",""time"":4218.020000029355},{""stimulus"":""run_exp/static/images/task_images/rocket-06.jpg"",""time"":5279.409999959171},{""stimulus"":""run_exp/static/images/task_images/rocket-07.jpg"",""time"":6326.185000129044},{""stimulus"":""run_exp/static/images/task_images/rocket-08.jpg"",""time"":7380.030000116676},{""stimulus"":""run_exp/static/images/task_images/rocket-09.jpg"",""time"":8434.45000005886}]",[],15,,,,,,,,,,,,,,
alien_welcome,259,832610,0.0-76.0-1.0,,null,run_exp/static/images/task_images/aliens/old_aliens/planet/alien_planet-43.jpg,null,,,,,,,,,,,,43,"62,53,52,19,25,68,70,73,33,79,22,48,9,29,1,43,80,69,20,5,23,8,71,44,40,45,38,16,75,3,18,55,56,2,78,64,34,77,76,7,42,58,63,60,61,32,59,49,4,17,67,14,36,27,11",,,,,,,,,,
land,260,833121,0.0-76.0-2.0,,null,run_exp/static/images/task_images/land.jpg,null,,,,,,99,,,16,,,,,,,,,,,,,,
dig,261,835126,0.0-76.0-3.0,,,,,,,,,,,"[{""stimulus"":""run_exp/static/images/task_images/dig.jpg"",""time"":0.2849998418241739},{""stimulus"":""run_exp/static/images/task_images/land.jpg"",""time"":682.6849998906255},{""stimulus"":""run_exp/static/images/task_images/dig.jpg"",""time"":1335.89500002563}]",[],16,,,,,,,,,,,,,,
harvest,262,836129,0.0-76.0-4.0,,null,run_exp/static/images/task_images/gems/99.jpg,null,,,,,,85,,,16,,,,,99,0.862965802,0.858585859,,,,,,,
decision,263,839136,0.0-76.0-5.0,,null,run_exp/static/images/task_images/land.jpg,null,,,,,,85,,,16,,,,,,,,117989,2,0,FALSE,,,
time_out,264,841152,0.0-77.0-0.0,,null,run_exp/static/images/task_images/time_out.jpg,null,,,,,,85,,,,,,,,,,,,,,,,,
decision,265,841520,0.0-77.0-1.0,,364.815,run_exp/static/images/task_images/land.jpg,65,,,,,,85,,,16,,,,,,,,120373,2,0,FALSE,,,
dig,266,844174,0.0-78.0-0.0,,,,,,,,,,,"[{""stimulus"":""run_exp/static/images/task_images/dig.jpg"",""time"":0.3450000658631325},{""stimulus"":""run_exp/static/images/task_images/land.jpg"",""time"":895.0250002089888},{""stimulus"":""run_exp/static/images/task_images/dig.jpg"",""time"":1762.010000180453}]",[],16,,,,,,,,,,,,,,
harvest,267,845186,0.0-78.0-1.0,,null,run_exp/static/images/task_images/gems/85.jpg,null,,,,,,67,,,16,,,,,85,0.792902432,0.788235294,,,,,,,
decision,268,845529,0.0-78.0-2.0,,340.7050001,run_exp/static/images/task_images/land.jpg,65,,,,,,67,,,16,,,,,,,,124382,2,1,FALSE,,,
dig,269,848212,0.0-79.0-0.0,,,,,,,,,,,"[{""stimulus"":""run_exp/static/images/task_images/dig.jpg"",""time"":0.4149999003857374},{""stimulus"":""run_exp/static/images/task_images/land.jpg"",""time"":897.7999999187887},{""stimulus"":""run_exp/static/images/task_images/dig.jpg"",""time"":1780.0249999854714}]",[],16,,,,,,,,,,,,,,
harvest,270,849224,0.0-79.0-1.0,,null,run_exp/static/images/task_images/gems/67.jpg,null,,,,,,50,,,16,,,,,67,0.75024722,0.746268657,,,,,,,
decision,271,849294,0.0-79.0-2.0,,67.85999984,run_exp/static/images/task_images/land.jpg,76,,,,,,50,,,16,,,,,,,,128147,2,2,TRUE,,,
travel,272,859240,0.0-80.0-0.0,,,,,,,,,,,"[{""stimulus"":""run_exp/static/images/task_images/rocket-01.jpg"",""time"":0.3549999091774225},{""stimulus"":""run_exp/static/images/task_images/rocket-02.jpg"",""time"":1114.8549998179078},{""stimulus"":""run_exp/static/images/task_images/rocket-03.jpg"",""time"":2218.9399998169392},{""stimulus"":""run_exp/static/images/task_images/rocket-04.jpg"",""time"":3311.519999988377},{""stimulus"":""run_exp/static/images/task_images/rocket-05.jpg"",""time"":4416.64499999024},{""stimulus"":""run_exp/static/images/task_images/rocket-06.jpg"",""time"":5516.394999809563},{""stimulus"":""run_exp/static/images/task_images/rocket-07.jpg"",""time"":6620.259999996051},{""stimulus"":""run_exp/static/images/task_images/rocket-08.jpg"",""time"":7723.679999820888},{""stimulus"":""run_exp/static/images/task_images/rocket-09.jpg"",""time"":8826.544999843463}]",[],16,,,,,,,,,,,,,,
alien_welcome,273,864244,0.0-80.0-1.0,,null,run_exp/static/images/task_images/aliens/old_aliens/planet/alien_planet-80.jpg,null,,,,,,,,,,,,80,"62,53,52,19,25,68,70,73,33,79,22,48,9,29,1,43,80,69,20,5,23,8,71,44,40,45,38,16,75,3,18,55,56,2,78,64,34,77,76,7,42,58,63,60,61,32,59,49,4,17,67,14,36,27,11",,,,,,,,,,
land,274,864746,0.0-80.0-2.0,,null,run_exp/static/images/task_images/land.jpg,null,,,,,,94,,,17,,,,,,,,,,,,,,
dig,275,866752,0.0-80.0-3.0,,,,,,,,,,,"[{""stimulus"":""run_exp/static/images/task_images/dig.jpg"",""time"":0.4100000951439142},{""stimulus"":""run_exp/static/images/task_images/land.jpg"",""time"":670.4700000118464},{""stimulus"":""run_exp/static/images/task_images/dig.jpg"",""time"":1337.1399999596179}]",[],17,,,,,,,,,,,,,,
harvest,276,867754,0.0-80.0-4.0,,null,run_exp/static/images/task_images/gems/94.jpg,null,,,,,,72,,,17,,,,,94,0.769165317,0.765957447,,,,,,,
decision,277,870771,0.0-80.0-5.0,,null,run_exp/static/images/task_images/land.jpg,null,,,,,,72,,,17,,,,,,,,149625,2,0,FALSE,,,
time_out,278,872792,0.0-81.0-0.0,,null,run_exp/static/images/task_images/time_out.jpg,null,,,,,,72,,,,,,,,,,,,,,,,,
decision,279,875570,0.0-81.0-1.0,,2775.17,run_exp/static/images/task_images/land.jpg,65,,,,,,72,,,17,,,,,,,,154423,2,0,FALSE,,,
dig,280,875818,0.0-82.0-0.0,,,,,,,,,,,"[{""stimulus"":""run_exp/static/images/task_images/dig.jpg"",""time"":0.3649999853223562},{""stimulus"":""run_exp/static/images/task_images/land.jpg"",""time"":76.05500007048249},{""stimulus"":""run_exp/static/images/task_images/dig.jpg"",""time"":161.3400001078844}]",[],17,,,,,,,,,,,,,,
harvest,281,876822,0.0-82.0-1.0,,null,run_exp/static/images/task_images/gems/72.jpg,null,,,,,,58,,,17,,,,,72,0.805974053,0.805555556,,,,,,,
decision,282,877444,0.0-82.0-2.0,,619.6050001,run_exp/static/images/task_images/land.jpg,65,,,,,,58,,,17,,,,,,,,156297,2,1,FALSE,,,
dig,283,879846,0.0-83.0-0.0,,,,,,,,,,,"[{""stimulus"":""run_exp/static/images/task_images/dig.jpg"",""time"":0.3700000233948231},{""stimulus"":""run_exp/static/images/task_images/land.jpg"",""time"":808.2599998451769},{""stimulus"":""run_exp/static/images/task_images/dig.jpg"",""time"":1590.0149999652058}]",[],17,,,,,,,,,,,,,,
harvest,284,880857,0.0-83.0-1.0,,null,run_exp/static/images/task_images/gems/58.jpg,null,,,,,,43,,,17,,,,,58,0.740935957,0.74137931,,,,,,,
decision,285,880906,0.0-83.0-2.0,,46.99499998,run_exp/static/images/task_images/land.jpg,76,,,,,,43,,,17,,,,,,,,159760,2,2,TRUE,,,
travel,286,890877,0.0-84.0-0.0,,,,,,,,,,,"[{""stimulus"":""run_exp/static/images/task_images/rocket-01.jpg"",""time"":0.4050000570714474},{""stimulus"":""run_exp/static/images/task_images/rocket-02.jpg"",""time"":1108.6099999956787},{""stimulus"":""run_exp/static/images/task_images/rocket-03.jpg"",""time"":2226.1550000403076},{""stimulus"":""run_exp/static/images/task_images/rocket-04.jpg"",""time"":3326.4000001363456},{""stimulus"":""run_exp/static/images/task_images/rocket-05.jpg"",""time"":4425.490000052378},{""stimulus"":""run_exp/static/images/task_images/rocket-06.jpg"",""time"":5528.950000181794},{""stimulus"":""run_exp/static/images/task_images/rocket-07.jpg"",""time"":6643.4100000187755},{""stimulus"":""run_exp/static/images/task_images/rocket-08.jpg"",""time"":7745.645000133663},{""stimulus"":""run_exp/static/images/task_images/rocket-09.jpg"",""time"":8846.08000004664}]",[],17,,,,,,,,,,,,,,
alien_welcome,287,895880,0.0-84.0-1.0,,null,run_exp/static/images/task_images/aliens/old_aliens/planet/alien_planet-69.jpg,null,,,,,,,,,,,,69,"62,53,52,19,25,68,70,73,33,79,22,48,9,29,1,43,80,69,20,5,23,8,71,44,40,45,38,16,75,3,18,55,56,2,78,64,34,77,76,7,42,58,63,60,61,32,59,49,4,17,67,14,36,27,11",,,,,,,,,,
land,288,896394,0.0-84.0-2.0,,null,run_exp/static/images/task_images/land.jpg,null,,,,,,101,,,18,,,,,,,,,,,,,,
dig,289,898405,0.0-84.0-3.0,,,,,,,,,,,"[{""stimulus"":""run_exp/static/images/task_images/dig.jpg"",""time"":0.4100000951439142},{""stimulus"":""run_exp/static/images/task_images/land.jpg"",""time"":677.2950000595301},{""stimulus"":""run_exp/static/images/task_images/dig.jpg"",""time"":1343.8600001391023}]",[],18,,,,,,,,,,,,,,
harvest,290,899417,0.0-84.0-4.0,,null,run_exp/static/images/task_images/gems/101.jpg,null,,,,,,90,,,18,,,,,101,0.891805801,0.891089109,,,,,,,
decision,291,899927,0.0-84.0-5.0,,508.1,run_exp/static/images/task_images/land.jpg,65,,,,,,90,,,18,,,,,,,,178781,2,0,FALSE,,,
dig,292,902440,0.0-85.0-0.0,,,,,,,,,,,"[{""stimulus"":""run_exp/static/images/task_images/dig.jpg"",""time"":0.3550001420080662},{""stimulus"":""run_exp/static/images/task_images/land.jpg"",""time"":844.1099999472499},{""stimulus"":""run_exp/static/images/task_images/dig.jpg"",""time"":1667.6449999213219}]",[],18,,,,,,,,,,,,,,
harvest,293,903450,0.0-85.0-1.0,,null,run_exp/static/images/task_images/gems/90.jpg,null,,,,,,76,,,18,,,,,90,0.842422584,0.844444444,,,,,,,
decision,294,903987,0.0-85.0-2.0,,534.3149998,run_exp/static/images/task_images/land.jpg,65,,,,,,76,,,18,,,,,,,,182840,2,1,FALSE,,,
dig,295,906464,0.0-86.0-0.0,,,,,,,,,,,"[{""stimulus"":""run_exp/static/images/task_images/dig.jpg"",""time"":0.3899999428540468},{""stimulus"":""run_exp/static/images/task_images/land.jpg"",""time"":824.8750001657754},{""stimulus"":""run_exp/static/images/task_images/dig.jpg"",""time"":1658.754999982193}]",[],18,,,,,,,,,,,,,,
harvest,296,907471,0.0-86.0-1.0,,null,run_exp/static/images/task_images/gems/76.jpg,null,,,,,,66,,,18,,,,,76,0.867601913,0.868421053,,,,,,,
decision,297,908279,0.0-86.0-2.0,,804.9899999,run_exp/static/images/task_images/land.jpg,76,,,,,,66,,,18,,,,,,,,187132,2,2,TRUE,,,
travel,298,917482,0.0-87.0-0.0,,,,,,,,,,,"[{""stimulus"":""run_exp/static/images/task_images/rocket-01.jpg"",""time"":0.4249999765306711},{""stimulus"":""run_exp/static/images/task_images/rocket-02.jpg"",""time"":1036.9500000961125},{""stimulus"":""run_exp/static/images/task_images/rocket-03.jpg"",""time"":2045.949999941513},{""stimulus"":""run_exp/static/images/task_images/rocket-04.jpg"",""time"":3070.1699999626726},{""stimulus"":""run_exp/static/images/task_images/rocket-05.jpg"",""time"":4095.160000026226},{""stimulus"":""run_exp/static/images/task_images/rocket-06.jpg"",""time"":5119.87500009127},{""stimulus"":""run_exp/static/images/task_images/rocket-07.jpg"",""time"":6133.840000024065},{""stimulus"":""run_exp/static/images/task_images/rocket-08.jpg"",""time"":7154.875000007451},{""stimulus"":""run_exp/static/images/task_images/rocket-09.jpg"",""time"":8179.1550000198185}]",[],18,,,,,,,,,,,,,,
alien_welcome,299,922488,0.0-87.0-1.0,,null,run_exp/static/images/task_images/aliens/old_aliens/planet/alien_planet-20.jpg,null,,,,,,,,,,,,20,"62,53,52,19,25,68,70,73,33,79,22,48,9,29,1,43,80,69,20,5,23,8,71,44,40,45,38,16,75,3,18,55,56,2,78,64,34,77,76,7,42,58,63,60,61,32,59,49,4,17,67,14,36,27,11",,,,,,,,,,
land,300,922998,0.0-87.0-2.0,,null,run_exp/static/images/task_images/land.jpg,null,,,,,,101,,,19,,,,,,,,,,,,,,
dig,301,925016,0.0-87.0-3.0,,,,,,,,,,,"[{""stimulus"":""run_exp/static/images/task_images/dig.jpg"",""time"":0.4950000438839197},{""stimulus"":""run_exp/static/images/task_images/land.jpg"",""time"":677.8600001707673},{""stimulus"":""run_exp/static/images/task_images/dig.jpg"",""time"":1347.319999942556}]",[],19,,,,,,,,,,,,,,
harvest,302,926026,0.0-87.0-4.0,,null,run_exp/static/images/task_images/gems/101.jpg,null,,,,,,76,,,19,,,,,101,0.756117426,0.752475248,,,,,,,
decision,303,926282,0.0-87.0-5.0,,253.755,run_exp/static/images/task_images/land.jpg,65,,,,,,76,,,19,,,,,,,,205135,2,0,FALSE,,,
dig,304,929048,0.0-88.0-0.0,,,,,,,,,,,"[{""stimulus"":""run_exp/static/images/task_images/dig.jpg"",""time"":0.3649999853223562},{""stimulus"":""run_exp/static/images/task_images/land.jpg"",""time"":922.7699998300523},{""stimulus"":""run_exp/static/images/task_images/dig.jpg"",""time"":1840.4649998992682}]",[],19,,,,,,,,,,,,,,
harvest,305,930061,0.0-88.0-1.0,,null,run_exp/static/images/task_images/gems/76.jpg,null,,,,,,64,,,19,,,,,76,0.838195686,0.842105263,,,,,,,
decision,306,930369,0.0-88.0-2.0,,306.63,run_exp/static/images/task_images/land.jpg,65,,,,,,64,,,19,,,,,,,,209222,2,1,FALSE,,,
dig,307,933078,0.0-89.0-0.0,,,,,,,,,,,"[{""stimulus"":""run_exp/static/images/task_images/dig.jpg"",""time"":0.1400001347064972},{""stimulus"":""run_exp/static/images/task_images/land.jpg"",""time"":902.1900000516325},{""stimulus"":""run_exp/static/images/task_images/dig.jpg"",""time"":1805.1599999889731}]",[],19,,,,,,,,,,,,,,
harvest,308,934092,0.0-89.0-1.0,,null,run_exp/static/images/task_images/gems/64.jpg,null,,,,,,55,,,19,,,,,64,0.866064041,0.859375,,,,,,,
decision,309,934550,0.0-89.0-2.0,,455.2,run_exp/static/images/task_images/land.jpg,65,,,,,,55,,,19,,,,,,,,213403,2,2,FALSE,,,
dig,310,937109,0.0-90.0-0.0,,,,,,,,,,,"[{""stimulus"":""run_exp/static/images/task_images/dig.jpg"",""time"":0.3649999853223562},{""stimulus"":""run_exp/static/images/task_images/land.jpg"",""time"":859.3200000468642},{""stimulus"":""run_exp/static/images/task_images/dig.jpg"",""time"":1712.3650000430644}]",[],19,,,,,,,,,,,,,,
harvest,311,938119,0.0-90.0-1.0,,null,run_exp/static/images/task_images/gems/55.jpg,null,,,,,,39,,,19,,,,,55,0.717478208,0.709090909,,,,,,,
decision,312,938395,0.0-90.0-2.0,,273.52,run_exp/static/images/task_images/land.jpg,76,,,,,,39,,,19,,,,,,,,217249,2,3,TRUE,,,
travel,313,948137,0.0-91.0-0.0,,,,,,,,,,,"[{""stimulus"":""run_exp/static/images/task_images/rocket-01.jpg"",""time"":0.3500001039355993},{""stimulus"":""run_exp/static/images/task_images/rocket-02.jpg"",""time"":1095.2850000467151},{""stimulus"":""run_exp/static/images/task_images/rocket-03.jpg"",""time"":2168.055000016466},{""stimulus"":""run_exp/static/images/task_images/rocket-04.jpg"",""time"":3243.4350000694394},{""stimulus"":""run_exp/static/images/task_images/rocket-05.jpg"",""time"":4333.224999951199},{""stimulus"":""run_exp/static/images/task_images/rocket-06.jpg"",""time"":5404.855000087991},{""stimulus"":""run_exp/static/images/task_images/rocket-07.jpg"",""time"":6488.46000013873},{""stimulus"":""run_exp/static/images/task_images/rocket-08.jpg"",""time"":7573.474999982864},{""stimulus"":""run_exp/static/images/task_images/rocket-09.jpg"",""time"":8645.520000020042}]",[],19,,,,,,,,,,,,,,
alien_welcome,314,953142,0.0-91.0-1.0,,null,run_exp/static/images/task_images/aliens/old_aliens/planet/alien_planet-5.jpg,null,,,,,,,,,,,,5,"62,53,52,19,25,68,70,73,33,79,22,48,9,29,1,43,80,69,20,5,23,8,71,44,40,45,38,16,75,3,18,55,56,2,78,64,34,77,76,7,42,58,63,60,61,32,59,49,4,17,67,14,36,27,11",,,,,,,,,,
land,315,953652,0.0-91.0-2.0,,null,run_exp/static/images/task_images/land.jpg,null,,,,,,103,,,20,,,,,,,,,,,,,,
dig,316,955668,0.0-91.0-3.0,,,,,,,,,,,"[{""stimulus"":""run_exp/static/images/task_images/dig.jpg"",""time"":0.4100000951439142},{""stimulus"":""run_exp/static/images/task_images/land.jpg"",""time"":676.6900001093745},{""stimulus"":""run_exp/static/images/task_images/dig.jpg"",""time"":1345.9149999544024}]",[],20,,,,,,,,,,,,,,
harvest,317,956680,0.0-91.0-4.0,,null,run_exp/static/images/task_images/gems/103.jpg,null,,,,,,54,,,20,,,,,103,0.526414085,0.524271845,,,,,,,
decision,318,957238,0.0-91.0-5.0,,555.4599999,run_exp/static/images/task_images/land.jpg,65,,,,,,54,,,20,,,,,,,,236091,2,0,FALSE,,,
dig,319,959704,0.0-92.0-0.0,,,,,,,,,,,"[{""stimulus"":""run_exp/static/images/task_images/dig.jpg"",""time"":0.3550001420080662},{""stimulus"":""run_exp/static/images/task_images/land.jpg"",""time"":830.4149999748915},{""stimulus"":""run_exp/static/images/task_images/dig.jpg"",""time"":1637.5550001394004}]",[],20,,,,,,,,,,,,,,
harvest,320,960718,0.0-92.0-1.0,,null,run_exp/static/images/task_images/gems/54.jpg,null,,,,,,25,,,20,,,,,54,0.464612894,0.462962963,,,,,,,
decision,321,961440,0.0-92.0-2.0,,717.6049999,run_exp/static/images/task_images/land.jpg,76,,,,,,25,,,20,,,,,,,,240293,2,1,TRUE,,,
travel,322,970744,0.0-93.0-0.0,,,,,,,,,,,"[{""stimulus"":""run_exp/static/images/task_images/rocket-01.jpg"",""time"":0.3599999472498894},{""stimulus"":""run_exp/static/images/task_images/rocket-02.jpg"",""time"":1038.040000014007},{""stimulus"":""run_exp/static/images/task_images/rocket-03.jpg"",""time"":2076.030000112951},{""stimulus"":""run_exp/static/images/task_images/rocket-04.jpg"",""time"":3105.130000039935},{""stimulus"":""run_exp/static/images/task_images/rocket-05.jpg"",""time"":4130.855000112206},{""stimulus"":""run_exp/static/images/task_images/rocket-06.jpg"",""time"":5158.139999955893},{""stimulus"":""run_exp/static/images/task_images/rocket-07.jpg"",""time"":6191.270000068471},{""stimulus"":""run_exp/static/images/task_images/rocket-08.jpg"",""time"":7230.31000001356},{""stimulus"":""run_exp/static/images/task_images/rocket-09.jpg"",""time"":8255.349999992177}]",[],20,,,,,,,,,,,,,,
alien_welcome,323,975757,0.0-93.0-1.0,,null,run_exp/static/images/task_images/aliens/old_aliens/planet/alien_planet-23.jpg,null,,,,,,,,,,,,23,"62,53,52,19,25,68,70,73,33,79,22,48,9,29,1,43,80,69,20,5,23,8,71,44,40,45,38,16,75,3,18,55,56,2,78,64,34,77,76,7,42,58,63,60,61,32,59,49,4,17,67,14,36,27,11",,,,,,,,,,
land,324,976259,0.0-93.0-2.0,,null,run_exp/static/images/task_images/land.jpg,null,,,,,,102,,,21,,,,,,,,,,,,,,
dig,325,978279,0.0-93.0-3.0,,,,,,,,,,,"[{""stimulus"":""run_exp/static/images/task_images/dig.jpg"",""time"":0.4100000951439142},{""stimulus"":""run_exp/static/images/task_images/land.jpg"",""time"":670.685000019148},{""stimulus"":""run_exp/static/images/task_images/dig.jpg"",""time"":1351.4100001193583}]",[],21,,,,,,,,,,,,,,
harvest,326,979287,0.0-93.0-4.0,,null,run_exp/static/images/task_images/gems/102.jpg,null,,,,,,80,,,21,,,,,102,0.781589456,0.784313725,,,,,,,
decision,327,979728,0.0-93.0-5.0,,437.565,run_exp/static/images/task_images/land.jpg,65,,,,,,80,,,21,,,,,,,,258582,2,0,FALSE,,,
dig,328,982301,0.0-94.0-0.0,,,,,,,,,,,"[{""stimulus"":""run_exp/static/images/task_images/dig.jpg"",""time"":0.38499990478157997},{""stimulus"":""run_exp/static/images/task_images/land.jpg"",""time"":857.3400001041591},{""stimulus"":""run_exp/static/images/task_images/dig.jpg"",""time"":1724.5549999643117}]",[],21,,,,,,,,,,,,,,
harvest,329,983309,0.0-94.0-1.0,,null,run_exp/static/images/task_images/gems/80.jpg,null,,,,,,64,,,21,,,,,80,0.805116805,0.8,,,,,,,
decision,330,984003,0.0-94.0-2.0,,691.78,run_exp/static/images/task_images/land.jpg,76,,,,,,64,,,21,,,,,,,,262857,2,1,TRUE,,,
travel,331,993322,0.0-95.0-0.0,,,,,,,,,,,"[{""stimulus"":""run_exp/static/images/task_images/rocket-01.jpg"",""time"":0.37499982863664627},{""stimulus"":""run_exp/static/images/task_images/rocket-02.jpg"",""time"":1039.9849999230355},{""stimulus"":""run_exp/static/images/task_images/rocket-03.jpg"",""time"":2078.1349998433143},{""stimulus"":""run_exp/static/images/task_images/rocket-04.jpg"",""time"":3114.335000049323},{""stimulus"":""run_exp/static/images/task_images/rocket-05.jpg"",""time"":4152.035000035539},{""stimulus"":""run_exp/static/images/task_images/rocket-06.jpg"",""time"":5175.649999873713},{""stimulus"":""run_exp/static/images/task_images/rocket-07.jpg"",""time"":6219.559999881312},{""stimulus"":""run_exp/static/images/task_images/rocket-08.jpg"",""time"":7244.139999849722},{""stimulus"":""run_exp/static/images/task_images/rocket-09.jpg"",""time"":8283.534999936819}]",[],21,,,,,,,,,,,,,,
alien_welcome,332,998339,0.0-95.0-1.0,,null,run_exp/static/images/task_images/aliens/old_aliens/planet/alien_planet-8.jpg,null,,,,,,,,,,,,8,"62,53,52,19,25,68,70,73,33,79,22,48,9,29,1,43,80,69,20,5,23,8,71,44,40,45,38,16,75,3,18,55,56,2,78,64,34,77,76,7,42,58,63,60,61,32,59,49,4,17,67,14,36,27,11",,,,,,,,,,
land,333,998848,0.0-95.0-2.0,,null,run_exp/static/images/task_images/land.jpg,null,,,,,,97,,,22,,,,,,,,,,,,,,
dig,334,1000853,0.0-95.0-3.0,,,,,,,,,,,"[{""stimulus"":""run_exp/static/images/task_images/dig.jpg"",""time"":0.43000001460313797},{""stimulus"":""run_exp/static/images/task_images/land.jpg"",""time"":677.8400000184774},{""stimulus"":""run_exp/static/images/task_images/dig.jpg"",""time"":1350.2599999774247}]",[],22,,,,,,,,,,,,,,
harvest,335,1001863,0.0-95.0-4.0,,null,run_exp/static/images/task_images/gems/97.jpg,null,,,,,,78,,,22,,,,,97,0.80703862,0.804123711,,,,,,,
decision,336,1002563,0.0-95.0-5.0,,697.375,run_exp/static/images/task_images/land.jpg,65,,,,,,78,,,22,,,,,,,,281416,2,0,FALSE,,,
dig,337,1004882,0.0-96.0-0.0,,,,,,,,,,,"[{""stimulus"":""run_exp/static/images/task_images/dig.jpg"",""time"":0.3599999472498894},{""stimulus"":""run_exp/static/images/task_images/land.jpg"",""time"":782.219999935478},{""stimulus"":""run_exp/static/images/task_images/dig.jpg"",""time"":1547.6699999999255}]",[],22,,,,,,,,,,,,,,
harvest,338,1005891,0.0-96.0-1.0,,null,run_exp/static/images/task_images/gems/78.jpg,null,,,,,,62,,,22,,,,,78,0.792872735,0.794871795,,,,,,,
decision,339,1006338,0.0-96.0-2.0,,445.1599999,run_exp/static/images/task_images/land.jpg,76,,,,,,62,,,22,,,,,,,,285192,2,1,TRUE,,,
travel,340,1015901,0.0-97.0-0.0,,,,,,,,,,,"[{""stimulus"":""run_exp/static/images/task_images/rocket-01.jpg"",""time"":0.3599999472498894},{""stimulus"":""run_exp/static/images/task_images/rocket-02.jpg"",""time"":1076.6399998683482},{""stimulus"":""run_exp/static/images/task_images/rocket-03.jpg"",""time"":2133.6399998981506},{""stimulus"":""run_exp/static/images/task_images/rocket-04.jpg"",""time"":3189.29999996908},{""stimulus"":""run_exp/static/images/task_images/rocket-05.jpg"",""time"":4247.410000069067},{""stimulus"":""run_exp/static/images/task_images/rocket-06.jpg"",""time"":5321.504999883473},{""stimulus"":""run_exp/static/images/task_images/rocket-07.jpg"",""time"":6373.660000041127},{""stimulus"":""run_exp/static/images/task_images/rocket-08.jpg"",""time"":7430.075000040233},{""stimulus"":""run_exp/static/images/task_images/rocket-09.jpg"",""time"":8500.160000054166}]",[],22,,,,,,,,,,,,,,
alien_welcome,341,1020908,0.0-97.0-1.0,,null,run_exp/static/images/task_images/aliens/old_aliens/planet/alien_planet-71.jpg,null,,,,,,,,,,,,71,"62,53,52,19,25,68,70,73,33,79,22,48,9,29,1,43,80,69,20,5,23,8,71,44,40,45,38,16,75,3,18,55,56,2,78,64,34,77,76,7,42,58,63,60,61,32,59,49,4,17,67,14,36,27,11",,,,,,,,,,
land,342,1021421,0.0-97.0-2.0,,null,run_exp/static/images/task_images/land.jpg,null,,,,,,101,,,23,,,,,,,,,,,,,,
dig,343,1023437,0.0-97.0-3.0,,,,,,,,,,,"[{""stimulus"":""run_exp/static/images/task_images/dig.jpg"",""time"":0.4350000526756048},{""stimulus"":""run_exp/static/images/task_images/land.jpg"",""time"":680.8299999684095},{""stimulus"":""run_exp/static/images/task_images/dig.jpg"",""time"":1345.9000000730157}]",[],23,,,,,,,,,,,,,,
harvest,344,1024442,0.0-97.0-4.0,,null,run_exp/static/images/task_images/gems/101.jpg,null,,,,,,21,,,23,,,,,101,0.203172298,0.207920792,,,,,,,
decision,345,1025837,0.0-97.0-5.0,,1391.815,run_exp/static/images/task_images/land.jpg,76,,,,,,21,,,23,,,,,,,,304690,2,0,TRUE,,,
end_of_block_continue,346,1034709,0.0-98.0-0.0,,null,run_exp/static/audio/clip_32_block_end.m4a,,,,,,null,,,,,,,,,,,,,,,,,,
alien_welcome,347,1039736,0.0-99.0-0.0,,null,run_exp/static/images/task_images/aliens/old_aliens/planet/alien_planet-44.jpg,null,,,,,,,,,,,,44,"62,53,52,19,25,68,70,73,33,79,22,48,9,29,1,43,80,69,20,5,23,8,71,44,40,45,38,16,75,3,18,55,56,2,78,64,34,77,76,7,42,58,63,60,61,32,59,49,4,17,67,14,36,27,11",,,,,,,,,,
land,348,1040250,0.0-99.0-1.0,,null,run_exp/static/images/task_images/land.jpg,null,,,,,,100,,,24,,,,,,,,,,,,,,
dig,349,1042255,0.0-99.0-2.0,,,,,,,,,,,"[{""stimulus"":""run_exp/static/images/task_images/dig.jpg"",""time"":0.43000001460313797},{""stimulus"":""run_exp/static/images/task_images/land.jpg"",""time"":680.9099998790771},{""stimulus"":""run_exp/static/images/task_images/dig.jpg"",""time"":1347.4850000347942}]",[],24,,,,,,,,,,,,,,
harvest,350,1043263,0.0-99.0-3.0,,null,run_exp/static/images/task_images/gems/100.jpg,null,,,,,,48,,,24,,,,,100,0.477697099,0.48,,,,,,,
decision,351,1044363,0.0-99.0-4.0,,1097.78,run_exp/static/images/task_images/land.jpg,65,,,,,,48,,,24,,,,,,,,9643,3,0,FALSE,,,
dig,352,1046283,0.0-100.0-0.0,,,,,,,,,,,"[{""stimulus"":""run_exp/static/images/task_images/dig.jpg"",""time"":0.3599999472498894},{""stimulus"":""run_exp/static/images/task_images/land.jpg"",""time"":645.930000115186},{""stimulus"":""run_exp/static/images/task_images/dig.jpg"",""time"":1281.0549999121577}]",[],24,,,,,,,,,,,,,,
harvest,353,1047291,0.0-100.0-1.0,,null,run_exp/static/images/task_images/gems/48.jpg,null,,,,,,23,,,24,,,,,48,0.47750861,0.479166667,,,,,,,
decision,354,1049220,0.0-100.0-2.0,,1926.255,run_exp/static/images/task_images/land.jpg,76,,,,,,23,,,24,,,,,,,,14500,3,1,TRUE,,,
travel,355,1057314,0.0-101.0-0.0,,,,,,,,,,,"[{""stimulus"":""run_exp/static/images/task_images/rocket-01.jpg"",""time"":0.2749999985098839},{""stimulus"":""run_exp/static/images/task_images/rocket-02.jpg"",""time"":899.1300000343472},{""stimulus"":""run_exp/static/images/task_images/rocket-03.jpg"",""time"":1801.8800001591444},{""stimulus"":""run_exp/static/images/task_images/rocket-04.jpg"",""time"":2706.630000146106},{""stimulus"":""run_exp/static/images/task_images/rocket-05.jpg"",""time"":3604.720000177622},{""stimulus"":""run_exp/static/images/task_images/rocket-06.jpg"",""time"":4493.290000129491},{""stimulus"":""run_exp/static/images/task_images/rocket-07.jpg"",""time"":5397.900000214577},{""stimulus"":""run_exp/static/images/task_images/rocket-08.jpg"",""time"":6282.185000134632},{""stimulus"":""run_exp/static/images/task_images/rocket-09.jpg"",""time"":7184.685000218451}]",[],24,,,,,,,,,,,,,,
alien_welcome,356,1062329,0.0-101.0-1.0,,null,run_exp/static/images/task_images/aliens/old_aliens/planet/alien_planet-40.jpg,null,,,,,,,,,,,,40,"62,53,52,19,25,68,70,73,33,79,22,48,9,29,1,43,80,69,20,5,23,8,71,44,40,45,38,16,75,3,18,55,56,2,78,64,34,77,76,7,42,58,63,60,61,32,59,49,4,17,67,14,36,27,11",,,,,,,,,,
land,357,1062841,0.0-101.0-2.0,,null,run_exp/static/images/task_images/land.jpg,null,,,,,,108,,,25,,,,,,,,,,,,,,
dig,358,1064858,0.0-101.0-3.0,,,,,,,,,,,"[{""stimulus"":""run_exp/static/images/task_images/dig.jpg"",""time"":0.4100000951439142},{""stimulus"":""run_exp/static/images/task_images/land.jpg"",""time"":677.3900000844151},{""stimulus"":""run_exp/static/images/task_images/dig.jpg"",""time"":1347.0099999103695}]",[],25,,,,,,,,,,,,,,
harvest,359,1065865,0.0-101.0-4.0,,null,run_exp/static/images/task_images/gems/108.jpg,null,,,,,,95,,,25,,,,,108,0.87526765,0.87962963,,,,,,,
decision,360,1066352,0.0-101.0-5.0,,484.2050001,run_exp/static/images/task_images/land.jpg,65,,,,,,95,,,25,,,,,,,,31632,3,0,FALSE,,,
dig,361,1068886,0.0-102.0-0.0,,,,,,,,,,,"[{""stimulus"":""run_exp/static/images/task_images/dig.jpg"",""time"":0.3649999853223562},{""stimulus"":""run_exp/static/images/task_images/land.jpg"",""time"":852.2399999201298},{""stimulus"":""run_exp/static/images/task_images/dig.jpg"",""time"":1686.0749998595566}]",[],25,,,,,,,,,,,,,,
harvest,362,1069896,0.0-102.0-1.0,,null,run_exp/static/images/task_images/gems/95.jpg,null,,,,,,76,,,25,,,,,95,0.796199974,0.8,,,,,,,
decision,363,1072061,0.0-102.0-2.0,,2157.34,run_exp/static/images/task_images/land.jpg,65,,,,,,76,,,25,,,,,,,,37341,3,1,FALSE,,,
dig,364,1072906,0.0-103.0-0.0,,,,,,,,,,,"[{""stimulus"":""run_exp/static/images/task_images/dig.jpg"",""time"":0.08999998681247234},{""stimulus"":""run_exp/static/images/task_images/land.jpg"",""time"":284.8699998576194},{""stimulus"":""run_exp/static/images/task_images/dig.jpg"",""time"":564.0000000130385}]",[],25,,,,,,,,,,,,,,
harvest,365,1073915,0.0-103.0-1.0,,null,run_exp/static/images/task_images/gems/76.jpg,null,,,,,,66,,,25,,,,,76,0.869684237,0.868421053,,,,,,,
decision,366,1074922,0.0-103.0-2.0,,1004.045,run_exp/static/images/task_images/land.jpg,65,,,,,,66,,,25,,,,,,,,40202,3,2,FALSE,,,
dig,367,1076937,0.0-104.0-0.0,,,,,,,,,,,"[{""stimulus"":""run_exp/static/images/task_images/dig.jpg"",""time"":0.3450000658631325},{""stimulus"":""run_exp/static/images/task_images/land.jpg"",""time"":673.3849998563528},{""stimulus"":""run_exp/static/images/task_images/dig.jpg"",""time"":1339.2650000751019}]",[],25,,,,,,,,,,,,,,
harvest,368,1077949,0.0-104.0-1.0,,null,run_exp/static/images/task_images/gems/66.jpg,null,,,,,,53,,,25,,,,,66,0.808274637,0.803030303,,,,,,,
decision,369,1078322,0.0-104.0-2.0,,369.9100001,run_exp/static/images/task_images/land.jpg,76,,,,,,53,,,25,,,,,,,,43602,3,3,TRUE,,,
travel,370,1087964,0.0-105.0-0.0,,,,,,,,,,,"[{""stimulus"":""run_exp/static/images/task_images/rocket-01.jpg"",""time"":0.3400000277906656},{""stimulus"":""run_exp/static/images/task_images/rocket-02.jpg"",""time"":1072.3650001455098},{""stimulus"":""run_exp/static/images/task_images/rocket-03.jpg"",""time"":2157.0300001185387},{""stimulus"":""run_exp/static/images/task_images/rocket-04.jpg"",""time"":3225.4900000989437},{""stimulus"":""run_exp/static/images/task_images/rocket-05.jpg"",""time"":4295.505000045523},{""stimulus"":""run_exp/static/images/task_images/rocket-06.jpg"",""time"":5366.130000213161},{""stimulus"":""run_exp/static/images/task_images/rocket-07.jpg"",""time"":6436.25000002794},{""stimulus"":""run_exp/static/images/task_images/rocket-08.jpg"",""time"":7494.570000097156},{""stimulus"":""run_exp/static/images/task_images/rocket-09.jpg"",""time"":8564.015000127256}]",[],25,,,,,,,,,,,,,,
alien_welcome,371,1092968,0.0-105.0-1.0,,null,run_exp/static/images/task_images/aliens/old_aliens/planet/alien_planet-45.jpg,null,,,,,,,,,,,,45,"62,53,52,19,25,68,70,73,33,79,22,48,9,29,1,43,80,69,20,5,23,8,71,44,40,45,38,16,75,3,18,55,56,2,78,64,34,77,76,7,42,58,63,60,61,32,59,49,4,17,67,14,36,27,11",,,,,,,,,,
land,372,1093481,0.0-105.0-2.0,,null,run_exp/static/images/task_images/land.jpg,null,,,,,,95,,,26,,,,,,,,,,,,,,
dig,373,1095497,0.0-105.0-3.0,,,,,,,,,,,"[{""stimulus"":""run_exp/static/images/task_images/dig.jpg"",""time"":0.4499999340623617},{""stimulus"":""run_exp/static/images/task_images/land.jpg"",""time"":679.909999947995},{""stimulus"":""run_exp/static/images/task_images/dig.jpg"",""time"":1347.3650000523776}]",[],26,,,,,,,,,,,,,,
harvest,374,1096510,0.0-105.0-4.0,,null,run_exp/static/images/task_images/gems/95.jpg,null,,,,,,49,,,26,,,,,95,0.516435765,0.515789474,,,,,,,
decision,375,1096856,0.0-105.0-5.0,,342.8100001,run_exp/static/images/task_images/land.jpg,65,,,,,,49,,,26,,,,,,,,62136,3,0,FALSE,,,
dig,376,1099531,0.0-106.0-0.0,,,,,,,,,,,"[{""stimulus"":""run_exp/static/images/task_images/dig.jpg"",""time"":0.3750000614672899},{""stimulus"":""run_exp/static/images/task_images/land.jpg"",""time"":900.4999999888241},{""stimulus"":""run_exp/static/images/task_images/dig.jpg"",""time"":1782.4349999427795}]",[],26,,,,,,,,,,,,,,
harvest,377,1100544,0.0-106.0-1.0,,null,run_exp/static/images/task_images/gems/49.jpg,null,,,,,,26,,,26,,,,,49,0.52482852,0.530612245,,,,,,,
decision,378,1100754,0.0-106.0-2.0,,207.375,run_exp/static/images/task_images/land.jpg,76,,,,,,26,,,26,,,,,,,,66034,3,1,TRUE,,,
