trial_type,trial_index,time_elapsed,internal_node_id,success,rt,stimulus,key_press,prompt,subject_id,age,gender,button_pressed,next_reward,animation_sequence,responses,planet,curr_prac_trial,n_prac_rounds,alien,aliens,reward_received,decay_rate_actual,decay_rate_exp,time_in_block,block_num,prt,last_trial_on_planet,button_html,bonus,num_failures
pavlovia,0,4,0.0-0.0,,,,,,,,,,,,,,,,,,,,,,,,,,,
fullscreen,1,9312,0.0-1.0,TRUE,,,,,,,,,,,,,,,,,,,,,,,,,,
instruc_welcome,2,19268,0.0-2.0,,null,run_exp/static/audio/clip_1_welcome.m4a,null,"<p>Howdy! In this experiment, you’ll be an explorer traveling through space to collect space treasure.</p><p>Your mission is to collect as much treasure as possible.</p><br><br><p><img src='run_exp/static/images/task_images/opening_img-01.jpg' height='300' width='auto'></p>",k0krLkRde9AKASU_a5Ke5UddwllDBGZ_MLRP_ahFriaDwZ75I5aS,9.05,female,,,,,,,,,,,,,,,,,,,
audio-keyboard-response,3,35847,0.0-3.0,,null,run_exp/static/audio/clip_2_move.m4a,null,,,,,,,,,,,,,,,,,,,,,,,
welcome_dec,4,37052,0.0-4.0,,1203.07,"<p>Howdy! In this experiment, you’ll be an explorer traveling through space to collect space treasure.</p><p>Your mission is to collect as much treasure as possible.</p><br><br><p><img src='run_exp/static/images/task_images/opening_img-01.jpg' height='300' width='auto'></p>",,,,,,1,,,,,,,,,,,,,,,,,,
html-keyboard-response,5,38736,0.0-5.0,,1682.525,"<p>Howdy! In this experiment, you’ll be an explorer traveling through space to collect space treasure.</p><p>Your mission is to collect as much treasure as possible.</p><br><br><p><img src='run_exp/static/images/task_images/opening_img-01.jpg' height='300' width='auto'></p><button class=""jspsych-html-btn-unchosen""><img src=""run_exp/static/images/task_images/planet-01.jpg"" height=""50""></button><button class=""jspsych-html-btn-chosen""><img src=""run_exp/static/images/task_images/planet-02.jpg"" height=""50""></button><p><b>[press the space bar to lock in your answer]<b><br></p>",32,,,,,,,,,,,,,,,,,,,,,,,
instruc_goal,6,48780,0.0-6.0-0.0,,null,run_exp/static/audio/clip_3_goal.m4a,null,"<p> As a space explorer, you’ll visit different planets to dig for space treasure, these pink gems.</p> <p> The more treasure you dig up, the more bonus money you’ll win! </p><br><br><p><img src='run_exp/static/images/task_images/pink_gem.jpg' height='300' width='auto'></p>",,,,,,,,,,,,,,,,,,,,,,
instruc_goal,7,54081,0.0-6.0-1.0,,5298.855,"<p> As a space explorer, you’ll visit different planets to dig for space treasure, these pink gems.</p> <p> The more treasure you dig up, the more bonus money you’ll win! </p><br><br><p><img src='run_exp/static/images/task_images/pink_gem.jpg' height='300' width='auto'></p>",,,,,,1,,,,,,,,,,,,,,,,,,
html-keyboard-response,8,55153,0.0-6.0-2.0,,1070.345,"<p> As a space explorer, you’ll visit different planets to dig for space treasure, these pink gems.</p> <p> The more treasure you dig up, the more bonus money you’ll win! </p><br><br><p><img src='run_exp/static/images/task_images/pink_gem.jpg' height='300' width='auto'></p><button class=""jspsych-html-btn-unchosen""><img src=""run_exp/static/images/task_images/planet-01.jpg"" height=""50""></button><button class=""jspsych-html-btn-chosen""><img src=""run_exp/static/images/task_images/planet-02.jpg"" height=""50""></button><p><b>[press the space bar to lock in your answer]<b><br></p>",32,,,,,,,,,,,,,,,,,,,,,,,
instruc_dig,9,71182,0.0-7.0-0.0,,null,run_exp/static/audio/clip_4_dig.m4a,null,,,,,,100,,,,,,,,,,,,,,,,,
instruc_dig_try,10,71884,0.0-7.0-1.0,,700.36,"<p> When you’ve arrived at a new planet, you will dig once. </p> <p>Then, you get to decide if you want to stay on the planet and dig again or travel to a new planet and dig there.</p> <p> To stay and dig, press the letter <strong>‘A’</strong> on your keyboard. Try pressing it now! </p><p><img src='run_exp/static/images/task_images/land.jpg'  height='700' width='auto'></p>",65,"<p> When you’ve arrived at a new planet, you will dig once. </p> <p>Then, you get to decide if you want to stay on the planet and dig again or travel to a new planet and dig there.</p> <p> To stay and dig, press the letter <strong>‘A’</strong> on your keyboard. Try pressing it now! </p><p><img src='run_exp/static/images/task_images/land.jpg'  height='700' width='auto'></p>",,,,,100,,,,,,,,,,,,,,,,,
dig_prac,11,73893,0.0-7.0-2.0,,,,,,,,,,,"[{""stimulus"":""run_exp/static/images/task_images/dig.jpg"",""time"":0.2400000230409205},{""stimulus"":""run_exp/static/images/task_images/land.jpg"",""time"":673.3900000108406},{""stimulus"":""run_exp/static/images/task_images/dig.jpg"",""time"":1338.4599999990314}]",[],,,,,,,,,,,,,,,
instruc_travel,12,110174,0.0-7.0-3.0,,null,run_exp/static/audio/clip_5_travel.m4a,null,"<p>Every time you dig up gems, there are less gems on the planet, so the more you dig on a planet the fewer gems you’ll get with each dig.</p><p>When gems are running low, you may want to travel to a new planet. </p> <p>  Planets are very far apart in this galaxy, so it will take some time to travel between them. </p> <br><p>There are lots and lots of planets for you to visit, so you won’t be able to return to any planets you’ve seen before. </p><br><p>To leave this planet and travel to a new one, press the letter <strong>‘L’</strong> on your keyboard. Try pressing it now! </p><p><img src='run_exp/static/images/task_images/rocket-01.jpg'  height='600' width='auto'></p>",,,,,,,,,,,,,,,,,,,,,,
instruc_travel_try,13,110817,0.0-7.0-4.0,,641.315,"<p>Every time you dig up gems, there are less gems on the planet, so the more you dig on a planet the fewer gems you’ll get with each dig.</p><p>When gems are running low, you may want to travel to a new planet. </p> <p>  Planets are very far apart in this galaxy, so it will take some time to travel between them. </p> <br><p>There are lots and lots of planets for you to visit, so you won’t be able to return to any planets you’ve seen before. </p><br><p>To leave this planet and travel to a new one, press the letter <strong>‘L’</strong> on your keyboard. Try pressing it now! </p><p><img src='run_exp/static/images/task_images/rocket-01.jpg'  height='600' width='auto'></p>",76,"<p>Every time you dig up gems, there are less gems on the planet, so the more you dig on a planet the fewer gems you’ll get with each dig.</p><p>When gems are running low, you may want to travel to a new planet. </p> <p>  Planets are very far apart in this galaxy, so it will take some time to travel between them. </p> <br><p>There are lots and lots of planets for you to visit, so you won’t be able to return to any planets you’ve seen before. </p><br><p>To leave this planet and travel to a new one, press the letter <strong>‘L’</strong> on your keyboard. Try pressing it now! </p><p><img src='run_exp/static/images/task_images/rocket-01.jpg'  height='600' width='auto'></p>",,,,,,,,,,,,,,,,,,,,,,
travel_prac,14,120820,0.0-7.0-5.0,,,,,,,,,,,"[{""stimulus"":""run_exp/static/images/task_images/rocket-01.jpg"",""time"":0.1949999714270234},{""stimulus"":""run_exp/static/images/task_images/rocket-02.jpg"",""time"":1115.0899999774992},{""stimulus"":""run_exp/static/images/task_images/rocket-03.jpg"",""time"":2228.174999996554},{""stimulus"":""run_exp/static/images/task_images/rocket-04.jpg"",""time"":3336.654999991879},{""stimulus"":""run_exp/static/images/task_images/rocket-05.jpg"",""time"":4445.5549999838695},{""stimulus"":""run_exp/static/images/task_images/rocket-06.jpg"",""time"":5556.3700000057},{""stimulus"":""run_exp/static/images/task_images/rocket-07.jpg"",""time"":6670.4850000096485},{""stimulus"":""run_exp/static/images/task_images/rocket-08.jpg"",""time"":7779.264999961015},{""stimulus"":""run_exp/static/images/task_images/rocket-09.jpg"",""time"":8893.749999988358}]",[],0,,,,,,,,,,,,,,
instruc_alien_greet,15,148000,0.0-7.0-6.0,,null,run_exp/static/audio/clip_6_alien.m4a,null,"<p>When you arrive at a new planet, the alien who owns the treasure mine on that planet will greet you!</p><p>The better an alien takes care of their mine the easier it is to dig for gems. Some aliens take better care of their mine than others. So, you won’t get exactly the same amount of gems on each planet.</p><p>What the alien looks like does not tell you anything about how many gems there are on the planet.</p><br><p><img src=""run_exp/static/images/task_images/aliens/instructions_aliens/planet/alien_planet-1.jpg""  height=""600"" width=""auto""></p>",,,,,,,,,,,,,,,,,,,,,,
instruc_alien_greet,16,151453,0.0-7.0-7.0,,3450.95,"<p>When you arrive at a new planet, the alien who owns the treasure mine on that planet will greet you!</p><p>The better an alien takes care of their mine the easier it is to dig for gems. Some aliens take better care of their mine than others. So, you won’t get exactly the same amount of gems on each planet.</p><p>What the alien looks like does not tell you anything about how many gems there are on the planet.</p><br><p><img src=""run_exp/static/images/task_images/aliens/instructions_aliens/planet/alien_planet-1.jpg""  height=""600"" width=""auto""></p>",,,,,,1,,,,,,,,,,,,,,,,,,
html-keyboard-response,17,151968,0.0-7.0-8.0,,514.45,"<p>When you arrive at a new planet, the alien who owns the treasure mine on that planet will greet you!</p><p>The better an alien takes care of their mine the easier it is to dig for gems. Some aliens take better care of their mine than others. So, you won’t get exactly the same amount of gems on each planet.</p><p>What the alien looks like does not tell you anything about how many gems there are on the planet.</p><br><p><img src=""run_exp/static/images/task_images/aliens/instructions_aliens/planet/alien_planet-1.jpg""  height=""600"" width=""auto""></p><button class=""jspsych-html-btn-unchosen""><img src=""run_exp/static/images/task_images/planet-01.jpg"" height=""50""></button><button class=""jspsych-html-btn-chosen""><img src=""run_exp/static/images/task_images/planet-02.jpg"" height=""50""></button><p><b>[press the space bar to lock in your answer]<b><br></p>",32,,,,,,,,,,,,,,,,,,,,,,,
time_out,18,163047,0.0-8.0-0.0,,null,run_exp/static/audio/clip_7_timeout.m4a,null,"<p>If you don't make your choice fast enough, you’ll have to wait a few seconds before you can make another one.</p><p>You can’t dig for more gems or travel to new planets. You just have to sit and wait.</p><br><p><img src='run_exp/static/images/task_images/time_out.jpg'  height='600' width='auto'></p>",,,,,,,,,,,,,,,,,,,,,,
time_out,19,165924,0.0-8.0-1.0,,2875.59,"<p>If you don't make your choice fast enough, you’ll have to wait a few seconds before you can make another one.</p><p>You can’t dig for more gems or travel to new planets. You just have to sit and wait.</p><br><p><img src='run_exp/static/images/task_images/time_out.jpg'  height='600' width='auto'></p>",,,,,,1,,,,,,,,,,,,,,,,,,
html-keyboard-response,20,166169,0.0-8.0-2.0,,244.405,"<p>If you don't make your choice fast enough, you’ll have to wait a few seconds before you can make another one.</p><p>You can’t dig for more gems or travel to new planets. You just have to sit and wait.</p><br><p><img src='run_exp/static/images/task_images/time_out.jpg'  height='600' width='auto'></p><button class=""jspsych-html-btn-unchosen""><img src=""run_exp/static/images/task_images/planet-01.jpg"" height=""50""></button><button class=""jspsych-html-btn-chosen""><img src=""run_exp/static/images/task_images/planet-02.jpg"" height=""50""></button><p><b>[press the space bar to lock in your answer]<b><br></p>",32,,,,,,,,,,,,,,,,,,,,,,,
instruc_break,21,181809,0.0-9.0-0.0,,null,run_exp/static/audio/clip_8_break.m4a,null,"<p> After digging and traveling for a while, you’ll be able to take a break at home base. </p><p>The game will last 20 minutes no matter what.</p><p>You will visit home base every 5 minutes, so, you will visit home base three times during the game.</p><br><p><img src='run_exp/static/images/task_images/home_base.jpg' height='600' width='auto'></p>",,,,,,,,,,,,,,,,,,,,,,
instruc_break,22,183422,0.0-9.0-1.0,,1605.925,"<p> After digging and traveling for a while, you’ll be able to take a break at home base. </p><p>The game will last 20 minutes no matter what.</p><p>You will visit home base every 5 minutes, so, you will visit home base three times during the game.</p><br><p><img src='run_exp/static/images/task_images/home_base.jpg' height='600' width='auto'></p>",,,,,,1,,,,,,,,,,,,,,,,,,
html-keyboard-response,23,183713,0.0-9.0-2.0,,290.15,"<p> After digging and traveling for a while, you’ll be able to take a break at home base. </p><p>The game will last 20 minutes no matter what.</p><p>You will visit home base every 5 minutes, so, you will visit home base three times during the game.</p><br><p><img src='run_exp/static/images/task_images/home_base.jpg' height='600' width='auto'></p><button class=""jspsych-html-btn-unchosen""><img src=""run_exp/static/images/task_images/planet-01.jpg"" height=""50""></button><button class=""jspsych-html-btn-chosen""><img src=""run_exp/static/images/task_images/planet-02.jpg"" height=""50""></button><p><b>[press the space bar to lock in your answer]<b><br></p>",32,,,,,,,,,,,,,,,,,,,,,,,
instruc_prac_game,24,195050,0.0-10.0-0.0,,null,run_exp/static/audio/clip_9_practice.m4a,null,"<p> Are you ready to play a practice game? </p> <p>In this practice game, you'll be digging up barrels of gems. But, in the real game, you'll be digging up the gems themselves. </p>",,,,,,,,,,,,,,,,,,,,,,
html-button-response,25,197170,0.0-10.0-1.0,,2118.69,"<p> Are you ready to play a practice game? </p> <p>In this practice game, you'll be digging up barrels of gems. But, in the real game, you'll be digging up the gems themselves. </p>",,,,,,0,,,,,,,,,,,,,,,,,,
alien_welcome_prac,26,202173,0.0-11.0-0.0,,null,run_exp/static/images/task_images/aliens/practice_aliens/planet/alien_planet-5.jpg,null,,,,,,,,,,,,,,,,,,,,,,,
land_prac,27,202675,0.0-11.0-1.0,,null,run_exp/static/images/task_images/land.jpg,null,,,,,,107,,,0,,,,,,,,,,,,,,
dig_prac,28,204681,0.0-11.0-2.0,,,,,,,,,,,"[{""stimulus"":""run_exp/static/images/task_images/dig.jpg"",""time"":0.20000000949949026},{""stimulus"":""run_exp/static/images/task_images/land.jpg"",""time"":671.0350000066683},{""stimulus"":""run_exp/static/images/task_images/dig.jpg"",""time"":1340.1850000373088}]",[],,,,,,,,,,,,,,,
harvest_prac,29,205683,0.0-11.0-3.0,,null,run_exp/static/images/task_images/barrel_text.jpg,null,,,,,,,,,,,,,,,,,,,,,,,
decision_prac,30,208688,0.0-11.0-4.0,,null,run_exp/static/images/task_images/land.jpg,null,,,,,,,,,,1,,,,,,,,,,,,,
time_out,31,210696,0.0-12.0-0.0,,null,run_exp/static/images/task_images/time_out.jpg,null,,,,,,,,,,,,,,,,,,,,,,,
decision_prac,32,211448,0.0-12.0-1.0,,751.03,run_exp/static/images/task_images/land.jpg,65,,,,,,,,,,2,,,,,,,,,,,,,
dig_prac,33,213456,0.0-13.0-0.0,,,,,,,,,,,"[{""stimulus"":""run_exp/static/images/task_images/dig.jpg"",""time"":0.13500003842636943},{""stimulus"":""run_exp/static/images/task_images/land.jpg"",""time"":673.1200000504032},{""stimulus"":""run_exp/static/images/task_images/dig.jpg"",""time"":1339.9150000186637}]",[],,,,,,,,,,,,,,,
harvest_prac,34,214462,0.0-13.0-1.0,,null,run_exp/static/images/task_images/barrel_text.jpg,null,,,,,,,,,,,,,,,,,,,,,,,
decision_prac,35,214835,0.0-13.0-2.0,,372.045,run_exp/static/images/task_images/land.jpg,65,,,,,,,,,,3,,,,,,,,,,,,,
dig_prac,36,216840,0.0-14.0-0.0,,,,,,,,,,,"[{""stimulus"":""run_exp/static/images/task_images/dig.jpg"",""time"":0.13500003842636943},{""stimulus"":""run_exp/static/images/task_images/land.jpg"",""time"":670.8649999927729},{""stimulus"":""run_exp/static/images/task_images/dig.jpg"",""time"":1339.910000038799}]",[],,,,,,,,,,,,,,,
harvest_prac,37,217846,0.0-14.0-1.0,,null,run_exp/static/images/task_images/barrel_text.jpg,null,,,,,,,,,,,,,,,,,,,,,,,
decision_prac,38,218871,0.0-14.0-2.0,,1023.79,run_exp/static/images/task_images/land.jpg,76,,,,,,,,,,4,,,,,,,,,,,,,
travel,39,227852,0.0-15.0-0.0,,,,,,,,,,,"[{""stimulus"":""run_exp/static/images/task_images/rocket-01.jpg"",""time"":0.15999999595806003},{""stimulus"":""run_exp/static/images/task_images/rocket-02.jpg"",""time"":1002.7099999715574},{""stimulus"":""run_exp/static/images/task_images/rocket-03.jpg"",""time"":1998.3299999730662},{""stimulus"":""run_exp/static/images/task_images/rocket-04.jpg"",""time"":2994.650000007823},{""stimulus"":""run_exp/static/images/task_images/rocket-05.jpg"",""time"":3994.094999972731},{""stimulus"":""run_exp/static/images/task_images/rocket-06.jpg"",""time"":4987.135000003036},{""stimulus"":""run_exp/static/images/task_images/rocket-07.jpg"",""time"":5985.564999980852},{""stimulus"":""run_exp/static/images/task_images/rocket-08.jpg"",""time"":6979.809999989811},{""stimulus"":""run_exp/static/images/task_images/rocket-09.jpg"",""time"":7980.21000000881}]",[],0,,,,,,,,,,,,,,
alien_welcome_prac,40,232858,0.0-15.0-1.0,,null,run_exp/static/images/task_images/aliens/practice_aliens/planet/alien_planet-4.jpg,null,,,,,,,,,,,,,,,,,,,,,,,
land_prac,41,233363,0.0-15.0-2.0,,null,run_exp/static/images/task_images/land.jpg,null,,,,,,96,,,0,,,,,,,,,,,,,,
dig_prac,42,235369,0.0-15.0-3.0,,,,,,,,,,,"[{""stimulus"":""run_exp/static/images/task_images/dig.jpg"",""time"":0.23499998496845365},{""stimulus"":""run_exp/static/images/task_images/land.jpg"",""time"":672.0249999780208},{""stimulus"":""run_exp/static/images/task_images/dig.jpg"",""time"":1339.734999986831}]",[],,,,,,,,,,,,,,,
harvest_prac,43,236370,0.0-15.0-4.0,,null,run_exp/static/images/task_images/barrel_text.jpg,null,,,,,,,,,,,,,,,,,,,,,,,
decision_prac,44,236907,0.0-15.0-5.0,,535.41,run_exp/static/images/task_images/land.jpg,65,,,,,,,,,,,1,,,,,,,,,,,,
quiz_instruc,45,240387,0.0-16.0-0.0,,3477.5,run_exp/static/audio/clip_10_quiz.m4a,,,,,,0,,,,,,,,,,,,,,,,,,
instruc_repeat,46,283170,0.0-16.0-1.0,,null,"<p> Are you ready to play a practice game? </p> <p>In this practice game, you'll be digging up barrels of gems. But, in the real game, you'll be digging up the gems themselves. </p>",null,"<p>In this game, your goal is to collect as many gems as you can. That’s how you will win bonus money. </p> <p>The entire game will last 20 minutes no matter how many gems you collect or how many planets you visit. </p><p>To stay on a planet and dig again, press the letter A on your keyboard. To leave for a new planet, press the letter L.</p><p>The more you dig on a planet, the fewer gems you’ll get with each dig which is why you might consider leaving for a new planet. </p><p>When you arrive at a new planet, you’ll be greeted by an alien. What the alien looks like does not tell you anything about how much treasure is on the planet. </p>",,,,,,,,,,,,,,,,,,,,,,
instruc_repeat_continue,47,289389,0.0-16.0-2.0,,6217.2,"<p> Are you ready to play a practice game? </p> <p>In this practice game, you'll be digging up barrels of gems. But, in the real game, you'll be digging up the gems themselves. </p>",,,,,,0,,,,,,,,,,,,,,,,,,
quiz_q_1_ask,48,294350,0.0-16.0-3.0,,4959.615,run_exp/static/audio/clip_11_q1_ask.m4a,,,,,,2,,,,,,,,,,,,,,,,,,
quiz_q_1_fb_correct,49,298159,0.0-17.0-0.0,,null,run_exp/static/audio/clip_12_q1_corrrect.m4a,null,<p>That’s correct. You win extra money by collecting more gems.</p>,,,,,,,,,,,,,,,,,,,,,,
quiz_q_2_ask,50,302202,0.0-17.0-1.0,,4041.035,run_exp/static/audio/clip_14_q2_ask.m4a,,,,,,1,,,,,,,,,,,,,,,,,,
quiz_q_2_fb_correct,51,306170,0.0-18.0-0.0,,null,run_exp/static/audio/clip_15_q2_correct.m4a,null,<p>That’s correct. The experiment is 20 minutes no matter what.</p>,,,,,,,,,,,,,,,,,,,,,,
quiz_q_3_ask,52,308871,0.0-18.0-1.0,,2699.565,run_exp/static/audio/clip_17_q3_ask.m4a,,,,,,1,,,,,,,,,,,,,,,,,,
quiz_q_3_fb_correct,53,312811,0.0-19.0-0.0,,null,run_exp/static/audio/clip_18_q3_correct.m4a,null,<p> That’s correct. You press the letter L to travel to a new planet.</p>,,,,,,,,,,,,,,,,,,,,,,
quiz_q_4_ask,54,315055,0.0-19.0-1.0,,2242.85,run_exp/static/audio/clip_20_q4_ask.m4a,,,,,,0,,,,,,,,,,,,,,,,,,
quiz_q_4_fb_correct,55,320358,0.0-20.0-0.0,,null,run_exp/static/audio/clip_21_q4_correct.m4a,null,<p> That’s correct. The more you dig on a planet the fewer gems you’ll get with each dig. </p>,,,,,,,,,,,,,,,,,,,,,,
quiz_q_5_ask,56,322579,0.0-20.0-1.0,,2219.89,run_exp/static/audio/clip_23_q5_ask.m4a,,,,,,1,,,,,,,,,,,,,,,,,,
quiz_q_5_fb_correct,57,327557,0.0-21.0-0.0,,null,run_exp/static/audio/clip_24_q5_correct.m4a,null,<p> That’s correct. The alien tells you nothing about how much treasure is on the planet.</p>,,,,,,,,,,,,,,,,,,,,,,
quiz_correct,58,330993,0.0-22.0-0.0,,null,run_exp/static/audio/clip_26_correct_quiz.m4a,null,,,,,,,,,,,,,,,,,,,,,,,
quiz_correct_continue,59,332136,0.0-22.0-1.0,,1142.32,<p>Good job! You're now ready to move on to the real game!</p>,,,,,,0,,,,,,,,,,,,,,,,,,
audio-keyboard-response,60,342231,0.0-22.0-2.0,,null,run_exp/static/audio/clip_28_real_game.m4a,null,,,,,,,,,,,,,,,,,,,,,,,
instruc_begin_exp_contine,61,344139,0.0-22.0-3.0,,1907.265,"<p>Now that you know how  to dig for space treasure and travel to new planets,you can start exploring! </p><p>Do you want to go over the instructions again or get started with the real game?</p>",,,,,,1,,,,,,1,,,,,,,,,,,,
alien_welcome,62,349144,0.0-23.0-0.0,,null,run_exp/static/images/task_images/aliens/old_aliens/planet/alien_planet-2.jpg,null,,,,,,,,,,,,2,"2,14,8,46,11,24,48,19,35,17,6,22,25,62,21,60,7,47,64,28,10,4,74,67,43,50,68,45,70,39,71,58,55,40,52,76",,,,,,,,,,
land,63,349650,0.0-23.0-1.0,,null,run_exp/static/images/task_images/land.jpg,null,,,,,,101,,,1,,,,,,,,,,,,,,
dig,64,351654,0.0-23.0-2.0,,,,,,,,,,,"[{""stimulus"":""run_exp/static/images/task_images/dig.jpg"",""time"":0.2300000051036477},{""stimulus"":""run_exp/static/images/task_images/land.jpg"",""time"":673.1850000214763},{""stimulus"":""run_exp/static/images/task_images/dig.jpg"",""time"":1339.399999997113}]",[],1,,,,,,,,,,,,,,
harvest,65,352657,0.0-23.0-3.0,,null,run_exp/static/images/task_images/gems/101.jpg,null,,,,,,26,,,1,,,,,101,0.258290583,0.257425743,,,,,,,
decision,66,353562,0.0-23.0-4.0,,904.025,run_exp/static/images/task_images/land.jpg,65,,,,,,26,,,1,,,,,,,,9422,1,0,FALSE,,,
dig,67,355663,0.0-24.0-0.0,,,,,,,,,,,"[{""stimulus"":""run_exp/static/images/task_images/dig.jpg"",""time"":0.13999996008351445},{""stimulus"":""run_exp/static/images/task_images/land.jpg"",""time"":699.5999999926426},{""stimulus"":""run_exp/static/images/task_images/dig.jpg"",""time"":1401.9850000040606}]",[],1,,,,,,,,,,,,,,
harvest,68,356668,0.0-24.0-1.0,,null,run_exp/static/images/task_images/gems/26.jpg,null,,,,,,4,,,1,,,,,26,0.162615301,0.153846154,,,,,,,
decision,69,357561,0.0-24.0-2.0,,891.68,run_exp/static/images/task_images/land.jpg,65,,,,,,4,,,1,,,,,,,,13420,1,1,FALSE,,,
dig,70,359675,0.0-25.0-0.0,,,,,,,,,,,"[{""stimulus"":""run_exp/static/images/task_images/dig.jpg"",""time"":0.12499996228143573},{""stimulus"":""run_exp/static/images/task_images/land.jpg"",""time"":706.3949999865144},{""stimulus"":""run_exp/static/images/task_images/dig.jpg"",""time"":1409.3749999883585}]",[],1,,,,,,,,,,,,,,
harvest,71,360679,0.0-25.0-1.0,,null,run_exp/static/images/task_images/gems/4.jpg,null,,,,,,1,,,1,,,,,4,0.164371294,0.25,,,,,,,
decision,72,361330,0.0-25.0-2.0,,649.7,run_exp/static/images/task_images/land.jpg,76,,,,,,1,,,1,,,,,,,,17189,1,2,TRUE,,,
travel,73,370676,0.0-26.0-0.0,,,,,,,,,,,"[{""stimulus"":""run_exp/static/images/task_images/rocket-01.jpg"",""time"":0.14500005636364222},{""stimulus"":""run_exp/static/images/task_images/rocket-02.jpg"",""time"":1041.6800000239164},{""stimulus"":""run_exp/static/images/task_images/rocket-03.jpg"",""time"":2078.810000035446},{""stimulus"":""run_exp/static/images/task_images/rocket-04.jpg"",""time"":3119.490000011865},{""stimulus"":""run_exp/static/images/task_images/rocket-05.jpg"",""time"":4153.345000057016},{""stimulus"":""run_exp/static/images/task_images/rocket-06.jpg"",""time"":5192.310000013094},{""stimulus"":""run_exp/static/images/task_images/rocket-07.jpg"",""time"":6229.1600000462495},{""stimulus"":""run_exp/static/images/task_images/rocket-08.jpg"",""time"":7266.775000025518},{""stimulus"":""run_exp/static/images/task_images/rocket-09.jpg"",""time"":8309.595000057016}]",[],1,,,,,,,,,,,,,,
alien_welcome,74,375679,0.0-26.0-1.0,,null,run_exp/static/images/task_images/aliens/old_aliens/planet/alien_planet-14.jpg,null,,,,,,,,,,,,14,"2,14,8,46,11,24,48,19,35,17,6,22,25,62,21,60,7,47,64,28,10,4,74,67,43,50,68,45,70,39,71,58,55,40,52,76",,,,,,,,,,
land,75,376184,0.0-26.0-2.0,,null,run_exp/static/images/task_images/land.jpg,null,,,,,,102,,,2,,,,,,,,,,,,,,
dig,76,378191,0.0-26.0-3.0,,,,,,,,,,,"[{""stimulus"":""run_exp/static/images/task_images/dig.jpg"",""time"":0.28499995823949575},{""stimulus"":""run_exp/static/images/task_images/land.jpg"",""time"":672.1399999805726},{""stimulus"":""run_exp/static/images/task_images/dig.jpg"",""time"":1339.609999966342}]",[],2,,,,,,,,,,,,,,
harvest,77,379197,0.0-26.0-4.0,,null,run_exp/static/images/task_images/gems/102.jpg,null,,,,,,26,,,2,,,,,102,0.253614537,0.254901961,,,,,,,
decision,78,379927,0.0-26.0-5.0,,728.86,run_exp/static/images/task_images/land.jpg,65,,,,,,26,,,2,,,,,,,,35786,1,0,FALSE,,,
dig,79,382203,0.0-27.0-0.0,,,,,,,,,,,"[{""stimulus"":""run_exp/static/images/task_images/dig.jpg"",""time"":0.13500003842636943},{""stimulus"":""run_exp/static/images/task_images/land.jpg"",""time"":758.0700000398792},{""stimulus"":""run_exp/static/images/task_images/dig.jpg"",""time"":1516.5649999980815}]",[],2,,,,,,,,,,,,,,
harvest,80,383208,0.0-27.0-1.0,,null,run_exp/static/images/task_images/gems/26.jpg,null,,,,,,5,,,2,,,,,26,0.184039169,0.192307692,,,,,,,
decision,81,383858,0.0-27.0-2.0,,648.13,run_exp/static/images/task_images/land.jpg,65,,,,,,5,,,2,,,,,,,,39717,1,1,FALSE,,,
dig,82,386212,0.0-28.0-0.0,,,,,,,,,,,"[{""stimulus"":""run_exp/static/images/task_images/dig.jpg"",""time"":0.13499998021870852},{""stimulus"":""run_exp/static/images/task_images/land.jpg"",""time"":787.8849999979138},{""stimulus"":""run_exp/static/images/task_images/dig.jpg"",""time"":1571.5799999888986}]",[],2,,,,,,,,,,,,,,
harvest,83,387214,0.0-28.0-1.0,,null,run_exp/static/images/task_images/gems/5.jpg,null,,,,,,1,,,2,,,,,5,0.12351064,0.2,,,,,,,
decision,84,388411,0.0-28.0-2.0,,1196.5,run_exp/static/images/task_images/land.jpg,76,,,,,,1,,,2,,,,,,,,44270,1,2,TRUE,,,
travel,85,397221,0.0-29.0-0.0,,,,,,,,,,,"[{""stimulus"":""run_exp/static/images/task_images/rocket-01.jpg"",""time"":0.14000001829117537},{""stimulus"":""run_exp/static/images/task_images/rocket-02.jpg"",""time"":983.219999994617},{""stimulus"":""run_exp/static/images/task_images/rocket-03.jpg"",""time"":1958.4250000189058},{""stimulus"":""run_exp/static/images/task_images/rocket-04.jpg"",""time"":2939.49000001885},{""stimulus"":""run_exp/static/images/task_images/rocket-05.jpg"",""time"":3916.6800000239164},{""stimulus"":""run_exp/static/images/task_images/rocket-06.jpg"",""time"":4895.699999993667},{""stimulus"":""run_exp/static/images/task_images/rocket-07.jpg"",""time"":5870.985000045039},{""stimulus"":""run_exp/static/images/task_images/rocket-08.jpg"",""time"":6851.880000031088},{""stimulus"":""run_exp/static/images/task_images/rocket-09.jpg"",""time"":7826.770000043325}]",[],2,,,,,,,,,,,,,,
alien_welcome,86,402226,0.0-29.0-1.0,,null,run_exp/static/images/task_images/aliens/old_aliens/planet/alien_planet-8.jpg,null,,,,,,,,,,,,8,"2,14,8,46,11,24,48,19,35,17,6,22,25,62,21,60,7,47,64,28,10,4,74,67,43,50,68,45,70,39,71,58,55,40,52,76",,,,,,,,,,
land,87,402731,0.0-29.0-2.0,,null,run_exp/static/images/task_images/land.jpg,null,,,,,,95,,,3,,,,,,,,,,,,,,
dig,88,404739,0.0-29.0-3.0,,,,,,,,,,,"[{""stimulus"":""run_exp/static/images/task_images/dig.jpg"",""time"":0.21999998716637492},{""stimulus"":""run_exp/static/images/task_images/land.jpg"",""time"":673.1450000079349},{""stimulus"":""run_exp/static/images/task_images/dig.jpg"",""time"":1339.7899999981746}]",[],3,,,,,,,,,,,,,,
harvest,89,405744,0.0-29.0-4.0,,null,run_exp/static/images/task_images/gems/95.jpg,null,,,,,,59,,,3,,,,,95,0.619674386,0.621052632,,,,,,,
decision,90,406165,0.0-29.0-5.0,,419.825,run_exp/static/images/task_images/land.jpg,65,,,,,,59,,,3,,,,,,,,62024,1,0,FALSE,,,
dig,91,408749,0.0-30.0-0.0,,,,,,,,,,,"[{""stimulus"":""run_exp/static/images/task_images/dig.jpg"",""time"":0.13000000035390258},{""stimulus"":""run_exp/static/images/task_images/land.jpg"",""time"":865.1100000133738},{""stimulus"":""run_exp/static/images/task_images/dig.jpg"",""time"":1724.4150000042282}]",[],3,,,,,,,,,,,,,,
harvest,92,409751,0.0-30.0-1.0,,null,run_exp/static/images/task_images/gems/59.jpg,null,,,,,,27,,,3,,,,,59,0.45831116,0.457627119,,,,,,,
decision,93,410214,0.0-30.0-2.0,,462.23,run_exp/static/images/task_images/land.jpg,65,,,,,,27,,,3,,,,,,,,66074,1,1,FALSE,,,
dig,94,412754,0.0-31.0-0.0,,,,,,,,,,,"[{""stimulus"":""run_exp/static/images/task_images/dig.jpg"",""time"":0.12499996228143573},{""stimulus"":""run_exp/static/images/task_images/land.jpg"",""time"":846.1699999752454},{""stimulus"":""run_exp/static/images/task_images/dig.jpg"",""time"":1691.614999959711}]",[],3,,,,,,,,,,,,,,
harvest,95,413760,0.0-31.0-1.0,,null,run_exp/static/images/task_images/gems/27.jpg,null,,,,,,15,,,3,,,,,27,0.559584875,0.555555556,,,,,,,
decision,96,413944,0.0-31.0-2.0,,182.8449999,run_exp/static/images/task_images/land.jpg,65,,,,,,15,,,3,,,,,,,,69803,1,2,FALSE,,,
dig,97,416767,0.0-32.0-0.0,,,,,,,,,,,"[{""stimulus"":""run_exp/static/images/task_images/dig.jpg"",""time"":0.14000001829117537},{""stimulus"":""run_exp/static/images/task_images/land.jpg"",""time"":945.0800000340678},{""stimulus"":""run_exp/static/images/task_images/dig.jpg"",""time"":1882.9350000014529}]",[],3,,,,,,,,,,,,,,
harvest,98,417772,0.0-32.0-1.0,,null,run_exp/static/images/task_images/gems/15.jpg,null,,,,,,8,,,3,,,,,15,0.561530063,0.533333333,,,,,,,
decision,99,418220,0.0-32.0-2.0,,447.145,run_exp/static/images/task_images/land.jpg,65,,,,,,8,,,3,,,,,,,,74079,1,3,FALSE,,,
dig,100,420777,0.0-33.0-0.0,,,,,,,,,,,"[{""stimulus"":""run_exp/static/images/task_images/dig.jpg"",""time"":0.12499996228143573},{""stimulus"":""run_exp/static/images/task_images/land.jpg"",""time"":855.4399999557063},{""stimulus"":""run_exp/static/images/task_images/dig.jpg"",""time"":1702.999999979511}]",[],3,,,,,,,,,,,,,,
harvest,101,421783,0.0-33.0-1.0,,null,run_exp/static/images/task_images/gems/8.jpg,null,,,,,,4,,,3,,,,,8,0.468199739,0.5,,,,,,,
decision,102,421908,0.0-33.0-2.0,,124.24,run_exp/static/images/task_images/land.jpg,65,,,,,,4,,,3,,,,,,,,77767,1,4,FALSE,,,
dig,103,424786,0.0-34.0-0.0,,,,,,,,,,,"[{""stimulus"":""run_exp/static/images/task_images/dig.jpg"",""time"":0.1700000138953328},{""stimulus"":""run_exp/static/images/task_images/land.jpg"",""time"":963.5700000217184},{""stimulus"":""run_exp/static/images/task_images/dig.jpg"",""time"":1921.265000011772}]",[],3,,,,,,,,,,,,,,
harvest,104,425788,0.0-34.0-1.0,,null,run_exp/static/images/task_images/gems/4.jpg,null,,,,,,2,,,3,,,,,4,0.494213484,0.5,,,,,,,
decision,105,426257,0.0-34.0-2.0,,467.29,run_exp/static/images/task_images/land.jpg,65,,,,,,2,,,3,,,,,,,,82116,1,5,FALSE,,,
dig,106,428792,0.0-35.0-0.0,,,,,,,,,,,"[{""stimulus"":""run_exp/static/images/task_images/dig.jpg"",""time"":0.12499996228143573},{""stimulus"":""run_exp/static/images/task_images/land.jpg"",""time"":846.5599999763072},{""stimulus"":""run_exp/static/images/task_images/dig.jpg"",""time"":1688.8549999566749}]",[],3,,,,,,,,,,,,,,
harvest,107,429794,0.0-35.0-1.0,,null,run_exp/static/images/task_images/gems/2.jpg,null,,,,,,1,,,3,,,,,2,0.476897684,0.5,,,,,,,
decision,108,429855,0.0-35.0-2.0,,59.68499999,run_exp/static/images/task_images/land.jpg,65,,,,,,1,,,3,,,,,,,,85714,1,6,FALSE,,,
dig,109,432799,0.0-36.0-0.0,,,,,,,,,,,"[{""stimulus"":""run_exp/static/images/task_images/dig.jpg"",""time"":0.18500001169741154},{""stimulus"":""run_exp/static/images/task_images/land.jpg"",""time"":980.890000006184},{""stimulus"":""run_exp/static/images/task_images/dig.jpg"",""time"":1962.100000004284}]",[],3,,,,,,,,,,,,,,
harvest,110,433805,0.0-36.0-1.0,,null,run_exp/static/images/task_images/gems/1.jpg,null,,,,,,1,,,3,,,,,1,0.529761133,1,,,,,,,
decision,111,434207,0.0-36.0-2.0,,400.61,run_exp/static/images/task_images/land.jpg,65,,,,,,1,,,3,,,,,,,,90066,1,7,FALSE,,,
dig,112,436812,0.0-37.0-0.0,,,,,,,,,,,"[{""stimulus"":""run_exp/static/images/task_images/dig.jpg"",""time"":0.13999996008351445},{""stimulus"":""run_exp/static/images/task_images/land.jpg"",""time"":867.0099999872036},{""stimulus"":""run_exp/static/images/task_images/dig.jpg"",""time"":1736.5299999946728}]",[],3,,,,,,,,,,,,,,
harvest,113,437816,0.0-37.0-1.0,,null,run_exp/static/images/task_images/gems/1.jpg,null,,,,,,0,,,3,,,,,1,0.401656233,0,,,,,,,
decision,114,438618,0.0-37.0-2.0,,800.145,run_exp/static/images/task_images/land.jpg,65,,,,,,0,,,3,,,,,,,,94477,1,8,FALSE,,,
dig,115,440820,0.0-38.0-0.0,,,,,,,,,,,"[{""stimulus"":""run_exp/static/images/task_images/dig.jpg"",""time"":0.1449999981559813},{""stimulus"":""run_exp/static/images/task_images/land.jpg"",""time"":734.5500000519678},{""stimulus"":""run_exp/static/images/task_images/dig.jpg"",""time"":1469.9600000167266}]",[],3,,,,,,,,,,,,,,
harvest,116,441822,0.0-38.0-1.0,,null,run_exp/static/images/task_images/gems/0.jpg,null,,,,,,0,,,3,,,,,0,0.554951087,NaN,,,,,,,
decision,117,441897,0.0-38.0-2.0,,73.68000003,run_exp/static/images/task_images/land.jpg,76,,,,,,0,,,3,,,,,,,,97756,1,9,TRUE,,,
travel,118,451823,0.0-39.0-0.0,,,,,,,,,,,"[{""stimulus"":""run_exp/static/images/task_images/rocket-01.jpg"",""time"":0.1799999736249447},{""stimulus"":""run_exp/static/images/task_images/rocket-02.jpg"",""time"":1106.8000000086613},{""stimulus"":""run_exp/static/images/task_images/rocket-03.jpg"",""time"":2209.310000005644},{""stimulus"":""run_exp/static/images/task_images/rocket-04.jpg"",""time"":3307.0149999693967},{""stimulus"":""run_exp/static/images/task_images/rocket-05.jpg"",""time"":4409.779999987222},{""stimulus"":""run_exp/static/images/task_images/rocket-06.jpg"",""time"":5512.624999973923},{""stimulus"":""run_exp/static/images/task_images/rocket-07.jpg"",""time"":6615.675000008196},{""stimulus"":""run_exp/static/images/task_images/rocket-08.jpg"",""time"":7718.790000013541},{""stimulus"":""run_exp/static/images/task_images/rocket-09.jpg"",""time"":8821.614999964368}]",[],3,,,,,,,,,,,,,,
alien_welcome,119,456826,0.0-39.0-1.0,,null,run_exp/static/images/task_images/aliens/old_aliens/planet/alien_planet-46.jpg,null,,,,,,,,,,,,46,"2,14,8,46,11,24,48,19,35,17,6,22,25,62,21,60,7,47,64,28,10,4,74,67,43,50,68,45,70,39,71,58,55,40,52,76",,,,,,,,,,
land,120,457331,0.0-39.0-2.0,,null,run_exp/static/images/task_images/land.jpg,null,,,,,,110,,,4,,,,,,,,,,,,,,
dig,121,459335,0.0-39.0-3.0,,,,,,,,,,,"[{""stimulus"":""run_exp/static/images/task_images/dig.jpg"",""time"":0.23499998496845365},{""stimulus"":""run_exp/static/images/task_images/land.jpg"",""time"":668.6549999867566},{""stimulus"":""run_exp/static/images/task_images/dig.jpg"",""time"":1336.2099999794737}]",[],4,,,,,,,,,,,,,,
harvest,122,460340,0.0-39.0-4.0,,null,run_exp/static/images/task_images/gems/110.jpg,null,,,,,,56,,,4,,,,,110,0.512826523,0.509090909,,,,,,,
decision,123,460828,0.0-39.0-5.0,,487.05,run_exp/static/images/task_images/land.jpg,65,,,,,,56,,,4,,,,,,,,116687,1,0,FALSE,,,
dig,124,463347,0.0-40.0-0.0,,,,,,,,,,,"[{""stimulus"":""run_exp/static/images/task_images/dig.jpg"",""time"":0.14000001829117537},{""stimulus"":""run_exp/static/images/task_images/land.jpg"",""time"":838.4500000393018},{""stimulus"":""run_exp/static/images/task_images/dig.jpg"",""time"":1680.0550000043586}]",[],4,,,,,,,,,,,,,,
harvest,125,464351,0.0-40.0-1.0,,null,run_exp/static/images/task_images/gems/56.jpg,null,,,,,,30,,,4,,,,,56,0.538402022,0.535714286,,,,,,,
decision,126,464774,0.0-40.0-2.0,,421.225,run_exp/static/images/task_images/land.jpg,65,,,,,,30,,,4,,,,,,,,120633,1,1,FALSE,,,
dig,127,467356,0.0-41.0-0.0,,,,,,,,,,,"[{""stimulus"":""run_exp/static/images/task_images/dig.jpg"",""time"":0.14999997802078724},{""stimulus"":""run_exp/static/images/task_images/land.jpg"",""time"":863.5350000113249},{""stimulus"":""run_exp/static/images/task_images/dig.jpg"",""time"":1722.6899999659508}]",[],4,,,,,,,,,,,,,,
harvest,128,468357,0.0-41.0-1.0,,null,run_exp/static/images/task_images/gems/30.jpg,null,,,,,,14,,,4,,,,,30,0.458229327,0.466666667,,,,,,,
decision,129,468715,0.0-41.0-2.0,,356.715,run_exp/static/images/task_images/land.jpg,65,,,,,,14,,,4,,,,,,,,124574,1,2,FALSE,,,
dig,130,471363,0.0-42.0-0.0,,,,,,,,,,,"[{""stimulus"":""run_exp/static/images/task_images/dig.jpg"",""time"":0.15000003622844815},{""stimulus"":""run_exp/static/images/task_images/land.jpg"",""time"":884.2450000229292},{""stimulus"":""run_exp/static/images/task_images/dig.jpg"",""time"":1763.9150000177324}]",[],4,,,,,,,,,,,,,,
harvest,131,472365,0.0-42.0-1.0,,null,run_exp/static/images/task_images/gems/14.jpg,null,,,,,,8,,,4,,,,,14,0.553367405,0.571428571,,,,,,,
decision,132,472748,0.0-42.0-2.0,,381.64,run_exp/static/images/task_images/land.jpg,65,,,,,,8,,,4,,,,,,,,128607,1,3,FALSE,,,
dig,133,475371,0.0-43.0-0.0,,,,,,,,,,,"[{""stimulus"":""run_exp/static/images/task_images/dig.jpg"",""time"":0.12500002048909664},{""stimulus"":""run_exp/static/images/task_images/land.jpg"",""time"":876.7550000338815},{""stimulus"":""run_exp/static/images/task_images/dig.jpg"",""time"":1747.399999992922}]",[],4,,,,,,,,,,,,,,
harvest,134,476373,0.0-43.0-1.0,,null,run_exp/static/images/task_images/gems/8.jpg,null,,,,,,3,,,4,,,,,8,0.435144644,0.375,,,,,,,
decision,135,476824,0.0-43.0-2.0,,449.175,run_exp/static/images/task_images/land.jpg,76,,,,,,3,,,4,,,,,,,,132683,1,4,TRUE,,,
travel,136,486381,0.0-44.0-0.0,,,,,,,,,,,"[{""stimulus"":""run_exp/static/images/task_images/rocket-01.jpg"",""time"":0.12500002048909664},{""stimulus"":""run_exp/static/images/task_images/rocket-02.jpg"",""time"":1066.1050000344403},{""stimulus"":""run_exp/static/images/task_images/rocket-03.jpg"",""time"":2124.1650000447407},{""stimulus"":""run_exp/static/images/task_images/rocket-04.jpg"",""time"":3186.435000039637},{""stimulus"":""run_exp/static/images/task_images/rocket-05.jpg"",""time"":4248.745000048075},{""stimulus"":""run_exp/static/images/task_images/rocket-06.jpg"",""time"":5306.895000045188},{""stimulus"":""run_exp/static/images/task_images/rocket-07.jpg"",""time"":6367.545000044629},{""stimulus"":""run_exp/static/images/task_images/rocket-08.jpg"",""time"":7430.02000002889},{""stimulus"":""run_exp/static/images/task_images/rocket-09.jpg"",""time"":8492.190000019036}]",[],4,,,,,,,,,,,,,,
alien_welcome,137,491385,0.0-44.0-1.0,,null,run_exp/static/images/task_images/aliens/old_aliens/planet/alien_planet-11.jpg,null,,,,,,,,,,,,11,"2,14,8,46,11,24,48,19,35,17,6,22,25,62,21,60,7,47,64,28,10,4,74,67,43,50,68,45,70,39,71,58,55,40,52,76",,,,,,,,,,
land,138,491890,0.0-44.0-2.0,,null,run_exp/static/images/task_images/land.jpg,null,,,,,,108,,,5,,,,,,,,,,,,,,
dig,139,493895,0.0-44.0-3.0,,,,,,,,,,,"[{""stimulus"":""run_exp/static/images/task_images/dig.jpg"",""time"":0.2749999985098839},{""stimulus"":""run_exp/static/images/task_images/land.jpg"",""time"":672.3450000281446},{""stimulus"":""run_exp/static/images/task_images/dig.jpg"",""time"":1339.975000009872}]",[],5,,,,,,,,,,,,,,
harvest,140,494897,0.0-44.0-4.0,,null,run_exp/static/images/task_images/gems/108.jpg,null,,,,,,48,,,5,,,,,108,0.443687839,0.444444444,,,,,,,
decision,141,495423,0.0-44.0-5.0,,524.21,run_exp/static/images/task_images/land.jpg,65,,,,,,48,,,5,,,,,,,,151282,1,0,FALSE,,,
dig,142,497904,0.0-45.0-0.0,,,,,,,,,,,"[{""stimulus"":""run_exp/static/images/task_images/dig.jpg"",""time"":0.1449999981559813},{""stimulus"":""run_exp/static/images/task_images/land.jpg"",""time"":830.309999990277},{""stimulus"":""run_exp/static/images/task_images/dig.jpg"",""time"":1654.500000004191}]",[],5,,,,,,,,,,,,,,
harvest,143,498906,0.0-45.0-1.0,,null,run_exp/static/images/task_images/gems/48.jpg,null,,,,,,27,,,5,,,,,48,0.555264772,0.5625,,,,,,,
decision,144,499260,0.0-45.0-2.0,,352.94,run_exp/static/images/task_images/land.jpg,65,,,,,,27,,,5,,,,,,,,155119,1,1,FALSE,,,
dig,145,501910,0.0-46.0-0.0,,,,,,,,,,,"[{""stimulus"":""run_exp/static/images/task_images/dig.jpg"",""time"":0.13499998021870852},{""stimulus"":""run_exp/static/images/task_images/land.jpg"",""time"":886.4049999974668},{""stimulus"":""run_exp/static/images/task_images/dig.jpg"",""time"":1767.0650000218302}]",[],5,,,,,,,,,,,,,,
harvest,146,502914,0.0-46.0-1.0,,null,run_exp/static/images/task_images/gems/27.jpg,null,,,,,,14,,,5,,,,,27,0.52699113,0.518518519,,,,,,,
decision,147,503637,0.0-46.0-2.0,,721.41,run_exp/static/images/task_images/land.jpg,65,,,,,,14,,,5,,,,,,,,159496,1,2,FALSE,,,
dig,148,505921,0.0-47.0-0.0,,,,,,,,,,,"[{""stimulus"":""run_exp/static/images/task_images/dig.jpg"",""time"":0.12499996228143573},{""stimulus"":""run_exp/static/images/task_images/land.jpg"",""time"":761.0850000055507},{""stimulus"":""run_exp/static/images/task_images/dig.jpg"",""time"":1521.5349999489263}]",[],5,,,,,,,,,,,,,,
harvest,149,506925,0.0-47.0-1.0,,null,run_exp/static/images/task_images/gems/14.jpg,null,,,,,,6,,,5,,,,,14,0.435181248,0.428571429,,,,,,,
decision,150,507316,0.0-47.0-2.0,,389.83,run_exp/static/images/task_images/land.jpg,76,,,,,,6,,,5,,,,,,,,163175,1,3,TRUE,,,
travel,151,516927,0.0-48.0-0.0,,,,,,,,,,,"[{""stimulus"":""run_exp/static/images/task_images/rocket-01.jpg"",""time"":0.13499998021870852},{""stimulus"":""run_exp/static/images/task_images/rocket-02.jpg"",""time"":1069.4500000099652},{""stimulus"":""run_exp/static/images/task_images/rocket-03.jpg"",""time"":2137.1650000219233},{""stimulus"":""run_exp/static/images/task_images/rocket-04.jpg"",""time"":3205.6050000246614},{""stimulus"":""run_exp/static/images/task_images/rocket-05.jpg"",""time"":4270.665000018198},{""stimulus"":""run_exp/static/images/task_images/rocket-06.jpg"",""time"":5336.1450000084005},{""stimulus"":""run_exp/static/images/task_images/rocket-07.jpg"",""time"":6404.020000016317},{""stimulus"":""run_exp/static/images/task_images/rocket-08.jpg"",""time"":7472.260000009555},{""stimulus"":""run_exp/static/images/task_images/rocket-09.jpg"",""time"":8541.099999973085}]",[],5,,,,,,,,,,,,,,
alien_welcome,152,521931,0.0-48.0-1.0,,null,run_exp/static/images/task_images/aliens/old_aliens/planet/alien_planet-24.jpg,null,,,,,,,,,,,,24,"2,14,8,46,11,24,48,19,35,17,6,22,25,62,21,60,7,47,64,28,10,4,74,67,43,50,68,45,70,39,71,58,55,40,52,76",,,,,,,,,,
land,153,522435,0.0-48.0-2.0,,null,run_exp/static/images/task_images/land.jpg,null,,,,,,102,,,6,,,,,,,,,,,,,,
dig,154,524441,0.0-48.0-3.0,,,,,,,,,,,"[{""stimulus"":""run_exp/static/images/task_images/dig.jpg"",""time"":0.2300000051036477},{""stimulus"":""run_exp/static/images/task_images/land.jpg"",""time"":673.0450000031851},{""stimulus"":""run_exp/static/images/task_images/dig.jpg"",""time"":1336.2750000087544}]",[],6,,,,,,,,,,,,,,
harvest,155,525443,0.0-48.0-4.0,,null,run_exp/static/images/task_images/gems/102.jpg,null,,,,,,86,,,6,,,,,102,0.83981646,0.843137255,,,,,,,
decision,156,525725,0.0-48.0-5.0,,280.355,run_exp/static/images/task_images/land.jpg,65,,,,,,86,,,6,,,,,,,,181584,1,0,FALSE,,,
dig,157,528450,0.0-49.0-0.0,,,,,,,,,,,"[{""stimulus"":""run_exp/static/images/task_images/dig.jpg"",""time"":0.15499995788559318},{""stimulus"":""run_exp/static/images/task_images/land.jpg"",""time"":911.7850000038743},{""stimulus"":""run_exp/static/images/task_images/dig.jpg"",""time"":1817.2299999860115}]",[],6,,,,,,,,,,,,,,
harvest,158,529454,0.0-49.0-1.0,,null,run_exp/static/images/task_images/gems/86.jpg,null,,,,,,61,,,6,,,,,86,0.703497192,0.709302326,,,,,,,
decision,159,529992,0.0-49.0-2.0,,535.715,run_exp/static/images/task_images/land.jpg,65,,,,,,61,,,6,,,,,,,,185851,1,1,FALSE,,,
dig,160,532461,0.0-50.0-0.0,,,,,,,,,,,"[{""stimulus"":""run_exp/static/images/task_images/dig.jpg"",""time"":0.12499996228143573},{""stimulus"":""run_exp/static/images/task_images/land.jpg"",""time"":824.0499999956228},{""stimulus"":""run_exp/static/images/task_images/dig.jpg"",""time"":1648.1349999667145}]",[],6,,,,,,,,,,,,,,
harvest,161,533466,0.0-50.0-1.0,,null,run_exp/static/images/task_images/gems/61.jpg,null,,,,,,51,,,6,,,,,61,0.837494745,0.836065574,,,,,,,
decision,162,534369,0.0-50.0-2.0,,902.07,run_exp/static/images/task_images/land.jpg,76,,,,,,51,,,6,,,,,,,,190228,1,2,TRUE,,,
travel,163,543466,0.0-51.0-0.0,,,,,,,,,,,"[{""stimulus"":""run_exp/static/images/task_images/rocket-01.jpg"",""time"":0.12499996228143573},{""stimulus"":""run_exp/static/images/task_images/rocket-02.jpg"",""time"":1011.6899999557063},{""stimulus"":""run_exp/static/images/task_images/rocket-03.jpg"",""time"":2021.7349999584258},{""stimulus"":""run_exp/static/images/task_images/rocket-04.jpg"",""time"":3032.6449999702163},{""stimulus"":""run_exp/static/images/task_images/rocket-05.jpg"",""time"":4041.8249999638647},{""stimulus"":""run_exp/static/images/task_images/rocket-06.jpg"",""time"":5051.814999955241},{""stimulus"":""run_exp/static/images/task_images/rocket-07.jpg"",""time"":6061.794999986887},{""stimulus"":""run_exp/static/images/task_images/rocket-08.jpg"",""time"":7071.799999976065},{""stimulus"":""run_exp/static/images/task_images/rocket-09.jpg"",""time"":8081.825000001118}]",[],6,,,,,,,,,,,,,,
alien_welcome,164,548472,0.0-51.0-1.0,,null,run_exp/static/images/task_images/aliens/old_aliens/planet/alien_planet-48.jpg,null,,,,,,,,,,,,48,"2,14,8,46,11,24,48,19,35,17,6,22,25,62,21,60,7,47,64,28,10,4,74,67,43,50,68,45,70,39,71,58,55,40,52,76",,,,,,,,,,
land,165,548977,0.0-51.0-2.0,,null,run_exp/static/images/task_images/land.jpg,null,,,,,,95,,,7,,,,,,,,,,,,,,
dig,166,550985,0.0-51.0-3.0,,,,,,,,,,,"[{""stimulus"":""run_exp/static/images/task_images/dig.jpg"",""time"":0.2300000051036477},{""stimulus"":""run_exp/static/images/task_images/land.jpg"",""time"":671.585000003688},{""stimulus"":""run_exp/static/images/task_images/dig.jpg"",""time"":1339.2100000055507}]",[],7,,,,,,,,,,,,,,
harvest,167,551989,0.0-51.0-4.0,,null,run_exp/static/images/task_images/gems/95.jpg,null,,,,,,77,,,7,,,,,95,0.810629894,0.810526316,,,,,,,
decision,168,552157,0.0-51.0-5.0,,166.91,run_exp/static/images/task_images/land.jpg,65,,,,,,77,,,7,,,,,,,,208016,1,0,FALSE,,,
dig,169,554993,0.0-52.0-0.0,,,,,,,,,,,"[{""stimulus"":""run_exp/static/images/task_images/dig.jpg"",""time"":0.13000000035390258},{""stimulus"":""run_exp/static/images/task_images/land.jpg"",""time"":944.7649999638088},{""stimulus"":""run_exp/static/images/task_images/dig.jpg"",""time"":1890.819999971427}]",[],7,,,,,,,,,,,,,,
harvest,170,555999,0.0-52.0-1.0,,null,run_exp/static/images/task_images/gems/77.jpg,null,,,,,,62,,,7,,,,,77,0.802603643,0.805194805,,,,,,,
decision,171,556240,0.0-52.0-2.0,,239.0450001,run_exp/static/images/task_images/land.jpg,65,,,,,,62,,,7,,,,,,,,212099,1,1,FALSE,,,
dig,172,559003,0.0-53.0-0.0,,,,,,,,,,,"[{""stimulus"":""run_exp/static/images/task_images/dig.jpg"",""time"":0.13000000035390258},{""stimulus"":""run_exp/static/images/task_images/land.jpg"",""time"":922.0399999758229},{""stimulus"":""run_exp/static/images/task_images/dig.jpg"",""time"":1842.880000011064}]",[],7,,,,,,,,,,,,,,
harvest,173,560006,0.0-53.0-1.0,,null,run_exp/static/images/task_images/gems/62.jpg,null,,,,,,47,,,7,,,,,62,0.761733589,0.758064516,,,,,,,
decision,174,560556,0.0-53.0-2.0,,548.5,run_exp/static/images/task_images/land.jpg,65,,,,,,47,,,7,,,,,,,,216415,1,2,FALSE,,,
dig,175,563013,0.0-54.0-0.0,,,,,,,,,,,"[{""stimulus"":""run_exp/static/images/task_images/dig.jpg"",""time"":0.1449999981559813},{""stimulus"":""run_exp/static/images/task_images/land.jpg"",""time"":823.0050000129268},{""stimulus"":""run_exp/static/images/task_images/dig.jpg"",""time"":1638.2250000024214}]",[],7,,,,,,,,,,,,,,
harvest,176,564015,0.0-54.0-1.0,,null,run_exp/static/images/task_images/gems/47.jpg,null,,,,,,38,,,7,,,,,47,0.810185658,0.808510638,,,,,,,
decision,177,565985,0.0-54.0-2.0,,1968.475,run_exp/static/images/task_images/land.jpg,65,,,,,,38,,,7,,,,,,,,221844,1,3,FALSE,,,
dig,178,567019,0.0-55.0-0.0,,,,,,,,,,,"[{""stimulus"":""run_exp/static/images/task_images/dig.jpg"",""time"":0.12500002048909664},{""stimulus"":""run_exp/static/images/task_images/land.jpg"",""time"":344.1599999787286},{""stimulus"":""run_exp/static/images/task_images/dig.jpg"",""time"":689.0150000108406}]",[],7,,,,,,,,,,,,,,
harvest,179,568022,0.0-55.0-1.0,,null,run_exp/static/images/task_images/gems/38.jpg,null,,,,,,31,,,7,,,,,38,0.816254731,0.815789474,,,,,,,
decision,180,568647,0.0-55.0-2.0,,624.19,run_exp/static/images/task_images/land.jpg,65,,,,,,31,,,7,,,,,,,,224507,1,4,FALSE,,,
dig,181,571024,0.0-56.0-0.0,,,,,,,,,,,"[{""stimulus"":""run_exp/static/images/task_images/dig.jpg"",""time"":0.12499996228143573},{""stimulus"":""run_exp/static/images/task_images/land.jpg"",""time"":793.8599999761209},{""stimulus"":""run_exp/static/images/task_images/dig.jpg"",""time"":1584.4949999591336}]",[],7,,,,,,,,,,,,,,
harvest,182,572029,0.0-56.0-1.0,,null,run_exp/static/images/task_images/gems/31.jpg,null,,,,,,26,,,7,,,,,31,0.847786096,0.838709677,,,,,,,
decision,183,572454,0.0-56.0-2.0,,424.2149999,run_exp/static/images/task_images/land.jpg,76,,,,,,26,,,7,,,,,,,,228313,1,5,TRUE,,,
travel,184,582025,0.0-57.0-0.0,,,,,,,,,,,"[{""stimulus"":""run_exp/static/images/task_images/rocket-01.jpg"",""time"":0.13499998021870852},{""stimulus"":""run_exp/static/images/task_images/rocket-02.jpg"",""time"":1064.2399999778718},{""stimulus"":""run_exp/static/images/task_images/rocket-03.jpg"",""time"":2132.194999954663},{""stimulus"":""run_exp/static/images/task_images/rocket-04.jpg"",""time"":3194.6599999791943},{""stimulus"":""run_exp/static/images/task_images/rocket-05.jpg"",""time"":4253.389999968931},{""stimulus"":""run_exp/static/images/task_images/rocket-06.jpg"",""time"":5319.154999975581},{""stimulus"":""run_exp/static/images/task_images/rocket-07.jpg"",""time"":6381.534999993164},{""stimulus"":""run_exp/static/images/task_images/rocket-08.jpg"",""time"":7443.8199999858625},{""stimulus"":""run_exp/static/images/task_images/rocket-09.jpg"",""time"":8506.269999954384}]",[],7,,,,,,,,,,,,,,
alien_welcome,185,587029,0.0-57.0-1.0,,null,run_exp/static/images/task_images/aliens/old_aliens/planet/alien_planet-19.jpg,null,,,,,,,,,,,,19,"2,14,8,46,11,24,48,19,35,17,6,22,25,62,21,60,7,47,64,28,10,4,74,67,43,50,68,45,70,39,71,58,55,40,52,76",,,,,,,,,,
land,186,587534,0.0-57.0-2.0,,null,run_exp/static/images/task_images/land.jpg,null,,,,,,100,,,8,,,,,,,,,,,,,,
dig,187,589539,0.0-57.0-3.0,,,,,,,,,,,"[{""stimulus"":""run_exp/static/images/task_images/dig.jpg"",""time"":0.2300000051036477},{""stimulus"":""run_exp/static/images/task_images/land.jpg"",""time"":672.2449999651872},{""stimulus"":""run_exp/static/images/task_images/dig.jpg"",""time"":1339.6000000066124}]",[],8,,,,,,,,,,,,,,
harvest,188,590541,0.0-57.0-4.0,,null,run_exp/static/images/task_images/gems/100.jpg,null,,,,,,82,,,8,,,,,100,0.822183722,0.82,,,,,,,
decision,189,591050,0.0-57.0-5.0,,508.22,run_exp/static/images/task_images/land.jpg,65,,,,,,82,,,8,,,,,,,,246909,1,0,FALSE,,,
dig,190,593548,0.0-58.0-0.0,,,,,,,,,,,"[{""stimulus"":""run_exp/static/images/task_images/dig.jpg"",""time"":0.1200000406242907},{""stimulus"":""run_exp/static/images/task_images/land.jpg"",""time"":834.2350000166334},{""stimulus"":""run_exp/static/images/task_images/dig.jpg"",""time"":1665.500000002794}]",[],8,,,,,,,,,,,,,,
harvest,191,594552,0.0-58.0-1.0,,null,run_exp/static/images/task_images/gems/82.jpg,null,,,,,,69,,,8,,,,,82,0.836126229,0.841463415,,,,,,,
decision,192,594950,0.0-58.0-2.0,,396.53,run_exp/static/images/task_images/land.jpg,65,,,,,,69,,,8,,,,,,,,250809,1,1,FALSE,,,
dig,193,597559,0.0-59.0-0.0,,,,,,,,,,,"[{""stimulus"":""run_exp/static/images/task_images/dig.jpg"",""time"":0.13999996008351445},{""stimulus"":""run_exp/static/images/task_images/land.jpg"",""time"":870.9399999934249},{""stimulus"":""run_exp/static/images/task_images/dig.jpg"",""time"":1736.1349999555387}]",[],8,,,,,,,,,,,,,,
harvest,194,598563,0.0-59.0-1.0,,null,run_exp/static/images/task_images/gems/69.jpg,null,,,,,,56,,,8,,,,,69,0.805186944,0.811594203,,,,,,,
decision,195,598641,0.0-59.0-2.0,,76.03499998,run_exp/static/images/task_images/land.jpg,65,,,,,,56,,,8,,,,,,,,254500,1,2,FALSE,,,
dig,196,601568,0.0-60.0-0.0,,,,,,,,,,,"[{""stimulus"":""run_exp/static/images/task_images/dig.jpg"",""time"":0.14000001829117537},{""stimulus"":""run_exp/static/images/task_images/land.jpg"",""time"":975.0200000125915},{""stimulus"":""run_exp/static/images/task_images/dig.jpg"",""time"":1953.704999992624}]",[],8,,,,,,,,,,,,,,
harvest,197,602569,0.0-60.0-1.0,,null,run_exp/static/images/task_images/gems/56.jpg,null,,,,,,50,,,8,,,,,56,0.887336711,0.892857143,,,,,,,
decision,198,603846,0.0-60.0-2.0,,1275.77,run_exp/static/images/task_images/land.jpg,65,,,,,,50,,,8,,,,,,,,259705,1,3,FALSE,,,
dig,199,605576,0.0-61.0-0.0,,,,,,,,,,,"[{""stimulus"":""run_exp/static/images/task_images/dig.jpg"",""time"":0.13999996008351445},{""stimulus"":""run_exp/static/images/task_images/land.jpg"",""time"":577.9149999725632},{""stimulus"":""run_exp/static/images/task_images/dig.jpg"",""time"":1152.5050000054762}]",[],8,,,,,,,,,,,,,,
harvest,200,606580,0.0-61.0-1.0,,null,run_exp/static/images/task_images/gems/50.jpg,null,,,,,,41,,,8,,,,,50,0.826118075,0.82,,,,,,,
decision,201,606909,0.0-61.0-2.0,,327.75,run_exp/static/images/task_images/land.jpg,65,,,,,,41,,,8,,,,,,,,262768,1,4,FALSE,,,
dig,202,609585,0.0-62.0-0.0,,,,,,,,,,,"[{""stimulus"":""run_exp/static/images/task_images/dig.jpg"",""time"":0.11999998241662979},{""stimulus"":""run_exp/static/images/task_images/land.jpg"",""time"":893.4199999785051},{""stimulus"":""run_exp/static/images/task_images/dig.jpg"",""time"":1781.6199999651872}]",[],8,,,,,,,,,,,,,,
harvest,203,610586,0.0-62.0-1.0,,null,run_exp/static/images/task_images/gems/41.jpg,null,,,,,,34,,,8,,,,,41,0.81978838,0.829268293,,,,,,,
decision,204,611168,0.0-62.0-2.0,,580.5,run_exp/static/images/task_images/land.jpg,76,,,,,,34,,,8,,,,,,,,267027,1,5,TRUE,,,
travel,205,620587,0.0-63.0-0.0,,,,,,,,,,,"[{""stimulus"":""run_exp/static/images/task_images/rocket-01.jpg"",""time"":0.14000001829117537},{""stimulus"":""run_exp/static/images/task_images/rocket-02.jpg"",""time"":1049.475000007078},{""stimulus"":""run_exp/static/images/task_images/rocket-03.jpg"",""time"":2096.9950000289828},{""stimulus"":""run_exp/static/images/task_images/rocket-04.jpg"",""time"":3142.0149999903515},{""stimulus"":""run_exp/static/images/task_images/rocket-05.jpg"",""time"":4187.035000009928},{""stimulus"":""run_exp/static/images/task_images/rocket-06.jpg"",""time"":5231.75000003539},{""stimulus"":""run_exp/static/images/task_images/rocket-07.jpg"",""time"":6281.370000040624},{""stimulus"":""run_exp/static/images/task_images/rocket-08.jpg"",""time"":7327.40000000922},{""stimulus"":""run_exp/static/images/task_images/rocket-09.jpg"",""time"":8372.260000032838}]",[],8,,,,,,,,,,,,,,
alien_welcome,206,625592,0.0-63.0-1.0,,null,run_exp/static/images/task_images/aliens/old_aliens/planet/alien_planet-35.jpg,null,,,,,,,,,,,,35,"2,14,8,46,11,24,48,19,35,17,6,22,25,62,21,60,7,47,64,28,10,4,74,67,43,50,68,45,70,39,71,58,55,40,52,76",,,,,,,,,,
land,207,626096,0.0-63.0-2.0,,null,run_exp/static/images/task_images/land.jpg,null,,,,,,100,,,9,,,,,,,,,,,,,,
dig,208,628105,0.0-63.0-3.0,,,,,,,,,,,"[{""stimulus"":""run_exp/static/images/task_images/dig.jpg"",""time"":0.23499998496845365},{""stimulus"":""run_exp/static/images/task_images/land.jpg"",""time"":670.4150000005029},{""stimulus"":""run_exp/static/images/task_images/dig.jpg"",""time"":1339.9299999582581}]",[],9,,,,,,,,,,,,,,
harvest,209,629110,0.0-63.0-4.0,,null,run_exp/static/images/task_images/gems/100.jpg,null,,,,,,20,,,9,,,,,100,0.200592682,0.2,,,,,,,
decision,210,629702,0.0-63.0-5.0,,591.29,run_exp/static/images/task_images/land.jpg,65,,,,,,20,,,9,,,,,,,,285561,1,0,FALSE,,,
dig,211,632116,0.0-64.0-0.0,,,,,,,,,,,"[{""stimulus"":""run_exp/static/images/task_images/dig.jpg"",""time"":0.11999998241662979},{""stimulus"":""run_exp/static/images/task_images/land.jpg"",""time"":803.3799999975599},{""stimulus"":""run_exp/static/images/task_images/dig.jpg"",""time"":1605.4299999959767}]",[],9,,,,,,,,,,,,,,
harvest,212,633118,0.0-64.0-1.0,,null,run_exp/static/images/task_images/gems/20.jpg,null,,,,,,4,,,9,,,,,20,0.198811428,0.2,,,,,,,
decision,213,634269,0.0-64.0-2.0,,1149.925,run_exp/static/images/task_images/land.jpg,65,,,,,,4,,,9,,,,,,,,290128,1,1,FALSE,,,
dig,214,636122,0.0-65.0-0.0,,,,,,,,,,,"[{""stimulus"":""run_exp/static/images/task_images/dig.jpg"",""time"":0.13499998021870852},{""stimulus"":""run_exp/static/images/task_images/land.jpg"",""time"":620.1400000136346},{""stimulus"":""run_exp/static/images/task_images/dig.jpg"",""time"":1235.4449999984354}]",[],9,,,,,,,,,,,,,,
harvest,215,637126,0.0-65.0-1.0,,null,run_exp/static/images/task_images/gems/4.jpg,null,,,,,,1,,,9,,,,,4,0.159642422,0.25,,,,,,,
decision,216,637708,0.0-65.0-2.0,,580.265,run_exp/static/images/task_images/land.jpg,65,,,,,,1,,,9,,,,,,,,293567,1,2,FALSE,,,
dig,217,640133,0.0-66.0-0.0,,,,,,,,,,,"[{""stimulus"":""run_exp/static/images/task_images/dig.jpg"",""time"":0.13499998021870852},{""stimulus"":""run_exp/static/images/task_images/land.jpg"",""time"":809.0699999593198},{""stimulus"":""run_exp/static/images/task_images/dig.jpg"",""time"":1613.6049999622628}]",[],9,,,,,,,,,,,,,,
harvest,218,641137,0.0-66.0-1.0,,null,run_exp/static/images/task_images/gems/1.jpg,null,,,,,,0,,,9,,,,,1,0.147948777,0,,,,,,,
decision,219,641269,0.0-66.0-2.0,,130.36,run_exp/static/images/task_images/land.jpg,65,,,,,,0,,,9,,,,,,,,297128,1,3,FALSE,,,
dig,220,644144,0.0-67.0-0.0,,,,,,,,,,,"[{""stimulus"":""run_exp/static/images/task_images/dig.jpg"",""time"":0.13000000035390258},{""stimulus"":""run_exp/static/images/task_images/land.jpg"",""time"":957.1400000131689},{""stimulus"":""run_exp/static/images/task_images/dig.jpg"",""time"":1914.794999989681}]",[],9,,,,,,,,,,,,,,
harvest,221,645149,0.0-67.0-1.0,,null,run_exp/static/images/task_images/gems/0.jpg,null,,,,,,0,,,9,,,,,0,0.170867843,NaN,,,,,,,
decision,222,645258,0.0-67.0-2.0,,107.875,run_exp/static/images/task_images/land.jpg,76,,,,,,0,,,9,,,,,,,,301117,1,4,TRUE,,,
end_of_block_continue,223,654130,0.0-68.0-0.0,,null,run_exp/static/audio/clip_32_block_end.m4a,,,,,,null,,,,,,,,,,,,,,,,,,
alien_welcome,224,659137,0.0-69.0-0.0,,null,run_exp/static/images/task_images/aliens/old_aliens/planet/alien_planet-17.jpg,null,,,,,,,,,,,,17,"2,14,8,46,11,24,48,19,35,17,6,22,25,62,21,60,7,47,64,28,10,4,74,67,43,50,68,45,70,39,71,58,55,40,52,76",,,,,,,,,,
land,225,659638,0.0-69.0-1.0,,null,run_exp/static/images/task_images/land.jpg,null,,,,,,103,,,10,,,,,,,,,,,,,,
dig,226,661646,0.0-69.0-2.0,,,,,,,,,,,"[{""stimulus"":""run_exp/static/images/task_images/dig.jpg"",""time"":0.22499996703118086},{""stimulus"":""run_exp/static/images/task_images/land.jpg"",""time"":673.175000003539},{""stimulus"":""run_exp/static/images/task_images/dig.jpg"",""time"":1338.8399999821559}]",[],10,,,,,,,,,,,,,,
harvest,227,662653,0.0-69.0-3.0,,null,run_exp/static/images/task_images/gems/103.jpg,null,,,,,,24,,,10,,,,,103,0.230901057,0.233009709,,,,,,,
decision,228,663286,0.0-69.0-4.0,,632.07,run_exp/static/images/task_images/land.jpg,65,,,,,,24,,,10,,,,,,,,9152,2,0,FALSE,,,
dig,229,665662,0.0-70.0-0.0,,,,,,,,,,,"[{""stimulus"":""run_exp/static/images/task_images/dig.jpg"",""time"":0.11999998241662979},{""stimulus"":""run_exp/static/images/task_images/land.jpg"",""time"":795.0350000173785},{""stimulus"":""run_exp/static/images/task_images/dig.jpg"",""time"":1583.5349999833852}]",[],10,,,,,,,,,,,,,,
harvest,230,666668,0.0-70.0-1.0,,null,run_exp/static/images/task_images/gems/24.jpg,null,,,,,,6,,,10,,,,,24,0.233479199,0.25,,,,,,,
decision,231,667375,0.0-70.0-2.0,,705.835,run_exp/static/images/task_images/land.jpg,76,,,,,,6,,,10,,,,,,,,13241,2,1,TRUE,,,
travel,232,676667,0.0-71.0-0.0,,,,,,,,,,,"[{""stimulus"":""run_exp/static/images/task_images/rocket-01.jpg"",""time"":0.13499998021870852},{""stimulus"":""run_exp/static/images/task_images/rocket-02.jpg"",""time"":1035.4199999710545},{""stimulus"":""run_exp/static/images/task_images/rocket-03.jpg"",""time"":2066.3150000036694},{""stimulus"":""run_exp/static/images/task_images/rocket-04.jpg"",""time"":3097.3549999762326},{""stimulus"":""run_exp/static/images/task_images/rocket-05.jpg"",""time"":4130.134999984875},{""stimulus"":""run_exp/static/images/task_images/rocket-06.jpg"",""time"":5161.344999971334},{""stimulus"":""run_exp/static/images/task_images/rocket-07.jpg"",""time"":6193.060000019614},{""stimulus"":""run_exp/static/images/task_images/rocket-08.jpg"",""time"":7225.559999991674},{""stimulus"":""run_exp/static/images/task_images/rocket-09.jpg"",""time"":8258.009999990463}]",[],10,,,,,,,,,,,,,,
alien_welcome,233,681671,0.0-71.0-1.0,,null,run_exp/static/images/task_images/aliens/old_aliens/planet/alien_planet-6.jpg,null,,,,,,,,,,,,6,"2,14,8,46,11,24,48,19,35,17,6,22,25,62,21,60,7,47,64,28,10,4,74,67,43,50,68,45,70,39,71,58,55,40,52,76",,,,,,,,,,
land,234,682173,0.0-71.0-2.0,,null,run_exp/static/images/task_images/land.jpg,null,,,,,,105,,,11,,,,,,,,,,,,,,
dig,235,684182,0.0-71.0-3.0,,,,,,,,,,,"[{""stimulus"":""run_exp/static/images/task_images/dig.jpg"",""time"":0.24999998277053237},{""stimulus"":""run_exp/static/images/task_images/land.jpg"",""time"":670.6099999719299},{""stimulus"":""run_exp/static/images/task_images/dig.jpg"",""time"":1340.1099999900907}]",[],11,,,,,,,,,,,,,,
harvest,236,685184,0.0-71.0-4.0,,null,run_exp/static/images/task_images/gems/105.jpg,null,,,,,,16,,,11,,,,,105,0.151368657,0.152380952,,,,,,,
decision,237,687546,0.0-71.0-5.0,,2361.46,run_exp/static/images/task_images/land.jpg,65,,,,,,16,,,11,,,,,,,,33413,2,0,FALSE,,,
dig,238,688188,0.0-72.0-0.0,,,,,,,,,,,"[{""stimulus"":""run_exp/static/images/task_images/dig.jpg"",""time"":0.11999998241662979},{""stimulus"":""run_exp/static/images/task_images/land.jpg"",""time"":215.76499997172505},{""stimulus"":""run_exp/static/images/task_images/dig.jpg"",""time"":428.62500000046566}]",[],11,,,,,,,,,,,,,,
harvest,239,689194,0.0-72.0-1.0,,null,run_exp/static/images/task_images/gems/16.jpg,null,,,,,,3,,,11,,,,,16,0.171513035,0.1875,,,,,,,
decision,240,690297,0.0-72.0-2.0,,1101.265,run_exp/static/images/task_images/land.jpg,65,,,,,,3,,,11,,,,,,,,36163,2,1,FALSE,,,
dig,241,692201,0.0-73.0-0.0,,,,,,,,,,,"[{""stimulus"":""run_exp/static/images/task_images/dig.jpg"",""time"":0.1449999981559813},{""stimulus"":""run_exp/static/images/task_images/land.jpg"",""time"":632.8850000281818},{""stimulus"":""run_exp/static/images/task_images/dig.jpg"",""time"":1264.8300000000745}]",[],11,,,,,,,,,,,,,,
harvest,242,693203,0.0-73.0-1.0,,null,run_exp/static/images/task_images/gems/3.jpg,null,,,,,,1,,,11,,,,,3,0.284523087,0.333333333,,,,,,,
decision,243,693851,0.0-73.0-2.0,,647.165,run_exp/static/images/task_images/land.jpg,76,,,,,,1,,,11,,,,,,,,39717,2,2,TRUE,,,
travel,244,703210,0.0-74.0-0.0,,,,,,,,,,,"[{""stimulus"":""run_exp/static/images/task_images/rocket-01.jpg"",""time"":0.1449999981559813},{""stimulus"":""run_exp/static/images/task_images/rocket-02.jpg"",""time"":1041.0400000400841},{""stimulus"":""run_exp/static/images/task_images/rocket-03.jpg"",""time"":2082.720000005793},{""stimulus"":""run_exp/static/images/task_images/rocket-04.jpg"",""time"":3120.230000000447},{""stimulus"":""run_exp/static/images/task_images/rocket-05.jpg"",""time"":4162.055000022519},{""stimulus"":""run_exp/static/images/task_images/rocket-06.jpg"",""time"":5198.480000020936},{""stimulus"":""run_exp/static/images/task_images/rocket-07.jpg"",""time"":6240.090000035707},{""stimulus"":""run_exp/static/images/task_images/rocket-08.jpg"",""time"":7277.289999998175},{""stimulus"":""run_exp/static/images/task_images/rocket-09.jpg"",""time"":8316.229999996722}]",[],11,,,,,,,,,,,,,,
alien_welcome,245,708217,0.0-74.0-1.0,,null,run_exp/static/images/task_images/aliens/old_aliens/planet/alien_planet-22.jpg,null,,,,,,,,,,,,22,"2,14,8,46,11,24,48,19,35,17,6,22,25,62,21,60,7,47,64,28,10,4,74,67,43,50,68,45,70,39,71,58,55,40,52,76",,,,,,,,,,
land,246,708718,0.0-74.0-2.0,,null,run_exp/static/images/task_images/land.jpg,null,,,,,,106,,,12,,,,,,,,,,,,,,
dig,247,710722,0.0-74.0-3.0,,,,,,,,,,,"[{""stimulus"":""run_exp/static/images/task_images/dig.jpg"",""time"":0.2299999468959868},{""stimulus"":""run_exp/static/images/task_images/land.jpg"",""time"":669.5299999555573},{""stimulus"":""run_exp/static/images/task_images/dig.jpg"",""time"":1335.4749999707565}]",[],12,,,,,,,,,,,,,,
harvest,248,711727,0.0-74.0-4.0,,null,run_exp/static/images/task_images/gems/106.jpg,null,,,,,,14,,,12,,,,,106,0.13499954,0.132075472,,,,,,,
decision,249,713032,0.0-74.0-5.0,,1304.33,run_exp/static/images/task_images/land.jpg,65,,,,,,14,,,12,,,,,,,,58898,2,0,FALSE,,,
dig,250,714732,0.0-75.0-0.0,,,,,,,,,,,"[{""stimulus"":""run_exp/static/images/task_images/dig.jpg"",""time"":0.13499998021870852},{""stimulus"":""run_exp/static/images/task_images/land.jpg"",""time"":565.7999999821186},{""stimulus"":""run_exp/static/images/task_images/dig.jpg"",""time"":1132.0950000081211}]",[],12,,,,,,,,,,,,,,
harvest,251,715738,0.0-75.0-1.0,,null,run_exp/static/images/task_images/gems/14.jpg,null,,,,,,3,,,12,,,,,14,0.212036152,0.214285714,,,,,,,
decision,252,717004,0.0-75.0-2.0,,1265.05,run_exp/static/images/task_images/land.jpg,76,,,,,,3,,,12,,,,,,,,62870,2,1,TRUE,,,
travel,253,725739,0.0-76.0-0.0,,,,,,,,,,,"[{""stimulus"":""run_exp/static/images/task_images/rocket-01.jpg"",""time"":0.1200000406242907},{""stimulus"":""run_exp/static/images/task_images/rocket-02.jpg"",""time"":971.7900000396185},{""stimulus"":""run_exp/static/images/task_images/rocket-03.jpg"",""time"":1943.1700000423007},{""stimulus"":""run_exp/static/images/task_images/rocket-04.jpg"",""time"":2916.055000037886},{""stimulus"":""run_exp/static/images/task_images/rocket-05.jpg"",""time"":3885.7350000180304},{""stimulus"":""run_exp/static/images/task_images/rocket-06.jpg"",""time"":4854.995000001509},{""stimulus"":""run_exp/static/images/task_images/rocket-07.jpg"",""time"":5824.454999994487},{""stimulus"":""run_exp/static/images/task_images/rocket-08.jpg"",""time"":6793.850000016391},{""stimulus"":""run_exp/static/images/task_images/rocket-09.jpg"",""time"":7761.730000027455}]",[],12,,,,,,,,,,,,,,
alien_welcome,254,730744,0.0-76.0-1.0,,null,run_exp/static/images/task_images/aliens/old_aliens/planet/alien_planet-25.jpg,null,,,,,,,,,,,,25,"2,14,8,46,11,24,48,19,35,17,6,22,25,62,21,60,7,47,64,28,10,4,74,67,43,50,68,45,70,39,71,58,55,40,52,76",,,,,,,,,,
land,255,731249,0.0-76.0-2.0,,null,run_exp/static/images/task_images/land.jpg,null,,,,,,104,,,13,,,,,,,,,,,,,,
dig,256,733254,0.0-76.0-3.0,,,,,,,,,,,"[{""stimulus"":""run_exp/static/images/task_images/dig.jpg"",""time"":0.2300000051036477},{""stimulus"":""run_exp/static/images/task_images/land.jpg"",""time"":672.1099999849685},{""stimulus"":""run_exp/static/images/task_images/dig.jpg"",""time"":1339.7450000047684}]",[],13,,,,,,,,,,,,,,
harvest,257,734256,0.0-76.0-4.0,,null,run_exp/static/images/task_images/gems/104.jpg,null,,,,,,86,,,13,,,,,104,0.831725092,0.826923077,,,,,,,
decision,258,735056,0.0-76.0-5.0,,798.695,run_exp/static/images/task_images/land.jpg,65,,,,,,86,,,13,,,,,,,,80922,2,0,FALSE,,,
dig,259,737259,0.0-77.0-0.0,,,,,,,,,,,"[{""stimulus"":""run_exp/static/images/task_images/dig.jpg"",""time"":0.11500000255182385},{""stimulus"":""run_exp/static/images/task_images/land.jpg"",""time"":735.9249999863096},{""stimulus"":""run_exp/static/images/task_images/dig.jpg"",""time"":1467.2000000136904}]",[],13,,,,,,,,,,,,,,
harvest,260,738263,0.0-77.0-1.0,,null,run_exp/static/images/task_images/gems/86.jpg,null,,,,,,70,,,13,,,,,86,0.811235082,0.813953488,,,,,,,
decision,261,738854,0.0-77.0-2.0,,589.805,run_exp/static/images/task_images/land.jpg,65,,,,,,70,,,13,,,,,,,,84721,2,1,FALSE,,,
dig,262,741268,0.0-78.0-0.0,,,,,,,,,,,"[{""stimulus"":""run_exp/static/images/task_images/dig.jpg"",""time"":0.11999998241662979},{""stimulus"":""run_exp/static/images/task_images/land.jpg"",""time"":808.614999987185},{""stimulus"":""run_exp/static/images/task_images/dig.jpg"",""time"":1609.6299999626353}]",[],13,,,,,,,,,,,,,,
harvest,263,742273,0.0-78.0-1.0,,null,run_exp/static/images/task_images/gems/70.jpg,null,,,,,,58,,,13,,,,,70,0.833348964,0.828571429,,,,,,,
decision,264,742401,0.0-78.0-2.0,,126.745,run_exp/static/images/task_images/land.jpg,65,,,,,,58,,,13,,,,,,,,88267,2,2,FALSE,,,
dig,265,745280,0.0-79.0-0.0,,,,,,,,,,,"[{""stimulus"":""run_exp/static/images/task_images/dig.jpg"",""time"":0.11500000255182385},{""stimulus"":""run_exp/static/images/task_images/land.jpg"",""time"":962.8200000151992},{""stimulus"":""run_exp/static/images/task_images/dig.jpg"",""time"":1918.0000000051223}]",[],13,,,,,,,,,,,,,,
harvest,266,746282,0.0-79.0-1.0,,null,run_exp/static/images/task_images/gems/58.jpg,null,,,,,,50,,,13,,,,,58,0.855794849,0.862068966,,,,,,,
decision,267,746342,0.0-79.0-2.0,,58.555,run_exp/static/images/task_images/land.jpg,65,,,,,,50,,,13,,,,,,,,92208,2,3,FALSE,,,
dig,268,749286,0.0-80.0-0.0,,,,,,,,,,,"[{""stimulus"":""run_exp/static/images/task_images/dig.jpg"",""time"":0.12500002048909664},{""stimulus"":""run_exp/static/images/task_images/land.jpg"",""time"":983.9350000256673},{""stimulus"":""run_exp/static/images/task_images/dig.jpg"",""time"":1964.9700000300072}]",[],13,,,,,,,,,,,,,,
harvest,269,750289,0.0-80.0-1.0,,null,run_exp/static/images/task_images/gems/50.jpg,null,,,,,,39,,,13,,,,,50,0.773754622,0.78,,,,,,,
decision,270,750888,0.0-80.0-2.0,,597.91,run_exp/static/images/task_images/land.jpg,65,,,,,,39,,,13,,,,,,,,96754,2,4,FALSE,,,
dig,271,753296,0.0-81.0-0.0,,,,,,,,,,,"[{""stimulus"":""run_exp/static/images/task_images/dig.jpg"",""time"":0.13000000035390258},{""stimulus"":""run_exp/static/images/task_images/land.jpg"",""time"":805.2649999735877},{""stimulus"":""run_exp/static/images/task_images/dig.jpg"",""time"":1604.2199999792501}]",[],13,,,,,,,,,,,,,,
harvest,272,754299,0.0-81.0-1.0,,null,run_exp/static/images/task_images/gems/39.jpg,null,,,,,,35,,,13,,,,,39,0.902600217,0.897435897,,,,,,,
decision,273,755278,0.0-81.0-2.0,,977.315,run_exp/static/images/task_images/land.jpg,65,,,,,,35,,,13,,,,,,,,101144,2,5,FALSE,,,
dig,274,757304,0.0-82.0-0.0,,,,,,,,,,,"[{""stimulus"":""run_exp/static/images/task_images/dig.jpg"",""time"":0.11999998241662979},{""stimulus"":""run_exp/static/images/task_images/land.jpg"",""time"":675.4549999604933},{""stimulus"":""run_exp/static/images/task_images/dig.jpg"",""time"":1353.7849999847822}]",[],13,,,,,,,,,,,,,,
harvest,275,758306,0.0-82.0-1.0,,null,run_exp/static/images/task_images/gems/35.jpg,null,,,,,,27,,,13,,,,,35,0.785375436,0.771428571,,,,,,,
decision,276,758500,0.0-82.0-2.0,,192.335,run_exp/static/images/task_images/land.jpg,65,,,,,,27,,,13,,,,,,,,104366,2,6,FALSE,,,
dig,277,761313,0.0-83.0-0.0,,,,,,,,,,,"[{""stimulus"":""run_exp/static/images/task_images/dig.jpg"",""time"":0.12500002048909664},{""stimulus"":""run_exp/static/images/task_images/land.jpg"",""time"":936.7649999912828},{""stimulus"":""run_exp/static/images/task_images/dig.jpg"",""time"":1872.0249999896623}]",[],13,,,,,,,,,,,,,,
harvest,278,762318,0.0-83.0-1.0,,null,run_exp/static/images/task_images/gems/27.jpg,null,,,,,,21,,,13,,,,,27,0.795173311,0.777777778,,,,,,,
decision,279,762535,0.0-83.0-2.0,,215.835,run_exp/static/images/task_images/land.jpg,76,,,,,,21,,,13,,,,,,,,108401,2,7,TRUE,,,
travel,280,772324,0.0-84.0-0.0,,,,,,,,,,,"[{""stimulus"":""run_exp/static/images/task_images/rocket-01.jpg"",""time"":0.13000000035390258},{""stimulus"":""run_exp/static/images/task_images/rocket-02.jpg"",""time"":1089.1149999806657},{""stimulus"":""run_exp/static/images/task_images/rocket-03.jpg"",""time"":2177.1050000097603},{""stimulus"":""run_exp/static/images/task_images/rocket-04.jpg"",""time"":3262.849999999162},{""stimulus"":""run_exp/static/images/task_images/rocket-05.jpg"",""time"":4354.04499998549},{""stimulus"":""run_exp/static/images/task_images/rocket-06.jpg"",""time"":5439.675000030547},{""stimulus"":""run_exp/static/images/task_images/rocket-07.jpg"",""time"":6525.070000032429},{""stimulus"":""run_exp/static/images/task_images/rocket-08.jpg"",""time"":7610.779999988154},{""stimulus"":""run_exp/static/images/task_images/rocket-09.jpg"",""time"":8700.130000011995}]",[],13,,,,,,,,,,,,,,
alien_welcome,281,777329,0.0-84.0-1.0,,null,run_exp/static/images/task_images/aliens/old_aliens/planet/alien_planet-62.jpg,null,,,,,,,,,,,,62,"2,14,8,46,11,24,48,19,35,17,6,22,25,62,21,60,7,47,64,28,10,4,74,67,43,50,68,45,70,39,71,58,55,40,52,76",,,,,,,,,,
land,282,777834,0.0-84.0-2.0,,null,run_exp/static/images/task_images/land.jpg,null,,,,,,100,,,14,,,,,,,,,,,,,,
dig,283,779842,0.0-84.0-3.0,,,,,,,,,,,"[{""stimulus"":""run_exp/static/images/task_images/dig.jpg"",""time"":0.22500002523884177},{""stimulus"":""run_exp/static/images/task_images/land.jpg"",""time"":672.0750000094995},{""stimulus"":""run_exp/static/images/task_images/dig.jpg"",""time"":1339.6400000201538}]",[],14,,,,,,,,,,,,,,
harvest,284,780846,0.0-84.0-4.0,,null,run_exp/static/images/task_images/gems/100.jpg,null,,,,,,83,,,14,,,,,100,0.827494318,0.83,,,,,,,
decision,285,781360,0.0-84.0-5.0,,512.305,run_exp/static/images/task_images/land.jpg,65,,,,,,83,,,14,,,,,,,,127226,2,0,FALSE,,,
dig,286,783851,0.0-85.0-0.0,,,,,,,,,,,"[{""stimulus"":""run_exp/static/images/task_images/dig.jpg"",""time"":0.13000000035390258},{""stimulus"":""run_exp/static/images/task_images/land.jpg"",""time"":830.4850000422448},{""stimulus"":""run_exp/static/images/task_images/dig.jpg"",""time"":1660.9750000061467}]",[],14,,,,,,,,,,,,,,
harvest,287,784857,0.0-85.0-1.0,,null,run_exp/static/images/task_images/gems/83.jpg,null,,,,,,75,,,14,,,,,83,0.899323247,0.903614458,,,,,,,
decision,288,787860,0.0-85.0-2.0,,null,run_exp/static/images/task_images/land.jpg,null,,,,,,75,,,14,,,,,,,,133726,2,1,FALSE,,,
time_out,289,789867,0.0-86.0-0.0,,null,run_exp/static/images/task_images/time_out.jpg,null,,,,,,75,,,,,,,,,,,,,,,,,
decision,290,790482,0.0-86.0-1.0,,613.51,run_exp/static/images/task_images/land.jpg,65,,,,,,75,,,14,,,,,,,,136348,2,1,FALSE,,,
dig,291,792871,0.0-87.0-0.0,,,,,,,,,,,"[{""stimulus"":""run_exp/static/images/task_images/dig.jpg"",""time"":0.12499996228143573},{""stimulus"":""run_exp/static/images/task_images/land.jpg"",""time"":798.9250000100583},{""stimulus"":""run_exp/static/images/task_images/dig.jpg"",""time"":1594.2250000080094}]",[],14,,,,,,,,,,,,,,
harvest,292,793873,0.0-87.0-1.0,,null,run_exp/static/images/task_images/gems/75.jpg,null,,,,,,61,,,14,,,,,75,0.817811907,0.813333333,,,,,,,
decision,293,795847,0.0-87.0-2.0,,1973.11,run_exp/static/images/task_images/land.jpg,76,,,,,,61,,,14,,,,,,,,141713,2,2,TRUE,,,
travel,294,803871,0.0-88.0-0.0,,,,,,,,,,,"[{""stimulus"":""run_exp/static/images/task_images/rocket-01.jpg"",""time"":0.11500000255182385},{""stimulus"":""run_exp/static/images/task_images/rocket-02.jpg"",""time"":897.0149999950081},{""stimulus"":""run_exp/static/images/task_images/rocket-03.jpg"",""time"":1785.3050000267103},{""stimulus"":""run_exp/static/images/task_images/rocket-04.jpg"",""time"":2679.0150000015274},{""stimulus"":""run_exp/static/images/task_images/rocket-05.jpg"",""time"":3565.375000005588},{""stimulus"":""run_exp/static/images/task_images/rocket-06.jpg"",""time"":4455.889999982901},{""stimulus"":""run_exp/static/images/task_images/rocket-07.jpg"",""time"":5349.105000030249},{""stimulus"":""run_exp/static/images/task_images/rocket-08.jpg"",""time"":6237.855000013951},{""stimulus"":""run_exp/static/images/task_images/rocket-09.jpg"",""time"":7131.355000019539}]",[],14,,,,,,,,,,,,,,
alien_welcome,295,808874,0.0-88.0-1.0,,null,run_exp/static/images/task_images/aliens/old_aliens/planet/alien_planet-21.jpg,null,,,,,,,,,,,,21,"2,14,8,46,11,24,48,19,35,17,6,22,25,62,21,60,7,47,64,28,10,4,74,67,43,50,68,45,70,39,71,58,55,40,52,76",,,,,,,,,,
land,296,809379,0.0-88.0-2.0,,null,run_exp/static/images/task_images/land.jpg,null,,,,,,101,,,15,,,,,,,,,,,,,,
dig,297,811385,0.0-88.0-3.0,,,,,,,,,,,"[{""stimulus"":""run_exp/static/images/task_images/dig.jpg"",""time"":0.22499996703118086},{""stimulus"":""run_exp/static/images/task_images/land.jpg"",""time"":672.0750000094995},{""stimulus"":""run_exp/static/images/task_images/dig.jpg"",""time"":1339.479999965988}]",[],15,,,,,,,,,,,,,,
harvest,298,812386,0.0-88.0-4.0,,null,run_exp/static/images/task_images/gems/101.jpg,null,,,,,,86,,,15,,,,,101,0.854850349,0.851485149,,,,,,,
decision,299,812820,0.0-88.0-5.0,,432.55,run_exp/static/images/task_images/land.jpg,76,,,,,,86,,,15,,,,,,,,158686,2,0,TRUE,,,
travel,300,822394,0.0-89.0-0.0,,,,,,,,,,,"[{""stimulus"":""run_exp/static/images/task_images/rocket-01.jpg"",""time"":0.12499996228143573},{""stimulus"":""run_exp/static/images/task_images/rocket-02.jpg"",""time"":1063.7349999742582},{""stimulus"":""run_exp/static/images/task_images/rocket-03.jpg"",""time"":2128.3299999777228},{""stimulus"":""run_exp/static/images/task_images/rocket-04.jpg"",""time"":3191.1400000099093},{""stimulus"":""run_exp/static/images/task_images/rocket-05.jpg"",""time"":4253.809999965597},{""stimulus"":""run_exp/static/images/task_images/rocket-06.jpg"",""time"":5315.814999979921},{""stimulus"":""run_exp/static/images/task_images/rocket-07.jpg"",""time"":6384.04500001343},{""stimulus"":""run_exp/static/images/task_images/rocket-08.jpg"",""time"":7446.249999979045},{""stimulus"":""run_exp/static/images/task_images/rocket-09.jpg"",""time"":8508.499999996275}]",[],15,,,,,,,,,,,,,,
alien_welcome,301,827398,0.0-89.0-1.0,,null,run_exp/static/images/task_images/aliens/old_aliens/planet/alien_planet-60.jpg,null,,,,,,,,,,,,60,"2,14,8,46,11,24,48,19,35,17,6,22,25,62,21,60,7,47,64,28,10,4,74,67,43,50,68,45,70,39,71,58,55,40,52,76",,,,,,,,,,
land,302,827903,0.0-89.0-2.0,,null,run_exp/static/images/task_images/land.jpg,null,,,,,,105,,,16,,,,,,,,,,,,,,
dig,303,829908,0.0-89.0-3.0,,,,,,,,,,,"[{""stimulus"":""run_exp/static/images/task_images/dig.jpg"",""time"":0.22499996703118086},{""stimulus"":""run_exp/static/images/task_images/land.jpg"",""time"":668.5649999999441},{""stimulus"":""run_exp/static/images/task_images/dig.jpg"",""time"":1339.7699999623}]",[],16,,,,,,,,,,,,,,
harvest,304,830910,0.0-89.0-4.0,,null,run_exp/static/images/task_images/gems/105.jpg,null,,,,,,97,,,16,,,,,105,0.921985825,0.923809524,,,,,,,
decision,305,832284,0.0-89.0-5.0,,1372.455,run_exp/static/images/task_images/land.jpg,65,,,,,,97,,,16,,,,,,,,178150,2,0,FALSE,,,
dig,306,833917,0.0-90.0-0.0,,,,,,,,,,,"[{""stimulus"":""run_exp/static/images/task_images/dig.jpg"",""time"":0.13000000035390258},{""stimulus"":""run_exp/static/images/task_images/land.jpg"",""time"":544.1749999881722},{""stimulus"":""run_exp/static/images/task_images/dig.jpg"",""time"":1090.0849999743514}]",[],16,,,,,,,,,,,,,,
harvest,307,834919,0.0-90.0-1.0,,null,run_exp/static/images/task_images/gems/97.jpg,null,,,,,,71,,,16,,,,,97,0.734708152,0.731958763,,,,,,,
decision,308,834978,0.0-90.0-2.0,,56.43999996,run_exp/static/images/task_images/land.jpg,65,,,,,,71,,,16,,,,,,,,180844,2,1,FALSE,,,
dig,309,837925,0.0-91.0-0.0,,,,,,,,,,,"[{""stimulus"":""run_exp/static/images/task_images/dig.jpg"",""time"":0.12500002048909664},{""stimulus"":""run_exp/static/images/task_images/land.jpg"",""time"":984.4750000047497},{""stimulus"":""run_exp/static/images/task_images/dig.jpg"",""time"":1966.3750000181608}]",[],16,,,,,,,,,,,,,,
harvest,310,838927,0.0-91.0-1.0,,null,run_exp/static/images/task_images/gems/71.jpg,null,,,,,,50,,,16,,,,,71,0.701583762,0.704225352,,,,,,,
decision,311,839546,0.0-91.0-2.0,,618.135,run_exp/static/images/task_images/land.jpg,65,,,,,,50,,,16,,,,,,,,185412,2,2,FALSE,,,
dig,312,841933,0.0-92.0-0.0,,,,,,,,,,,"[{""stimulus"":""run_exp/static/images/task_images/dig.jpg"",""time"":0.11999998241662979},{""stimulus"":""run_exp/static/images/task_images/land.jpg"",""time"":794.0400000079535},{""stimulus"":""run_exp/static/images/task_images/dig.jpg"",""time"":1588.454999960959}]",[],16,,,,,,,,,,,,,,
harvest,313,842938,0.0-92.0-1.0,,null,run_exp/static/images/task_images/gems/50.jpg,null,,,,,,41,,,16,,,,,50,0.828459004,0.82,,,,,,,
decision,314,843257,0.0-92.0-2.0,,317.29,run_exp/static/images/task_images/land.jpg,65,,,,,,41,,,16,,,,,,,,189123,2,3,FALSE,,,
dig,315,845945,0.0-93.0-0.0,,,,,,,,,,,"[{""stimulus"":""run_exp/static/images/task_images/dig.jpg"",""time"":0.12499996228143573},{""stimulus"":""run_exp/static/images/task_images/land.jpg"",""time"":896.0349999833852},{""stimulus"":""run_exp/static/images/task_images/dig.jpg"",""time"":1793.0349999805912}]",[],16,,,,,,,,,,,,,,
harvest,316,846947,0.0-93.0-1.0,,null,run_exp/static/images/task_images/gems/41.jpg,null,,,,,,33,,,16,,,,,41,0.811106607,0.804878049,,,,,,,
decision,317,847949,0.0-93.0-2.0,,1001.32,run_exp/static/images/task_images/land.jpg,65,,,,,,33,,,16,,,,,,,,193815,2,4,FALSE,,,
dig,318,849951,0.0-94.0-0.0,,,,,,,,,,,"[{""stimulus"":""run_exp/static/images/task_images/dig.jpg"",""time"":0.1550000160932541},{""stimulus"":""run_exp/static/images/task_images/land.jpg"",""time"":668.5249999864027},{""stimulus"":""run_exp/static/images/task_images/dig.jpg"",""time"":1336.0499999835156}]",[],16,,,,,,,,,,,,,,
harvest,319,850954,0.0-94.0-1.0,,null,run_exp/static/images/task_images/gems/33.jpg,null,,,,,,27,,,16,,,,,33,0.815386652,0.818181818,,,,,,,
decision,320,851854,0.0-94.0-2.0,,899.165,run_exp/static/images/task_images/land.jpg,76,,,,,,27,,,16,,,,,,,,197720,2,5,TRUE,,,
travel,321,860958,0.0-95.0-0.0,,,,,,,,,,,"[{""stimulus"":""run_exp/static/images/task_images/rocket-01.jpg"",""time"":0.12500002048909664},{""stimulus"":""run_exp/static/images/task_images/rocket-02.jpg"",""time"":1011.705000011716},{""stimulus"":""run_exp/static/images/task_images/rocket-03.jpg"",""time"":2025.275000021793},{""stimulus"":""run_exp/static/images/task_images/rocket-04.jpg"",""time"":3035.250000015367},{""stimulus"":""run_exp/static/images/task_images/rocket-05.jpg"",""time"":4047.0750000094995},{""stimulus"":""run_exp/static/images/task_images/rocket-06.jpg"",""time"":5056.840000033844},{""stimulus"":""run_exp/static/images/task_images/rocket-07.jpg"",""time"":6068.0649999994785},{""stimulus"":""run_exp/static/images/task_images/rocket-08.jpg"",""time"":7078.240000002552},{""stimulus"":""run_exp/static/images/task_images/rocket-09.jpg"",""time"":8089.930000016466}]",[],16,,,,,,,,,,,,,,
alien_welcome,322,865960,0.0-95.0-1.0,,null,run_exp/static/images/task_images/aliens/old_aliens/planet/alien_planet-7.jpg,null,,,,,,,,,,,,7,"2,14,8,46,11,24,48,19,35,17,6,22,25,62,21,60,7,47,64,28,10,4,74,67,43,50,68,45,70,39,71,58,55,40,52,76",,,,,,,,,,
land,323,866466,0.0-95.0-2.0,,null,run_exp/static/images/task_images/land.jpg,null,,,,,,96,,,17,,,,,,,,,,,,,,
dig,324,868473,0.0-95.0-3.0,,,,,,,,,,,"[{""stimulus"":""run_exp/static/images/task_images/dig.jpg"",""time"":0.24500000290572643},{""stimulus"":""run_exp/static/images/task_images/land.jpg"",""time"":672.2900000168011},{""stimulus"":""run_exp/static/images/task_images/dig.jpg"",""time"":1339.7600000025705}]",[],17,,,,,,,,,,,,,,
harvest,325,869476,0.0-95.0-4.0,,null,run_exp/static/images/task_images/gems/96.jpg,null,,,,,,81,,,17,,,,,96,0.840777913,0.84375,,,,,,,
decision,326,869984,0.0-95.0-5.0,,505.77,run_exp/static/images/task_images/land.jpg,65,,,,,,81,,,17,,,,,,,,215850,2,0,FALSE,,,
dig,327,872481,0.0-96.0-0.0,,,,,,,,,,,"[{""stimulus"":""run_exp/static/images/task_images/dig.jpg"",""time"":0.13999996008351445},{""stimulus"":""run_exp/static/images/task_images/land.jpg"",""time"":832.689999951981},{""stimulus"":""run_exp/static/images/task_images/dig.jpg"",""time"":1663.0549999536015}]",[],17,,,,,,,,,,,,,,
harvest,328,873486,0.0-96.0-1.0,,null,run_exp/static/images/task_images/gems/81.jpg,null,,,,,,63,,,17,,,,,81,0.782398298,0.777777778,,,,,,,
decision,329,873755,0.0-96.0-2.0,,267.555,run_exp/static/images/task_images/land.jpg,65,,,,,,63,,,17,,,,,,,,219621,2,1,FALSE,,,
dig,330,876490,0.0-97.0-0.0,,,,,,,,,,,"[{""stimulus"":""run_exp/static/images/task_images/dig.jpg"",""time"":0.13500003842636943},{""stimulus"":""run_exp/static/images/task_images/land.jpg"",""time"":915.3350000269711},{""stimulus"":""run_exp/static/images/task_images/dig.jpg"",""time"":1822.0950000104494}]",[],17,,,,,,,,,,,,,,
harvest,331,877495,0.0-97.0-1.0,,null,run_exp/static/images/task_images/gems/63.jpg,null,,,,,,52,,,17,,,,,63,0.820458248,0.825396825,,,,,,,
decision,332,878205,0.0-97.0-2.0,,708.64,run_exp/static/images/task_images/land.jpg,65,,,,,,52,,,17,,,,,,,,224071,2,2,FALSE,,,
dig,333,880502,0.0-98.0-0.0,,,,,,,,,,,"[{""stimulus"":""run_exp/static/images/task_images/dig.jpg"",""time"":0.12499996228143573},{""stimulus"":""run_exp/static/images/task_images/land.jpg"",""time"":766.0150000010617},{""stimulus"":""run_exp/static/images/task_images/dig.jpg"",""time"":1527.4199999985285}]",[],17,,,,,,,,,,,,,,
harvest,334,881507,0.0-98.0-1.0,,null,run_exp/static/images/task_images/gems/52.jpg,null,,,,,,43,,,17,,,,,52,0.829205002,0.826923077,,,,,,,
decision,335,881559,0.0-98.0-2.0,,50.84500002,run_exp/static/images/task_images/land.jpg,65,,,,,,43,,,17,,,,,,,,227425,2,3,FALSE,,,
dig,336,884516,0.0-99.0-0.0,,,,,,,,,,,"[{""stimulus"":""run_exp/static/images/task_images/dig.jpg"",""time"":0.13000000035390258},{""stimulus"":""run_exp/static/images/task_images/land.jpg"",""time"":985.8499999972992},{""stimulus"":""run_exp/static/images/task_images/dig.jpg"",""time"":1970.0100000482053}]",[],17,,,,,,,,,,,,,,
harvest,337,885518,0.0-99.0-1.0,,null,run_exp/static/images/task_images/gems/43.jpg,null,,,,,,32,,,17,,,,,43,0.735457408,0.744186047,,,,,,,
decision,338,886356,0.0-99.0-2.0,,836.85,run_exp/static/images/task_images/land.jpg,76,,,,,,32,,,17,,,,,,,,232222,2,4,TRUE,,,
travel,339,895524,0.0-100.0-0.0,,,,,,,,,,,"[{""stimulus"":""run_exp/static/images/task_images/rocket-01.jpg"",""time"":0.13499998021870852},{""stimulus"":""run_exp/static/images/task_images/rocket-02.jpg"",""time"":1021.6549999895506},{""stimulus"":""run_exp/static/images/task_images/rocket-03.jpg"",""time"":2037.9550000070594},{""stimulus"":""run_exp/static/images/task_images/rocket-04.jpg"",""time"":3055.950000009034},{""stimulus"":""run_exp/static/images/task_images/rocket-05.jpg"",""time"":4075.3050000057556},{""stimulus"":""run_exp/static/images/task_images/rocket-06.jpg"",""time"":5091.175000008661},{""stimulus"":""run_exp/static/images/task_images/rocket-07.jpg"",""time"":6112.359999970067},{""stimulus"":""run_exp/static/images/task_images/rocket-08.jpg"",""time"":7128.804999985732},{""stimulus"":""run_exp/static/images/task_images/rocket-09.jpg"",""time"":8144.770000013523}]",[],17,,,,,,,,,,,,,,
alien_welcome,340,900529,0.0-100.0-1.0,,null,run_exp/static/images/task_images/aliens/old_aliens/planet/alien_planet-47.jpg,null,,,,,,,,,,,,47,"2,14,8,46,11,24,48,19,35,17,6,22,25,62,21,60,7,47,64,28,10,4,74,67,43,50,68,45,70,39,71,58,55,40,52,76",,,,,,,,,,
land,341,901035,0.0-100.0-2.0,,null,run_exp/static/images/task_images/land.jpg,null,,,,,,93,,,18,,,,,,,,,,,,,,
dig,342,903043,0.0-100.0-3.0,,,,,,,,,,,"[{""stimulus"":""run_exp/static/images/task_images/dig.jpg"",""time"":0.23499998496845365},{""stimulus"":""run_exp/static/images/task_images/land.jpg"",""time"":668.0300000007264},{""stimulus"":""run_exp/static/images/task_images/dig.jpg"",""time"":1339.734999986831}]",[],18,,,,,,,,,,,,,,
harvest,343,904047,0.0-100.0-4.0,,null,run_exp/static/images/task_images/gems/93.jpg,null,,,,,,48,,,18,,,,,93,0.513397805,0.516129032,,,,,,,
decision,344,904472,0.0-100.0-5.0,,423.005,run_exp/static/images/task_images/land.jpg,65,,,,,,48,,,18,,,,,,,,250338,2,0,FALSE,,,
dig,345,907054,0.0-101.0-0.0,,,,,,,,,,,"[{""stimulus"":""run_exp/static/images/task_images/dig.jpg"",""time"":0.11999998241662979},{""stimulus"":""run_exp/static/images/task_images/land.jpg"",""time"":859.5600000116974},{""stimulus"":""run_exp/static/images/task_images/dig.jpg"",""time"":1719.7049999958836}]",[],18,,,,,,,,,,,,,,
harvest,346,908056,0.0-101.0-1.0,,null,run_exp/static/images/task_images/gems/48.jpg,null,,,,,,24,,,18,,,,,48,0.496734916,0.5,,,,,,,
decision,347,908234,0.0-101.0-2.0,,177.185,run_exp/static/images/task_images/land.jpg,65,,,,,,24,,,18,,,,,,,,254100,2,1,FALSE,,,
dig,348,911060,0.0-102.0-0.0,,,,,,,,,,,"[{""stimulus"":""run_exp/static/images/task_images/dig.jpg"",""time"":0.13000000035390258},{""stimulus"":""run_exp/static/images/task_images/land.jpg"",""time"":941.6499999933876},{""stimulus"":""run_exp/static/images/task_images/dig.jpg"",""time"":1881.969999987632}]",[],18,,,,,,,,,,,,,,
harvest,349,912064,0.0-102.0-1.0,,null,run_exp/static/images/task_images/gems/24.jpg,null,,,,,,11,,,18,,,,,24,0.450861243,0.458333333,,,,,,,
decision,350,912147,0.0-102.0-2.0,,81.58999996,run_exp/static/images/task_images/land.jpg,65,,,,,,11,,,18,,,,,,,,258013,2,2,FALSE,,,
dig,351,915067,0.0-103.0-0.0,,,,,,,,,,,"[{""stimulus"":""run_exp/static/images/task_images/dig.jpg"",""time"":0.12499996228143573},{""stimulus"":""run_exp/static/images/task_images/land.jpg"",""time"":975.9649999905378},{""stimulus"":""run_exp/static/images/task_images/dig.jpg"",""time"":1945.2199999941513}]",[],18,,,,,,,,,,,,,,
harvest,352,916070,0.0-103.0-1.0,,null,run_exp/static/images/task_images/gems/11.jpg,null,,,,,,4,,,18,,,,,11,0.392967699,0.363636364,,,,,,,
decision,353,916124,0.0-103.0-2.0,,52.975,run_exp/static/images/task_images/land.jpg,65,,,,,,4,,,18,,,,,,,,261990,2,3,FALSE,,,
dig,354,919076,0.0-104.0-0.0,,,,,,,,,,,"[{""stimulus"":""run_exp/static/images/task_images/dig.jpg"",""time"":0.13499998021870852},{""stimulus"":""run_exp/static/images/task_images/land.jpg"",""time"":983.8650000165217},{""stimulus"":""run_exp/static/images/task_images/dig.jpg"",""time"":1968.3799999766052}]",[],18,,,,,,,,,,,,,,
harvest,355,920081,0.0-104.0-1.0,,null,run_exp/static/images/task_images/gems/4.jpg,null,,,,,,2,,,18,,,,,4,0.50493019,0.5,,,,,,,
decision,356,920818,0.0-104.0-2.0,,736.195,run_exp/static/images/task_images/land.jpg,76,,,,,,2,,,18,,,,,,,,266684,2,4,TRUE,,,
travel,357,930084,0.0-105.0-0.0,,,,,,,,,,,"[{""stimulus"":""run_exp/static/images/task_images/rocket-01.jpg"",""time"":0.12500002048909664},{""stimulus"":""run_exp/static/images/task_images/rocket-02.jpg"",""time"":1030.1999999792315},{""stimulus"":""run_exp/static/images/task_images/rocket-03.jpg"",""time"":2058.9250000193715},{""stimulus"":""run_exp/static/images/task_images/rocket-04.jpg"",""time"":3090.2599999681115},{""stimulus"":""run_exp/static/images/task_images/rocket-05.jpg"",""time"":4117.774999991525},{""stimulus"":""run_exp/static/images/task_images/rocket-06.jpg"",""time"":5151.075000001583},{""stimulus"":""run_exp/static/images/task_images/rocket-07.jpg"",""time"":6178.499999979977},{""stimulus"":""run_exp/static/images/task_images/rocket-08.jpg"",""time"":7208.2550000050105},{""stimulus"":""run_exp/static/images/task_images/rocket-09.jpg"",""time"":8233.514999970794}]",[],18,,,,,,,,,,,,,,
alien_welcome,358,935087,0.0-105.0-1.0,,null,run_exp/static/images/task_images/aliens/old_aliens/planet/alien_planet-64.jpg,null,,,,,,,,,,,,64,"2,14,8,46,11,24,48,19,35,17,6,22,25,62,21,60,7,47,64,28,10,4,74,67,43,50,68,45,70,39,71,58,55,40,52,76",,,,,,,,,,
land,359,935592,0.0-105.0-2.0,,null,run_exp/static/images/task_images/land.jpg,null,,,,,,94,,,19,,,,,,,,,,,,,,
dig,360,937600,0.0-105.0-3.0,,,,,,,,,,,"[{""stimulus"":""run_exp/static/images/task_images/dig.jpg"",""time"":0.2300000051036477},{""stimulus"":""run_exp/static/images/task_images/land.jpg"",""time"":672.3750000237487},{""stimulus"":""run_exp/static/images/task_images/dig.jpg"",""time"":1339.830000011716}]",[],19,,,,,,,,,,,,,,
harvest,361,938605,0.0-105.0-4.0,,null,run_exp/static/images/task_images/gems/94.jpg,null,,,,,,85,,,19,,,,,94,0.900655036,0.904255319,,,,,,,
decision,362,939524,0.0-105.0-5.0,,918.075,run_exp/static/images/task_images/land.jpg,65,,,,,,85,,,19,,,,,,,,285390,2,0,FALSE,,,
dig,363,941609,0.0-106.0-0.0,,,,,,,,,,,"[{""stimulus"":""run_exp/static/images/task_images/dig.jpg"",""time"":0.13000000035390258},{""stimulus"":""run_exp/static/images/task_images/land.jpg"",""time"":697.0800000126474},{""stimulus"":""run_exp/static/images/task_images/dig.jpg"",""time"":1387.7799999900162}]",[],19,,,,,,,,,,,,,,
harvest,364,942616,0.0-106.0-1.0,,null,run_exp/static/images/task_images/gems/85.jpg,null,,,,,,73,,,19,,,,,85,0.863779547,0.858823529,,,,,,,
decision,365,942680,0.0-106.0-2.0,,62.98499997,run_exp/static/images/task_images/land.jpg,65,,,,,,73,,,19,,,,,,,,288546,2,1,FALSE,,,
dig,366,945623,0.0-107.0-0.0,,,,,,,,,,,"[{""stimulus"":""run_exp/static/images/task_images/dig.jpg"",""time"":0.1200000406242907},{""stimulus"":""run_exp/static/images/task_images/land.jpg"",""time"":982.190000009723},{""stimulus"":""run_exp/static/images/task_images/dig.jpg"",""time"":1961.1150000127964}]",[],19,,,,,,,,,,,,,,
harvest,367,946629,0.0-107.0-1.0,,null,run_exp/static/images/task_images/gems/73.jpg,null,,,,,,54,,,19,,,,,73,0.732987081,0.739726027,,,,,,,
decision,368,947092,0.0-107.0-2.0,,462.78,run_exp/static/images/task_images/land.jpg,65,,,,,,54,,,19,,,,,,,,292958,2,2,FALSE,,,
dig,369,949632,0.0-108.0-0.0,,,,,,,,,,,"[{""stimulus"":""run_exp/static/images/task_images/dig.jpg"",""time"":0.12500002048909664},{""stimulus"":""run_exp/static/images/task_images/land.jpg"",""time"":848.9700000500306},{""stimulus"":""run_exp/static/images/task_images/dig.jpg"",""time"":1691.5200000512414}]",[],19,,,,,,,,,,,,,,
harvest,370,950637,0.0-108.0-1.0,,null,run_exp/static/images/task_images/gems/54.jpg,null,,,,,,49,,,19,,,,,54,0.916090923,0.907407407,,,,,,,
decision,371,950734,0.0-108.0-2.0,,96.43999999,run_exp/static/images/task_images/land.jpg,65,,,,,,49,,,19,,,,,,,,296600,2,3,FALSE,,,
dig,372,953639,0.0-109.0-0.0,,,,,,,,,,,"[{""stimulus"":""run_exp/static/images/task_images/dig.jpg"",""time"":0.109999964479357},{""stimulus"":""run_exp/static/images/task_images/land.jpg"",""time"":969.8300000163727},{""stimulus"":""run_exp/static/images/task_images/dig.jpg"",""time"":1939.3849999760278}]",[],19,,,,,,,,,,,,,,
harvest,373,954644,0.0-109.0-1.0,,null,run_exp/static/images/task_images/gems/49.jpg,null,,,,,,39,,,19,,,,,49,0.803988683,0.795918367,,,,,,,
decision,374,954699,0.0-109.0-2.0,,53.66500001,run_exp/static/images/task_images/land.jpg,65,,,,,,39,,,19,,,,,,,,300565,2,4,TRUE,,,
end_of_block_continue,375,963526,0.0-110.0-0.0,,null,run_exp/static/audio/clip_32_block_end.m4a,,,,,,null,,,,,,,,,,,,,,,,,,
alien_welcome,376,968534,0.0-111.0-0.0,,null,run_exp/static/images/task_images/aliens/old_aliens/planet/alien_planet-28.jpg,null,,,,,,,,,,,,28,"2,14,8,46,11,24,48,19,35,17,6,22,25,62,21,60,7,47,64,28,10,4,74,67,43,50,68,45,70,39,71,58,55,40,52,76",,,,,,,,,,
land,377,969040,0.0-111.0-1.0,,null,run_exp/static/images/task_images/land.jpg,null,,,,,,101,,,20,,,,,,,,,,,,,,
dig,378,971049,0.0-111.0-2.0,,,,,,,,,,,"[{""stimulus"":""run_exp/static/images/task_images/dig.jpg"",""time"":0.2300000051036477},{""stimulus"":""run_exp/static/images/task_images/land.jpg"",""time"":670.830000017304},{""stimulus"":""run_exp/static/images/task_images/dig.jpg"",""time"":1340.1550000417046}]",[],20,,,,,,,,,,,,,,
harvest,379,972053,0.0-111.0-3.0,,null,run_exp/static/images/task_images/gems/101.jpg,null,,,,,,58,,,20,,,,,101,0.578292764,0.574257426,,,,,,,
decision,380,972974,0.0-111.0-4.0,,919.68,run_exp/static/images/task_images/land.jpg,65,,,,,,58,,,20,,,,,,,,9443,3,0,FALSE,,,
dig,381,975060,0.0-112.0-0.0,,,,,,,,,,,"[{""stimulus"":""run_exp/static/images/task_images/dig.jpg"",""time"":0.13000000035390258},{""stimulus"":""run_exp/static/images/task_images/land.jpg"",""time"":695.2750000054948},{""stimulus"":""run_exp/static/images/task_images/dig.jpg"",""time"":1388.3950000163168}]",[],20,,,,,,,,,,,,,,
harvest,382,976065,0.0-112.0-1.0,,null,run_exp/static/images/task_images/gems/58.jpg,null,,,,,,33,,,20,,,,,58,0.567079783,0.568965517,,,,,,,
decision,383,978371,0.0-112.0-2.0,,2305.12,run_exp/static/images/task_images/land.jpg,65,,,,,,33,,,20,,,,,,,,14840,3,1,FALSE,,,
dig,384,979072,0.0-113.0-0.0,,,,,,,,,,,"[{""stimulus"":""run_exp/static/images/task_images/dig.jpg"",""time"":0.12500002048909664},{""stimulus"":""run_exp/static/images/task_images/land.jpg"",""time"":235.18499999772757},{""stimulus"":""run_exp/static/images/task_images/dig.jpg"",""time"":468.0200000293553}]",[],20,,,,,,,,,,,,,,
harvest,385,980077,0.0-113.0-1.0,,null,run_exp/static/images/task_images/gems/33.jpg,null,,,,,,18,,,20,,,,,33,0.559526826,0.545454545,,,,,,,
decision,386,980760,0.0-113.0-2.0,,682.36,run_exp/static/images/task_images/land.jpg,65,,,,,,18,,,20,,,,,,,,17229,3,2,FALSE,,,
dig,387,983083,0.0-114.0-0.0,,,,,,,,,,,"[{""stimulus"":""run_exp/static/images/task_images/dig.jpg"",""time"":0.12500002048909664},{""stimulus"":""run_exp/static/images/task_images/land.jpg"",""time"":776.73500002129},{""stimulus"":""run_exp/static/images/task_images/dig.jpg"",""time"":1547.0750000094995}]",[],20,,,,,,,,,,,,,,
harvest,388,984090,0.0-114.0-1.0,,null,run_exp/static/images/task_images/gems/18.jpg,null,,,,,,9,,,20,,,,,18,0.51492919,0.5,,,,,,,
decision,389,984317,0.0-114.0-2.0,,225.68,run_exp/static/images/task_images/land.jpg,65,,,,,,9,,,20,,,,,,,,20786,3,3,FALSE,,,
dig,390,987094,0.0-115.0-0.0,,,,,,,,,,,"[{""stimulus"":""run_exp/static/images/task_images/dig.jpg"",""time"":0.12500002048909664},{""stimulus"":""run_exp/static/images/task_images/land.jpg"",""time"":930.0149999908172},{""stimulus"":""run_exp/static/images/task_images/dig.jpg"",""time"":1853.3099999767728}]",[],20,,,,,,,,,,,,,,
harvest,391,988096,0.0-115.0-1.0,,null,run_exp/static/images/task_images/gems/9.jpg,null,,,,,,5,,,20,,,,,9,0.600221526,0.555555556,,,,,,,
decision,392,988358,0.0-115.0-2.0,,261.38,run_exp/static/images/task_images/land.jpg,65,,,,,,5,,,20,,,,,,,,24827,3,4,FALSE,,,
dig,393,991102,0.0-116.0-0.0,,,,,,,,,,,"[{""stimulus"":""run_exp/static/images/task_images/dig.jpg"",""time"":0.11999998241662979},{""stimulus"":""run_exp/static/images/task_images/land.jpg"",""time"":914.8299999651499},{""stimulus"":""run_exp/static/images/task_images/dig.jpg"",""time"":1830.004999996163}]",[],20,,,,,,,,,,,,,,
harvest,394,992108,0.0-116.0-1.0,,null,run_exp/static/images/task_images/gems/5.jpg,null,,,,,,2,,,20,,,,,5,0.480749958,0.4,,,,,,,
decision,395,992898,0.0-116.0-2.0,,788.13,run_exp/static/images/task_images/land.jpg,76,,,,,,2,,,20,,,,,,,,29367,3,5,TRUE,,,
travel,396,1002109,0.0-117.0-0.0,,,,,,,,,,,"[{""stimulus"":""run_exp/static/images/task_images/rocket-01.jpg"",""time"":0.13500003842636943},{""stimulus"":""run_exp/static/images/task_images/rocket-02.jpg"",""time"":1028.0299999867566},{""stimulus"":""run_exp/static/images/task_images/rocket-03.jpg"",""time"":2049.895000003744},{""stimulus"":""run_exp/static/images/task_images/rocket-04.jpg"",""time"":3072.2100000130013},{""stimulus"":""run_exp/static/images/task_images/rocket-05.jpg"",""time"":4096.580000012182},{""stimulus"":""run_exp/static/images/task_images/rocket-06.jpg"",""time"":5119.6750000235625},{""stimulus"":""run_exp/static/images/task_images/rocket-07.jpg"",""time"":6142.9750000243075},{""stimulus"":""run_exp/static/images/task_images/rocket-08.jpg"",""time"":7165.6650000368245},{""stimulus"":""run_exp/static/images/task_images/rocket-09.jpg"",""time"":8188.759999989998}]",[],20,,,,,,,,,,,,,,
alien_welcome,397,1007115,0.0-117.0-1.0,,null,run_exp/static/images/task_images/aliens/old_aliens/planet/alien_planet-10.jpg,null,,,,,,,,,,,,10,"2,14,8,46,11,24,48,19,35,17,6,22,25,62,21,60,7,47,64,28,10,4,74,67,43,50,68,45,70,39,71,58,55,40,52,76",,,,,,,,,,
land,398,1007619,0.0-117.0-2.0,,null,run_exp/static/images/task_images/land.jpg,null,,,,,,100,,,21,,,,,,,,,,,,,,
