"trial_type","trial_index","time_elapsed","internal_node_id","interactions","blur_events","focus_events","fullscreenenter_events","fullscreenexit_events","success"
"pavlovia","0","2","0.0-0.0","""event"",""trial"",""time""
""fullscreenenter"",""1"",""2618""
""fullscreenenter"",""1"",""2618""
","
","
","""event"",""trial"",""time""
""fullscreenenter"",""1"",""2618""
""fullscreenenter"",""1"",""2618""
","
",""
"fullscreen","1","3547","0.0-1.0","""event"",""trial"",""time""
""fullscreenenter"",""1"",""2618""
""fullscreenenter"",""1"",""2618""
""fullscreenexit"",""2"",""20169""
""fullscreenexit"",""2"",""20169""
""blur"",""2"",""23010""
","""event"",""trial"",""time""
""blur"",""2"",""23010""
","
","""event"",""trial"",""time""
""fullscreenenter"",""1"",""2618""
""fullscreenenter"",""1"",""2618""
","""event"",""trial"",""time""
""fullscreenexit"",""2"",""20169""
""fullscreenexit"",""2"",""20169""
","true"
