trial_type,trial_index,time_elapsed,internal_node_id,interactions,blur_events,focus_events,fullscreenenter_events,fullscreenexit_events,success,rt,stimulus,key_press,prompt,subject_id,participant_id,age,gender,button_pressed,next_reward,animation_sequence,responses,planet,curr_prac_trial,n_prac_rounds,alien,aliens,reward_received,decay_rate_actual,decay_rate_exp,time_in_block,block_num,prt,last_trial_on_planet,button_html,bonus,num_failures
pavlovia,0,2,0.0-0.0,"""event"",""trial"",""time""
""blur"",""0"",""0""
""focus"",""0"",""0""
""blur"",""0"",""0""
""focus"",""0"",""0""
""fullscreenenter"",""1"",""5086""
","""event"",""trial"",""time""
""blur"",""0"",""0""
""blur"",""0"",""0""
","""event"",""trial"",""time""
""focus"",""0"",""0""
""focus"",""0"",""0""
","""event"",""trial"",""time""
""fullscreenenter"",""1"",""5086""
","
",,,,,,,,,,,,,,,,,,,,,,,,,,,,
fullscreen,1,6066,0.0-1.0,"""event"",""trial"",""time""
""blur"",""0"",""0""
""focus"",""0"",""0""
""blur"",""0"",""0""
""focus"",""0"",""0""
""fullscreenenter"",""1"",""5086""
""fullscreenexit"",""2"",""6220""
","""event"",""trial"",""time""
""blur"",""0"",""0""
""blur"",""0"",""0""
","""event"",""trial"",""time""
""focus"",""0"",""0""
""focus"",""0"",""0""
","""event"",""trial"",""time""
""fullscreenenter"",""1"",""5086""
","""event"",""trial"",""time""
""fullscreenexit"",""2"",""6220""
",TRUE,,,,,,,,,,,,,,,,,,,,,,,,,,,
instruc_welcome,2,15818,0.0-2.0,"""event"",""trial"",""time""
""blur"",""0"",""0""
""focus"",""0"",""0""
""blur"",""0"",""0""
""focus"",""0"",""0""
""fullscreenenter"",""1"",""5086""
""fullscreenexit"",""2"",""6220""
","""event"",""trial"",""time""
""blur"",""0"",""0""
""blur"",""0"",""0""
","""event"",""trial"",""time""
""focus"",""0"",""0""
""focus"",""0"",""0""
","""event"",""trial"",""time""
""fullscreenenter"",""1"",""5086""
","""event"",""trial"",""time""
""fullscreenexit"",""2"",""6220""
",,null,run_exp/static/audio/clip_1_welcome.m4a,null,"<p>Howdy! In this experiment, you’ll be an explorer traveling through space to collect space treasure.</p><p>Your mission is to collect as much treasure as possible.</p><br><br><p><img src='run_exp/static/images/task_images/opening_img-01.jpg' height='300' width='auto'></p>",8896,3541,8.1,Female,,,,,,,,,,,,,,,,,,,
audio-keyboard-response,3,32397,0.0-3.0,"""event"",""trial"",""time""
""blur"",""0"",""0""
""focus"",""0"",""0""
""blur"",""0"",""0""
""focus"",""0"",""0""
""fullscreenenter"",""1"",""5086""
""fullscreenexit"",""2"",""6220""
","""event"",""trial"",""time""
""blur"",""0"",""0""
""blur"",""0"",""0""
","""event"",""trial"",""time""
""focus"",""0"",""0""
""focus"",""0"",""0""
","""event"",""trial"",""time""
""fullscreenenter"",""1"",""5086""
","""event"",""trial"",""time""
""fullscreenexit"",""2"",""6220""
",,null,run_exp/static/audio/clip_2_move.m4a,null,,,,,,,,,,,,,,,,,,,,,,,,
welcome_dec,4,44954,0.0-4.0,"""event"",""trial"",""time""
""blur"",""0"",""0""
""focus"",""0"",""0""
""blur"",""0"",""0""
""focus"",""0"",""0""
""fullscreenenter"",""1"",""5086""
""fullscreenexit"",""2"",""6220""
","""event"",""trial"",""time""
""blur"",""0"",""0""
""blur"",""0"",""0""
","""event"",""trial"",""time""
""focus"",""0"",""0""
""focus"",""0"",""0""
","""event"",""trial"",""time""
""fullscreenenter"",""1"",""5086""
","""event"",""trial"",""time""
""fullscreenexit"",""2"",""6220""
",,12552.1,"<p>Howdy! In this experiment, you’ll be an explorer traveling through space to collect space treasure.</p><p>Your mission is to collect as much treasure as possible.</p><br><br><p><img src='run_exp/static/images/task_images/opening_img-01.jpg' height='300' width='auto'></p>",,,,,,,1,,,,,,,,,,,,,,,,,,
html-keyboard-response,5,46545,0.0-5.0,"""event"",""trial"",""time""
""blur"",""0"",""0""
""focus"",""0"",""0""
""blur"",""0"",""0""
""focus"",""0"",""0""
""fullscreenenter"",""1"",""5086""
""fullscreenexit"",""2"",""6220""
","""event"",""trial"",""time""
""blur"",""0"",""0""
""blur"",""0"",""0""
","""event"",""trial"",""time""
""focus"",""0"",""0""
""focus"",""0"",""0""
","""event"",""trial"",""time""
""fullscreenenter"",""1"",""5086""
","""event"",""trial"",""time""
""fullscreenexit"",""2"",""6220""
",,1588.8,"<p>Howdy! In this experiment, you’ll be an explorer traveling through space to collect space treasure.</p><p>Your mission is to collect as much treasure as possible.</p><br><br><p><img src='run_exp/static/images/task_images/opening_img-01.jpg' height='300' width='auto'></p><button class=""jspsych-html-btn-unchosen""><img src=""run_exp/static/images/task_images/planet-01.jpg"" height=""50""></button><button class=""jspsych-html-btn-chosen""><img src=""run_exp/static/images/task_images/planet-02.jpg"" height=""50""></button><p><b>[press the space bar to lock in your answer]<b><br></p>",32,,,,,,,,,,,,,,,,,,,,,,,,
instruc_goal,6,56578,0.0-6.0-0.0,"""event"",""trial"",""time""
""blur"",""0"",""0""
""focus"",""0"",""0""
""blur"",""0"",""0""
""focus"",""0"",""0""
""fullscreenenter"",""1"",""5086""
""fullscreenexit"",""2"",""6220""
","""event"",""trial"",""time""
""blur"",""0"",""0""
""blur"",""0"",""0""
","""event"",""trial"",""time""
""focus"",""0"",""0""
""focus"",""0"",""0""
","""event"",""trial"",""time""
""fullscreenenter"",""1"",""5086""
","""event"",""trial"",""time""
""fullscreenexit"",""2"",""6220""
",,null,run_exp/static/audio/clip_3_goal.m4a,null,"<p> As a space explorer, you’ll visit different planets to dig for space treasure, these pink gems.</p> <p> The more treasure you dig up, the more bonus money you’ll win! </p><br><br><p><img src='run_exp/static/images/task_images/pink_gem.jpg' height='300' width='auto'></p>",,,,,,,,,,,,,,,,,,,,,,,
instruc_goal,7,65251,0.0-6.0-1.0,"""event"",""trial"",""time""
""blur"",""0"",""0""
""focus"",""0"",""0""
""blur"",""0"",""0""
""focus"",""0"",""0""
""fullscreenenter"",""1"",""5086""
""fullscreenexit"",""2"",""6220""
","""event"",""trial"",""time""
""blur"",""0"",""0""
""blur"",""0"",""0""
","""event"",""trial"",""time""
""focus"",""0"",""0""
""focus"",""0"",""0""
","""event"",""trial"",""time""
""fullscreenenter"",""1"",""5086""
","""event"",""trial"",""time""
""fullscreenexit"",""2"",""6220""
",,8668.3,"<p> As a space explorer, you’ll visit different planets to dig for space treasure, these pink gems.</p> <p> The more treasure you dig up, the more bonus money you’ll win! </p><br><br><p><img src='run_exp/static/images/task_images/pink_gem.jpg' height='300' width='auto'></p>",,,,,,,1,,,,,,,,,,,,,,,,,,
html-keyboard-response,8,66286,0.0-6.0-2.0,"""event"",""trial"",""time""
""blur"",""0"",""0""
""focus"",""0"",""0""
""blur"",""0"",""0""
""focus"",""0"",""0""
""fullscreenenter"",""1"",""5086""
""fullscreenexit"",""2"",""6220""
","""event"",""trial"",""time""
""blur"",""0"",""0""
""blur"",""0"",""0""
","""event"",""trial"",""time""
""focus"",""0"",""0""
""focus"",""0"",""0""
","""event"",""trial"",""time""
""fullscreenenter"",""1"",""5086""
","""event"",""trial"",""time""
""fullscreenexit"",""2"",""6220""
",,1034.4,"<p> As a space explorer, you’ll visit different planets to dig for space treasure, these pink gems.</p> <p> The more treasure you dig up, the more bonus money you’ll win! </p><br><br><p><img src='run_exp/static/images/task_images/pink_gem.jpg' height='300' width='auto'></p><button class=""jspsych-html-btn-unchosen""><img src=""run_exp/static/images/task_images/planet-01.jpg"" height=""50""></button><button class=""jspsych-html-btn-chosen""><img src=""run_exp/static/images/task_images/planet-02.jpg"" height=""50""></button><p><b>[press the space bar to lock in your answer]<b><br></p>",32,,,,,,,,,,,,,,,,,,,,,,,,
instruc_dig,9,82299,0.0-7.0-0.0,"""event"",""trial"",""time""
""blur"",""0"",""0""
""focus"",""0"",""0""
""blur"",""0"",""0""
""focus"",""0"",""0""
""fullscreenenter"",""1"",""5086""
""fullscreenexit"",""2"",""6220""
","""event"",""trial"",""time""
""blur"",""0"",""0""
""blur"",""0"",""0""
","""event"",""trial"",""time""
""focus"",""0"",""0""
""focus"",""0"",""0""
","""event"",""trial"",""time""
""fullscreenenter"",""1"",""5086""
","""event"",""trial"",""time""
""fullscreenexit"",""2"",""6220""
",,null,run_exp/static/audio/clip_4_dig.m4a,null,,,,,,,100,,,,,,,,,,,,,,,,,
instruc_dig_try,10,82719,0.0-7.0-1.0,"""event"",""trial"",""time""
""blur"",""0"",""0""
""focus"",""0"",""0""
""blur"",""0"",""0""
""focus"",""0"",""0""
""fullscreenenter"",""1"",""5086""
""fullscreenexit"",""2"",""6220""
","""event"",""trial"",""time""
""blur"",""0"",""0""
""blur"",""0"",""0""
","""event"",""trial"",""time""
""focus"",""0"",""0""
""focus"",""0"",""0""
","""event"",""trial"",""time""
""fullscreenenter"",""1"",""5086""
","""event"",""trial"",""time""
""fullscreenexit"",""2"",""6220""
",,417.0999999,"<p> When you’ve arrived at a new planet, you will dig once. </p> <p>Then, you get to decide if you want to stay on the planet and dig again or travel to a new planet and dig there.</p> <p> To stay and dig, press the letter <strong>‘A’</strong> on your keyboard. Try pressing it now! </p><p><img src='run_exp/static/images/task_images/land.jpg'  height='700' width='auto'></p>",65,"<p> When you’ve arrived at a new planet, you will dig once. </p> <p>Then, you get to decide if you want to stay on the planet and dig again or travel to a new planet and dig there.</p> <p> To stay and dig, press the letter <strong>‘A’</strong> on your keyboard. Try pressing it now! </p><p><img src='run_exp/static/images/task_images/land.jpg'  height='700' width='auto'></p>",,,,,,100,,,,,,,,,,,,,,,,,
dig_prac,11,84727,0.0-7.0-2.0,"""event"",""trial"",""time""
""blur"",""0"",""0""
""focus"",""0"",""0""
""blur"",""0"",""0""
""focus"",""0"",""0""
""fullscreenenter"",""1"",""5086""
""fullscreenexit"",""2"",""6220""
","""event"",""trial"",""time""
""blur"",""0"",""0""
""blur"",""0"",""0""
","""event"",""trial"",""time""
""focus"",""0"",""0""
""focus"",""0"",""0""
","""event"",""trial"",""time""
""fullscreenenter"",""1"",""5086""
","""event"",""trial"",""time""
""fullscreenexit"",""2"",""6220""
",,,,,,,,,,,,"[{""stimulus"":""run_exp/static/images/task_images/dig.jpg"",""time"":0},{""stimulus"":""run_exp/static/images/task_images/land.jpg"",""time"":668.5},{""stimulus"":""run_exp/static/images/task_images/dig.jpg"",""time"":1335.4000000953674}]",[],,,,,,,,,,,,,,,
instruc_travel,12,120980,0.0-7.0-3.0,"""event"",""trial"",""time""
""blur"",""0"",""0""
""focus"",""0"",""0""
""blur"",""0"",""0""
""focus"",""0"",""0""
""fullscreenenter"",""1"",""5086""
""fullscreenexit"",""2"",""6220""
","""event"",""trial"",""time""
""blur"",""0"",""0""
""blur"",""0"",""0""
","""event"",""trial"",""time""
""focus"",""0"",""0""
""focus"",""0"",""0""
","""event"",""trial"",""time""
""fullscreenenter"",""1"",""5086""
","""event"",""trial"",""time""
""fullscreenexit"",""2"",""6220""
",,null,run_exp/static/audio/clip_5_travel.m4a,null,"<p>Every time you dig up gems, there are less gems on the planet, so the more you dig on a planet the fewer gems you’ll get with each dig.</p><p>When gems are running low, you may want to travel to a new planet. </p> <p>  Planets are very far apart in this galaxy, so it will take some time to travel between them. </p> <br><p>There are lots and lots of planets for you to visit, so you won’t be able to return to any planets you’ve seen before. </p><br><p>To leave this planet and travel to a new one, press the letter <strong>‘L’</strong> on your keyboard. Try pressing it now! </p><p><img src='run_exp/static/images/task_images/rocket-01.jpg'  height='600' width='auto'></p>",,,,,,,,,,,,,,,,,,,,,,,
instruc_travel_try,13,122191,0.0-7.0-4.0,"""event"",""trial"",""time""
""blur"",""0"",""0""
""focus"",""0"",""0""
""blur"",""0"",""0""
""focus"",""0"",""0""
""fullscreenenter"",""1"",""5086""
""fullscreenexit"",""2"",""6220""
","""event"",""trial"",""time""
""blur"",""0"",""0""
""blur"",""0"",""0""
","""event"",""trial"",""time""
""focus"",""0"",""0""
""focus"",""0"",""0""
","""event"",""trial"",""time""
""fullscreenenter"",""1"",""5086""
","""event"",""trial"",""time""
""fullscreenexit"",""2"",""6220""
",,1210.2,"<p>Every time you dig up gems, there are less gems on the planet, so the more you dig on a planet the fewer gems you’ll get with each dig.</p><p>When gems are running low, you may want to travel to a new planet. </p> <p>  Planets are very far apart in this galaxy, so it will take some time to travel between them. </p> <br><p>There are lots and lots of planets for you to visit, so you won’t be able to return to any planets you’ve seen before. </p><br><p>To leave this planet and travel to a new one, press the letter <strong>‘L’</strong> on your keyboard. Try pressing it now! </p><p><img src='run_exp/static/images/task_images/rocket-01.jpg'  height='600' width='auto'></p>",76,"<p>Every time you dig up gems, there are less gems on the planet, so the more you dig on a planet the fewer gems you’ll get with each dig.</p><p>When gems are running low, you may want to travel to a new planet. </p> <p>  Planets are very far apart in this galaxy, so it will take some time to travel between them. </p> <br><p>There are lots and lots of planets for you to visit, so you won’t be able to return to any planets you’ve seen before. </p><br><p>To leave this planet and travel to a new one, press the letter <strong>‘L’</strong> on your keyboard. Try pressing it now! </p><p><img src='run_exp/static/images/task_images/rocket-01.jpg'  height='600' width='auto'></p>",,,,,,,,,,,,,,,,,,,,,,,
travel_prac,14,132192,0.0-7.0-5.0,"""event"",""trial"",""time""
""blur"",""0"",""0""
""focus"",""0"",""0""
""blur"",""0"",""0""
""focus"",""0"",""0""
""fullscreenenter"",""1"",""5086""
""fullscreenexit"",""2"",""6220""
","""event"",""trial"",""time""
""blur"",""0"",""0""
""blur"",""0"",""0""
","""event"",""trial"",""time""
""focus"",""0"",""0""
""focus"",""0"",""0""
","""event"",""trial"",""time""
""fullscreenenter"",""1"",""5086""
","""event"",""trial"",""time""
""fullscreenexit"",""2"",""6220""
",,,,,,,,,,,,"[{""stimulus"":""run_exp/static/images/task_images/rocket-01.jpg"",""time"":0.20000004768371582},{""stimulus"":""run_exp/static/images/task_images/rocket-02.jpg"",""time"":1112.9000000953674},{""stimulus"":""run_exp/static/images/task_images/rocket-03.jpg"",""time"":2224.100000143051},{""stimulus"":""run_exp/static/images/task_images/rocket-04.jpg"",""time"":3334.800000190735},{""stimulus"":""run_exp/static/images/task_images/rocket-05.jpg"",""time"":4446},{""stimulus"":""run_exp/static/images/task_images/rocket-06.jpg"",""time"":5557},{""stimulus"":""run_exp/static/images/task_images/rocket-07.jpg"",""time"":6668.400000095367},{""stimulus"":""run_exp/static/images/task_images/rocket-08.jpg"",""time"":7778.200000047684},{""stimulus"":""run_exp/static/images/task_images/rocket-09.jpg"",""time"":8890.400000095367}]",[],0,,,,,,,,,,,,,,
instruc_alien_greet,15,159372,0.0-7.0-6.0,"""event"",""trial"",""time""
""blur"",""0"",""0""
""focus"",""0"",""0""
""blur"",""0"",""0""
""focus"",""0"",""0""
""fullscreenenter"",""1"",""5086""
""fullscreenexit"",""2"",""6220""
","""event"",""trial"",""time""
""blur"",""0"",""0""
""blur"",""0"",""0""
","""event"",""trial"",""time""
""focus"",""0"",""0""
""focus"",""0"",""0""
","""event"",""trial"",""time""
""fullscreenenter"",""1"",""5086""
","""event"",""trial"",""time""
""fullscreenexit"",""2"",""6220""
",,null,run_exp/static/audio/clip_6_alien.m4a,null,"<p>When you arrive at a new planet, the alien who owns the treasure mine on that planet will greet you!</p><p>The better an alien takes care of their mine the easier it is to dig for gems. Some aliens take better care of their mine than others. So, you won’t get exactly the same amount of gems on each planet.</p><p>What the alien looks like does not tell you anything about how many gems there are on the planet.</p><br><p><img src=""run_exp/static/images/task_images/aliens/instructions_aliens/planet/alien_planet-1.jpg""  height=""600"" width=""auto""></p>",,,,,,,,,,,,,,,,,,,,,,,
instruc_alien_greet,16,161119,0.0-7.0-7.0,"""event"",""trial"",""time""
""blur"",""0"",""0""
""focus"",""0"",""0""
""blur"",""0"",""0""
""focus"",""0"",""0""
""fullscreenenter"",""1"",""5086""
""fullscreenexit"",""2"",""6220""
","""event"",""trial"",""time""
""blur"",""0"",""0""
""blur"",""0"",""0""
","""event"",""trial"",""time""
""focus"",""0"",""0""
""focus"",""0"",""0""
","""event"",""trial"",""time""
""fullscreenenter"",""1"",""5086""
","""event"",""trial"",""time""
""fullscreenexit"",""2"",""6220""
",,1742.5,"<p>When you arrive at a new planet, the alien who owns the treasure mine on that planet will greet you!</p><p>The better an alien takes care of their mine the easier it is to dig for gems. Some aliens take better care of their mine than others. So, you won’t get exactly the same amount of gems on each planet.</p><p>What the alien looks like does not tell you anything about how many gems there are on the planet.</p><br><p><img src=""run_exp/static/images/task_images/aliens/instructions_aliens/planet/alien_planet-1.jpg""  height=""600"" width=""auto""></p>",,,,,,,1,,,,,,,,,,,,,,,,,,
html-keyboard-response,17,161562,0.0-7.0-8.0,"""event"",""trial"",""time""
""blur"",""0"",""0""
""focus"",""0"",""0""
""blur"",""0"",""0""
""focus"",""0"",""0""
""fullscreenenter"",""1"",""5086""
""fullscreenexit"",""2"",""6220""
","""event"",""trial"",""time""
""blur"",""0"",""0""
""blur"",""0"",""0""
","""event"",""trial"",""time""
""focus"",""0"",""0""
""focus"",""0"",""0""
","""event"",""trial"",""time""
""fullscreenenter"",""1"",""5086""
","""event"",""trial"",""time""
""fullscreenexit"",""2"",""6220""
",,443.0999999,"<p>When you arrive at a new planet, the alien who owns the treasure mine on that planet will greet you!</p><p>The better an alien takes care of their mine the easier it is to dig for gems. Some aliens take better care of their mine than others. So, you won’t get exactly the same amount of gems on each planet.</p><p>What the alien looks like does not tell you anything about how many gems there are on the planet.</p><br><p><img src=""run_exp/static/images/task_images/aliens/instructions_aliens/planet/alien_planet-1.jpg""  height=""600"" width=""auto""></p><button class=""jspsych-html-btn-unchosen""><img src=""run_exp/static/images/task_images/planet-01.jpg"" height=""50""></button><button class=""jspsych-html-btn-chosen""><img src=""run_exp/static/images/task_images/planet-02.jpg"" height=""50""></button><p><b>[press the space bar to lock in your answer]<b><br></p>",32,,,,,,,,,,,,,,,,,,,,,,,,
time_out,18,172653,0.0-8.0-0.0,"""event"",""trial"",""time""
""blur"",""0"",""0""
""focus"",""0"",""0""
""blur"",""0"",""0""
""focus"",""0"",""0""
""fullscreenenter"",""1"",""5086""
""fullscreenexit"",""2"",""6220""
","""event"",""trial"",""time""
""blur"",""0"",""0""
""blur"",""0"",""0""
","""event"",""trial"",""time""
""focus"",""0"",""0""
""focus"",""0"",""0""
","""event"",""trial"",""time""
""fullscreenenter"",""1"",""5086""
","""event"",""trial"",""time""
""fullscreenexit"",""2"",""6220""
",,null,run_exp/static/audio/clip_7_timeout.m4a,null,"<p>If you don't make your choice fast enough, you’ll have to wait a few seconds before you can make another one.</p><p>You can’t dig for more gems or travel to new planets. You just have to sit and wait.</p><br><p><img src='run_exp/static/images/task_images/time_out.jpg'  height='600' width='auto'></p>",,,,,,,,,,,,,,,,,,,,,,,
time_out,19,174751,0.0-8.0-1.0,"""event"",""trial"",""time""
""blur"",""0"",""0""
""focus"",""0"",""0""
""blur"",""0"",""0""
""focus"",""0"",""0""
""fullscreenenter"",""1"",""5086""
""fullscreenexit"",""2"",""6220""
","""event"",""trial"",""time""
""blur"",""0"",""0""
""blur"",""0"",""0""
","""event"",""trial"",""time""
""focus"",""0"",""0""
""focus"",""0"",""0""
","""event"",""trial"",""time""
""fullscreenenter"",""1"",""5086""
","""event"",""trial"",""time""
""fullscreenexit"",""2"",""6220""
",,2094.9,"<p>If you don't make your choice fast enough, you’ll have to wait a few seconds before you can make another one.</p><p>You can’t dig for more gems or travel to new planets. You just have to sit and wait.</p><br><p><img src='run_exp/static/images/task_images/time_out.jpg'  height='600' width='auto'></p>",,,,,,,1,,,,,,,,,,,,,,,,,,
html-keyboard-response,20,175242,0.0-8.0-2.0,"""event"",""trial"",""time""
""blur"",""0"",""0""
""focus"",""0"",""0""
""blur"",""0"",""0""
""focus"",""0"",""0""
""fullscreenenter"",""1"",""5086""
""fullscreenexit"",""2"",""6220""
","""event"",""trial"",""time""
""blur"",""0"",""0""
""blur"",""0"",""0""
","""event"",""trial"",""time""
""focus"",""0"",""0""
""focus"",""0"",""0""
","""event"",""trial"",""time""
""fullscreenenter"",""1"",""5086""
","""event"",""trial"",""time""
""fullscreenexit"",""2"",""6220""
",,489.9000001,"<p>If you don't make your choice fast enough, you’ll have to wait a few seconds before you can make another one.</p><p>You can’t dig for more gems or travel to new planets. You just have to sit and wait.</p><br><p><img src='run_exp/static/images/task_images/time_out.jpg'  height='600' width='auto'></p><button class=""jspsych-html-btn-unchosen""><img src=""run_exp/static/images/task_images/planet-01.jpg"" height=""50""></button><button class=""jspsych-html-btn-chosen""><img src=""run_exp/static/images/task_images/planet-02.jpg"" height=""50""></button><p><b>[press the space bar to lock in your answer]<b><br></p>",32,,,,,,,,,,,,,,,,,,,,,,,,
instruc_break,21,190914,0.0-9.0-0.0,"""event"",""trial"",""time""
""blur"",""0"",""0""
""focus"",""0"",""0""
""blur"",""0"",""0""
""focus"",""0"",""0""
""fullscreenenter"",""1"",""5086""
""fullscreenexit"",""2"",""6220""
","""event"",""trial"",""time""
""blur"",""0"",""0""
""blur"",""0"",""0""
","""event"",""trial"",""time""
""focus"",""0"",""0""
""focus"",""0"",""0""
","""event"",""trial"",""time""
""fullscreenenter"",""1"",""5086""
","""event"",""trial"",""time""
""fullscreenexit"",""2"",""6220""
",,null,run_exp/static/audio/clip_8_break.m4a,null,"<p> After digging and traveling for a while, you’ll be able to take a break at home base. </p><p>The game will last 20 minutes no matter what.</p><p>You will visit home base every 5 minutes, so, you will visit home base three times during the game.</p><br><p><img src='run_exp/static/images/task_images/home_base.jpg' height='600' width='auto'></p>",,,,,,,,,,,,,,,,,,,,,,,
instruc_break,22,192400,0.0-9.0-1.0,"""event"",""trial"",""time""
""blur"",""0"",""0""
""focus"",""0"",""0""
""blur"",""0"",""0""
""focus"",""0"",""0""
""fullscreenenter"",""1"",""5086""
""fullscreenexit"",""2"",""6220""
","""event"",""trial"",""time""
""blur"",""0"",""0""
""blur"",""0"",""0""
","""event"",""trial"",""time""
""focus"",""0"",""0""
""focus"",""0"",""0""
","""event"",""trial"",""time""
""fullscreenenter"",""1"",""5086""
","""event"",""trial"",""time""
""fullscreenexit"",""2"",""6220""
",,1482.5,"<p> After digging and traveling for a while, you’ll be able to take a break at home base. </p><p>The game will last 20 minutes no matter what.</p><p>You will visit home base every 5 minutes, so, you will visit home base three times during the game.</p><br><p><img src='run_exp/static/images/task_images/home_base.jpg' height='600' width='auto'></p>",,,,,,,1,,,,,,,,,,,,,,,,,,
html-keyboard-response,23,192836,0.0-9.0-2.0,"""event"",""trial"",""time""
""blur"",""0"",""0""
""focus"",""0"",""0""
""blur"",""0"",""0""
""focus"",""0"",""0""
""fullscreenenter"",""1"",""5086""
""fullscreenexit"",""2"",""6220""
","""event"",""trial"",""time""
""blur"",""0"",""0""
""blur"",""0"",""0""
","""event"",""trial"",""time""
""focus"",""0"",""0""
""focus"",""0"",""0""
","""event"",""trial"",""time""
""fullscreenenter"",""1"",""5086""
","""event"",""trial"",""time""
""fullscreenexit"",""2"",""6220""
",,434.7,"<p> After digging and traveling for a while, you’ll be able to take a break at home base. </p><p>The game will last 20 minutes no matter what.</p><p>You will visit home base every 5 minutes, so, you will visit home base three times during the game.</p><br><p><img src='run_exp/static/images/task_images/home_base.jpg' height='600' width='auto'></p><button class=""jspsych-html-btn-unchosen""><img src=""run_exp/static/images/task_images/planet-01.jpg"" height=""50""></button><button class=""jspsych-html-btn-chosen""><img src=""run_exp/static/images/task_images/planet-02.jpg"" height=""50""></button><p><b>[press the space bar to lock in your answer]<b><br></p>",32,,,,,,,,,,,,,,,,,,,,,,,,
instruc_prac_game,24,202954,0.0-10.0-0.0,"""event"",""trial"",""time""
""blur"",""0"",""0""
""focus"",""0"",""0""
""blur"",""0"",""0""
""focus"",""0"",""0""
""fullscreenenter"",""1"",""5086""
""fullscreenexit"",""2"",""6220""
","""event"",""trial"",""time""
""blur"",""0"",""0""
""blur"",""0"",""0""
","""event"",""trial"",""time""
""focus"",""0"",""0""
""focus"",""0"",""0""
","""event"",""trial"",""time""
""fullscreenenter"",""1"",""5086""
","""event"",""trial"",""time""
""fullscreenexit"",""2"",""6220""
",,null,run_exp/static/audio/clip_9_practice.m4a,null,"<p> Are you ready to play a practice game? </p> <p>In this practice game, you'll be digging up barrels of gems. But, in the real game, you'll be digging up the gems themselves. </p>",,,,,,,,,,,,,,,,,,,,,,,
html-button-response,25,205784,0.0-10.0-1.0,"""event"",""trial"",""time""
""blur"",""0"",""0""
""focus"",""0"",""0""
""blur"",""0"",""0""
""focus"",""0"",""0""
""fullscreenenter"",""1"",""5086""
""fullscreenexit"",""2"",""6220""
","""event"",""trial"",""time""
""blur"",""0"",""0""
""blur"",""0"",""0""
","""event"",""trial"",""time""
""focus"",""0"",""0""
""focus"",""0"",""0""
","""event"",""trial"",""time""
""fullscreenenter"",""1"",""5086""
","""event"",""trial"",""time""
""fullscreenexit"",""2"",""6220""
",,2827.9,"<p> Are you ready to play a practice game? </p> <p>In this practice game, you'll be digging up barrels of gems. But, in the real game, you'll be digging up the gems themselves. </p>",,,,,,,0,,,,,,,,,,,,,,,,,,
alien_welcome_prac,26,210787,0.0-11.0-0.0,"""event"",""trial"",""time""
""blur"",""0"",""0""
""focus"",""0"",""0""
""blur"",""0"",""0""
""focus"",""0"",""0""
""fullscreenenter"",""1"",""5086""
""fullscreenexit"",""2"",""6220""
","""event"",""trial"",""time""
""blur"",""0"",""0""
""blur"",""0"",""0""
","""event"",""trial"",""time""
""focus"",""0"",""0""
""focus"",""0"",""0""
","""event"",""trial"",""time""
""fullscreenenter"",""1"",""5086""
","""event"",""trial"",""time""
""fullscreenexit"",""2"",""6220""
",,null,run_exp/static/images/task_images/aliens/practice_aliens/planet/alien_planet-5.jpg,null,,,,,,,,,,,,,,,,,,,,,,,,
land_prac,27,211290,0.0-11.0-1.0,"""event"",""trial"",""time""
""blur"",""0"",""0""
""focus"",""0"",""0""
""blur"",""0"",""0""
""focus"",""0"",""0""
""fullscreenenter"",""1"",""5086""
""fullscreenexit"",""2"",""6220""
","""event"",""trial"",""time""
""blur"",""0"",""0""
""blur"",""0"",""0""
","""event"",""trial"",""time""
""focus"",""0"",""0""
""focus"",""0"",""0""
","""event"",""trial"",""time""
""fullscreenenter"",""1"",""5086""
","""event"",""trial"",""time""
""fullscreenexit"",""2"",""6220""
",,null,run_exp/static/images/task_images/land.jpg,null,,,,,,,103,,,0,,,,,,,,,,,,,,
dig_prac,28,213294,0.0-11.0-2.0,"""event"",""trial"",""time""
""blur"",""0"",""0""
""focus"",""0"",""0""
""blur"",""0"",""0""
""focus"",""0"",""0""
""fullscreenenter"",""1"",""5086""
""fullscreenexit"",""2"",""6220""
","""event"",""trial"",""time""
""blur"",""0"",""0""
""blur"",""0"",""0""
","""event"",""trial"",""time""
""focus"",""0"",""0""
""focus"",""0"",""0""
","""event"",""trial"",""time""
""fullscreenenter"",""1"",""5086""
","""event"",""trial"",""time""
""fullscreenexit"",""2"",""6220""
",,,,,,,,,,,,"[{""stimulus"":""run_exp/static/images/task_images/dig.jpg"",""time"":0.20000004768371582},{""stimulus"":""run_exp/static/images/task_images/land.jpg"",""time"":669.0999999046326},{""stimulus"":""run_exp/static/images/task_images/dig.jpg"",""time"":1336.0999999046326}]",[],,,,,,,,,,,,,,,
harvest_prac,29,214295,0.0-11.0-3.0,"""event"",""trial"",""time""
""blur"",""0"",""0""
""focus"",""0"",""0""
""blur"",""0"",""0""
""focus"",""0"",""0""
""fullscreenenter"",""1"",""5086""
""fullscreenexit"",""2"",""6220""
","""event"",""trial"",""time""
""blur"",""0"",""0""
""blur"",""0"",""0""
","""event"",""trial"",""time""
""focus"",""0"",""0""
""focus"",""0"",""0""
","""event"",""trial"",""time""
""fullscreenenter"",""1"",""5086""
","""event"",""trial"",""time""
""fullscreenexit"",""2"",""6220""
",,null,run_exp/static/images/task_images/barrel_text.jpg,null,,,,,,,,,,,,,,,,,,,,,,,,
decision_prac,30,217297,0.0-11.0-4.0,"""event"",""trial"",""time""
""blur"",""0"",""0""
""focus"",""0"",""0""
""blur"",""0"",""0""
""focus"",""0"",""0""
""fullscreenenter"",""1"",""5086""
""fullscreenexit"",""2"",""6220""
","""event"",""trial"",""time""
""blur"",""0"",""0""
""blur"",""0"",""0""
","""event"",""trial"",""time""
""focus"",""0"",""0""
""focus"",""0"",""0""
","""event"",""trial"",""time""
""fullscreenenter"",""1"",""5086""
","""event"",""trial"",""time""
""fullscreenexit"",""2"",""6220""
",,null,run_exp/static/images/task_images/land.jpg,null,,,,,,,,,,,1,,,,,,,,,,,,,
time_out,31,219301,0.0-12.0-0.0,"""event"",""trial"",""time""
""blur"",""0"",""0""
""focus"",""0"",""0""
""blur"",""0"",""0""
""focus"",""0"",""0""
""fullscreenenter"",""1"",""5086""
""fullscreenexit"",""2"",""6220""
","""event"",""trial"",""time""
""blur"",""0"",""0""
""blur"",""0"",""0""
","""event"",""trial"",""time""
""focus"",""0"",""0""
""focus"",""0"",""0""
","""event"",""trial"",""time""
""fullscreenenter"",""1"",""5086""
","""event"",""trial"",""time""
""fullscreenexit"",""2"",""6220""
",,null,run_exp/static/images/task_images/time_out.jpg,null,,,,,,,,,,,,,,,,,,,,,,,,
decision_prac,32,220556,0.0-12.0-1.0,"""event"",""trial"",""time""
""blur"",""0"",""0""
""focus"",""0"",""0""
""blur"",""0"",""0""
""focus"",""0"",""0""
""fullscreenenter"",""1"",""5086""
""fullscreenexit"",""2"",""6220""
","""event"",""trial"",""time""
""blur"",""0"",""0""
""blur"",""0"",""0""
","""event"",""trial"",""time""
""focus"",""0"",""0""
""focus"",""0"",""0""
","""event"",""trial"",""time""
""fullscreenenter"",""1"",""5086""
","""event"",""trial"",""time""
""fullscreenexit"",""2"",""6220""
",,1252.2,run_exp/static/images/task_images/land.jpg,65,,,,,,,,,,,2,,,,,,,,,,,,,
dig_prac,33,222565,0.0-13.0-0.0,"""event"",""trial"",""time""
""blur"",""0"",""0""
""focus"",""0"",""0""
""blur"",""0"",""0""
""focus"",""0"",""0""
""fullscreenenter"",""1"",""5086""
""fullscreenexit"",""2"",""6220""
","""event"",""trial"",""time""
""blur"",""0"",""0""
""blur"",""0"",""0""
","""event"",""trial"",""time""
""focus"",""0"",""0""
""focus"",""0"",""0""
","""event"",""trial"",""time""
""fullscreenenter"",""1"",""5086""
","""event"",""trial"",""time""
""fullscreenexit"",""2"",""6220""
",,,,,,,,,,,,"[{""stimulus"":""run_exp/static/images/task_images/dig.jpg"",""time"":0.40000009536743164},{""stimulus"":""run_exp/static/images/task_images/land.jpg"",""time"":669.5999999046326},{""stimulus"":""run_exp/static/images/task_images/dig.jpg"",""time"":1336.5}]",[],,,,,,,,,,,,,,,
harvest_prac,34,223567,0.0-13.0-1.0,"""event"",""trial"",""time""
""blur"",""0"",""0""
""focus"",""0"",""0""
""blur"",""0"",""0""
""focus"",""0"",""0""
""fullscreenenter"",""1"",""5086""
""fullscreenexit"",""2"",""6220""
","""event"",""trial"",""time""
""blur"",""0"",""0""
""blur"",""0"",""0""
","""event"",""trial"",""time""
""focus"",""0"",""0""
""focus"",""0"",""0""
","""event"",""trial"",""time""
""fullscreenenter"",""1"",""5086""
","""event"",""trial"",""time""
""fullscreenexit"",""2"",""6220""
",,null,run_exp/static/images/task_images/barrel_text.jpg,null,,,,,,,,,,,,,,,,,,,,,,,,
decision_prac,35,226568,0.0-13.0-2.0,"""event"",""trial"",""time""
""blur"",""0"",""0""
""focus"",""0"",""0""
""blur"",""0"",""0""
""focus"",""0"",""0""
""fullscreenenter"",""1"",""5086""
""fullscreenexit"",""2"",""6220""
","""event"",""trial"",""time""
""blur"",""0"",""0""
""blur"",""0"",""0""
","""event"",""trial"",""time""
""focus"",""0"",""0""
""focus"",""0"",""0""
","""event"",""trial"",""time""
""fullscreenenter"",""1"",""5086""
","""event"",""trial"",""time""
""fullscreenexit"",""2"",""6220""
",,null,run_exp/static/images/task_images/land.jpg,null,,,,,,,,,,,3,,,,,,,,,,,,,
time_out,36,228571,0.0-14.0-0.0,"""event"",""trial"",""time""
""blur"",""0"",""0""
""focus"",""0"",""0""
""blur"",""0"",""0""
""focus"",""0"",""0""
""fullscreenenter"",""1"",""5086""
""fullscreenexit"",""2"",""6220""
","""event"",""trial"",""time""
""blur"",""0"",""0""
""blur"",""0"",""0""
","""event"",""trial"",""time""
""focus"",""0"",""0""
""focus"",""0"",""0""
","""event"",""trial"",""time""
""fullscreenenter"",""1"",""5086""
","""event"",""trial"",""time""
""fullscreenexit"",""2"",""6220""
",,null,run_exp/static/images/task_images/time_out.jpg,null,,,,,,,,,,,,,,,,,,,,,,,,
decision_prac,37,231573,0.0-14.0-1.0,"""event"",""trial"",""time""
""blur"",""0"",""0""
""focus"",""0"",""0""
""blur"",""0"",""0""
""focus"",""0"",""0""
""fullscreenenter"",""1"",""5086""
""fullscreenexit"",""2"",""6220""
","""event"",""trial"",""time""
""blur"",""0"",""0""
""blur"",""0"",""0""
","""event"",""trial"",""time""
""focus"",""0"",""0""
""focus"",""0"",""0""
","""event"",""trial"",""time""
""fullscreenenter"",""1"",""5086""
","""event"",""trial"",""time""
""fullscreenexit"",""2"",""6220""
",,null,run_exp/static/images/task_images/land.jpg,null,,,,,,,,,,,4,,,,,,,,,,,,,
time_out,38,233578,0.0-15.0-0.0,"""event"",""trial"",""time""
""blur"",""0"",""0""
""focus"",""0"",""0""
""blur"",""0"",""0""
""focus"",""0"",""0""
""fullscreenenter"",""1"",""5086""
""fullscreenexit"",""2"",""6220""
","""event"",""trial"",""time""
""blur"",""0"",""0""
""blur"",""0"",""0""
","""event"",""trial"",""time""
""focus"",""0"",""0""
""focus"",""0"",""0""
","""event"",""trial"",""time""
""fullscreenenter"",""1"",""5086""
","""event"",""trial"",""time""
""fullscreenexit"",""2"",""6220""
",,null,run_exp/static/images/task_images/time_out.jpg,null,,,,,,,,,,,,,,,,,,,,,,,,
decision_prac,39,236581,0.0-15.0-1.0,"""event"",""trial"",""time""
""blur"",""0"",""0""
""focus"",""0"",""0""
""blur"",""0"",""0""
""focus"",""0"",""0""
""fullscreenenter"",""1"",""5086""
""fullscreenexit"",""2"",""6220""
","""event"",""trial"",""time""
""blur"",""0"",""0""
""blur"",""0"",""0""
","""event"",""trial"",""time""
""focus"",""0"",""0""
""focus"",""0"",""0""
","""event"",""trial"",""time""
""fullscreenenter"",""1"",""5086""
","""event"",""trial"",""time""
""fullscreenexit"",""2"",""6220""
",,null,run_exp/static/images/task_images/land.jpg,null,,,,,,,,,,,,1,,,,,,,,,,,,
quiz_instruc,40,246642,0.0-16.0-0.0,"""event"",""trial"",""time""
""blur"",""0"",""0""
""focus"",""0"",""0""
""blur"",""0"",""0""
""focus"",""0"",""0""
""fullscreenenter"",""1"",""5086""
""fullscreenexit"",""2"",""6220""
","""event"",""trial"",""time""
""blur"",""0"",""0""
""blur"",""0"",""0""
","""event"",""trial"",""time""
""focus"",""0"",""0""
""focus"",""0"",""0""
","""event"",""trial"",""time""
""fullscreenenter"",""1"",""5086""
","""event"",""trial"",""time""
""fullscreenexit"",""2"",""6220""
",,10055.8,run_exp/static/audio/clip_10_quiz.m4a,,,,,,,0,,,,,,,,,,,,,,,,,,
instruc_repeat,41,289408,0.0-16.0-1.0,"""event"",""trial"",""time""
""blur"",""0"",""0""
""focus"",""0"",""0""
""blur"",""0"",""0""
""focus"",""0"",""0""
""fullscreenenter"",""1"",""5086""
""fullscreenexit"",""2"",""6220""
","""event"",""trial"",""time""
""blur"",""0"",""0""
""blur"",""0"",""0""
","""event"",""trial"",""time""
""focus"",""0"",""0""
""focus"",""0"",""0""
","""event"",""trial"",""time""
""fullscreenenter"",""1"",""5086""
","""event"",""trial"",""time""
""fullscreenexit"",""2"",""6220""
",,null,"<p> Are you ready to play a practice game? </p> <p>In this practice game, you'll be digging up barrels of gems. But, in the real game, you'll be digging up the gems themselves. </p>",null,"<p>In this game, your goal is to collect as many gems as you can. That’s how you will win bonus money. </p> <p>The entire game will last 20 minutes no matter how many gems you collect or how many planets you visit. </p><p>To stay on a planet and dig again, press the letter A on your keyboard. To leave for a new planet, press the letter L.</p><p>The more you dig on a planet, the fewer gems you’ll get with each dig which is why you might consider leaving for a new planet. </p><p>When you arrive at a new planet, you’ll be greeted by an alien. What the alien looks like does not tell you anything about how much treasure is on the planet. </p>",,,,,,,,,,,,,,,,,,,,,,,
instruc_repeat_continue,42,292147,0.0-16.0-2.0,"""event"",""trial"",""time""
""blur"",""0"",""0""
""focus"",""0"",""0""
""blur"",""0"",""0""
""focus"",""0"",""0""
""fullscreenenter"",""1"",""5086""
""fullscreenexit"",""2"",""6220""
","""event"",""trial"",""time""
""blur"",""0"",""0""
""blur"",""0"",""0""
","""event"",""trial"",""time""
""focus"",""0"",""0""
""focus"",""0"",""0""
","""event"",""trial"",""time""
""fullscreenenter"",""1"",""5086""
","""event"",""trial"",""time""
""fullscreenexit"",""2"",""6220""
",,2737.3,"<p> Are you ready to play a practice game? </p> <p>In this practice game, you'll be digging up barrels of gems. But, in the real game, you'll be digging up the gems themselves. </p>",,,,,,,0,,,,,,,,,,,,,,,,,,
quiz_q_1_ask,43,303156,0.0-16.0-3.0,"""event"",""trial"",""time""
""blur"",""0"",""0""
""focus"",""0"",""0""
""blur"",""0"",""0""
""focus"",""0"",""0""
""fullscreenenter"",""1"",""5086""
""fullscreenexit"",""2"",""6220""
","""event"",""trial"",""time""
""blur"",""0"",""0""
""blur"",""0"",""0""
","""event"",""trial"",""time""
""focus"",""0"",""0""
""focus"",""0"",""0""
","""event"",""trial"",""time""
""fullscreenenter"",""1"",""5086""
","""event"",""trial"",""time""
""fullscreenexit"",""2"",""6220""
",,11007.8,run_exp/static/audio/clip_11_q1_ask.m4a,,,,,,,0,,,,,,,,,,,,,,,,,,
quiz_q_1_fb_incorrect,44,306648,0.0-17.0-0.0,"""event"",""trial"",""time""
""blur"",""0"",""0""
""focus"",""0"",""0""
""blur"",""0"",""0""
""focus"",""0"",""0""
""fullscreenenter"",""1"",""5086""
""fullscreenexit"",""2"",""6220""
","""event"",""trial"",""time""
""blur"",""0"",""0""
""blur"",""0"",""0""
","""event"",""trial"",""time""
""focus"",""0"",""0""
""focus"",""0"",""0""
","""event"",""trial"",""time""
""fullscreenenter"",""1"",""5086""
","""event"",""trial"",""time""
""fullscreenexit"",""2"",""6220""
",,null,run_exp/static/audio/clip_13_q1_incorrect.m4a,null,<p>That’s incorrect. You win extra money by collecting more gems.</p>,,,,,,,,,,,,,,,,,,,,,,,
quiz_q_2_ask,45,316116,0.0-17.0-1.0,"""event"",""trial"",""time""
""blur"",""0"",""0""
""focus"",""0"",""0""
""blur"",""0"",""0""
""focus"",""0"",""0""
""fullscreenenter"",""1"",""5086""
""fullscreenexit"",""2"",""6220""
","""event"",""trial"",""time""
""blur"",""0"",""0""
""blur"",""0"",""0""
","""event"",""trial"",""time""
""focus"",""0"",""0""
""focus"",""0"",""0""
","""event"",""trial"",""time""
""fullscreenenter"",""1"",""5086""
","""event"",""trial"",""time""
""fullscreenexit"",""2"",""6220""
",,9466.1,run_exp/static/audio/clip_14_q2_ask.m4a,,,,,,,1,,,,,,,,,,,,,,,,,,
quiz_q_2_fb_correct,46,320109,0.0-18.0-0.0,"""event"",""trial"",""time""
""blur"",""0"",""0""
""focus"",""0"",""0""
""blur"",""0"",""0""
""focus"",""0"",""0""
""fullscreenenter"",""1"",""5086""
""fullscreenexit"",""2"",""6220""
","""event"",""trial"",""time""
""blur"",""0"",""0""
""blur"",""0"",""0""
","""event"",""trial"",""time""
""focus"",""0"",""0""
""focus"",""0"",""0""
","""event"",""trial"",""time""
""fullscreenenter"",""1"",""5086""
","""event"",""trial"",""time""
""fullscreenexit"",""2"",""6220""
",,null,run_exp/static/audio/clip_15_q2_correct.m4a,null,<p>That’s correct. The experiment is 20 minutes no matter what.</p>,,,,,,,,,,,,,,,,,,,,,,,
quiz_q_3_ask,47,324732,0.0-18.0-1.0,"""event"",""trial"",""time""
""blur"",""0"",""0""
""focus"",""0"",""0""
""blur"",""0"",""0""
""focus"",""0"",""0""
""fullscreenenter"",""1"",""5086""
""fullscreenexit"",""2"",""6220""
","""event"",""trial"",""time""
""blur"",""0"",""0""
""blur"",""0"",""0""
","""event"",""trial"",""time""
""focus"",""0"",""0""
""focus"",""0"",""0""
","""event"",""trial"",""time""
""fullscreenenter"",""1"",""5086""
","""event"",""trial"",""time""
""fullscreenexit"",""2"",""6220""
",,4621.5,run_exp/static/audio/clip_17_q3_ask.m4a,,,,,,,1,,,,,,,,,,,,,,,,,,
quiz_q_3_fb_correct,48,328709,0.0-19.0-0.0,"""event"",""trial"",""time""
""blur"",""0"",""0""
""focus"",""0"",""0""
""blur"",""0"",""0""
""focus"",""0"",""0""
""fullscreenenter"",""1"",""5086""
""fullscreenexit"",""2"",""6220""
","""event"",""trial"",""time""
""blur"",""0"",""0""
""blur"",""0"",""0""
","""event"",""trial"",""time""
""focus"",""0"",""0""
""focus"",""0"",""0""
","""event"",""trial"",""time""
""fullscreenenter"",""1"",""5086""
","""event"",""trial"",""time""
""fullscreenexit"",""2"",""6220""
",,null,run_exp/static/audio/clip_18_q3_correct.m4a,null,<p> That’s correct. You press the letter L to travel to a new planet.</p>,,,,,,,,,,,,,,,,,,,,,,,
quiz_q_4_ask,49,333397,0.0-19.0-1.0,"""event"",""trial"",""time""
""blur"",""0"",""0""
""focus"",""0"",""0""
""blur"",""0"",""0""
""focus"",""0"",""0""
""fullscreenenter"",""1"",""5086""
""fullscreenexit"",""2"",""6220""
","""event"",""trial"",""time""
""blur"",""0"",""0""
""blur"",""0"",""0""
","""event"",""trial"",""time""
""focus"",""0"",""0""
""focus"",""0"",""0""
","""event"",""trial"",""time""
""fullscreenenter"",""1"",""5086""
","""event"",""trial"",""time""
""fullscreenexit"",""2"",""6220""
",,4685.3,run_exp/static/audio/clip_20_q4_ask.m4a,,,,,,,0,,,,,,,,,,,,,,,,,,
quiz_q_4_fb_correct,50,338710,0.0-20.0-0.0,"""event"",""trial"",""time""
""blur"",""0"",""0""
""focus"",""0"",""0""
""blur"",""0"",""0""
""focus"",""0"",""0""
""fullscreenenter"",""1"",""5086""
""fullscreenexit"",""2"",""6220""
","""event"",""trial"",""time""
""blur"",""0"",""0""
""blur"",""0"",""0""
","""event"",""trial"",""time""
""focus"",""0"",""0""
""focus"",""0"",""0""
","""event"",""trial"",""time""
""fullscreenenter"",""1"",""5086""
","""event"",""trial"",""time""
""fullscreenexit"",""2"",""6220""
",,null,run_exp/static/audio/clip_21_q4_correct.m4a,null,<p> That’s correct. The more you dig on a planet the fewer gems you’ll get with each dig. </p>,,,,,,,,,,,,,,,,,,,,,,,
quiz_q_5_ask,51,341973,0.0-20.0-1.0,"""event"",""trial"",""time""
""blur"",""0"",""0""
""focus"",""0"",""0""
""blur"",""0"",""0""
""focus"",""0"",""0""
""fullscreenenter"",""1"",""5086""
""fullscreenexit"",""2"",""6220""
","""event"",""trial"",""time""
""blur"",""0"",""0""
""blur"",""0"",""0""
","""event"",""trial"",""time""
""focus"",""0"",""0""
""focus"",""0"",""0""
","""event"",""trial"",""time""
""fullscreenenter"",""1"",""5086""
","""event"",""trial"",""time""
""fullscreenexit"",""2"",""6220""
",,3261.2,run_exp/static/audio/clip_23_q5_ask.m4a,,,,,,,1,,,,,,,,,,,,,,,,,,
quiz_q_5_fb_correct,52,346970,0.0-21.0-0.0,"""event"",""trial"",""time""
""blur"",""0"",""0""
""focus"",""0"",""0""
""blur"",""0"",""0""
""focus"",""0"",""0""
""fullscreenenter"",""1"",""5086""
""fullscreenexit"",""2"",""6220""
","""event"",""trial"",""time""
""blur"",""0"",""0""
""blur"",""0"",""0""
","""event"",""trial"",""time""
""focus"",""0"",""0""
""focus"",""0"",""0""
","""event"",""trial"",""time""
""fullscreenenter"",""1"",""5086""
","""event"",""trial"",""time""
""fullscreenexit"",""2"",""6220""
",,null,run_exp/static/audio/clip_24_q5_correct.m4a,null,<p> That’s correct. The alien tells you nothing about how much treasure is on the planet.</p>,,,,,,,,,,,,,,,,,,,,,,,
quiz_incorrect,53,352510,0.0-22.0-0.0,"""event"",""trial"",""time""
""blur"",""0"",""0""
""focus"",""0"",""0""
""blur"",""0"",""0""
""focus"",""0"",""0""
""fullscreenenter"",""1"",""5086""
""fullscreenexit"",""2"",""6220""
","""event"",""trial"",""time""
""blur"",""0"",""0""
""blur"",""0"",""0""
","""event"",""trial"",""time""
""focus"",""0"",""0""
""focus"",""0"",""0""
","""event"",""trial"",""time""
""fullscreenenter"",""1"",""5086""
","""event"",""trial"",""time""
""fullscreenexit"",""2"",""6220""
",,null,run_exp/static/audio/clip_27_incorrect_quiz.m4a,null,,,,,,,,,,,,,,,,,,,,,,,,
quiz_incorrect_continue,54,354949,0.0-22.0-1.0,"""event"",""trial"",""time""
""blur"",""0"",""0""
""focus"",""0"",""0""
""blur"",""0"",""0""
""focus"",""0"",""0""
""fullscreenenter"",""1"",""5086""
""fullscreenexit"",""2"",""6220""
","""event"",""trial"",""time""
""blur"",""0"",""0""
""blur"",""0"",""0""
","""event"",""trial"",""time""
""focus"",""0"",""0""
""focus"",""0"",""0""
","""event"",""trial"",""time""
""fullscreenenter"",""1"",""5086""
","""event"",""trial"",""time""
""fullscreenexit"",""2"",""6220""
",,2439.1,"<p>Oops, you missed some questions.</p><p>Now that you’ve heard the correct answers. Try the quiz again!</p>",,,,,,,0,,,,,,,,,,,,,,,,,,
quiz_q_1_ask,55,359174,0.0-22.0-2.0,"""event"",""trial"",""time""
""blur"",""0"",""0""
""focus"",""0"",""0""
""blur"",""0"",""0""
""focus"",""0"",""0""
""fullscreenenter"",""1"",""5086""
""fullscreenexit"",""2"",""6220""
","""event"",""trial"",""time""
""blur"",""0"",""0""
""blur"",""0"",""0""
","""event"",""trial"",""time""
""focus"",""0"",""0""
""focus"",""0"",""0""
","""event"",""trial"",""time""
""fullscreenenter"",""1"",""5086""
","""event"",""trial"",""time""
""fullscreenexit"",""2"",""6220""
",,4223.7,run_exp/static/audio/clip_11_q1_ask.m4a,,,,,,,2,,,,,,,,,,,,,,,,,,
quiz_q_1_fb_correct,56,363010,0.0-23.0-0.0,"""event"",""trial"",""time""
""blur"",""0"",""0""
""focus"",""0"",""0""
""blur"",""0"",""0""
""focus"",""0"",""0""
""fullscreenenter"",""1"",""5086""
""fullscreenexit"",""2"",""6220""
","""event"",""trial"",""time""
""blur"",""0"",""0""
""blur"",""0"",""0""
","""event"",""trial"",""time""
""focus"",""0"",""0""
""focus"",""0"",""0""
","""event"",""trial"",""time""
""fullscreenenter"",""1"",""5086""
","""event"",""trial"",""time""
""fullscreenexit"",""2"",""6220""
",,null,run_exp/static/audio/clip_12_q1_correct.m4a,null,<p>That’s correct. You win extra money by collecting more gems.</p>,,,,,,,,,,,,,,,,,,,,,,,
quiz_q_2_ask,57,366086,0.0-23.0-1.0,"""event"",""trial"",""time""
""blur"",""0"",""0""
""focus"",""0"",""0""
""blur"",""0"",""0""
""focus"",""0"",""0""
""fullscreenenter"",""1"",""5086""
""fullscreenexit"",""2"",""6220""
","""event"",""trial"",""time""
""blur"",""0"",""0""
""blur"",""0"",""0""
","""event"",""trial"",""time""
""focus"",""0"",""0""
""focus"",""0"",""0""
","""event"",""trial"",""time""
""fullscreenenter"",""1"",""5086""
","""event"",""trial"",""time""
""fullscreenexit"",""2"",""6220""
",,3074.8,run_exp/static/audio/clip_14_q2_ask.m4a,,,,,,,1,,,,,,,,,,,,,,,,,,
quiz_q_2_fb_correct,58,370090,0.0-24.0-0.0,"""event"",""trial"",""time""
""blur"",""0"",""0""
""focus"",""0"",""0""
""blur"",""0"",""0""
""focus"",""0"",""0""
""fullscreenenter"",""1"",""5086""
""fullscreenexit"",""2"",""6220""
","""event"",""trial"",""time""
""blur"",""0"",""0""
""blur"",""0"",""0""
","""event"",""trial"",""time""
""focus"",""0"",""0""
""focus"",""0"",""0""
","""event"",""trial"",""time""
""fullscreenenter"",""1"",""5086""
","""event"",""trial"",""time""
""fullscreenexit"",""2"",""6220""
",,null,run_exp/static/audio/clip_15_q2_correct.m4a,null,<p>That’s correct. The experiment is 20 minutes no matter what.</p>,,,,,,,,,,,,,,,,,,,,,,,
quiz_q_3_ask,59,372046,0.0-24.0-1.0,"""event"",""trial"",""time""
""blur"",""0"",""0""
""focus"",""0"",""0""
""blur"",""0"",""0""
""focus"",""0"",""0""
""fullscreenenter"",""1"",""5086""
""fullscreenexit"",""2"",""6220""
","""event"",""trial"",""time""
""blur"",""0"",""0""
""blur"",""0"",""0""
","""event"",""trial"",""time""
""focus"",""0"",""0""
""focus"",""0"",""0""
","""event"",""trial"",""time""
""fullscreenenter"",""1"",""5086""
","""event"",""trial"",""time""
""fullscreenexit"",""2"",""6220""
",,1955.4,run_exp/static/audio/clip_17_q3_ask.m4a,,,,,,,1,,,,,,,,,,,,,,,,,,
quiz_q_3_fb_correct,60,376031,0.0-25.0-0.0,"""event"",""trial"",""time""
""blur"",""0"",""0""
""focus"",""0"",""0""
""blur"",""0"",""0""
""focus"",""0"",""0""
""fullscreenenter"",""1"",""5086""
""fullscreenexit"",""2"",""6220""
","""event"",""trial"",""time""
""blur"",""0"",""0""
""blur"",""0"",""0""
","""event"",""trial"",""time""
""focus"",""0"",""0""
""focus"",""0"",""0""
","""event"",""trial"",""time""
""fullscreenenter"",""1"",""5086""
","""event"",""trial"",""time""
""fullscreenexit"",""2"",""6220""
",,null,run_exp/static/audio/clip_18_q3_correct.m4a,null,<p> That’s correct. You press the letter L to travel to a new planet.</p>,,,,,,,,,,,,,,,,,,,,,,,
quiz_q_4_ask,61,379966,0.0-25.0-1.0,"""event"",""trial"",""time""
""blur"",""0"",""0""
""focus"",""0"",""0""
""blur"",""0"",""0""
""focus"",""0"",""0""
""fullscreenenter"",""1"",""5086""
""fullscreenexit"",""2"",""6220""
","""event"",""trial"",""time""
""blur"",""0"",""0""
""blur"",""0"",""0""
","""event"",""trial"",""time""
""focus"",""0"",""0""
""focus"",""0"",""0""
","""event"",""trial"",""time""
""fullscreenenter"",""1"",""5086""
","""event"",""trial"",""time""
""fullscreenexit"",""2"",""6220""
",,3933.2,run_exp/static/audio/clip_20_q4_ask.m4a,,,,,,,0,,,,,,,,,,,,,,,,,,
quiz_q_4_fb_correct,62,385291,0.0-26.0-0.0,"""event"",""trial"",""time""
""blur"",""0"",""0""
""focus"",""0"",""0""
""blur"",""0"",""0""
""focus"",""0"",""0""
""fullscreenenter"",""1"",""5086""
""fullscreenexit"",""2"",""6220""
","""event"",""trial"",""time""
""blur"",""0"",""0""
""blur"",""0"",""0""
","""event"",""trial"",""time""
""focus"",""0"",""0""
""focus"",""0"",""0""
","""event"",""trial"",""time""
""fullscreenenter"",""1"",""5086""
","""event"",""trial"",""time""
""fullscreenexit"",""2"",""6220""
",,null,run_exp/static/audio/clip_21_q4_correct.m4a,null,<p> That’s correct. The more you dig on a planet the fewer gems you’ll get with each dig. </p>,,,,,,,,,,,,,,,,,,,,,,,
quiz_q_5_ask,63,387159,0.0-26.0-1.0,"""event"",""trial"",""time""
""blur"",""0"",""0""
""focus"",""0"",""0""
""blur"",""0"",""0""
""focus"",""0"",""0""
""fullscreenenter"",""1"",""5086""
""fullscreenexit"",""2"",""6220""
","""event"",""trial"",""time""
""blur"",""0"",""0""
""blur"",""0"",""0""
","""event"",""trial"",""time""
""focus"",""0"",""0""
""focus"",""0"",""0""
","""event"",""trial"",""time""
""fullscreenenter"",""1"",""5086""
","""event"",""trial"",""time""
""fullscreenexit"",""2"",""6220""
",,1865.1,run_exp/static/audio/clip_23_q5_ask.m4a,,,,,,,1,,,,,,,,,,,,,,,,,,
quiz_q_5_fb_correct,64,392152,0.0-27.0-0.0,"""event"",""trial"",""time""
""blur"",""0"",""0""
""focus"",""0"",""0""
""blur"",""0"",""0""
""focus"",""0"",""0""
""fullscreenenter"",""1"",""5086""
""fullscreenexit"",""2"",""6220""
","""event"",""trial"",""time""
""blur"",""0"",""0""
""blur"",""0"",""0""
","""event"",""trial"",""time""
""focus"",""0"",""0""
""focus"",""0"",""0""
","""event"",""trial"",""time""
""fullscreenenter"",""1"",""5086""
","""event"",""trial"",""time""
""fullscreenexit"",""2"",""6220""
",,null,run_exp/static/audio/clip_24_q5_correct.m4a,null,<p> That’s correct. The alien tells you nothing about how much treasure is on the planet.</p>,,,,,,,,,,,,,,,,,,,,,,,
quiz_correct,65,395611,0.0-28.0-0.0,"""event"",""trial"",""time""
""blur"",""0"",""0""
""focus"",""0"",""0""
""blur"",""0"",""0""
""focus"",""0"",""0""
""fullscreenenter"",""1"",""5086""
""fullscreenexit"",""2"",""6220""
","""event"",""trial"",""time""
""blur"",""0"",""0""
""blur"",""0"",""0""
","""event"",""trial"",""time""
""focus"",""0"",""0""
""focus"",""0"",""0""
","""event"",""trial"",""time""
""fullscreenenter"",""1"",""5086""
","""event"",""trial"",""time""
""fullscreenexit"",""2"",""6220""
",,null,run_exp/static/audio/clip_26_correct_quiz.m4a,null,,,,,,,,,,,,,,,,,,,,,,,,
quiz_correct_continue,66,396927,0.0-28.0-1.0,"""event"",""trial"",""time""
""blur"",""0"",""0""
""focus"",""0"",""0""
""blur"",""0"",""0""
""focus"",""0"",""0""
""fullscreenenter"",""1"",""5086""
""fullscreenexit"",""2"",""6220""
","""event"",""trial"",""time""
""blur"",""0"",""0""
""blur"",""0"",""0""
","""event"",""trial"",""time""
""focus"",""0"",""0""
""focus"",""0"",""0""
","""event"",""trial"",""time""
""fullscreenenter"",""1"",""5086""
","""event"",""trial"",""time""
""fullscreenexit"",""2"",""6220""
",,1314.9,<p>Good job! You're now ready to move on to the real game!</p>,,,,,,,0,,,,,,,,,,,,,,,,,,
audio-keyboard-response,67,407052,0.0-28.0-2.0,"""event"",""trial"",""time""
""blur"",""0"",""0""
""focus"",""0"",""0""
""blur"",""0"",""0""
""focus"",""0"",""0""
""fullscreenenter"",""1"",""5086""
""fullscreenexit"",""2"",""6220""
""blur"",""68"",""407376""
""focus"",""68"",""409324""
","""event"",""trial"",""time""
""blur"",""0"",""0""
""blur"",""0"",""0""
""blur"",""68"",""407376""
","""event"",""trial"",""time""
""focus"",""0"",""0""
""focus"",""0"",""0""
""focus"",""68"",""409324""
","""event"",""trial"",""time""
""fullscreenenter"",""1"",""5086""
","""event"",""trial"",""time""
""fullscreenexit"",""2"",""6220""
",,null,run_exp/static/audio/clip_28_real_game.m4a,null,,,,,,,,,,,,,,,,,,,,,,,,
instruc_begin_exp_contine,68,409463,0.0-28.0-3.0,"""event"",""trial"",""time""
""blur"",""0"",""0""
""focus"",""0"",""0""
""blur"",""0"",""0""
""focus"",""0"",""0""
""fullscreenenter"",""1"",""5086""
""fullscreenexit"",""2"",""6220""
""blur"",""68"",""407376""
""focus"",""68"",""409324""
","""event"",""trial"",""time""
""blur"",""0"",""0""
""blur"",""0"",""0""
""blur"",""68"",""407376""
","""event"",""trial"",""time""
""focus"",""0"",""0""
""focus"",""0"",""0""
""focus"",""68"",""409324""
","""event"",""trial"",""time""
""fullscreenenter"",""1"",""5086""
","""event"",""trial"",""time""
""fullscreenexit"",""2"",""6220""
",,2409.2,"<p>Now that you know how  to dig for space treasure and travel to new planets,you can start exploring! </p><p>Do you want to go over the instructions again or get started with the real game?</p>",,,,,,,1,,,,,,1,,,,,,,,,,,,
alien_welcome,69,414466,0.0-29.0-0.0,"""event"",""trial"",""time""
""blur"",""0"",""0""
""focus"",""0"",""0""
""blur"",""0"",""0""
""focus"",""0"",""0""
""fullscreenenter"",""1"",""5086""
""fullscreenexit"",""2"",""6220""
""blur"",""68"",""407376""
""focus"",""68"",""409324""
","""event"",""trial"",""time""
""blur"",""0"",""0""
""blur"",""0"",""0""
""blur"",""68"",""407376""
","""event"",""trial"",""time""
""focus"",""0"",""0""
""focus"",""0"",""0""
""focus"",""68"",""409324""
","""event"",""trial"",""time""
""fullscreenenter"",""1"",""5086""
","""event"",""trial"",""time""
""fullscreenexit"",""2"",""6220""
",,null,run_exp/static/images/task_images/aliens/old_aliens/planet/alien_planet-21.jpg,null,,,,,,,,,,,,,21,"21,18,80,56,3,44,24,46,62,10,29,66,37,26,28,59,75,68,65,45,25,4,70,77,20,54,31,61,40,76,17,53,14,52,79,60,23,9,58,5,64,2,48,51,12,22,35,71,6,38,19",,,,,,,,,,
land,70,414969,0.0-29.0-1.0,"""event"",""trial"",""time""
""blur"",""0"",""0""
""focus"",""0"",""0""
""blur"",""0"",""0""
""focus"",""0"",""0""
""fullscreenenter"",""1"",""5086""
""fullscreenexit"",""2"",""6220""
""blur"",""68"",""407376""
""focus"",""68"",""409324""
","""event"",""trial"",""time""
""blur"",""0"",""0""
""blur"",""0"",""0""
""blur"",""68"",""407376""
","""event"",""trial"",""time""
""focus"",""0"",""0""
""focus"",""0"",""0""
""focus"",""68"",""409324""
","""event"",""trial"",""time""
""fullscreenenter"",""1"",""5086""
","""event"",""trial"",""time""
""fullscreenexit"",""2"",""6220""
",,null,run_exp/static/images/task_images/land.jpg,null,,,,,,,101,,,1,,,,,,,,,,,,,,
dig,71,416975,0.0-29.0-2.0,"""event"",""trial"",""time""
""blur"",""0"",""0""
""focus"",""0"",""0""
""blur"",""0"",""0""
""focus"",""0"",""0""
""fullscreenenter"",""1"",""5086""
""fullscreenexit"",""2"",""6220""
""blur"",""68"",""407376""
""focus"",""68"",""409324""
","""event"",""trial"",""time""
""blur"",""0"",""0""
""blur"",""0"",""0""
""blur"",""68"",""407376""
","""event"",""trial"",""time""
""focus"",""0"",""0""
""focus"",""0"",""0""
""focus"",""68"",""409324""
","""event"",""trial"",""time""
""fullscreenenter"",""1"",""5086""
","""event"",""trial"",""time""
""fullscreenexit"",""2"",""6220""
",,,,,,,,,,,,"[{""stimulus"":""run_exp/static/images/task_images/dig.jpg"",""time"":0.5},{""stimulus"":""run_exp/static/images/task_images/land.jpg"",""time"":669.2999999523163},{""stimulus"":""run_exp/static/images/task_images/dig.jpg"",""time"":1336}]",[],1,,,,,,,,,,,,,,
harvest,72,417983,0.0-29.0-3.0,"""event"",""trial"",""time""
""blur"",""0"",""0""
""focus"",""0"",""0""
""blur"",""0"",""0""
""focus"",""0"",""0""
""fullscreenenter"",""1"",""5086""
""fullscreenexit"",""2"",""6220""
""blur"",""68"",""407376""
""focus"",""68"",""409324""
","""event"",""trial"",""time""
""blur"",""0"",""0""
""blur"",""0"",""0""
""blur"",""68"",""407376""
","""event"",""trial"",""time""
""focus"",""0"",""0""
""focus"",""0"",""0""
""focus"",""68"",""409324""
","""event"",""trial"",""time""
""fullscreenenter"",""1"",""5086""
","""event"",""trial"",""time""
""fullscreenexit"",""2"",""6220""
",,null,run_exp/static/images/task_images/gems/101.jpg,null,,,,,,,22,,,1,,,,,101,0.217343622,0.217821782,,,,,,,
decision,73,419988,0.0-29.0-4.0,"""event"",""trial"",""time""
""blur"",""0"",""0""
""focus"",""0"",""0""
""blur"",""0"",""0""
""focus"",""0"",""0""
""fullscreenenter"",""1"",""5086""
""fullscreenexit"",""2"",""6220""
""blur"",""68"",""407376""
""focus"",""68"",""409324""
","""event"",""trial"",""time""
""blur"",""0"",""0""
""blur"",""0"",""0""
""blur"",""68"",""407376""
","""event"",""trial"",""time""
""focus"",""0"",""0""
""focus"",""0"",""0""
""focus"",""68"",""409324""
","""event"",""trial"",""time""
""fullscreenenter"",""1"",""5086""
","""event"",""trial"",""time""
""fullscreenexit"",""2"",""6220""
",,2003.2,run_exp/static/images/task_images/land.jpg,65,,,,,,,22,,,1,,,,,,,,10524,1,0,FALSE,,,
dig,74,420989,0.0-30.0-0.0,"""event"",""trial"",""time""
""blur"",""0"",""0""
""focus"",""0"",""0""
""blur"",""0"",""0""
""focus"",""0"",""0""
""fullscreenenter"",""1"",""5086""
""fullscreenexit"",""2"",""6220""
""blur"",""68"",""407376""
""focus"",""68"",""409324""
","""event"",""trial"",""time""
""blur"",""0"",""0""
""blur"",""0"",""0""
""blur"",""68"",""407376""
","""event"",""trial"",""time""
""focus"",""0"",""0""
""focus"",""0"",""0""
""focus"",""68"",""409324""
","""event"",""trial"",""time""
""fullscreenenter"",""1"",""5086""
","""event"",""trial"",""time""
""fullscreenexit"",""2"",""6220""
",,,,,,,,,,,,"[{""stimulus"":""run_exp/static/images/task_images/dig.jpg"",""time"":0},{""stimulus"":""run_exp/static/images/task_images/land.jpg"",""time"":332.7000000476837},{""stimulus"":""run_exp/static/images/task_images/dig.jpg"",""time"":665.5999999046326}]",[],1,,,,,,,,,,,,,,
harvest,75,421992,0.0-30.0-1.0,"""event"",""trial"",""time""
""blur"",""0"",""0""
""focus"",""0"",""0""
""blur"",""0"",""0""
""focus"",""0"",""0""
""fullscreenenter"",""1"",""5086""
""fullscreenexit"",""2"",""6220""
""blur"",""68"",""407376""
""focus"",""68"",""409324""
","""event"",""trial"",""time""
""blur"",""0"",""0""
""blur"",""0"",""0""
""blur"",""68"",""407376""
","""event"",""trial"",""time""
""focus"",""0"",""0""
""focus"",""0"",""0""
""focus"",""68"",""409324""
","""event"",""trial"",""time""
""fullscreenenter"",""1"",""5086""
","""event"",""trial"",""time""
""fullscreenexit"",""2"",""6220""
",,null,run_exp/static/images/task_images/gems/22.jpg,null,,,,,,,5,,,1,,,,,22,0.216907452,0.227272727,,,,,,,
decision,76,424083,0.0-30.0-2.0,"""event"",""trial"",""time""
""blur"",""0"",""0""
""focus"",""0"",""0""
""blur"",""0"",""0""
""focus"",""0"",""0""
""fullscreenenter"",""1"",""5086""
""fullscreenexit"",""2"",""6220""
""blur"",""68"",""407376""
""focus"",""68"",""409324""
","""event"",""trial"",""time""
""blur"",""0"",""0""
""blur"",""0"",""0""
""blur"",""68"",""407376""
","""event"",""trial"",""time""
""focus"",""0"",""0""
""focus"",""0"",""0""
""focus"",""68"",""409324""
","""event"",""trial"",""time""
""fullscreenenter"",""1"",""5086""
","""event"",""trial"",""time""
""fullscreenexit"",""2"",""6220""
",,2089.6,run_exp/static/images/task_images/land.jpg,76,,,,,,,5,,,1,,,,,,,,14620,1,1,TRUE,,,
travel,77,431993,0.0-31.0-0.0,"""event"",""trial"",""time""
""blur"",""0"",""0""
""focus"",""0"",""0""
""blur"",""0"",""0""
""focus"",""0"",""0""
""fullscreenenter"",""1"",""5086""
""fullscreenexit"",""2"",""6220""
""blur"",""68"",""407376""
""focus"",""68"",""409324""
","""event"",""trial"",""time""
""blur"",""0"",""0""
""blur"",""0"",""0""
""blur"",""68"",""407376""
","""event"",""trial"",""time""
""focus"",""0"",""0""
""focus"",""0"",""0""
""focus"",""68"",""409324""
","""event"",""trial"",""time""
""fullscreenenter"",""1"",""5086""
","""event"",""trial"",""time""
""fullscreenexit"",""2"",""6220""
",,,,,,,,,,,,"[{""stimulus"":""run_exp/static/images/task_images/rocket-01.jpg"",""time"":0.39999985694885254},{""stimulus"":""run_exp/static/images/task_images/rocket-02.jpg"",""time"":879.6999998092651},{""stimulus"":""run_exp/static/images/task_images/rocket-03.jpg"",""time"":1758.8999998569489},{""stimulus"":""run_exp/static/images/task_images/rocket-04.jpg"",""time"":2636.899999856949},{""stimulus"":""run_exp/static/images/task_images/rocket-05.jpg"",""time"":3514.5},{""stimulus"":""run_exp/static/images/task_images/rocket-06.jpg"",""time"":4392.5},{""stimulus"":""run_exp/static/images/task_images/rocket-07.jpg"",""time"":5269.5},{""stimulus"":""run_exp/static/images/task_images/rocket-08.jpg"",""time"":6148.099999904633},{""stimulus"":""run_exp/static/images/task_images/rocket-09.jpg"",""time"":7026.199999809265}]",[],1,,,,,,,,,,,,,,
alien_welcome,78,436997,0.0-31.0-1.0,"""event"",""trial"",""time""
""blur"",""0"",""0""
""focus"",""0"",""0""
""blur"",""0"",""0""
""focus"",""0"",""0""
""fullscreenenter"",""1"",""5086""
""fullscreenexit"",""2"",""6220""
""blur"",""68"",""407376""
""focus"",""68"",""409324""
","""event"",""trial"",""time""
""blur"",""0"",""0""
""blur"",""0"",""0""
""blur"",""68"",""407376""
","""event"",""trial"",""time""
""focus"",""0"",""0""
""focus"",""0"",""0""
""focus"",""68"",""409324""
","""event"",""trial"",""time""
""fullscreenenter"",""1"",""5086""
","""event"",""trial"",""time""
""fullscreenexit"",""2"",""6220""
",,null,run_exp/static/images/task_images/aliens/old_aliens/planet/alien_planet-18.jpg,null,,,,,,,,,,,,,18,"21,18,80,56,3,44,24,46,62,10,29,66,37,26,28,59,75,68,65,45,25,4,70,77,20,54,31,61,40,76,17,53,14,52,79,60,23,9,58,5,64,2,48,51,12,22,35,71,6,38,19",,,,,,,,,,
land,79,437499,0.0-31.0-2.0,"""event"",""trial"",""time""
""blur"",""0"",""0""
""focus"",""0"",""0""
""blur"",""0"",""0""
""focus"",""0"",""0""
""fullscreenenter"",""1"",""5086""
""fullscreenexit"",""2"",""6220""
""blur"",""68"",""407376""
""focus"",""68"",""409324""
","""event"",""trial"",""time""
""blur"",""0"",""0""
""blur"",""0"",""0""
""blur"",""68"",""407376""
","""event"",""trial"",""time""
""focus"",""0"",""0""
""focus"",""0"",""0""
""focus"",""68"",""409324""
","""event"",""trial"",""time""
""fullscreenenter"",""1"",""5086""
","""event"",""trial"",""time""
""fullscreenexit"",""2"",""6220""
",,null,run_exp/static/images/task_images/land.jpg,null,,,,,,,102,,,2,,,,,,,,,,,,,,
dig,80,439504,0.0-31.0-3.0,"""event"",""trial"",""time""
""blur"",""0"",""0""
""focus"",""0"",""0""
""blur"",""0"",""0""
""focus"",""0"",""0""
""fullscreenenter"",""1"",""5086""
""fullscreenexit"",""2"",""6220""
""blur"",""68"",""407376""
""focus"",""68"",""409324""
","""event"",""trial"",""time""
""blur"",""0"",""0""
""blur"",""0"",""0""
""blur"",""68"",""407376""
","""event"",""trial"",""time""
""focus"",""0"",""0""
""focus"",""0"",""0""
""focus"",""68"",""409324""
","""event"",""trial"",""time""
""fullscreenenter"",""1"",""5086""
","""event"",""trial"",""time""
""fullscreenexit"",""2"",""6220""
",,,,,,,,,,,,"[{""stimulus"":""run_exp/static/images/task_images/dig.jpg"",""time"":0.40000009536743164},{""stimulus"":""run_exp/static/images/task_images/land.jpg"",""time"":669.4000000953674},{""stimulus"":""run_exp/static/images/task_images/dig.jpg"",""time"":1336.9000000953674}]",[],2,,,,,,,,,,,,,,
harvest,81,440507,0.0-31.0-4.0,"""event"",""trial"",""time""
""blur"",""0"",""0""
""focus"",""0"",""0""
""blur"",""0"",""0""
""focus"",""0"",""0""
""fullscreenenter"",""1"",""5086""
""fullscreenexit"",""2"",""6220""
""blur"",""68"",""407376""
""focus"",""68"",""409324""
","""event"",""trial"",""time""
""blur"",""0"",""0""
""blur"",""0"",""0""
""blur"",""68"",""407376""
","""event"",""trial"",""time""
""focus"",""0"",""0""
""focus"",""0"",""0""
""focus"",""68"",""409324""
","""event"",""trial"",""time""
""fullscreenenter"",""1"",""5086""
","""event"",""trial"",""time""
""fullscreenexit"",""2"",""6220""
",,null,run_exp/static/images/task_images/gems/102.jpg,null,,,,,,,24,,,2,,,,,102,0.232177533,0.235294118,,,,,,,
decision,82,441610,0.0-31.0-5.0,"""event"",""trial"",""time""
""blur"",""0"",""0""
""focus"",""0"",""0""
""blur"",""0"",""0""
""focus"",""0"",""0""
""fullscreenenter"",""1"",""5086""
""fullscreenexit"",""2"",""6220""
""blur"",""68"",""407376""
""focus"",""68"",""409324""
","""event"",""trial"",""time""
""blur"",""0"",""0""
""blur"",""0"",""0""
""blur"",""68"",""407376""
","""event"",""trial"",""time""
""focus"",""0"",""0""
""focus"",""0"",""0""
""focus"",""68"",""409324""
","""event"",""trial"",""time""
""fullscreenenter"",""1"",""5086""
","""event"",""trial"",""time""
""fullscreenexit"",""2"",""6220""
",,1101.7,run_exp/static/images/task_images/land.jpg,65,,,,,,,24,,,2,,,,,,,,32146,1,0,FALSE,,,
dig,83,443509,0.0-32.0-0.0,"""event"",""trial"",""time""
""blur"",""0"",""0""
""focus"",""0"",""0""
""blur"",""0"",""0""
""focus"",""0"",""0""
""fullscreenenter"",""1"",""5086""
""fullscreenexit"",""2"",""6220""
""blur"",""68"",""407376""
""focus"",""68"",""409324""
","""event"",""trial"",""time""
""blur"",""0"",""0""
""blur"",""0"",""0""
""blur"",""68"",""407376""
","""event"",""trial"",""time""
""focus"",""0"",""0""
""focus"",""0"",""0""
""focus"",""68"",""409324""
","""event"",""trial"",""time""
""fullscreenenter"",""1"",""5086""
","""event"",""trial"",""time""
""fullscreenexit"",""2"",""6220""
",,,,,,,,,,,,"[{""stimulus"":""run_exp/static/images/task_images/dig.jpg"",""time"":0},{""stimulus"":""run_exp/static/images/task_images/land.jpg"",""time"":633},{""stimulus"":""run_exp/static/images/task_images/dig.jpg"",""time"":1265}]",[],2,,,,,,,,,,,,,,
harvest,84,444512,0.0-32.0-1.0,"""event"",""trial"",""time""
""blur"",""0"",""0""
""focus"",""0"",""0""
""blur"",""0"",""0""
""focus"",""0"",""0""
""fullscreenenter"",""1"",""5086""
""fullscreenexit"",""2"",""6220""
""blur"",""68"",""407376""
""focus"",""68"",""409324""
","""event"",""trial"",""time""
""blur"",""0"",""0""
""blur"",""0"",""0""
""blur"",""68"",""407376""
","""event"",""trial"",""time""
""focus"",""0"",""0""
""focus"",""0"",""0""
""focus"",""68"",""409324""
","""event"",""trial"",""time""
""fullscreenenter"",""1"",""5086""
","""event"",""trial"",""time""
""fullscreenexit"",""2"",""6220""
",,null,run_exp/static/images/task_images/gems/24.jpg,null,,,,,,,6,,,2,,,,,24,0.244286952,0.25,,,,,,,
decision,85,445492,0.0-32.0-2.0,"""event"",""trial"",""time""
""blur"",""0"",""0""
""focus"",""0"",""0""
""blur"",""0"",""0""
""focus"",""0"",""0""
""fullscreenenter"",""1"",""5086""
""fullscreenexit"",""2"",""6220""
""blur"",""68"",""407376""
""focus"",""68"",""409324""
","""event"",""trial"",""time""
""blur"",""0"",""0""
""blur"",""0"",""0""
""blur"",""68"",""407376""
","""event"",""trial"",""time""
""focus"",""0"",""0""
""focus"",""0"",""0""
""focus"",""68"",""409324""
","""event"",""trial"",""time""
""fullscreenenter"",""1"",""5086""
","""event"",""trial"",""time""
""fullscreenexit"",""2"",""6220""
",,978.2,run_exp/static/images/task_images/land.jpg,65,,,,,,,6,,,2,,,,,,,,36028,1,1,FALSE,,,
dig,86,447518,0.0-33.0-0.0,"""event"",""trial"",""time""
""blur"",""0"",""0""
""focus"",""0"",""0""
""blur"",""0"",""0""
""focus"",""0"",""0""
""fullscreenenter"",""1"",""5086""
""fullscreenexit"",""2"",""6220""
""blur"",""68"",""407376""
""focus"",""68"",""409324""
","""event"",""trial"",""time""
""blur"",""0"",""0""
""blur"",""0"",""0""
""blur"",""68"",""407376""
","""event"",""trial"",""time""
""focus"",""0"",""0""
""focus"",""0"",""0""
""focus"",""68"",""409324""
","""event"",""trial"",""time""
""fullscreenenter"",""1"",""5086""
","""event"",""trial"",""time""
""fullscreenexit"",""2"",""6220""
",,,,,,,,,,,,"[{""stimulus"":""run_exp/static/images/task_images/dig.jpg"",""time"":0.09999990463256836},{""stimulus"":""run_exp/static/images/task_images/land.jpg"",""time"":675},{""stimulus"":""run_exp/static/images/task_images/dig.jpg"",""time"":1347.8999998569489}]",[],2,,,,,,,,,,,,,,
harvest,87,448520,0.0-33.0-1.0,"""event"",""trial"",""time""
""blur"",""0"",""0""
""focus"",""0"",""0""
""blur"",""0"",""0""
""focus"",""0"",""0""
""fullscreenenter"",""1"",""5086""
""fullscreenexit"",""2"",""6220""
""blur"",""68"",""407376""
""focus"",""68"",""409324""
","""event"",""trial"",""time""
""blur"",""0"",""0""
""blur"",""0"",""0""
""blur"",""68"",""407376""
","""event"",""trial"",""time""
""focus"",""0"",""0""
""focus"",""0"",""0""
""focus"",""68"",""409324""
","""event"",""trial"",""time""
""fullscreenenter"",""1"",""5086""
","""event"",""trial"",""time""
""fullscreenexit"",""2"",""6220""
",,null,run_exp/static/images/task_images/gems/6.jpg,null,,,,,,,1,,,2,,,,,6,0.240322483,0.166666667,,,,,,,
decision,88,450540,0.0-33.0-2.0,"""event"",""trial"",""time""
""blur"",""0"",""0""
""focus"",""0"",""0""
""blur"",""0"",""0""
""focus"",""0"",""0""
""fullscreenenter"",""1"",""5086""
""fullscreenexit"",""2"",""6220""
""blur"",""68"",""407376""
""focus"",""68"",""409324""
","""event"",""trial"",""time""
""blur"",""0"",""0""
""blur"",""0"",""0""
""blur"",""68"",""407376""
","""event"",""trial"",""time""
""focus"",""0"",""0""
""focus"",""0"",""0""
""focus"",""68"",""409324""
","""event"",""trial"",""time""
""fullscreenenter"",""1"",""5086""
","""event"",""trial"",""time""
""fullscreenexit"",""2"",""6220""
",,2018,run_exp/static/images/task_images/land.jpg,76,,,,,,,1,,,2,,,,,,,,41076,1,2,TRUE,,,
travel,89,458521,0.0-34.0-0.0,"""event"",""trial"",""time""
""blur"",""0"",""0""
""focus"",""0"",""0""
""blur"",""0"",""0""
""focus"",""0"",""0""
""fullscreenenter"",""1"",""5086""
""fullscreenexit"",""2"",""6220""
""blur"",""68"",""407376""
""focus"",""68"",""409324""
","""event"",""trial"",""time""
""blur"",""0"",""0""
""blur"",""0"",""0""
""blur"",""68"",""407376""
","""event"",""trial"",""time""
""focus"",""0"",""0""
""focus"",""0"",""0""
""focus"",""68"",""409324""
","""event"",""trial"",""time""
""fullscreenenter"",""1"",""5086""
","""event"",""trial"",""time""
""fullscreenexit"",""2"",""6220""
",,,,,,,,,,,,"[{""stimulus"":""run_exp/static/images/task_images/rocket-01.jpg"",""time"":0.10000014305114746},{""stimulus"":""run_exp/static/images/task_images/rocket-02.jpg"",""time"":888.1000001430511},{""stimulus"":""run_exp/static/images/task_images/rocket-03.jpg"",""time"":1773.2000000476837},{""stimulus"":""run_exp/static/images/task_images/rocket-04.jpg"",""time"":2660.2000000476837},{""stimulus"":""run_exp/static/images/task_images/rocket-05.jpg"",""time"":3546},{""stimulus"":""run_exp/static/images/task_images/rocket-06.jpg"",""time"":4431.799999952316},{""stimulus"":""run_exp/static/images/task_images/rocket-07.jpg"",""time"":5318},{""stimulus"":""run_exp/static/images/task_images/rocket-08.jpg"",""time"":6203.400000095367},{""stimulus"":""run_exp/static/images/task_images/rocket-09.jpg"",""time"":7089.799999952316}]",[],2,,,,,,,,,,,,,,
alien_welcome,90,463524,0.0-34.0-1.0,"""event"",""trial"",""time""
""blur"",""0"",""0""
""focus"",""0"",""0""
""blur"",""0"",""0""
""focus"",""0"",""0""
""fullscreenenter"",""1"",""5086""
""fullscreenexit"",""2"",""6220""
""blur"",""68"",""407376""
""focus"",""68"",""409324""
","""event"",""trial"",""time""
""blur"",""0"",""0""
""blur"",""0"",""0""
""blur"",""68"",""407376""
","""event"",""trial"",""time""
""focus"",""0"",""0""
""focus"",""0"",""0""
""focus"",""68"",""409324""
","""event"",""trial"",""time""
""fullscreenenter"",""1"",""5086""
","""event"",""trial"",""time""
""fullscreenexit"",""2"",""6220""
",,null,run_exp/static/images/task_images/aliens/old_aliens/planet/alien_planet-80.jpg,null,,,,,,,,,,,,,80,"21,18,80,56,3,44,24,46,62,10,29,66,37,26,28,59,75,68,65,45,25,4,70,77,20,54,31,61,40,76,17,53,14,52,79,60,23,9,58,5,64,2,48,51,12,22,35,71,6,38,19",,,,,,,,,,
land,91,464028,0.0-34.0-2.0,"""event"",""trial"",""time""
""blur"",""0"",""0""
""focus"",""0"",""0""
""blur"",""0"",""0""
""focus"",""0"",""0""
""fullscreenenter"",""1"",""5086""
""fullscreenexit"",""2"",""6220""
""blur"",""68"",""407376""
""focus"",""68"",""409324""
","""event"",""trial"",""time""
""blur"",""0"",""0""
""blur"",""0"",""0""
""blur"",""68"",""407376""
","""event"",""trial"",""time""
""focus"",""0"",""0""
""focus"",""0"",""0""
""focus"",""68"",""409324""
","""event"",""trial"",""time""
""fullscreenenter"",""1"",""5086""
","""event"",""trial"",""time""
""fullscreenexit"",""2"",""6220""
",,null,run_exp/static/images/task_images/land.jpg,null,,,,,,,94,,,3,,,,,,,,,,,,,,
dig,92,466034,0.0-34.0-3.0,"""event"",""trial"",""time""
""blur"",""0"",""0""
""focus"",""0"",""0""
""blur"",""0"",""0""
""focus"",""0"",""0""
""fullscreenenter"",""1"",""5086""
""fullscreenexit"",""2"",""6220""
""blur"",""68"",""407376""
""focus"",""68"",""409324""
","""event"",""trial"",""time""
""blur"",""0"",""0""
""blur"",""0"",""0""
""blur"",""68"",""407376""
","""event"",""trial"",""time""
""focus"",""0"",""0""
""focus"",""0"",""0""
""focus"",""68"",""409324""
","""event"",""trial"",""time""
""fullscreenenter"",""1"",""5086""
","""event"",""trial"",""time""
""fullscreenexit"",""2"",""6220""
",,,,,,,,,,,,"[{""stimulus"":""run_exp/static/images/task_images/dig.jpg"",""time"":0.6999998092651367},{""stimulus"":""run_exp/static/images/task_images/land.jpg"",""time"":669.3999998569489},{""stimulus"":""run_exp/static/images/task_images/dig.jpg"",""time"":1337.2999999523163}]",[],3,,,,,,,,,,,,,,
harvest,93,467035,0.0-34.0-4.0,"""event"",""trial"",""time""
""blur"",""0"",""0""
""focus"",""0"",""0""
""blur"",""0"",""0""
""focus"",""0"",""0""
""fullscreenenter"",""1"",""5086""
""fullscreenexit"",""2"",""6220""
""blur"",""68"",""407376""
""focus"",""68"",""409324""
","""event"",""trial"",""time""
""blur"",""0"",""0""
""blur"",""0"",""0""
""blur"",""68"",""407376""
","""event"",""trial"",""time""
""focus"",""0"",""0""
""focus"",""0"",""0""
""focus"",""68"",""409324""
","""event"",""trial"",""time""
""fullscreenenter"",""1"",""5086""
","""event"",""trial"",""time""
""fullscreenexit"",""2"",""6220""
",,null,run_exp/static/images/task_images/gems/94.jpg,null,,,,,,,52,,,3,,,,,94,0.553617435,0.553191489,,,,,,,
decision,94,467653,0.0-34.0-5.0,"""event"",""trial"",""time""
""blur"",""0"",""0""
""focus"",""0"",""0""
""blur"",""0"",""0""
""focus"",""0"",""0""
""fullscreenenter"",""1"",""5086""
""fullscreenexit"",""2"",""6220""
""blur"",""68"",""407376""
""focus"",""68"",""409324""
","""event"",""trial"",""time""
""blur"",""0"",""0""
""blur"",""0"",""0""
""blur"",""68"",""407376""
","""event"",""trial"",""time""
""focus"",""0"",""0""
""focus"",""0"",""0""
""focus"",""68"",""409324""
","""event"",""trial"",""time""
""fullscreenenter"",""1"",""5086""
","""event"",""trial"",""time""
""fullscreenexit"",""2"",""6220""
",,615.3,run_exp/static/images/task_images/land.jpg,65,,,,,,,52,,,3,,,,,,,,58189,1,0,FALSE,,,
dig,95,470042,0.0-35.0-0.0,"""event"",""trial"",""time""
""blur"",""0"",""0""
""focus"",""0"",""0""
""blur"",""0"",""0""
""focus"",""0"",""0""
""fullscreenenter"",""1"",""5086""
""fullscreenexit"",""2"",""6220""
""blur"",""68"",""407376""
""focus"",""68"",""409324""
","""event"",""trial"",""time""
""blur"",""0"",""0""
""blur"",""0"",""0""
""blur"",""68"",""407376""
","""event"",""trial"",""time""
""focus"",""0"",""0""
""focus"",""0"",""0""
""focus"",""68"",""409324""
","""event"",""trial"",""time""
""fullscreenenter"",""1"",""5086""
","""event"",""trial"",""time""
""fullscreenexit"",""2"",""6220""
",,,,,,,,,,,,"[{""stimulus"":""run_exp/static/images/task_images/dig.jpg"",""time"":0.09999990463256836},{""stimulus"":""run_exp/static/images/task_images/land.jpg"",""time"":795.8999998569489},{""stimulus"":""run_exp/static/images/task_images/dig.jpg"",""time"":1589}]",[],3,,,,,,,,,,,,,,
harvest,96,471049,0.0-35.0-1.0,"""event"",""trial"",""time""
""blur"",""0"",""0""
""focus"",""0"",""0""
""blur"",""0"",""0""
""focus"",""0"",""0""
""fullscreenenter"",""1"",""5086""
""fullscreenexit"",""2"",""6220""
""blur"",""68"",""407376""
""focus"",""68"",""409324""
","""event"",""trial"",""time""
""blur"",""0"",""0""
""blur"",""0"",""0""
""blur"",""68"",""407376""
","""event"",""trial"",""time""
""focus"",""0"",""0""
""focus"",""0"",""0""
""focus"",""68"",""409324""
","""event"",""trial"",""time""
""fullscreenenter"",""1"",""5086""
","""event"",""trial"",""time""
""fullscreenexit"",""2"",""6220""
",,null,run_exp/static/images/task_images/gems/52.jpg,null,,,,,,,23,,,3,,,,,52,0.439508581,0.442307692,,,,,,,
decision,97,471445,0.0-35.0-2.0,"""event"",""trial"",""time""
""blur"",""0"",""0""
""focus"",""0"",""0""
""blur"",""0"",""0""
""focus"",""0"",""0""
""fullscreenenter"",""1"",""5086""
""fullscreenexit"",""2"",""6220""
""blur"",""68"",""407376""
""focus"",""68"",""409324""
","""event"",""trial"",""time""
""blur"",""0"",""0""
""blur"",""0"",""0""
""blur"",""68"",""407376""
","""event"",""trial"",""time""
""focus"",""0"",""0""
""focus"",""0"",""0""
""focus"",""68"",""409324""
","""event"",""trial"",""time""
""fullscreenenter"",""1"",""5086""
","""event"",""trial"",""time""
""fullscreenexit"",""2"",""6220""
",,394.5,run_exp/static/images/task_images/land.jpg,65,,,,,,,23,,,3,,,,,,,,61981,1,1,FALSE,,,
dig,98,474055,0.0-36.0-0.0,"""event"",""trial"",""time""
""blur"",""0"",""0""
""focus"",""0"",""0""
""blur"",""0"",""0""
""focus"",""0"",""0""
""fullscreenenter"",""1"",""5086""
""fullscreenexit"",""2"",""6220""
""blur"",""68"",""407376""
""focus"",""68"",""409324""
","""event"",""trial"",""time""
""blur"",""0"",""0""
""blur"",""0"",""0""
""blur"",""68"",""407376""
","""event"",""trial"",""time""
""focus"",""0"",""0""
""focus"",""0"",""0""
""focus"",""68"",""409324""
","""event"",""trial"",""time""
""fullscreenenter"",""1"",""5086""
","""event"",""trial"",""time""
""fullscreenexit"",""2"",""6220""
",,,,,,,,,,,,"[{""stimulus"":""run_exp/static/images/task_images/dig.jpg"",""time"":0},{""stimulus"":""run_exp/static/images/task_images/land.jpg"",""time"":869.5},{""stimulus"":""run_exp/static/images/task_images/dig.jpg"",""time"":1738}]",[],3,,,,,,,,,,,,,,
harvest,99,475057,0.0-36.0-1.0,"""event"",""trial"",""time""
""blur"",""0"",""0""
""focus"",""0"",""0""
""blur"",""0"",""0""
""focus"",""0"",""0""
""fullscreenenter"",""1"",""5086""
""fullscreenexit"",""2"",""6220""
""blur"",""68"",""407376""
""focus"",""68"",""409324""
","""event"",""trial"",""time""
""blur"",""0"",""0""
""blur"",""0"",""0""
""blur"",""68"",""407376""
","""event"",""trial"",""time""
""focus"",""0"",""0""
""focus"",""0"",""0""
""focus"",""68"",""409324""
","""event"",""trial"",""time""
""fullscreenenter"",""1"",""5086""
","""event"",""trial"",""time""
""fullscreenexit"",""2"",""6220""
",,null,run_exp/static/images/task_images/gems/23.jpg,null,,,,,,,12,,,3,,,,,23,0.503056285,0.52173913,,,,,,,
decision,100,478060,0.0-36.0-2.0,"""event"",""trial"",""time""
""blur"",""0"",""0""
""focus"",""0"",""0""
""blur"",""0"",""0""
""focus"",""0"",""0""
""fullscreenenter"",""1"",""5086""
""fullscreenexit"",""2"",""6220""
""blur"",""68"",""407376""
""focus"",""68"",""409324""
","""event"",""trial"",""time""
""blur"",""0"",""0""
""blur"",""0"",""0""
""blur"",""68"",""407376""
","""event"",""trial"",""time""
""focus"",""0"",""0""
""focus"",""0"",""0""
""focus"",""68"",""409324""
","""event"",""trial"",""time""
""fullscreenenter"",""1"",""5086""
","""event"",""trial"",""time""
""fullscreenexit"",""2"",""6220""
",,null,run_exp/static/images/task_images/land.jpg,null,,,,,,,12,,,3,,,,,,,,68596,1,2,FALSE,,,
time_out,101,480067,0.0-37.0-0.0,"""event"",""trial"",""time""
""blur"",""0"",""0""
""focus"",""0"",""0""
""blur"",""0"",""0""
""focus"",""0"",""0""
""fullscreenenter"",""1"",""5086""
""fullscreenexit"",""2"",""6220""
""blur"",""68"",""407376""
""focus"",""68"",""409324""
","""event"",""trial"",""time""
""blur"",""0"",""0""
""blur"",""0"",""0""
""blur"",""68"",""407376""
","""event"",""trial"",""time""
""focus"",""0"",""0""
""focus"",""0"",""0""
""focus"",""68"",""409324""
","""event"",""trial"",""time""
""fullscreenenter"",""1"",""5086""
","""event"",""trial"",""time""
""fullscreenexit"",""2"",""6220""
",,null,run_exp/static/images/task_images/time_out.jpg,null,,,,,,,12,,,,,,,,,,,,,,,,,
decision,102,480565,0.0-37.0-1.0,"""event"",""trial"",""time""
""blur"",""0"",""0""
""focus"",""0"",""0""
""blur"",""0"",""0""
""focus"",""0"",""0""
""fullscreenenter"",""1"",""5086""
""fullscreenexit"",""2"",""6220""
""blur"",""68"",""407376""
""focus"",""68"",""409324""
","""event"",""trial"",""time""
""blur"",""0"",""0""
""blur"",""0"",""0""
""blur"",""68"",""407376""
","""event"",""trial"",""time""
""focus"",""0"",""0""
""focus"",""0"",""0""
""focus"",""68"",""409324""
","""event"",""trial"",""time""
""fullscreenenter"",""1"",""5086""
","""event"",""trial"",""time""
""fullscreenexit"",""2"",""6220""
",,496.3,run_exp/static/images/task_images/land.jpg,76,,,,,,,12,,,3,,,,,,,,71101,1,2,TRUE,,,
travel,103,490067,0.0-38.0-0.0,"""event"",""trial"",""time""
""blur"",""0"",""0""
""focus"",""0"",""0""
""blur"",""0"",""0""
""focus"",""0"",""0""
""fullscreenenter"",""1"",""5086""
""fullscreenexit"",""2"",""6220""
""blur"",""68"",""407376""
""focus"",""68"",""409324""
","""event"",""trial"",""time""
""blur"",""0"",""0""
""blur"",""0"",""0""
""blur"",""68"",""407376""
","""event"",""trial"",""time""
""focus"",""0"",""0""
""focus"",""0"",""0""
""focus"",""68"",""409324""
","""event"",""trial"",""time""
""fullscreenenter"",""1"",""5086""
","""event"",""trial"",""time""
""fullscreenexit"",""2"",""6220""
",,,,,,,,,,,,"[{""stimulus"":""run_exp/static/images/task_images/rocket-01.jpg"",""time"":0.10000014305114746},{""stimulus"":""run_exp/static/images/task_images/rocket-02.jpg"",""time"":1057.5},{""stimulus"":""run_exp/static/images/task_images/rocket-03.jpg"",""time"":2111.2999999523163},{""stimulus"":""run_exp/static/images/task_images/rocket-04.jpg"",""time"":3173.2999999523163},{""stimulus"":""run_exp/static/images/task_images/rocket-05.jpg"",""time"":4222.299999952316},{""stimulus"":""run_exp/static/images/task_images/rocket-06.jpg"",""time"":5276.200000047684},{""stimulus"":""run_exp/static/images/task_images/rocket-07.jpg"",""time"":6331.900000095367},{""stimulus"":""run_exp/static/images/task_images/rocket-08.jpg"",""time"":7387.100000143051},{""stimulus"":""run_exp/static/images/task_images/rocket-09.jpg"",""time"":8441.200000047684}]",[],3,,,,,,,,,,,,,,
alien_welcome,104,495070,0.0-38.0-1.0,"""event"",""trial"",""time""
""blur"",""0"",""0""
""focus"",""0"",""0""
""blur"",""0"",""0""
""focus"",""0"",""0""
""fullscreenenter"",""1"",""5086""
""fullscreenexit"",""2"",""6220""
""blur"",""68"",""407376""
""focus"",""68"",""409324""
","""event"",""trial"",""time""
""blur"",""0"",""0""
""blur"",""0"",""0""
""blur"",""68"",""407376""
","""event"",""trial"",""time""
""focus"",""0"",""0""
""focus"",""0"",""0""
""focus"",""68"",""409324""
","""event"",""trial"",""time""
""fullscreenenter"",""1"",""5086""
","""event"",""trial"",""time""
""fullscreenexit"",""2"",""6220""
",,null,run_exp/static/images/task_images/aliens/old_aliens/planet/alien_planet-56.jpg,null,,,,,,,,,,,,,56,"21,18,80,56,3,44,24,46,62,10,29,66,37,26,28,59,75,68,65,45,25,4,70,77,20,54,31,61,40,76,17,53,14,52,79,60,23,9,58,5,64,2,48,51,12,22,35,71,6,38,19",,,,,,,,,,
land,105,495572,0.0-38.0-2.0,"""event"",""trial"",""time""
""blur"",""0"",""0""
""focus"",""0"",""0""
""blur"",""0"",""0""
""focus"",""0"",""0""
""fullscreenenter"",""1"",""5086""
""fullscreenexit"",""2"",""6220""
""blur"",""68"",""407376""
""focus"",""68"",""409324""
","""event"",""trial"",""time""
""blur"",""0"",""0""
""blur"",""0"",""0""
""blur"",""68"",""407376""
","""event"",""trial"",""time""
""focus"",""0"",""0""
""focus"",""0"",""0""
""focus"",""68"",""409324""
","""event"",""trial"",""time""
""fullscreenenter"",""1"",""5086""
","""event"",""trial"",""time""
""fullscreenexit"",""2"",""6220""
",,null,run_exp/static/images/task_images/land.jpg,null,,,,,,,97,,,4,,,,,,,,,,,,,,
dig,106,497577,0.0-38.0-3.0,"""event"",""trial"",""time""
""blur"",""0"",""0""
""focus"",""0"",""0""
""blur"",""0"",""0""
""focus"",""0"",""0""
""fullscreenenter"",""1"",""5086""
""fullscreenexit"",""2"",""6220""
""blur"",""68"",""407376""
""focus"",""68"",""409324""
","""event"",""trial"",""time""
""blur"",""0"",""0""
""blur"",""0"",""0""
""blur"",""68"",""407376""
","""event"",""trial"",""time""
""focus"",""0"",""0""
""focus"",""0"",""0""
""focus"",""68"",""409324""
","""event"",""trial"",""time""
""fullscreenenter"",""1"",""5086""
","""event"",""trial"",""time""
""fullscreenexit"",""2"",""6220""
",,,,,,,,,,,,"[{""stimulus"":""run_exp/static/images/task_images/dig.jpg"",""time"":0.5},{""stimulus"":""run_exp/static/images/task_images/land.jpg"",""time"":669.1999998092651},{""stimulus"":""run_exp/static/images/task_images/dig.jpg"",""time"":1336.2999999523163}]",[],4,,,,,,,,,,,,,,
harvest,107,498580,0.0-38.0-4.0,"""event"",""trial"",""time""
""blur"",""0"",""0""
""focus"",""0"",""0""
""blur"",""0"",""0""
""focus"",""0"",""0""
""fullscreenenter"",""1"",""5086""
""fullscreenexit"",""2"",""6220""
""blur"",""68"",""407376""
""focus"",""68"",""409324""
","""event"",""trial"",""time""
""blur"",""0"",""0""
""blur"",""0"",""0""
""blur"",""68"",""407376""
","""event"",""trial"",""time""
""focus"",""0"",""0""
""focus"",""0"",""0""
""focus"",""68"",""409324""
","""event"",""trial"",""time""
""fullscreenenter"",""1"",""5086""
","""event"",""trial"",""time""
""fullscreenexit"",""2"",""6220""
",,null,run_exp/static/images/task_images/gems/97.jpg,null,,,,,,,51,,,4,,,,,97,0.521846538,0.525773196,,,,,,,
decision,108,498686,0.0-38.0-5.0,"""event"",""trial"",""time""
""blur"",""0"",""0""
""focus"",""0"",""0""
""blur"",""0"",""0""
""focus"",""0"",""0""
""fullscreenenter"",""1"",""5086""
""fullscreenexit"",""2"",""6220""
""blur"",""68"",""407376""
""focus"",""68"",""409324""
","""event"",""trial"",""time""
""blur"",""0"",""0""
""blur"",""0"",""0""
""blur"",""68"",""407376""
","""event"",""trial"",""time""
""focus"",""0"",""0""
""focus"",""0"",""0""
""focus"",""68"",""409324""
","""event"",""trial"",""time""
""fullscreenenter"",""1"",""5086""
","""event"",""trial"",""time""
""fullscreenexit"",""2"",""6220""
",,103.8,run_exp/static/images/task_images/land.jpg,65,,,,,,,51,,,4,,,,,,,,89223,1,0,FALSE,,,
dig,109,501588,0.0-39.0-0.0,"""event"",""trial"",""time""
""blur"",""0"",""0""
""focus"",""0"",""0""
""blur"",""0"",""0""
""focus"",""0"",""0""
""fullscreenenter"",""1"",""5086""
""fullscreenexit"",""2"",""6220""
""blur"",""68"",""407376""
""focus"",""68"",""409324""
","""event"",""trial"",""time""
""blur"",""0"",""0""
""blur"",""0"",""0""
""blur"",""68"",""407376""
","""event"",""trial"",""time""
""focus"",""0"",""0""
""focus"",""0"",""0""
""focus"",""68"",""409324""
","""event"",""trial"",""time""
""fullscreenenter"",""1"",""5086""
","""event"",""trial"",""time""
""fullscreenexit"",""2"",""6220""
",,,,,,,,,,,,"[{""stimulus"":""run_exp/static/images/task_images/dig.jpg"",""time"":0.10000014305114746},{""stimulus"":""run_exp/static/images/task_images/land.jpg"",""time"":968},{""stimulus"":""run_exp/static/images/task_images/dig.jpg"",""time"":1931.5}]",[],4,,,,,,,,,,,,,,
harvest,110,502591,0.0-39.0-1.0,"""event"",""trial"",""time""
""blur"",""0"",""0""
""focus"",""0"",""0""
""blur"",""0"",""0""
""focus"",""0"",""0""
""fullscreenenter"",""1"",""5086""
""fullscreenexit"",""2"",""6220""
""blur"",""68"",""407376""
""focus"",""68"",""409324""
","""event"",""trial"",""time""
""blur"",""0"",""0""
""blur"",""0"",""0""
""blur"",""68"",""407376""
","""event"",""trial"",""time""
""focus"",""0"",""0""
""focus"",""0"",""0""
""focus"",""68"",""409324""
","""event"",""trial"",""time""
""fullscreenenter"",""1"",""5086""
","""event"",""trial"",""time""
""fullscreenexit"",""2"",""6220""
",,null,run_exp/static/images/task_images/gems/51.jpg,null,,,,,,,30,,,4,,,,,51,0.580881368,0.588235294,,,,,,,
decision,111,503822,0.0-39.0-2.0,"""event"",""trial"",""time""
""blur"",""0"",""0""
""focus"",""0"",""0""
""blur"",""0"",""0""
""focus"",""0"",""0""
""fullscreenenter"",""1"",""5086""
""fullscreenexit"",""2"",""6220""
""blur"",""68"",""407376""
""focus"",""68"",""409324""
","""event"",""trial"",""time""
""blur"",""0"",""0""
""blur"",""0"",""0""
""blur"",""68"",""407376""
","""event"",""trial"",""time""
""focus"",""0"",""0""
""focus"",""0"",""0""
""focus"",""68"",""409324""
","""event"",""trial"",""time""
""fullscreenenter"",""1"",""5086""
","""event"",""trial"",""time""
""fullscreenexit"",""2"",""6220""
",,1228.9,run_exp/static/images/task_images/land.jpg,65,,,,,,,30,,,4,,,,,,,,94358,1,1,FALSE,,,
dig,112,505599,0.0-40.0-0.0,"""event"",""trial"",""time""
""blur"",""0"",""0""
""focus"",""0"",""0""
""blur"",""0"",""0""
""focus"",""0"",""0""
""fullscreenenter"",""1"",""5086""
""fullscreenexit"",""2"",""6220""
""blur"",""68"",""407376""
""focus"",""68"",""409324""
","""event"",""trial"",""time""
""blur"",""0"",""0""
""blur"",""0"",""0""
""blur"",""68"",""407376""
","""event"",""trial"",""time""
""focus"",""0"",""0""
""focus"",""0"",""0""
""focus"",""68"",""409324""
","""event"",""trial"",""time""
""fullscreenenter"",""1"",""5086""
","""event"",""trial"",""time""
""fullscreenexit"",""2"",""6220""
",,,,,,,,,,,,"[{""stimulus"":""run_exp/static/images/task_images/dig.jpg"",""time"":0.39999985694885254},{""stimulus"":""run_exp/static/images/task_images/land.jpg"",""time"":592.0999999046326},{""stimulus"":""run_exp/static/images/task_images/dig.jpg"",""time"":1183.2999999523163}]",[],4,,,,,,,,,,,,,,
harvest,113,506603,0.0-40.0-1.0,"""event"",""trial"",""time""
""blur"",""0"",""0""
""focus"",""0"",""0""
""blur"",""0"",""0""
""focus"",""0"",""0""
""fullscreenenter"",""1"",""5086""
""fullscreenexit"",""2"",""6220""
""blur"",""68"",""407376""
""focus"",""68"",""409324""
","""event"",""trial"",""time""
""blur"",""0"",""0""
""blur"",""0"",""0""
""blur"",""68"",""407376""
","""event"",""trial"",""time""
""focus"",""0"",""0""
""focus"",""0"",""0""
""focus"",""68"",""409324""
","""event"",""trial"",""time""
""fullscreenenter"",""1"",""5086""
","""event"",""trial"",""time""
""fullscreenexit"",""2"",""6220""
",,null,run_exp/static/images/task_images/gems/30.jpg,null,,,,,,,17,,,4,,,,,30,0.551177803,0.566666667,,,,,,,
decision,114,506614,0.0-40.0-2.0,"""event"",""trial"",""time""
""blur"",""0"",""0""
""focus"",""0"",""0""
""blur"",""0"",""0""
""focus"",""0"",""0""
""fullscreenenter"",""1"",""5086""
""fullscreenexit"",""2"",""6220""
""blur"",""68"",""407376""
""focus"",""68"",""409324""
","""event"",""trial"",""time""
""blur"",""0"",""0""
""blur"",""0"",""0""
""blur"",""68"",""407376""
","""event"",""trial"",""time""
""focus"",""0"",""0""
""focus"",""0"",""0""
""focus"",""68"",""409324""
","""event"",""trial"",""time""
""fullscreenenter"",""1"",""5086""
","""event"",""trial"",""time""
""fullscreenexit"",""2"",""6220""
",,9.799999952,run_exp/static/images/task_images/land.jpg,65,,,,,,,17,,,4,,,,,,,,97151,1,2,FALSE,,,
dig,115,509608,0.0-41.0-0.0,"""event"",""trial"",""time""
""blur"",""0"",""0""
""focus"",""0"",""0""
""blur"",""0"",""0""
""focus"",""0"",""0""
""fullscreenenter"",""1"",""5086""
""fullscreenexit"",""2"",""6220""
""blur"",""68"",""407376""
""focus"",""68"",""409324""
","""event"",""trial"",""time""
""blur"",""0"",""0""
""blur"",""0"",""0""
""blur"",""68"",""407376""
","""event"",""trial"",""time""
""focus"",""0"",""0""
""focus"",""0"",""0""
""focus"",""68"",""409324""
","""event"",""trial"",""time""
""fullscreenenter"",""1"",""5086""
","""event"",""trial"",""time""
""fullscreenexit"",""2"",""6220""
",,,,,,,,,,,,"[{""stimulus"":""run_exp/static/images/task_images/dig.jpg"",""time"":0},{""stimulus"":""run_exp/static/images/task_images/land.jpg"",""time"":997.0999999046326},{""stimulus"":""run_exp/static/images/task_images/dig.jpg"",""time"":1994.0999999046326}]",[],4,,,,,,,,,,,,,,
harvest,116,510611,0.0-41.0-1.0,"""event"",""trial"",""time""
""blur"",""0"",""0""
""focus"",""0"",""0""
""blur"",""0"",""0""
""focus"",""0"",""0""
""fullscreenenter"",""1"",""5086""
""fullscreenexit"",""2"",""6220""
""blur"",""68"",""407376""
""focus"",""68"",""409324""
","""event"",""trial"",""time""
""blur"",""0"",""0""
""blur"",""0"",""0""
""blur"",""68"",""407376""
","""event"",""trial"",""time""
""focus"",""0"",""0""
""focus"",""0"",""0""
""focus"",""68"",""409324""
","""event"",""trial"",""time""
""fullscreenenter"",""1"",""5086""
","""event"",""trial"",""time""
""fullscreenexit"",""2"",""6220""
",,null,run_exp/static/images/task_images/gems/17.jpg,null,,,,,,,9,,,4,,,,,17,0.526200899,0.529411765,,,,,,,
decision,117,511694,0.0-41.0-2.0,"""event"",""trial"",""time""
""blur"",""0"",""0""
""focus"",""0"",""0""
""blur"",""0"",""0""
""focus"",""0"",""0""
""fullscreenenter"",""1"",""5086""
""fullscreenexit"",""2"",""6220""
""blur"",""68"",""407376""
""focus"",""68"",""409324""
","""event"",""trial"",""time""
""blur"",""0"",""0""
""blur"",""0"",""0""
""blur"",""68"",""407376""
","""event"",""trial"",""time""
""focus"",""0"",""0""
""focus"",""0"",""0""
""focus"",""68"",""409324""
","""event"",""trial"",""time""
""fullscreenenter"",""1"",""5086""
","""event"",""trial"",""time""
""fullscreenexit"",""2"",""6220""
",,1081.7,run_exp/static/images/task_images/land.jpg,76,,,,,,,9,,,4,,,,,,,,102231,1,3,TRUE,,,
travel,118,520610,0.0-42.0-0.0,"""event"",""trial"",""time""
""blur"",""0"",""0""
""focus"",""0"",""0""
""blur"",""0"",""0""
""focus"",""0"",""0""
""fullscreenenter"",""1"",""5086""
""fullscreenexit"",""2"",""6220""
""blur"",""68"",""407376""
""focus"",""68"",""409324""
","""event"",""trial"",""time""
""blur"",""0"",""0""
""blur"",""0"",""0""
""blur"",""68"",""407376""
","""event"",""trial"",""time""
""focus"",""0"",""0""
""focus"",""0"",""0""
""focus"",""68"",""409324""
","""event"",""trial"",""time""
""fullscreenenter"",""1"",""5086""
","""event"",""trial"",""time""
""fullscreenexit"",""2"",""6220""
",,,,,,,,,,,,"[{""stimulus"":""run_exp/static/images/task_images/rocket-01.jpg"",""time"":0.10000014305114746},{""stimulus"":""run_exp/static/images/task_images/rocket-02.jpg"",""time"":991},{""stimulus"":""run_exp/static/images/task_images/rocket-03.jpg"",""time"":1982.1000001430511},{""stimulus"":""run_exp/static/images/task_images/rocket-04.jpg"",""time"":2971.600000143051},{""stimulus"":""run_exp/static/images/task_images/rocket-05.jpg"",""time"":3961.4000000953674},{""stimulus"":""run_exp/static/images/task_images/rocket-06.jpg"",""time"":4952.400000095367},{""stimulus"":""run_exp/static/images/task_images/rocket-07.jpg"",""time"":5941.200000047684},{""stimulus"":""run_exp/static/images/task_images/rocket-08.jpg"",""time"":6931.100000143051},{""stimulus"":""run_exp/static/images/task_images/rocket-09.jpg"",""time"":7921.300000190735}]",[],4,,,,,,,,,,,,,,
alien_welcome,119,525613,0.0-42.0-1.0,"""event"",""trial"",""time""
""blur"",""0"",""0""
""focus"",""0"",""0""
""blur"",""0"",""0""
""focus"",""0"",""0""
""fullscreenenter"",""1"",""5086""
""fullscreenexit"",""2"",""6220""
""blur"",""68"",""407376""
""focus"",""68"",""409324""
","""event"",""trial"",""time""
""blur"",""0"",""0""
""blur"",""0"",""0""
""blur"",""68"",""407376""
","""event"",""trial"",""time""
""focus"",""0"",""0""
""focus"",""0"",""0""
""focus"",""68"",""409324""
","""event"",""trial"",""time""
""fullscreenenter"",""1"",""5086""
","""event"",""trial"",""time""
""fullscreenexit"",""2"",""6220""
",,null,run_exp/static/images/task_images/aliens/old_aliens/planet/alien_planet-3.jpg,null,,,,,,,,,,,,,3,"21,18,80,56,3,44,24,46,62,10,29,66,37,26,28,59,75,68,65,45,25,4,70,77,20,54,31,61,40,76,17,53,14,52,79,60,23,9,58,5,64,2,48,51,12,22,35,71,6,38,19",,,,,,,,,,
land,120,526115,0.0-42.0-2.0,"""event"",""trial"",""time""
""blur"",""0"",""0""
""focus"",""0"",""0""
""blur"",""0"",""0""
""focus"",""0"",""0""
""fullscreenenter"",""1"",""5086""
""fullscreenexit"",""2"",""6220""
""blur"",""68"",""407376""
""focus"",""68"",""409324""
","""event"",""trial"",""time""
""blur"",""0"",""0""
""blur"",""0"",""0""
""blur"",""68"",""407376""
","""event"",""trial"",""time""
""focus"",""0"",""0""
""focus"",""0"",""0""
""focus"",""68"",""409324""
","""event"",""trial"",""time""
""fullscreenenter"",""1"",""5086""
","""event"",""trial"",""time""
""fullscreenexit"",""2"",""6220""
",,null,run_exp/static/images/task_images/land.jpg,null,,,,,,,110,,,5,,,,,,,,,,,,,,
dig,121,528120,0.0-42.0-3.0,"""event"",""trial"",""time""
""blur"",""0"",""0""
""focus"",""0"",""0""
""blur"",""0"",""0""
""focus"",""0"",""0""
""fullscreenenter"",""1"",""5086""
""fullscreenexit"",""2"",""6220""
""blur"",""68"",""407376""
""focus"",""68"",""409324""
","""event"",""trial"",""time""
""blur"",""0"",""0""
""blur"",""0"",""0""
""blur"",""68"",""407376""
","""event"",""trial"",""time""
""focus"",""0"",""0""
""focus"",""0"",""0""
""focus"",""68"",""409324""
","""event"",""trial"",""time""
""fullscreenenter"",""1"",""5086""
","""event"",""trial"",""time""
""fullscreenexit"",""2"",""6220""
",,,,,,,,,,,,"[{""stimulus"":""run_exp/static/images/task_images/dig.jpg"",""time"":0.5},{""stimulus"":""run_exp/static/images/task_images/land.jpg"",""time"":668.7999999523163},{""stimulus"":""run_exp/static/images/task_images/dig.jpg"",""time"":1336.5999999046326}]",[],5,,,,,,,,,,,,,,
harvest,122,529123,0.0-42.0-4.0,"""event"",""trial"",""time""
""blur"",""0"",""0""
""focus"",""0"",""0""
""blur"",""0"",""0""
""focus"",""0"",""0""
""fullscreenenter"",""1"",""5086""
""fullscreenexit"",""2"",""6220""
""blur"",""68"",""407376""
""focus"",""68"",""409324""
","""event"",""trial"",""time""
""blur"",""0"",""0""
""blur"",""0"",""0""
""blur"",""68"",""407376""
","""event"",""trial"",""time""
""focus"",""0"",""0""
""focus"",""0"",""0""
""focus"",""68"",""409324""
","""event"",""trial"",""time""
""fullscreenenter"",""1"",""5086""
","""event"",""trial"",""time""
""fullscreenexit"",""2"",""6220""
",,null,run_exp/static/images/task_images/gems/110.jpg,null,,,,,,,59,,,5,,,,,110,0.533305992,0.536363636,,,,,,,
decision,123,529495,0.0-42.0-5.0,"""event"",""trial"",""time""
""blur"",""0"",""0""
""focus"",""0"",""0""
""blur"",""0"",""0""
""focus"",""0"",""0""
""fullscreenenter"",""1"",""5086""
""fullscreenexit"",""2"",""6220""
""blur"",""68"",""407376""
""focus"",""68"",""409324""
","""event"",""trial"",""time""
""blur"",""0"",""0""
""blur"",""0"",""0""
""blur"",""68"",""407376""
","""event"",""trial"",""time""
""focus"",""0"",""0""
""focus"",""0"",""0""
""focus"",""68"",""409324""
","""event"",""trial"",""time""
""fullscreenenter"",""1"",""5086""
","""event"",""trial"",""time""
""fullscreenexit"",""2"",""6220""
",,369.5,run_exp/static/images/task_images/land.jpg,65,,,,,,,59,,,5,,,,,,,,120031,1,0,FALSE,,,
dig,124,532130,0.0-43.0-0.0,"""event"",""trial"",""time""
""blur"",""0"",""0""
""focus"",""0"",""0""
""blur"",""0"",""0""
""focus"",""0"",""0""
""fullscreenenter"",""1"",""5086""
""fullscreenexit"",""2"",""6220""
""blur"",""68"",""407376""
""focus"",""68"",""409324""
","""event"",""trial"",""time""
""blur"",""0"",""0""
""blur"",""0"",""0""
""blur"",""68"",""407376""
","""event"",""trial"",""time""
""focus"",""0"",""0""
""focus"",""0"",""0""
""focus"",""68"",""409324""
","""event"",""trial"",""time""
""fullscreenenter"",""1"",""5086""
","""event"",""trial"",""time""
""fullscreenexit"",""2"",""6220""
",,,,,,,,,,,,"[{""stimulus"":""run_exp/static/images/task_images/dig.jpg"",""time"":0.10000014305114746},{""stimulus"":""run_exp/static/images/task_images/land.jpg"",""time"":877.2000000476837},{""stimulus"":""run_exp/static/images/task_images/dig.jpg"",""time"":1754.1000001430511}]",[],5,,,,,,,,,,,,,,
