trial_type,trial_index,time_elapsed,internal_node_id,interactions,blur_events,focus_events,fullscreenenter_events,fullscreenexit_events,success,rt,stimulus,key_press,prompt,subject_id,participant_id,age,gender,button_pressed,next_reward,animation_sequence,responses,planet,curr_prac_trial,n_prac_rounds,alien,aliens,reward_received,decay_rate_actual,decay_rate_exp,time_in_block,block_num,prt,last_trial_on_planet,button_html,bonus,num_failures
pavlovia,0,2,0.0-0.0,"""event"",""trial"",""time""
""fullscreenenter"",""1"",""3072""
","
","
","""event"",""trial"",""time""
""fullscreenenter"",""1"",""3072""
","
",,,,,,,,,,,,,,,,,,,,,,,,,,,,
fullscreen,1,4068,0.0-1.0,"""event"",""trial"",""time""
""fullscreenenter"",""1"",""3072""
","
","
","""event"",""trial"",""time""
""fullscreenenter"",""1"",""3072""
","
",TRUE,,,,,,,,,,,,,,,,,,,,,,,,,,,
instruc_welcome,2,13787,0.0-2.0,"""event"",""trial"",""time""
""fullscreenenter"",""1"",""3072""
","
","
","""event"",""trial"",""time""
""fullscreenenter"",""1"",""3072""
","
",,null,run_exp/static/audio/clip_1_welcome.m4a,null,"<p>Howdy! In this experiment, you’ll be an explorer traveling through space to collect space treasure.</p><p>Your mission is to collect as much treasure as possible.</p><br><br><p><img src='run_exp/static/images/task_images/opening_img-01.jpg' height='300' width='auto'></p>",9370,1847,13.74,Male,,,,,,,,,,,,,,,,,,,
audio-keyboard-response,3,30367,0.0-3.0,"""event"",""trial"",""time""
""fullscreenenter"",""1"",""3072""
","
","
","""event"",""trial"",""time""
""fullscreenenter"",""1"",""3072""
","
",,null,run_exp/static/audio/clip_2_move.m4a,null,,,,,,,,,,,,,,,,,,,,,,,,
welcome_dec,4,31855,0.0-4.0,"""event"",""trial"",""time""
""fullscreenenter"",""1"",""3072""
","
","
","""event"",""trial"",""time""
""fullscreenenter"",""1"",""3072""
","
",,1486.8,"<p>Howdy! In this experiment, you’ll be an explorer traveling through space to collect space treasure.</p><p>Your mission is to collect as much treasure as possible.</p><br><br><p><img src='run_exp/static/images/task_images/opening_img-01.jpg' height='300' width='auto'></p>",,,,,,,1,,,,,,,,,,,,,,,,,,
html-keyboard-response,5,32304,0.0-5.0,"""event"",""trial"",""time""
""fullscreenenter"",""1"",""3072""
","
","
","""event"",""trial"",""time""
""fullscreenenter"",""1"",""3072""
","
",,448.3000002,"<p>Howdy! In this experiment, you’ll be an explorer traveling through space to collect space treasure.</p><p>Your mission is to collect as much treasure as possible.</p><br><br><p><img src='run_exp/static/images/task_images/opening_img-01.jpg' height='300' width='auto'></p><button class=""jspsych-html-btn-unchosen""><img src=""run_exp/static/images/task_images/planet-01.jpg"" height=""50""></button><button class=""jspsych-html-btn-chosen""><img src=""run_exp/static/images/task_images/planet-02.jpg"" height=""50""></button><p><b>[press the space bar to lock in your answer]<b><br></p>",32,,,,,,,,,,,,,,,,,,,,,,,,
instruc_goal,6,42365,0.0-6.0-0.0,"""event"",""trial"",""time""
""fullscreenenter"",""1"",""3072""
","
","
","""event"",""trial"",""time""
""fullscreenenter"",""1"",""3072""
","
",,null,run_exp/static/audio/clip_3_goal.m4a,null,"<p> As a space explorer, you’ll visit different planets to dig for space treasure, these pink gems.</p> <p> The more treasure you dig up, the more bonus money you’ll win! </p><br><br><p><img src='run_exp/static/images/task_images/pink_gem.jpg' height='300' width='auto'></p>",,,,,,,,,,,,,,,,,,,,,,,
instruc_goal,7,50821,0.0-6.0-1.0,"""event"",""trial"",""time""
""fullscreenenter"",""1"",""3072""
","
","
","""event"",""trial"",""time""
""fullscreenenter"",""1"",""3072""
","
",,8455.2,"<p> As a space explorer, you’ll visit different planets to dig for space treasure, these pink gems.</p> <p> The more treasure you dig up, the more bonus money you’ll win! </p><br><br><p><img src='run_exp/static/images/task_images/pink_gem.jpg' height='300' width='auto'></p>",,,,,,,1,,,,,,,,,,,,,,,,,,
html-keyboard-response,8,50893,0.0-6.0-2.0,"""event"",""trial"",""time""
""fullscreenenter"",""1"",""3072""
","
","
","""event"",""trial"",""time""
""fullscreenenter"",""1"",""3072""
","
",,70.5,"<p> As a space explorer, you’ll visit different planets to dig for space treasure, these pink gems.</p> <p> The more treasure you dig up, the more bonus money you’ll win! </p><br><br><p><img src='run_exp/static/images/task_images/pink_gem.jpg' height='300' width='auto'></p><button class=""jspsych-html-btn-unchosen""><img src=""run_exp/static/images/task_images/planet-01.jpg"" height=""50""></button><button class=""jspsych-html-btn-chosen""><img src=""run_exp/static/images/task_images/planet-02.jpg"" height=""50""></button><p><b>[press the space bar to lock in your answer]<b><br></p>",32,,,,,,,,,,,,,,,,,,,,,,,,
instruc_dig,9,66885,0.0-7.0-0.0,"""event"",""trial"",""time""
""fullscreenenter"",""1"",""3072""
","
","
","""event"",""trial"",""time""
""fullscreenenter"",""1"",""3072""
","
",,null,run_exp/static/audio/clip_4_dig.m4a,null,,,,,,,100,,,,,,,,,,,,,,,,,
instruc_dig_try,10,67244,0.0-7.0-1.0,"""event"",""trial"",""time""
""fullscreenenter"",""1"",""3072""
","
","
","""event"",""trial"",""time""
""fullscreenenter"",""1"",""3072""
","
",,358.0999999,"<p> When you’ve arrived at a new planet, you will dig once. </p> <p>Then, you get to decide if you want to stay on the planet and dig again or travel to a new planet and dig there.</p> <p> To stay and dig, press the letter <strong>‘A’</strong> on your keyboard. Try pressing it now! </p><p><img src='run_exp/static/images/task_images/land.jpg'  height='700' width='auto'></p>",65,"<p> When you’ve arrived at a new planet, you will dig once. </p> <p>Then, you get to decide if you want to stay on the planet and dig again or travel to a new planet and dig there.</p> <p> To stay and dig, press the letter <strong>‘A’</strong> on your keyboard. Try pressing it now! </p><p><img src='run_exp/static/images/task_images/land.jpg'  height='700' width='auto'></p>",,,,,,100,,,,,,,,,,,,,,,,,
dig_prac,11,69261,0.0-7.0-2.0,"""event"",""trial"",""time""
""fullscreenenter"",""1"",""3072""
","
","
","""event"",""trial"",""time""
""fullscreenenter"",""1"",""3072""
","
",,,,,,,,,,,,"[{""stimulus"":""run_exp/static/images/task_images/dig.jpg"",""time"":0.20000004768371582},{""stimulus"":""run_exp/static/images/task_images/land.jpg"",""time"":681.0999999046326},{""stimulus"":""run_exp/static/images/task_images/dig.jpg"",""time"":1345.2000000476837}]",[],,,,,,,,,,,,,,,
instruc_travel,12,105505,0.0-7.0-3.0,"""event"",""trial"",""time""
""fullscreenenter"",""1"",""3072""
","
","
","""event"",""trial"",""time""
""fullscreenenter"",""1"",""3072""
","
",,null,run_exp/static/audio/clip_5_travel.m4a,null,"<p>Every time you dig up gems, there are less gems on the planet, so the more you dig on a planet the fewer gems you’ll get with each dig.</p><p>When gems are running low, you may want to travel to a new planet. </p> <p>  Planets are very far apart in this galaxy, so it will take some time to travel between them. </p> <br><p>There are lots and lots of planets for you to visit, so you won’t be able to return to any planets you’ve seen before. </p><br><p>To leave this planet and travel to a new one, press the letter <strong>‘L’</strong> on your keyboard. Try pressing it now! </p><p><img src='run_exp/static/images/task_images/rocket-01.jpg'  height='600' width='auto'></p>",,,,,,,,,,,,,,,,,,,,,,,
instruc_travel_try,13,106404,0.0-7.0-4.0,"""event"",""trial"",""time""
""fullscreenenter"",""1"",""3072""
","
","
","""event"",""trial"",""time""
""fullscreenenter"",""1"",""3072""
","
",,898.3999999,"<p>Every time you dig up gems, there are less gems on the planet, so the more you dig on a planet the fewer gems you’ll get with each dig.</p><p>When gems are running low, you may want to travel to a new planet. </p> <p>  Planets are very far apart in this galaxy, so it will take some time to travel between them. </p> <br><p>There are lots and lots of planets for you to visit, so you won’t be able to return to any planets you’ve seen before. </p><br><p>To leave this planet and travel to a new one, press the letter <strong>‘L’</strong> on your keyboard. Try pressing it now! </p><p><img src='run_exp/static/images/task_images/rocket-01.jpg'  height='600' width='auto'></p>",76,"<p>Every time you dig up gems, there are less gems on the planet, so the more you dig on a planet the fewer gems you’ll get with each dig.</p><p>When gems are running low, you may want to travel to a new planet. </p> <p>  Planets are very far apart in this galaxy, so it will take some time to travel between them. </p> <br><p>There are lots and lots of planets for you to visit, so you won’t be able to return to any planets you’ve seen before. </p><br><p>To leave this planet and travel to a new one, press the letter <strong>‘L’</strong> on your keyboard. Try pressing it now! </p><p><img src='run_exp/static/images/task_images/rocket-01.jpg'  height='600' width='auto'></p>",,,,,,,,,,,,,,,,,,,,,,,
travel_prac,14,116416,0.0-7.0-5.0,"""event"",""trial"",""time""
""fullscreenenter"",""1"",""3072""
","
","
","""event"",""trial"",""time""
""fullscreenenter"",""1"",""3072""
","
",,,,,,,,,,,,"[{""stimulus"":""run_exp/static/images/task_images/rocket-01.jpg"",""time"":0.20000004768371582},{""stimulus"":""run_exp/static/images/task_images/rocket-02.jpg"",""time"":1123.8000001907349},{""stimulus"":""run_exp/static/images/task_images/rocket-03.jpg"",""time"":2223.600000143051},{""stimulus"":""run_exp/static/images/task_images/rocket-04.jpg"",""time"":3337.9000000953674},{""stimulus"":""run_exp/static/images/task_images/rocket-05.jpg"",""time"":4454.300000190735},{""stimulus"":""run_exp/static/images/task_images/rocket-06.jpg"",""time"":5569.300000190735},{""stimulus"":""run_exp/static/images/task_images/rocket-07.jpg"",""time"":6667.200000047684},{""stimulus"":""run_exp/static/images/task_images/rocket-08.jpg"",""time"":7781.200000047684},{""stimulus"":""run_exp/static/images/task_images/rocket-09.jpg"",""time"":8898.300000190735}]",[],0,,,,,,,,,,,,,,
instruc_alien_greet,15,143595,0.0-7.0-6.0,"""event"",""trial"",""time""
""fullscreenenter"",""1"",""3072""
","
","
","""event"",""trial"",""time""
""fullscreenenter"",""1"",""3072""
","
",,null,run_exp/static/audio/clip_6_alien.m4a,null,"<p>When you arrive at a new planet, the alien who owns the treasure mine on that planet will greet you!</p><p>The better an alien takes care of their mine the easier it is to dig for gems. Some aliens take better care of their mine than others. So, you won’t get exactly the same amount of gems on each planet.</p><p>What the alien looks like does not tell you anything about how many gems there are on the planet.</p><br><p><img src=""run_exp/static/images/task_images/aliens/instructions_aliens/planet/alien_planet-1.jpg""  height=""600"" width=""auto""></p>",,,,,,,,,,,,,,,,,,,,,,,
instruc_alien_greet,16,145341,0.0-7.0-7.0,"""event"",""trial"",""time""
""fullscreenenter"",""1"",""3072""
","
","
","""event"",""trial"",""time""
""fullscreenenter"",""1"",""3072""
","
",,1745,"<p>When you arrive at a new planet, the alien who owns the treasure mine on that planet will greet you!</p><p>The better an alien takes care of their mine the easier it is to dig for gems. Some aliens take better care of their mine than others. So, you won’t get exactly the same amount of gems on each planet.</p><p>What the alien looks like does not tell you anything about how many gems there are on the planet.</p><br><p><img src=""run_exp/static/images/task_images/aliens/instructions_aliens/planet/alien_planet-1.jpg""  height=""600"" width=""auto""></p>",,,,,,,1,,,,,,,,,,,,,,,,,,
html-keyboard-response,17,145604,0.0-7.0-8.0,"""event"",""trial"",""time""
""fullscreenenter"",""1"",""3072""
","
","
","""event"",""trial"",""time""
""fullscreenenter"",""1"",""3072""
","
",,262.3,"<p>When you arrive at a new planet, the alien who owns the treasure mine on that planet will greet you!</p><p>The better an alien takes care of their mine the easier it is to dig for gems. Some aliens take better care of their mine than others. So, you won’t get exactly the same amount of gems on each planet.</p><p>What the alien looks like does not tell you anything about how many gems there are on the planet.</p><br><p><img src=""run_exp/static/images/task_images/aliens/instructions_aliens/planet/alien_planet-1.jpg""  height=""600"" width=""auto""></p><button class=""jspsych-html-btn-unchosen""><img src=""run_exp/static/images/task_images/planet-01.jpg"" height=""50""></button><button class=""jspsych-html-btn-chosen""><img src=""run_exp/static/images/task_images/planet-02.jpg"" height=""50""></button><p><b>[press the space bar to lock in your answer]<b><br></p>",32,,,,,,,,,,,,,,,,,,,,,,,,
time_out,18,156674,0.0-8.0-0.0,"""event"",""trial"",""time""
""fullscreenenter"",""1"",""3072""
","
","
","""event"",""trial"",""time""
""fullscreenenter"",""1"",""3072""
","
",,null,run_exp/static/audio/clip_7_timeout.m4a,null,"<p>If you don't make your choice fast enough, you’ll have to wait a few seconds before you can make another one.</p><p>You can’t dig for more gems or travel to new planets. You just have to sit and wait.</p><br><p><img src='run_exp/static/images/task_images/time_out.jpg'  height='600' width='auto'></p>",,,,,,,,,,,,,,,,,,,,,,,
time_out,19,158085,0.0-8.0-1.0,"""event"",""trial"",""time""
""fullscreenenter"",""1"",""3072""
","
","
","""event"",""trial"",""time""
""fullscreenenter"",""1"",""3072""
","
",,1408.6,"<p>If you don't make your choice fast enough, you’ll have to wait a few seconds before you can make another one.</p><p>You can’t dig for more gems or travel to new planets. You just have to sit and wait.</p><br><p><img src='run_exp/static/images/task_images/time_out.jpg'  height='600' width='auto'></p>",,,,,,,1,,,,,,,,,,,,,,,,,,
html-keyboard-response,20,158164,0.0-8.0-2.0,"""event"",""trial"",""time""
""fullscreenenter"",""1"",""3072""
","
","
","""event"",""trial"",""time""
""fullscreenenter"",""1"",""3072""
","
",,78.5,"<p>If you don't make your choice fast enough, you’ll have to wait a few seconds before you can make another one.</p><p>You can’t dig for more gems or travel to new planets. You just have to sit and wait.</p><br><p><img src='run_exp/static/images/task_images/time_out.jpg'  height='600' width='auto'></p><button class=""jspsych-html-btn-unchosen""><img src=""run_exp/static/images/task_images/planet-01.jpg"" height=""50""></button><button class=""jspsych-html-btn-chosen""><img src=""run_exp/static/images/task_images/planet-02.jpg"" height=""50""></button><p><b>[press the space bar to lock in your answer]<b><br></p>",32,,,,,,,,,,,,,,,,,,,,,,,,
instruc_break,21,173814,0.0-9.0-0.0,"""event"",""trial"",""time""
""fullscreenenter"",""1"",""3072""
","
","
","""event"",""trial"",""time""
""fullscreenenter"",""1"",""3072""
","
",,null,run_exp/static/audio/clip_8_break.m4a,null,"<p> After digging and traveling for a while, you’ll be able to take a break at home base. </p><p>The game will last 20 minutes no matter what.</p><p>You will visit home base every 5 minutes, so, you will visit home base three times during the game.</p><br><p><img src='run_exp/static/images/task_images/home_base.jpg' height='600' width='auto'></p>",,,,,,,,,,,,,,,,,,,,,,,
instruc_break,22,184311,0.0-9.0-1.0,"""event"",""trial"",""time""
""fullscreenenter"",""1"",""3072""
","
","
","""event"",""trial"",""time""
""fullscreenenter"",""1"",""3072""
","
",,10496.1,"<p> After digging and traveling for a while, you’ll be able to take a break at home base. </p><p>The game will last 20 minutes no matter what.</p><p>You will visit home base every 5 minutes, so, you will visit home base three times during the game.</p><br><p><img src='run_exp/static/images/task_images/home_base.jpg' height='600' width='auto'></p>",,,,,,,1,,,,,,,,,,,,,,,,,,
html-keyboard-response,23,184437,0.0-9.0-2.0,"""event"",""trial"",""time""
""fullscreenenter"",""1"",""3072""
","
","
","""event"",""trial"",""time""
""fullscreenenter"",""1"",""3072""
","
",,123.4000001,"<p> After digging and traveling for a while, you’ll be able to take a break at home base. </p><p>The game will last 20 minutes no matter what.</p><p>You will visit home base every 5 minutes, so, you will visit home base three times during the game.</p><br><p><img src='run_exp/static/images/task_images/home_base.jpg' height='600' width='auto'></p><button class=""jspsych-html-btn-unchosen""><img src=""run_exp/static/images/task_images/planet-01.jpg"" height=""50""></button><button class=""jspsych-html-btn-chosen""><img src=""run_exp/static/images/task_images/planet-02.jpg"" height=""50""></button><p><b>[press the space bar to lock in your answer]<b><br></p>",32,,,,,,,,,,,,,,,,,,,,,,,,
instruc_prac_game,24,194526,0.0-10.0-0.0,"""event"",""trial"",""time""
""fullscreenenter"",""1"",""3072""
","
","
","""event"",""trial"",""time""
""fullscreenenter"",""1"",""3072""
","
",,null,run_exp/static/audio/clip_9_practice.m4a,null,"<p> Are you ready to play a practice game? </p> <p>In this practice game, you'll be digging up barrels of gems. But, in the real game, you'll be digging up the gems themselves. </p>",,,,,,,,,,,,,,,,,,,,,,,
html-button-response,25,195913,0.0-10.0-1.0,"""event"",""trial"",""time""
""fullscreenenter"",""1"",""3072""
","
","
","""event"",""trial"",""time""
""fullscreenenter"",""1"",""3072""
","
",,1386,"<p> Are you ready to play a practice game? </p> <p>In this practice game, you'll be digging up barrels of gems. But, in the real game, you'll be digging up the gems themselves. </p>",,,,,,,0,,,,,,,,,,,,,,,,,,
alien_welcome_prac,26,200918,0.0-11.0-0.0,"""event"",""trial"",""time""
""fullscreenenter"",""1"",""3072""
","
","
","""event"",""trial"",""time""
""fullscreenenter"",""1"",""3072""
","
",,null,run_exp/static/images/task_images/aliens/practice_aliens/planet/alien_planet-5.jpg,null,,,,,,,,,,,,,,,,,,,,,,,,
land_prac,27,201421,0.0-11.0-1.0,"""event"",""trial"",""time""
""fullscreenenter"",""1"",""3072""
","
","
","""event"",""trial"",""time""
""fullscreenenter"",""1"",""3072""
","
",,null,run_exp/static/images/task_images/land.jpg,null,,,,,,,92,,,0,,,,,,,,,,,,,,
dig_prac,28,203425,0.0-11.0-2.0,"""event"",""trial"",""time""
""fullscreenenter"",""1"",""3072""
","
","
","""event"",""trial"",""time""
""fullscreenenter"",""1"",""3072""
","
",,,,,,,,,,,,"[{""stimulus"":""run_exp/static/images/task_images/dig.jpg"",""time"":0.2999999523162842},{""stimulus"":""run_exp/static/images/task_images/land.jpg"",""time"":672.9000000953674},{""stimulus"":""run_exp/static/images/task_images/dig.jpg"",""time"":1338.2999999523163}]",[],,,,,,,,,,,,,,,
harvest_prac,29,204440,0.0-11.0-3.0,"""event"",""trial"",""time""
""fullscreenenter"",""1"",""3072""
","
","
","""event"",""trial"",""time""
""fullscreenenter"",""1"",""3072""
","
",,null,run_exp/static/images/task_images/barrel_text.jpg,null,,,,,,,,,,,,,,,,,,,,,,,,
decision_prac,30,207449,0.0-11.0-4.0,"""event"",""trial"",""time""
""fullscreenenter"",""1"",""3072""
","
","
","""event"",""trial"",""time""
""fullscreenenter"",""1"",""3072""
","
",,null,run_exp/static/images/task_images/land.jpg,null,,,,,,,,,,,1,,,,,,,,,,,,,
time_out,31,209455,0.0-12.0-0.0,"""event"",""trial"",""time""
""fullscreenenter"",""1"",""3072""
","
","
","""event"",""trial"",""time""
""fullscreenenter"",""1"",""3072""
","
",,null,run_exp/static/images/task_images/time_out.jpg,null,,,,,,,,,,,,,,,,,,,,,,,,
decision_prac,32,210468,0.0-12.0-1.0,"""event"",""trial"",""time""
""fullscreenenter"",""1"",""3072""
","
","
","""event"",""trial"",""time""
""fullscreenenter"",""1"",""3072""
","
",,1011.5,run_exp/static/images/task_images/land.jpg,65,,,,,,,,,,,2,,,,,,,,,,,,,
dig_prac,33,212484,0.0-13.0-0.0,"""event"",""trial"",""time""
""fullscreenenter"",""1"",""3072""
","
","
","""event"",""trial"",""time""
""fullscreenenter"",""1"",""3072""
","
",,,,,,,,,,,,"[{""stimulus"":""run_exp/static/images/task_images/dig.jpg"",""time"":0.20000004768371582},{""stimulus"":""run_exp/static/images/task_images/land.jpg"",""time"":670.3000001907349},{""stimulus"":""run_exp/static/images/task_images/dig.jpg"",""time"":1341.7000000476837}]",[],,,,,,,,,,,,,,,
harvest_prac,34,213500,0.0-13.0-1.0,"""event"",""trial"",""time""
""fullscreenenter"",""1"",""3072""
","
","
","""event"",""trial"",""time""
""fullscreenenter"",""1"",""3072""
","
",,null,run_exp/static/images/task_images/barrel_text.jpg,null,,,,,,,,,,,,,,,,,,,,,,,,
decision_prac,35,213644,0.0-13.0-2.0,"""event"",""trial"",""time""
""fullscreenenter"",""1"",""3072""
","
","
","""event"",""trial"",""time""
""fullscreenenter"",""1"",""3072""
","
",,143.8000002,run_exp/static/images/task_images/land.jpg,65,,,,,,,,,,,3,,,,,,,,,,,,,
dig_prac,36,215655,0.0-14.0-0.0,"""event"",""trial"",""time""
""fullscreenenter"",""1"",""3072""
","
","
","""event"",""trial"",""time""
""fullscreenenter"",""1"",""3072""
","
",,,,,,,,,,,,"[{""stimulus"":""run_exp/static/images/task_images/dig.jpg"",""time"":0.10000014305114746},{""stimulus"":""run_exp/static/images/task_images/land.jpg"",""time"":680.4000000953674},{""stimulus"":""run_exp/static/images/task_images/dig.jpg"",""time"":1343.2999999523163}]",[],,,,,,,,,,,,,,,
harvest_prac,37,216657,0.0-14.0-1.0,"""event"",""trial"",""time""
""fullscreenenter"",""1"",""3072""
","
","
","""event"",""trial"",""time""
""fullscreenenter"",""1"",""3072""
","
",,null,run_exp/static/images/task_images/barrel_text.jpg,null,,,,,,,,,,,,,,,,,,,,,,,,
decision_prac,38,216659,0.0-14.0-2.0,"""event"",""trial"",""time""
""fullscreenenter"",""1"",""3072""
","
","
","""event"",""trial"",""time""
""fullscreenenter"",""1"",""3072""
","
",,1.099999905,run_exp/static/images/task_images/land.jpg,65,,,,,,,,,,,4,,,,,,,,,,,,,
dig_prac,39,218675,0.0-15.0-0.0,"""event"",""trial"",""time""
""fullscreenenter"",""1"",""3072""
","
","
","""event"",""trial"",""time""
""fullscreenenter"",""1"",""3072""
","
",,,,,,,,,,,,"[{""stimulus"":""run_exp/static/images/task_images/dig.jpg"",""time"":0},{""stimulus"":""run_exp/static/images/task_images/land.jpg"",""time"":668.8000001907349},{""stimulus"":""run_exp/static/images/task_images/dig.jpg"",""time"":1339.2000000476837}]",[],,,,,,,,,,,,,,,
harvest_prac,40,219693,0.0-15.0-1.0,"""event"",""trial"",""time""
""fullscreenenter"",""1"",""3072""
","
","
","""event"",""trial"",""time""
""fullscreenenter"",""1"",""3072""
","
",,null,run_exp/static/images/task_images/barrel_text.jpg,null,,,,,,,,,,,,,,,,,,,,,,,,
decision_prac,41,222703,0.0-15.0-2.0,"""event"",""trial"",""time""
""fullscreenenter"",""1"",""3072""
","
","
","""event"",""trial"",""time""
""fullscreenenter"",""1"",""3072""
","
",,null,run_exp/static/images/task_images/land.jpg,null,,,,,,,,,,,,1,,,,,,,,,,,,
quiz_instruc,42,232211,0.0-16.0-0.0,"""event"",""trial"",""time""
""fullscreenenter"",""1"",""3072""
","
","
","""event"",""trial"",""time""
""fullscreenenter"",""1"",""3072""
","
",,9505.1,run_exp/static/audio/clip_10_quiz.m4a,,,,,,,0,,,,,,,,,,,,,,,,,,
instruc_repeat,43,274976,0.0-16.0-1.0,"""event"",""trial"",""time""
""fullscreenenter"",""1"",""3072""
","
","
","""event"",""trial"",""time""
""fullscreenenter"",""1"",""3072""
","
",,null,"<p> Are you ready to play a practice game? </p> <p>In this practice game, you'll be digging up barrels of gems. But, in the real game, you'll be digging up the gems themselves. </p>",null,"<p>In this game, your goal is to collect as many gems as you can. That’s how you will win bonus money. </p> <p>The entire game will last 20 minutes no matter how many gems you collect or how many planets you visit. </p><p>To stay on a planet and dig again, press the letter A on your keyboard. To leave for a new planet, press the letter L.</p><p>The more you dig on a planet, the fewer gems you’ll get with each dig which is why you might consider leaving for a new planet. </p><p>When you arrive at a new planet, you’ll be greeted by an alien. What the alien looks like does not tell you anything about how much treasure is on the planet. </p>",,,,,,,,,,,,,,,,,,,,,,,
instruc_repeat_continue,44,275975,0.0-16.0-2.0,"""event"",""trial"",""time""
""fullscreenenter"",""1"",""3072""
","
","
","""event"",""trial"",""time""
""fullscreenenter"",""1"",""3072""
","
",,998.4000001,"<p> Are you ready to play a practice game? </p> <p>In this practice game, you'll be digging up barrels of gems. But, in the real game, you'll be digging up the gems themselves. </p>",,,,,,,0,,,,,,,,,,,,,,,,,,
quiz_q_1_ask,45,279855,0.0-16.0-3.0,"""event"",""trial"",""time""
""fullscreenenter"",""1"",""3072""
","
","
","""event"",""trial"",""time""
""fullscreenenter"",""1"",""3072""
","
",,3878.8,run_exp/static/audio/clip_11_q1_ask.m4a,,,,,,,2,,,,,,,,,,,,,,,,,,
quiz_q_1_fb_correct,46,283696,0.0-17.0-0.0,"""event"",""trial"",""time""
""fullscreenenter"",""1"",""3072""
","
","
","""event"",""trial"",""time""
""fullscreenenter"",""1"",""3072""
","
",,null,run_exp/static/audio/clip_12_q1_correct.m4a,null,<p>That’s correct. You win extra money by collecting more gems.</p>,,,,,,,,,,,,,,,,,,,,,,,
quiz_q_2_ask,47,287646,0.0-17.0-1.0,"""event"",""trial"",""time""
""fullscreenenter"",""1"",""3072""
","
","
","""event"",""trial"",""time""
""fullscreenenter"",""1"",""3072""
","
",,3949.7,run_exp/static/audio/clip_14_q2_ask.m4a,,,,,,,1,,,,,,,,,,,,,,,,,,
quiz_q_2_fb_correct,48,291656,0.0-18.0-0.0,"""event"",""trial"",""time""
""fullscreenenter"",""1"",""3072""
","
","
","""event"",""trial"",""time""
""fullscreenenter"",""1"",""3072""
","
",,null,run_exp/static/audio/clip_15_q2_correct.m4a,null,<p>That’s correct. The experiment is 20 minutes no matter what.</p>,,,,,,,,,,,,,,,,,,,,,,,
quiz_q_3_ask,49,294508,0.0-18.0-1.0,"""event"",""trial"",""time""
""fullscreenenter"",""1"",""3072""
","
","
","""event"",""trial"",""time""
""fullscreenenter"",""1"",""3072""
","
",,2850.9,run_exp/static/audio/clip_17_q3_ask.m4a,,,,,,,1,,,,,,,,,,,,,,,,,,
quiz_q_3_fb_correct,50,298497,0.0-19.0-0.0,"""event"",""trial"",""time""
""fullscreenenter"",""1"",""3072""
","
","
","""event"",""trial"",""time""
""fullscreenenter"",""1"",""3072""
","
",,null,run_exp/static/audio/clip_18_q3_correct.m4a,null,<p> That’s correct. You press the letter L to travel to a new planet.</p>,,,,,,,,,,,,,,,,,,,,,,,
quiz_q_4_ask,51,302742,0.0-19.0-1.0,"""event"",""trial"",""time""
""fullscreenenter"",""1"",""3072""
","
","
","""event"",""trial"",""time""
""fullscreenenter"",""1"",""3072""
","
",,4244.5,run_exp/static/audio/clip_20_q4_ask.m4a,,,,,,,1,,,,,,,,,,,,,,,,,,
quiz_q_4_fb_incorrect,52,308537,0.0-20.0-0.0,"""event"",""trial"",""time""
""fullscreenenter"",""1"",""3072""
","
","
","""event"",""trial"",""time""
""fullscreenenter"",""1"",""3072""
","
",,null,run_exp/static/audio/clip_22_q4_incorrect.m4a,null,<p>That’s incorrect.  The more you dig on a planet the fewer gems you’ll get with each dig.</p>,,,,,,,,,,,,,,,,,,,,,,,
quiz_q_5_ask,53,310820,0.0-20.0-1.0,"""event"",""trial"",""time""
""fullscreenenter"",""1"",""3072""
","
","
","""event"",""trial"",""time""
""fullscreenenter"",""1"",""3072""
","
",,2282.3,run_exp/static/audio/clip_23_q5_ask.m4a,,,,,,,1,,,,,,,,,,,,,,,,,,
quiz_q_5_fb_correct,54,315816,0.0-21.0-0.0,"""event"",""trial"",""time""
""fullscreenenter"",""1"",""3072""
","
","
","""event"",""trial"",""time""
""fullscreenenter"",""1"",""3072""
","
",,null,run_exp/static/audio/clip_24_q5_correct.m4a,null,<p> That’s correct. The alien tells you nothing about how much treasure is on the planet.</p>,,,,,,,,,,,,,,,,,,,,,,,
quiz_incorrect,55,321357,0.0-22.0-0.0,"""event"",""trial"",""time""
""fullscreenenter"",""1"",""3072""
","
","
","""event"",""trial"",""time""
""fullscreenenter"",""1"",""3072""
","
",,null,run_exp/static/audio/clip_27_incorrect_quiz.m4a,null,,,,,,,,,,,,,,,,,,,,,,,,
quiz_incorrect_continue,56,322392,0.0-22.0-1.0,"""event"",""trial"",""time""
""fullscreenenter"",""1"",""3072""
","
","
","""event"",""trial"",""time""
""fullscreenenter"",""1"",""3072""
","
",,1034.7,"<p>Oops, you missed some questions.</p><p>Now that you’ve heard the correct answers. Try the quiz again!</p>",,,,,,,0,,,,,,,,,,,,,,,,,,
quiz_q_1_ask,57,326622,0.0-22.0-2.0,"""event"",""trial"",""time""
""fullscreenenter"",""1"",""3072""
","
","
","""event"",""trial"",""time""
""fullscreenenter"",""1"",""3072""
","
",,4229,run_exp/static/audio/clip_11_q1_ask.m4a,,,,,,,2,,,,,,,,,,,,,,,,,,
quiz_q_1_fb_correct,58,330457,0.0-23.0-0.0,"""event"",""trial"",""time""
""fullscreenenter"",""1"",""3072""
","
","
","""event"",""trial"",""time""
""fullscreenenter"",""1"",""3072""
","
",,null,run_exp/static/audio/clip_12_q1_correct.m4a,null,<p>That’s correct. You win extra money by collecting more gems.</p>,,,,,,,,,,,,,,,,,,,,,,,
quiz_q_2_ask,59,332310,0.0-23.0-1.0,"""event"",""trial"",""time""
""fullscreenenter"",""1"",""3072""
","
","
","""event"",""trial"",""time""
""fullscreenenter"",""1"",""3072""
","
",,1852,run_exp/static/audio/clip_14_q2_ask.m4a,,,,,,,1,,,,,,,,,,,,,,,,,,
quiz_q_2_fb_correct,60,336316,0.0-24.0-0.0,"""event"",""trial"",""time""
""fullscreenenter"",""1"",""3072""
","
","
","""event"",""trial"",""time""
""fullscreenenter"",""1"",""3072""
","
",,null,run_exp/static/audio/clip_15_q2_correct.m4a,null,<p>That’s correct. The experiment is 20 minutes no matter what.</p>,,,,,,,,,,,,,,,,,,,,,,,
quiz_q_3_ask,61,338022,0.0-24.0-1.0,"""event"",""trial"",""time""
""fullscreenenter"",""1"",""3072""
","
","
","""event"",""trial"",""time""
""fullscreenenter"",""1"",""3072""
","
",,1704.7,run_exp/static/audio/clip_17_q3_ask.m4a,,,,,,,1,,,,,,,,,,,,,,,,,,
quiz_q_3_fb_correct,62,341997,0.0-25.0-0.0,"""event"",""trial"",""time""
""fullscreenenter"",""1"",""3072""
","
","
","""event"",""trial"",""time""
""fullscreenenter"",""1"",""3072""
","
",,null,run_exp/static/audio/clip_18_q3_correct.m4a,null,<p> That’s correct. You press the letter L to travel to a new planet.</p>,,,,,,,,,,,,,,,,,,,,,,,
quiz_q_4_ask,63,344384,0.0-25.0-1.0,"""event"",""trial"",""time""
""fullscreenenter"",""1"",""3072""
","
","
","""event"",""trial"",""time""
""fullscreenenter"",""1"",""3072""
","
",,2386.5,run_exp/static/audio/clip_20_q4_ask.m4a,,,,,,,0,,,,,,,,,,,,,,,,,,
quiz_q_4_fb_correct,64,349697,0.0-26.0-0.0,"""event"",""trial"",""time""
""fullscreenenter"",""1"",""3072""
","
","
","""event"",""trial"",""time""
""fullscreenenter"",""1"",""3072""
","
",,null,run_exp/static/audio/clip_21_q4_correct.m4a,null,<p> That’s correct. The more you dig on a planet the fewer gems you’ll get with each dig. </p>,,,,,,,,,,,,,,,,,,,,,,,
quiz_q_5_ask,65,351508,0.0-26.0-1.0,"""event"",""trial"",""time""
""fullscreenenter"",""1"",""3072""
","
","
","""event"",""trial"",""time""
""fullscreenenter"",""1"",""3072""
","
",,1810.3,run_exp/static/audio/clip_23_q5_ask.m4a,,,,,,,1,,,,,,,,,,,,,,,,,,
quiz_q_5_fb_correct,66,356516,0.0-27.0-0.0,"""event"",""trial"",""time""
""fullscreenenter"",""1"",""3072""
","
","
","""event"",""trial"",""time""
""fullscreenenter"",""1"",""3072""
","
",,null,run_exp/static/audio/clip_24_q5_correct.m4a,null,<p> That’s correct. The alien tells you nothing about how much treasure is on the planet.</p>,,,,,,,,,,,,,,,,,,,,,,,
quiz_correct,67,359976,0.0-28.0-0.0,"""event"",""trial"",""time""
""fullscreenenter"",""1"",""3072""
","
","
","""event"",""trial"",""time""
""fullscreenenter"",""1"",""3072""
","
",,null,run_exp/static/audio/clip_26_correct_quiz.m4a,null,,,,,,,,,,,,,,,,,,,,,,,,
quiz_correct_continue,68,360875,0.0-28.0-1.0,"""event"",""trial"",""time""
""fullscreenenter"",""1"",""3072""
","
","
","""event"",""trial"",""time""
""fullscreenenter"",""1"",""3072""
","
",,898.6000001,<p>Good job! You're now ready to move on to the real game!</p>,,,,,,,0,,,,,,,,,,,,,,,,,,
audio-keyboard-response,69,370996,0.0-28.0-2.0,"""event"",""trial"",""time""
""fullscreenenter"",""1"",""3072""
","
","
","""event"",""trial"",""time""
""fullscreenenter"",""1"",""3072""
","
",,null,run_exp/static/audio/clip_28_real_game.m4a,null,,,,,,,,,,,,,,,,,,,,,,,,
instruc_begin_exp_contine,70,372057,0.0-28.0-3.0,"""event"",""trial"",""time""
""fullscreenenter"",""1"",""3072""
","
","
","""event"",""trial"",""time""
""fullscreenenter"",""1"",""3072""
","
",,1059.5,"<p>Now that you know how  to dig for space treasure and travel to new planets,you can start exploring! </p><p>Do you want to go over the instructions again or get started with the real game?</p>",,,,,,,1,,,,,,1,,,,,,,,,,,,
alien_welcome,71,377059,0.0-29.0-0.0,"""event"",""trial"",""time""
""fullscreenenter"",""1"",""3072""
","
","
","""event"",""trial"",""time""
""fullscreenenter"",""1"",""3072""
","
",,null,run_exp/static/images/task_images/aliens/old_aliens/planet/alien_planet-53.jpg,null,,,,,,,,,,,,,53,"53,41,62,35,30,70,39,76,55,7,44,12,15,17,29,14,69,64,8,26,49,32,75,19,3,79,80,13,59,33,52,1,21,4,56,20,74,24,43,37,22,61,51,50,10,48,73",,,,,,,,,,
land,72,377571,0.0-29.0-1.0,"""event"",""trial"",""time""
""fullscreenenter"",""1"",""3072""
","
","
","""event"",""trial"",""time""
""fullscreenenter"",""1"",""3072""
","
",,null,run_exp/static/images/task_images/land.jpg,null,,,,,,,103,,,1,,,,,,,,,,,,,,
dig,73,379586,0.0-29.0-2.0,"""event"",""trial"",""time""
""fullscreenenter"",""1"",""3072""
","
","
","""event"",""trial"",""time""
""fullscreenenter"",""1"",""3072""
","
",,,,,,,,,,,,"[{""stimulus"":""run_exp/static/images/task_images/dig.jpg"",""time"":0.10000014305114746},{""stimulus"":""run_exp/static/images/task_images/land.jpg"",""time"":668.4000000953674},{""stimulus"":""run_exp/static/images/task_images/dig.jpg"",""time"":1347.4000000953674}]",[],1,,,,,,,,,,,,,,
harvest,74,380594,0.0-29.0-3.0,"""event"",""trial"",""time""
""fullscreenenter"",""1"",""3072""
","
","
","""event"",""trial"",""time""
""fullscreenenter"",""1"",""3072""
","
",,null,run_exp/static/images/task_images/gems/103.jpg,null,,,,,,,24,,,1,,,,,103,0.229034192,0.233009709,,,,,,,
decision,75,381509,0.0-29.0-4.0,"""event"",""trial"",""time""
""fullscreenenter"",""1"",""3072""
","
","
","""event"",""trial"",""time""
""fullscreenenter"",""1"",""3072""
","
",,913.1000001,run_exp/static/images/task_images/land.jpg,65,,,,,,,24,,,1,,,,,,,,9451,1,0,FALSE,,,
dig,76,383606,0.0-30.0-0.0,"""event"",""trial"",""time""
""fullscreenenter"",""1"",""3072""
","
","
","""event"",""trial"",""time""
""fullscreenenter"",""1"",""3072""
","
",,,,,,,,,,,,"[{""stimulus"":""run_exp/static/images/task_images/dig.jpg"",""time"":0.10000014305114746},{""stimulus"":""run_exp/static/images/task_images/land.jpg"",""time"":699.4000000953674},{""stimulus"":""run_exp/static/images/task_images/dig.jpg"",""time"":1404.1000001430511}]",[],1,,,,,,,,,,,,,,
harvest,77,384616,0.0-30.0-1.0,"""event"",""trial"",""time""
""fullscreenenter"",""1"",""3072""
","
","
","""event"",""trial"",""time""
""fullscreenenter"",""1"",""3072""
","
",,null,run_exp/static/images/task_images/gems/24.jpg,null,,,,,,,5,,,1,,,,,24,0.20423739,0.208333333,,,,,,,
decision,78,385325,0.0-30.0-2.0,"""event"",""trial"",""time""
""fullscreenenter"",""1"",""3072""
","
","
","""event"",""trial"",""time""
""fullscreenenter"",""1"",""3072""
","
",,708.0999999,run_exp/static/images/task_images/land.jpg,65,,,,,,,5,,,1,,,,,,,,13267,1,1,FALSE,,,
dig,79,387624,0.0-31.0-0.0,"""event"",""trial"",""time""
""fullscreenenter"",""1"",""3072""
","
","
","""event"",""trial"",""time""
""fullscreenenter"",""1"",""3072""
","
",,,,,,,,,,,,"[{""stimulus"":""run_exp/static/images/task_images/dig.jpg"",""time"":0},{""stimulus"":""run_exp/static/images/task_images/land.jpg"",""time"":767.7999999523163},{""stimulus"":""run_exp/static/images/task_images/dig.jpg"",""time"":1539.7999999523163}]",[],1,,,,,,,,,,,,,,
harvest,80,388639,0.0-31.0-1.0,"""event"",""trial"",""time""
""fullscreenenter"",""1"",""3072""
","
","
","""event"",""trial"",""time""
""fullscreenenter"",""1"",""3072""
","
",,null,run_exp/static/images/task_images/gems/5.jpg,null,,,,,,,1,,,1,,,,,5,0.128097043,0.2,,,,,,,
decision,81,389165,0.0-31.0-2.0,"""event"",""trial"",""time""
""fullscreenenter"",""1"",""3072""
","
","
","""event"",""trial"",""time""
""fullscreenenter"",""1"",""3072""
","
",,525,run_exp/static/images/task_images/land.jpg,65,,,,,,,1,,,1,,,,,,,,17107,1,2,FALSE,,,
dig,82,391658,0.0-32.0-0.0,"""event"",""trial"",""time""
""fullscreenenter"",""1"",""3072""
","
","
","""event"",""trial"",""time""
""fullscreenenter"",""1"",""3072""
","
",,,,,,,,,,,,"[{""stimulus"":""run_exp/static/images/task_images/dig.jpg"",""time"":0.10000014305114746},{""stimulus"":""run_exp/static/images/task_images/land.jpg"",""time"":838.4000000953674},{""stimulus"":""run_exp/static/images/task_images/dig.jpg"",""time"":1664.5}]",[],1,,,,,,,,,,,,,,
harvest,83,392674,0.0-32.0-1.0,"""event"",""trial"",""time""
""fullscreenenter"",""1"",""3072""
","
","
","""event"",""trial"",""time""
""fullscreenenter"",""1"",""3072""
","
",,null,run_exp/static/images/task_images/gems/1.jpg,null,,,,,,,0,,,1,,,,,1,0.14394274,0,,,,,,,
decision,84,394124,0.0-32.0-2.0,"""event"",""trial"",""time""
""fullscreenenter"",""1"",""3072""
","
","
","""event"",""trial"",""time""
""fullscreenenter"",""1"",""3072""
","
",,1449.1,run_exp/static/images/task_images/land.jpg,76,,,,,,,0,,,1,,,,,,,,22067,1,3,TRUE,,,
travel,85,402676,0.0-33.0-0.0,"""event"",""trial"",""time""
""fullscreenenter"",""1"",""3072""
","
","
","""event"",""trial"",""time""
""fullscreenenter"",""1"",""3072""
","
",,,,,,,,,,,,"[{""stimulus"":""run_exp/static/images/task_images/rocket-01.jpg"",""time"":0},{""stimulus"":""run_exp/static/images/task_images/rocket-02.jpg"",""time"":964.9000000953674},{""stimulus"":""run_exp/static/images/task_images/rocket-03.jpg"",""time"":1900.9000000953674},{""stimulus"":""run_exp/static/images/task_images/rocket-04.jpg"",""time"":2865.5},{""stimulus"":""run_exp/static/images/task_images/rocket-05.jpg"",""time"":3805.9000000953674},{""stimulus"":""run_exp/static/images/task_images/rocket-06.jpg"",""time"":4764.400000095367},{""stimulus"":""run_exp/static/images/task_images/rocket-07.jpg"",""time"":5705.799999952316},{""stimulus"":""run_exp/static/images/task_images/rocket-08.jpg"",""time"":6664.799999952316},{""stimulus"":""run_exp/static/images/task_images/rocket-09.jpg"",""time"":7607.5}]",[],1,,,,,,,,,,,,,,
alien_welcome,86,407692,0.0-33.0-1.0,"""event"",""trial"",""time""
""fullscreenenter"",""1"",""3072""
","
","
","""event"",""trial"",""time""
""fullscreenenter"",""1"",""3072""
","
",,null,run_exp/static/images/task_images/aliens/old_aliens/planet/alien_planet-41.jpg,null,,,,,,,,,,,,,41,"53,41,62,35,30,70,39,76,55,7,44,12,15,17,29,14,69,64,8,26,49,32,75,19,3,79,80,13,59,33,52,1,21,4,56,20,74,24,43,37,22,61,51,50,10,48,73",,,,,,,,,,
land,87,408206,0.0-33.0-2.0,"""event"",""trial"",""time""
""fullscreenenter"",""1"",""3072""
","
","
","""event"",""trial"",""time""
""fullscreenenter"",""1"",""3072""
","
",,null,run_exp/static/images/task_images/land.jpg,null,,,,,,,95,,,2,,,,,,,,,,,,,,
dig,88,410220,0.0-33.0-3.0,"""event"",""trial"",""time""
""fullscreenenter"",""1"",""3072""
","
","
","""event"",""trial"",""time""
""fullscreenenter"",""1"",""3072""
","
",,,,,,,,,,,,"[{""stimulus"":""run_exp/static/images/task_images/dig.jpg"",""time"":0.09999990463256836},{""stimulus"":""run_exp/static/images/task_images/land.jpg"",""time"":683.4000000953674},{""stimulus"":""run_exp/static/images/task_images/dig.jpg"",""time"":1345.7999999523163}]",[],2,,,,,,,,,,,,,,
harvest,89,411230,0.0-33.0-4.0,"""event"",""trial"",""time""
""fullscreenenter"",""1"",""3072""
","
","
","""event"",""trial"",""time""
""fullscreenenter"",""1"",""3072""
","
",,null,run_exp/static/images/task_images/gems/95.jpg,null,,,,,,,22,,,2,,,,,95,0.231108953,0.231578947,,,,,,,
decision,90,412068,0.0-33.0-5.0,"""event"",""trial"",""time""
""fullscreenenter"",""1"",""3072""
","
","
","""event"",""trial"",""time""
""fullscreenenter"",""1"",""3072""
","
",,836.5,run_exp/static/images/task_images/land.jpg,65,,,,,,,22,,,2,,,,,,,,40010,1,0,FALSE,,,
dig,91,414239,0.0-34.0-0.0,"""event"",""trial"",""time""
""fullscreenenter"",""1"",""3072""
","
","
","""event"",""trial"",""time""
""fullscreenenter"",""1"",""3072""
","
",,,,,,,,,,,,"[{""stimulus"":""run_exp/static/images/task_images/dig.jpg"",""time"":0.09999990463256836},{""stimulus"":""run_exp/static/images/task_images/land.jpg"",""time"":722.2000000476837},{""stimulus"":""run_exp/static/images/task_images/dig.jpg"",""time"":1445.2999999523163}]",[],2,,,,,,,,,,,,,,
harvest,92,415250,0.0-34.0-1.0,"""event"",""trial"",""time""
""fullscreenenter"",""1"",""3072""
","
","
","""event"",""trial"",""time""
""fullscreenenter"",""1"",""3072""
","
",,null,run_exp/static/images/task_images/gems/22.jpg,null,,,,,,,4,,,2,,,,,22,0.191161164,0.181818182,,,,,,,
decision,93,415725,0.0-34.0-2.0,"""event"",""trial"",""time""
""fullscreenenter"",""1"",""3072""
","
","
","""event"",""trial"",""time""
""fullscreenenter"",""1"",""3072""
","
",,473.5999999,run_exp/static/images/task_images/land.jpg,65,,,,,,,4,,,2,,,,,,,,43667,1,1,FALSE,,,
dig,94,418258,0.0-35.0-0.0,"""event"",""trial"",""time""
""fullscreenenter"",""1"",""3072""
","
","
","""event"",""trial"",""time""
""fullscreenenter"",""1"",""3072""
","
",,,,,,,,,,,,"[{""stimulus"":""run_exp/static/images/task_images/dig.jpg"",""time"":0.09999990463256836},{""stimulus"":""run_exp/static/images/task_images/land.jpg"",""time"":843.7000000476837},{""stimulus"":""run_exp/static/images/task_images/dig.jpg"",""time"":1696.4000000953674}]",[],2,,,,,,,,,,,,,,
harvest,95,419270,0.0-35.0-1.0,"""event"",""trial"",""time""
""fullscreenenter"",""1"",""3072""
","
","
","""event"",""trial"",""time""
""fullscreenenter"",""1"",""3072""
","
",,null,run_exp/static/images/task_images/gems/4.jpg,null,,,,,,,1,,,2,,,,,4,0.2740911,0.25,,,,,,,
decision,96,419742,0.0-35.0-2.0,"""event"",""trial"",""time""
""fullscreenenter"",""1"",""3072""
","
","
","""event"",""trial"",""time""
""fullscreenenter"",""1"",""3072""
","
",,471.2,run_exp/static/images/task_images/land.jpg,65,,,,,,,1,,,2,,,,,,,,47685,1,2,FALSE,,,
dig,97,422278,0.0-36.0-0.0,"""event"",""trial"",""time""
""fullscreenenter"",""1"",""3072""
","
","
","""event"",""trial"",""time""
""fullscreenenter"",""1"",""3072""
","
",,,,,,,,,,,,"[{""stimulus"":""run_exp/static/images/task_images/dig.jpg"",""time"":0.09999990463256836},{""stimulus"":""run_exp/static/images/task_images/land.jpg"",""time"":843.0999999046326},{""stimulus"":""run_exp/static/images/task_images/dig.jpg"",""time"":1687.1999998092651}]",[],2,,,,,,,,,,,,,,
harvest,98,423288,0.0-36.0-1.0,"""event"",""trial"",""time""
""fullscreenenter"",""1"",""3072""
","
","
","""event"",""trial"",""time""
""fullscreenenter"",""1"",""3072""
","
",,null,run_exp/static/images/task_images/gems/1.jpg,null,,,,,,,0,,,2,,,,,1,0.240151476,0,,,,,,,
decision,99,423695,0.0-36.0-2.0,"""event"",""trial"",""time""
""fullscreenenter"",""1"",""3072""
","
","
","""event"",""trial"",""time""
""fullscreenenter"",""1"",""3072""
","
",,405.6000001,run_exp/static/images/task_images/land.jpg,76,,,,,,,0,,,2,,,,,,,,51637,1,3,TRUE,,,
travel,100,433304,0.0-37.0-0.0,"""event"",""trial"",""time""
""fullscreenenter"",""1"",""3072""
","
","
","""event"",""trial"",""time""
""fullscreenenter"",""1"",""3072""
","
",,,,,,,,,,,,"[{""stimulus"":""run_exp/static/images/task_images/rocket-01.jpg"",""time"":0.10000014305114746},{""stimulus"":""run_exp/static/images/task_images/rocket-02.jpg"",""time"":1071.9000000953674},{""stimulus"":""run_exp/static/images/task_images/rocket-03.jpg"",""time"":2141.7999999523163},{""stimulus"":""run_exp/static/images/task_images/rocket-04.jpg"",""time"":3210.600000143051},{""stimulus"":""run_exp/static/images/task_images/rocket-05.jpg"",""time"":4278.100000143051},{""stimulus"":""run_exp/static/images/task_images/rocket-06.jpg"",""time"":5332.299999952316},{""stimulus"":""run_exp/static/images/task_images/rocket-07.jpg"",""time"":6397.5},{""stimulus"":""run_exp/static/images/task_images/rocket-08.jpg"",""time"":7466.200000047684},{""stimulus"":""run_exp/static/images/task_images/rocket-09.jpg"",""time"":8534.5}]",[],2,,,,,,,,,,,,,,
alien_welcome,101,438312,0.0-37.0-1.0,"""event"",""trial"",""time""
""fullscreenenter"",""1"",""3072""
","
","
","""event"",""trial"",""time""
""fullscreenenter"",""1"",""3072""
","
",,null,run_exp/static/images/task_images/aliens/old_aliens/planet/alien_planet-62.jpg,null,,,,,,,,,,,,,62,"53,41,62,35,30,70,39,76,55,7,44,12,15,17,29,14,69,64,8,26,49,32,75,19,3,79,80,13,59,33,52,1,21,4,56,20,74,24,43,37,22,61,51,50,10,48,73",,,,,,,,,,
land,102,438826,0.0-37.0-2.0,"""event"",""trial"",""time""
""fullscreenenter"",""1"",""3072""
","
","
","""event"",""trial"",""time""
""fullscreenenter"",""1"",""3072""
","
",,null,run_exp/static/images/task_images/land.jpg,null,,,,,,,90,,,3,,,,,,,,,,,,,,
dig,103,440837,0.0-37.0-3.0,"""event"",""trial"",""time""
""fullscreenenter"",""1"",""3072""
","
","
","""event"",""trial"",""time""
""fullscreenenter"",""1"",""3072""
","
",,,,,,,,,,,,"[{""stimulus"":""run_exp/static/images/task_images/dig.jpg"",""time"":0.09999990463256836},{""stimulus"":""run_exp/static/images/task_images/land.jpg"",""time"":680.7999999523163},{""stimulus"":""run_exp/static/images/task_images/dig.jpg"",""time"":1335.7999999523163}]",[],3,,,,,,,,,,,,,,
harvest,104,441849,0.0-37.0-4.0,"""event"",""trial"",""time""
""fullscreenenter"",""1"",""3072""
","
","
","""event"",""trial"",""time""
""fullscreenenter"",""1"",""3072""
","
",,null,run_exp/static/images/task_images/gems/90.jpg,null,,,,,,,49,,,3,,,,,90,0.542919002,0.544444444,,,,,,,
decision,105,441935,0.0-37.0-5.0,"""event"",""trial"",""time""
""fullscreenenter"",""1"",""3072""
","
","
","""event"",""trial"",""time""
""fullscreenenter"",""1"",""3072""
","
",,85.29999995,run_exp/static/images/task_images/land.jpg,65,,,,,,,49,,,3,,,,,,,,69877,1,0,FALSE,,,
dig,106,444862,0.0-38.0-0.0,"""event"",""trial"",""time""
""fullscreenenter"",""1"",""3072""
","
","
","""event"",""trial"",""time""
""fullscreenenter"",""1"",""3072""
","
",,,,,,,,,,,,"[{""stimulus"":""run_exp/static/images/task_images/dig.jpg"",""time"":0.09999990463256836},{""stimulus"":""run_exp/static/images/task_images/land.jpg"",""time"":976.5999999046326},{""stimulus"":""run_exp/static/images/task_images/dig.jpg"",""time"":1956}]",[],3,,,,,,,,,,,,,,
harvest,107,445867,0.0-38.0-1.0,"""event"",""trial"",""time""
""fullscreenenter"",""1"",""3072""
","
","
","""event"",""trial"",""time""
""fullscreenenter"",""1"",""3072""
","
",,null,run_exp/static/images/task_images/gems/49.jpg,null,,,,,,,25,,,3,,,,,49,0.501631555,0.510204082,,,,,,,
decision,108,446303,0.0-38.0-2.0,"""event"",""trial"",""time""
""fullscreenenter"",""1"",""3072""
","
","
","""event"",""trial"",""time""
""fullscreenenter"",""1"",""3072""
","
",,434.9000001,run_exp/static/images/task_images/land.jpg,65,,,,,,,25,,,3,,,,,,,,74245,1,1,FALSE,,,
dig,109,448874,0.0-39.0-0.0,"""event"",""trial"",""time""
""fullscreenenter"",""1"",""3072""
","
","
","""event"",""trial"",""time""
""fullscreenenter"",""1"",""3072""
","
",,,,,,,,,,,,"[{""stimulus"":""run_exp/static/images/task_images/dig.jpg"",""time"":0.09999990463256836},{""stimulus"":""run_exp/static/images/task_images/land.jpg"",""time"":867.2000000476837},{""stimulus"":""run_exp/static/images/task_images/dig.jpg"",""time"":1718.2999999523163}]",[],3,,,,,,,,,,,,,,
harvest,110,449888,0.0-39.0-1.0,"""event"",""trial"",""time""
""fullscreenenter"",""1"",""3072""
","
","
","""event"",""trial"",""time""
""fullscreenenter"",""1"",""3072""
","
",,null,run_exp/static/images/task_images/gems/25.jpg,null,,,,,,,10,,,3,,,,,25,0.396885147,0.4,,,,,,,
decision,111,450271,0.0-39.0-2.0,"""event"",""trial"",""time""
""fullscreenenter"",""1"",""3072""
","
","
","""event"",""trial"",""time""
""fullscreenenter"",""1"",""3072""
","
",,381.7,run_exp/static/images/task_images/land.jpg,65,,,,,,,10,,,3,,,,,,,,78213,1,2,FALSE,,,
dig,112,452893,0.0-40.0-0.0,"""event"",""trial"",""time""
""fullscreenenter"",""1"",""3072""
","
","
","""event"",""trial"",""time""
""fullscreenenter"",""1"",""3072""
","
",,,,,,,,,,,,"[{""stimulus"":""run_exp/static/images/task_images/dig.jpg"",""time"":0.09999990463256836},{""stimulus"":""run_exp/static/images/task_images/land.jpg"",""time"":885.7999999523163},{""stimulus"":""run_exp/static/images/task_images/dig.jpg"",""time"":1752.7000000476837}]",[],3,,,,,,,,,,,,,,
harvest,113,453908,0.0-40.0-1.0,"""event"",""trial"",""time""
""fullscreenenter"",""1"",""3072""
","
","
","""event"",""trial"",""time""
""fullscreenenter"",""1"",""3072""
","
",,null,run_exp/static/images/task_images/gems/10.jpg,null,,,,,,,5,,,3,,,,,10,0.511358885,0.5,,,,,,,
decision,114,453991,0.0-40.0-2.0,"""event"",""trial"",""time""
""fullscreenenter"",""1"",""3072""
","
","
","""event"",""trial"",""time""
""fullscreenenter"",""1"",""3072""
","
",,81.9000001,run_exp/static/images/task_images/land.jpg,65,,,,,,,5,,,3,,,,,,,,81933,1,3,FALSE,,,
dig,115,456924,0.0-41.0-0.0,"""event"",""trial"",""time""
""fullscreenenter"",""1"",""3072""
","
","
","""event"",""trial"",""time""
""fullscreenenter"",""1"",""3072""
","
",,,,,,,,,,,,"[{""stimulus"":""run_exp/static/images/task_images/dig.jpg"",""time"":0.09999990463256836},{""stimulus"":""run_exp/static/images/task_images/land.jpg"",""time"":982.5},{""stimulus"":""run_exp/static/images/task_images/dig.jpg"",""time"":1960.3999998569489}]",[],3,,,,,,,,,,,,,,
harvest,116,457930,0.0-41.0-1.0,"""event"",""trial"",""time""
""fullscreenenter"",""1"",""3072""
","
","
","""event"",""trial"",""time""
""fullscreenenter"",""1"",""3072""
","
",,null,run_exp/static/images/task_images/gems/5.jpg,null,,,,,,,2,,,3,,,,,5,0.451023097,0.4,,,,,,,
decision,117,460927,0.0-41.0-2.0,"""event"",""trial"",""time""
""fullscreenenter"",""1"",""3072""
","
","
","""event"",""trial"",""time""
""fullscreenenter"",""1"",""3072""
","
",,2996.2,run_exp/static/images/task_images/land.jpg,76,,,,,,,2,,,3,,,,,,,,88869,1,4,TRUE,,,
travel,118,467932,0.0-42.0-0.0,"""event"",""trial"",""time""
""fullscreenenter"",""1"",""3072""
","
","
","""event"",""trial"",""time""
""fullscreenenter"",""1"",""3072""
","
",,,,,,,,,,,,"[{""stimulus"":""run_exp/static/images/task_images/rocket-01.jpg"",""time"":0.10000014305114746},{""stimulus"":""run_exp/static/images/task_images/rocket-02.jpg"",""time"":784.2000000476837},{""stimulus"":""run_exp/static/images/task_images/rocket-03.jpg"",""time"":1569.7999999523163},{""stimulus"":""run_exp/static/images/task_images/rocket-04.jpg"",""time"":2337.2999999523163},{""stimulus"":""run_exp/static/images/task_images/rocket-05.jpg"",""time"":3121.9000000953674},{""stimulus"":""run_exp/static/images/task_images/rocket-06.jpg"",""time"":3891.2999999523163},{""stimulus"":""run_exp/static/images/task_images/rocket-07.jpg"",""time"":4677.299999952316},{""stimulus"":""run_exp/static/images/task_images/rocket-08.jpg"",""time"":5462.100000143051},{""stimulus"":""run_exp/static/images/task_images/rocket-09.jpg"",""time"":6230.100000143051}]",[],3,,,,,,,,,,,,,,
alien_welcome,119,472936,0.0-42.0-1.0,"""event"",""trial"",""time""
""fullscreenenter"",""1"",""3072""
","
","
","""event"",""trial"",""time""
""fullscreenenter"",""1"",""3072""
","
",,null,run_exp/static/images/task_images/aliens/old_aliens/planet/alien_planet-35.jpg,null,,,,,,,,,,,,,35,"53,41,62,35,30,70,39,76,55,7,44,12,15,17,29,14,69,64,8,26,49,32,75,19,3,79,80,13,59,33,52,1,21,4,56,20,74,24,43,37,22,61,51,50,10,48,73",,,,,,,,,,
land,120,473448,0.0-42.0-2.0,"""event"",""trial"",""time""
""fullscreenenter"",""1"",""3072""
","
","
","""event"",""trial"",""time""
""fullscreenenter"",""1"",""3072""
","
",,null,run_exp/static/images/task_images/land.jpg,null,,,,,,,96,,,4,,,,,,,,,,,,,,
dig,121,475459,0.0-42.0-3.0,"""event"",""trial"",""time""
""fullscreenenter"",""1"",""3072""
","
","
","""event"",""trial"",""time""
""fullscreenenter"",""1"",""3072""
","
",,,,,,,,,,,,"[{""stimulus"":""run_exp/static/images/task_images/dig.jpg"",""time"":0.10000014305114746},{""stimulus"":""run_exp/static/images/task_images/land.jpg"",""time"":681.6000001430511},{""stimulus"":""run_exp/static/images/task_images/dig.jpg"",""time"":1342.7000000476837}]",[],4,,,,,,,,,,,,,,
harvest,122,476468,0.0-42.0-4.0,"""event"",""trial"",""time""
""fullscreenenter"",""1"",""3072""
","
","
","""event"",""trial"",""time""
""fullscreenenter"",""1"",""3072""
","
",,null,run_exp/static/images/task_images/gems/96.jpg,null,,,,,,,40,,,4,,,,,96,0.418904563,0.416666667,,,,,,,
decision,123,477206,0.0-42.0-5.0,"""event"",""trial"",""time""
""fullscreenenter"",""1"",""3072""
","
","
","""event"",""trial"",""time""
""fullscreenenter"",""1"",""3072""
","
",,737.5,run_exp/static/images/task_images/land.jpg,65,,,,,,,40,,,4,,,,,,,,105148,1,0,FALSE,,,
dig,124,479478,0.0-43.0-0.0,"""event"",""trial"",""time""
""fullscreenenter"",""1"",""3072""
","
","
","""event"",""trial"",""time""
""fullscreenenter"",""1"",""3072""
","
",,,,,,,,,,,,"[{""stimulus"":""run_exp/static/images/task_images/dig.jpg"",""time"":0.10000014305114746},{""stimulus"":""run_exp/static/images/task_images/land.jpg"",""time"":764.6000001430511},{""stimulus"":""run_exp/static/images/task_images/dig.jpg"",""time"":1508.9000000953674}]",[],4,,,,,,,,,,,,,,
harvest,125,480489,0.0-43.0-1.0,"""event"",""trial"",""time""
""fullscreenenter"",""1"",""3072""
","
","
","""event"",""trial"",""time""
""fullscreenenter"",""1"",""3072""
","
",,null,run_exp/static/images/task_images/gems/40.jpg,null,,,,,,,19,,,4,,,,,40,0.471350946,0.475,,,,,,,
decision,126,480597,0.0-43.0-2.0,"""event"",""trial"",""time""
""fullscreenenter"",""1"",""3072""
","
","
","""event"",""trial"",""time""
""fullscreenenter"",""1"",""3072""
","
",,106.5999999,run_exp/static/images/task_images/land.jpg,76,,,,,,,19,,,4,,,,,,,,108539,1,1,TRUE,,,
travel,127,490505,0.0-44.0-0.0,"""event"",""trial"",""time""
""fullscreenenter"",""1"",""3072""
","
","
","""event"",""trial"",""time""
""fullscreenenter"",""1"",""3072""
","
",,,,,,,,,,,,"[{""stimulus"":""run_exp/static/images/task_images/rocket-01.jpg"",""time"":0.09999990463256836},{""stimulus"":""run_exp/static/images/task_images/rocket-02.jpg"",""time"":1111.5},{""stimulus"":""run_exp/static/images/task_images/rocket-03.jpg"",""time"":2210.899999856949},{""stimulus"":""run_exp/static/images/task_images/rocket-04.jpg"",""time"":3308.899999856949},{""stimulus"":""run_exp/static/images/task_images/rocket-05.jpg"",""time"":4410.599999904633},{""stimulus"":""run_exp/static/images/task_images/rocket-06.jpg"",""time"":5508.799999952316},{""stimulus"":""run_exp/static/images/task_images/rocket-07.jpg"",""time"":6608.5},{""stimulus"":""run_exp/static/images/task_images/rocket-08.jpg"",""time"":7708.5},{""stimulus"":""run_exp/static/images/task_images/rocket-09.jpg"",""time"":8793.599999904633}]",[],4,,,,,,,,,,,,,,
alien_welcome,128,495507,0.0-44.0-1.0,"""event"",""trial"",""time""
""fullscreenenter"",""1"",""3072""
","
","
","""event"",""trial"",""time""
""fullscreenenter"",""1"",""3072""
","
",,null,run_exp/static/images/task_images/aliens/old_aliens/planet/alien_planet-30.jpg,null,,,,,,,,,,,,,30,"53,41,62,35,30,70,39,76,55,7,44,12,15,17,29,14,69,64,8,26,49,32,75,19,3,79,80,13,59,33,52,1,21,4,56,20,74,24,43,37,22,61,51,50,10,48,73",,,,,,,,,,
land,129,496024,0.0-44.0-2.0,"""event"",""trial"",""time""
""fullscreenenter"",""1"",""3072""
","
","
","""event"",""trial"",""time""
""fullscreenenter"",""1"",""3072""
","
",,null,run_exp/static/images/task_images/land.jpg,null,,,,,,,101,,,5,,,,,,,,,,,,,,
dig,130,498036,0.0-44.0-3.0,"""event"",""trial"",""time""
""fullscreenenter"",""1"",""3072""
","
","
","""event"",""trial"",""time""
""fullscreenenter"",""1"",""3072""
","
",,,,,,,,,,,,"[{""stimulus"":""run_exp/static/images/task_images/dig.jpg"",""time"":0.20000004768371582},{""stimulus"":""run_exp/static/images/task_images/land.jpg"",""time"":681},{""stimulus"":""run_exp/static/images/task_images/dig.jpg"",""time"":1336.6000001430511}]",[],5,,,,,,,,,,,,,,
harvest,131,499044,0.0-44.0-4.0,"""event"",""trial"",""time""
""fullscreenenter"",""1"",""3072""
","
","
","""event"",""trial"",""time""
""fullscreenenter"",""1"",""3072""
","
",,null,run_exp/static/images/task_images/gems/101.jpg,null,,,,,,,51,,,5,,,,,101,0.501869279,0.504950495,,,,,,,
decision,132,499054,0.0-44.0-5.0,"""event"",""trial"",""time""
""fullscreenenter"",""1"",""3072""
","
","
","""event"",""trial"",""time""
""fullscreenenter"",""1"",""3072""
","
",,9.100000143,run_exp/static/images/task_images/land.jpg,65,,,,,,,51,,,5,,,,,,,,126996,1,0,FALSE,,,
dig,133,502060,0.0-45.0-0.0,"""event"",""trial"",""time""
""fullscreenenter"",""1"",""3072""
","
","
","""event"",""trial"",""time""
""fullscreenenter"",""1"",""3072""
","
",,,,,,,,,,,,"[{""stimulus"":""run_exp/static/images/task_images/dig.jpg"",""time"":0.10000014305114746},{""stimulus"":""run_exp/static/images/task_images/land.jpg"",""time"":998.9000000953674},{""stimulus"":""run_exp/static/images/task_images/dig.jpg"",""time"":1998.5}]",[],5,,,,,,,,,,,,,,
harvest,134,503063,0.0-45.0-1.0,"""event"",""trial"",""time""
""fullscreenenter"",""1"",""3072""
","
","
","""event"",""trial"",""time""
""fullscreenenter"",""1"",""3072""
","
",,null,run_exp/static/images/task_images/gems/51.jpg,null,,,,,,,24,,,5,,,,,51,0.470320178,0.470588235,,,,,,,
decision,135,503190,0.0-45.0-2.0,"""event"",""trial"",""time""
""fullscreenenter"",""1"",""3072""
","
","
","""event"",""trial"",""time""
""fullscreenenter"",""1"",""3072""
","
",,126,run_exp/static/images/task_images/land.jpg,76,,,,,,,24,,,5,,,,,,,,131132,1,1,TRUE,,,
travel,136,513081,0.0-46.0-0.0,"""event"",""trial"",""time""
""fullscreenenter"",""1"",""3072""
","
","
","""event"",""trial"",""time""
""fullscreenenter"",""1"",""3072""
","
",,,,,,,,,,,,"[{""stimulus"":""run_exp/static/images/task_images/rocket-01.jpg"",""time"":0.09999990463256836},{""stimulus"":""run_exp/static/images/task_images/rocket-02.jpg"",""time"":1098.3999998569489},{""stimulus"":""run_exp/static/images/task_images/rocket-03.jpg"",""time"":2194.7000000476837},{""stimulus"":""run_exp/static/images/task_images/rocket-04.jpg"",""time"":3293.2999999523163},{""stimulus"":""run_exp/static/images/task_images/rocket-05.jpg"",""time"":4394.399999856949},{""stimulus"":""run_exp/static/images/task_images/rocket-06.jpg"",""time"":5492.799999952316},{""stimulus"":""run_exp/static/images/task_images/rocket-07.jpg"",""time"":6592.399999856949},{""stimulus"":""run_exp/static/images/task_images/rocket-08.jpg"",""time"":7692.700000047684},{""stimulus"":""run_exp/static/images/task_images/rocket-09.jpg"",""time"":8792.299999952316}]",[],5,,,,,,,,,,,,,,
alien_welcome,137,518096,0.0-46.0-1.0,"""event"",""trial"",""time""
""fullscreenenter"",""1"",""3072""
","
","
","""event"",""trial"",""time""
""fullscreenenter"",""1"",""3072""
","
",,null,run_exp/static/images/task_images/aliens/old_aliens/planet/alien_planet-70.jpg,null,,,,,,,,,,,,,70,"53,41,62,35,30,70,39,76,55,7,44,12,15,17,29,14,69,64,8,26,49,32,75,19,3,79,80,13,59,33,52,1,21,4,56,20,74,24,43,37,22,61,51,50,10,48,73",,,,,,,,,,
land,138,518611,0.0-46.0-2.0,"""event"",""trial"",""time""
""fullscreenenter"",""1"",""3072""
","
","
","""event"",""trial"",""time""
""fullscreenenter"",""1"",""3072""
","
",,null,run_exp/static/images/task_images/land.jpg,null,,,,,,,101,,,6,,,,,,,,,,,,,,
dig,139,520626,0.0-46.0-3.0,"""event"",""trial"",""time""
""fullscreenenter"",""1"",""3072""
","
","
","""event"",""trial"",""time""
""fullscreenenter"",""1"",""3072""
","
",,,,,,,,,,,,"[{""stimulus"":""run_exp/static/images/task_images/dig.jpg"",""time"":0.09999990463256836},{""stimulus"":""run_exp/static/images/task_images/land.jpg"",""time"":669.5999999046326},{""stimulus"":""run_exp/static/images/task_images/dig.jpg"",""time"":1340.8999998569489}]",[],6,,,,,,,,,,,,,,
harvest,140,521629,0.0-46.0-4.0,"""event"",""trial"",""time""
""fullscreenenter"",""1"",""3072""
","
","
","""event"",""trial"",""time""
""fullscreenenter"",""1"",""3072""
","
",,null,run_exp/static/images/task_images/gems/101.jpg,null,,,,,,,82,,,6,,,,,101,0.809680375,0.811881188,,,,,,,
decision,141,521741,0.0-46.0-5.0,"""event"",""trial"",""time""
""fullscreenenter"",""1"",""3072""
","
","
","""event"",""trial"",""time""
""fullscreenenter"",""1"",""3072""
","
",,111.1999998,run_exp/static/images/task_images/land.jpg,65,,,,,,,82,,,6,,,,,,,,149684,1,0,FALSE,,,
dig,142,524636,0.0-47.0-0.0,"""event"",""trial"",""time""
""fullscreenenter"",""1"",""3072""
","
","
","""event"",""trial"",""time""
""fullscreenenter"",""1"",""3072""
","
",,,,,,,,,,,,"[{""stimulus"":""run_exp/static/images/task_images/dig.jpg"",""time"":0.10000014305114746},{""stimulus"":""run_exp/static/images/task_images/land.jpg"",""time"":973.1000001430511},{""stimulus"":""run_exp/static/images/task_images/dig.jpg"",""time"":1939.1000001430511}]",[],6,,,,,,,,,,,,,,
harvest,143,525639,0.0-47.0-1.0,"""event"",""trial"",""time""
""fullscreenenter"",""1"",""3072""
","
","
","""event"",""trial"",""time""
""fullscreenenter"",""1"",""3072""
","
",,null,run_exp/static/images/task_images/gems/82.jpg,null,,,,,,,63,,,6,,,,,82,0.772562347,0.768292683,,,,,,,
decision,144,526134,0.0-47.0-2.0,"""event"",""trial"",""time""
""fullscreenenter"",""1"",""3072""
","
","
","""event"",""trial"",""time""
""fullscreenenter"",""1"",""3072""
","
",,494,run_exp/static/images/task_images/land.jpg,65,,,,,,,63,,,6,,,,,,,,154076,1,1,FALSE,,,
dig,145,528643,0.0-48.0-0.0,"""event"",""trial"",""time""
""fullscreenenter"",""1"",""3072""
","
","
","""event"",""trial"",""time""
""fullscreenenter"",""1"",""3072""
","
",,,,,,,,,,,,"[{""stimulus"":""run_exp/static/images/task_images/dig.jpg"",""time"":0.09999990463256836},{""stimulus"":""run_exp/static/images/task_images/land.jpg"",""time"":840.3999998569489},{""stimulus"":""run_exp/static/images/task_images/dig.jpg"",""time"":1678.7999999523163}]",[],6,,,,,,,,,,,,,,
harvest,146,529659,0.0-48.0-1.0,"""event"",""trial"",""time""
""fullscreenenter"",""1"",""3072""
","
","
","""event"",""trial"",""time""
""fullscreenenter"",""1"",""3072""
","
",,null,run_exp/static/images/task_images/gems/63.jpg,null,,,,,,,55,,,6,,,,,63,0.878482213,0.873015873,,,,,,,
decision,147,529958,0.0-48.0-2.0,"""event"",""trial"",""time""
""fullscreenenter"",""1"",""3072""
","
","
","""event"",""trial"",""time""
""fullscreenenter"",""1"",""3072""
","
",,297.5999999,run_exp/static/images/task_images/land.jpg,65,,,,,,,55,,,6,,,,,,,,157900,1,2,FALSE,,,
dig,148,532664,0.0-49.0-0.0,"""event"",""trial"",""time""
""fullscreenenter"",""1"",""3072""
","
","
","""event"",""trial"",""time""
""fullscreenenter"",""1"",""3072""
","
",,,,,,,,,,,,"[{""stimulus"":""run_exp/static/images/task_images/dig.jpg"",""time"":0.09999990463256836},{""stimulus"":""run_exp/static/images/task_images/land.jpg"",""time"":902.6999998092651},{""stimulus"":""run_exp/static/images/task_images/dig.jpg"",""time"":1816.6999998092651}]",[],6,,,,,,,,,,,,,,
harvest,149,533668,0.0-49.0-1.0,"""event"",""trial"",""time""
""fullscreenenter"",""1"",""3072""
","
","
","""event"",""trial"",""time""
""fullscreenenter"",""1"",""3072""
","
",,null,run_exp/static/images/task_images/gems/55.jpg,null,,,,,,,43,,,6,,,,,55,0.780005307,0.781818182,,,,,,,
decision,150,533805,0.0-49.0-2.0,"""event"",""trial"",""time""
""fullscreenenter"",""1"",""3072""
","
","
","""event"",""trial"",""time""
""fullscreenenter"",""1"",""3072""
","
",,136,run_exp/static/images/task_images/land.jpg,65,,,,,,,43,,,6,,,,,,,,161747,1,3,FALSE,,,
dig,151,536682,0.0-50.0-0.0,"""event"",""trial"",""time""
""fullscreenenter"",""1"",""3072""
","
","
","""event"",""trial"",""time""
""fullscreenenter"",""1"",""3072""
","
",,,,,,,,,,,,"[{""stimulus"":""run_exp/static/images/task_images/dig.jpg"",""time"":0.09999990463256836},{""stimulus"":""run_exp/static/images/task_images/land.jpg"",""time"":957.2000000476837},{""stimulus"":""run_exp/static/images/task_images/dig.jpg"",""time"":1917.2999999523163}]",[],6,,,,,,,,,,,,,,
harvest,152,537684,0.0-50.0-1.0,"""event"",""trial"",""time""
""fullscreenenter"",""1"",""3072""
","
","
","""event"",""trial"",""time""
""fullscreenenter"",""1"",""3072""
","
",,null,run_exp/static/images/task_images/gems/43.jpg,null,,,,,,,35,,,6,,,,,43,0.812576906,0.813953488,,,,,,,
decision,153,537726,0.0-50.0-2.0,"""event"",""trial"",""time""
""fullscreenenter"",""1"",""3072""
","
","
","""event"",""trial"",""time""
""fullscreenenter"",""1"",""3072""
","
",,40.29999995,run_exp/static/images/task_images/land.jpg,65,,,,,,,35,,,6,,,,,,,,165668,1,4,FALSE,,,
dig,154,540699,0.0-51.0-0.0,"""event"",""trial"",""time""
""fullscreenenter"",""1"",""3072""
","
","
","""event"",""trial"",""time""
""fullscreenenter"",""1"",""3072""
","
",,,,,,,,,,,,"[{""stimulus"":""run_exp/static/images/task_images/dig.jpg"",""time"":0.09999990463256836},{""stimulus"":""run_exp/static/images/task_images/land.jpg"",""time"":989.2999999523163},{""stimulus"":""run_exp/static/images/task_images/dig.jpg"",""time"":1984.5999999046326}]",[],6,,,,,,,,,,,,,,
harvest,155,541702,0.0-51.0-1.0,"""event"",""trial"",""time""
""fullscreenenter"",""1"",""3072""
","
","
","""event"",""trial"",""time""
""fullscreenenter"",""1"",""3072""
","
",,null,run_exp/static/images/task_images/gems/35.jpg,null,,,,,,,30,,,6,,,,,35,0.859370053,0.857142857,,,,,,,
decision,156,541798,0.0-51.0-2.0,"""event"",""trial"",""time""
""fullscreenenter"",""1"",""3072""
","
","
","""event"",""trial"",""time""
""fullscreenenter"",""1"",""3072""
","
",,95,run_exp/static/images/task_images/land.jpg,76,,,,,,,30,,,6,,,,,,,,169740,1,5,TRUE,,,
travel,157,551708,0.0-52.0-0.0,"""event"",""trial"",""time""
""fullscreenenter"",""1"",""3072""
","
","
","""event"",""trial"",""time""
""fullscreenenter"",""1"",""3072""
","
",,,,,,,,,,,,"[{""stimulus"":""run_exp/static/images/task_images/rocket-01.jpg"",""time"":0.09999990463256836},{""stimulus"":""run_exp/static/images/task_images/rocket-02.jpg"",""time"":1107.2000000476837},{""stimulus"":""run_exp/static/images/task_images/rocket-03.jpg"",""time"":2211.7000000476837},{""stimulus"":""run_exp/static/images/task_images/rocket-04.jpg"",""time"":3311.2000000476837},{""stimulus"":""run_exp/static/images/task_images/rocket-05.jpg"",""time"":4410.599999904633},{""stimulus"":""run_exp/static/images/task_images/rocket-06.jpg"",""time"":5513},{""stimulus"":""run_exp/static/images/task_images/rocket-07.jpg"",""time"":6611.099999904633},{""stimulus"":""run_exp/static/images/task_images/rocket-08.jpg"",""time"":7708.700000047684},{""stimulus"":""run_exp/static/images/task_images/rocket-09.jpg"",""time"":8800.599999904633}]",[],6,,,,,,,,,,,,,,
alien_welcome,158,556710,0.0-52.0-1.0,"""event"",""trial"",""time""
""fullscreenenter"",""1"",""3072""
","
","
","""event"",""trial"",""time""
""fullscreenenter"",""1"",""3072""
","
",,null,run_exp/static/images/task_images/aliens/old_aliens/planet/alien_planet-39.jpg,null,,,,,,,,,,,,,39,"53,41,62,35,30,70,39,76,55,7,44,12,15,17,29,14,69,64,8,26,49,32,75,19,3,79,80,13,59,33,52,1,21,4,56,20,74,24,43,37,22,61,51,50,10,48,73",,,,,,,,,,
land,159,557224,0.0-52.0-2.0,"""event"",""trial"",""time""
""fullscreenenter"",""1"",""3072""
","
","
","""event"",""trial"",""time""
""fullscreenenter"",""1"",""3072""
","
",,null,run_exp/static/images/task_images/land.jpg,null,,,,,,,88,,,7,,,,,,,,,,,,,,
dig,160,559236,0.0-52.0-3.0,"""event"",""trial"",""time""
""fullscreenenter"",""1"",""3072""
","
","
","""event"",""trial"",""time""
""fullscreenenter"",""1"",""3072""
","
",,,,,,,,,,,,"[{""stimulus"":""run_exp/static/images/task_images/dig.jpg"",""time"":0.10000014305114746},{""stimulus"":""run_exp/static/images/task_images/land.jpg"",""time"":681},{""stimulus"":""run_exp/static/images/task_images/dig.jpg"",""time"":1351.4000000953674}]",[],7,,,,,,,,,,,,,,
harvest,161,560244,0.0-52.0-4.0,"""event"",""trial"",""time""
""fullscreenenter"",""1"",""3072""
","
","
","""event"",""trial"",""time""
""fullscreenenter"",""1"",""3072""
","
",,null,run_exp/static/images/task_images/gems/88.jpg,null,,,,,,,71,,,7,,,,,88,0.809716622,0.806818182,,,,,,,
decision,162,560910,0.0-52.0-5.0,"""event"",""trial"",""time""
""fullscreenenter"",""1"",""3072""
","
","
","""event"",""trial"",""time""
""fullscreenenter"",""1"",""3072""
","
",,665.5999999,run_exp/static/images/task_images/land.jpg,76,,,,,,,71,,,7,,,,,,,,188852,1,0,TRUE,,,
travel,163,570248,0.0-53.0-0.0,"""event"",""trial"",""time""
""fullscreenenter"",""1"",""3072""
","
","
","""event"",""trial"",""time""
""fullscreenenter"",""1"",""3072""
","
",,,,,,,,,,,,"[{""stimulus"":""run_exp/static/images/task_images/rocket-01.jpg"",""time"":0},{""stimulus"":""run_exp/static/images/task_images/rocket-02.jpg"",""time"":1044.0999999046326},{""stimulus"":""run_exp/static/images/task_images/rocket-03.jpg"",""time"":2080.899999856949},{""stimulus"":""run_exp/static/images/task_images/rocket-04.jpg"",""time"":3115.899999856949},{""stimulus"":""run_exp/static/images/task_images/rocket-05.jpg"",""time"":4152.399999856949},{""stimulus"":""run_exp/static/images/task_images/rocket-06.jpg"",""time"":5189.5},{""stimulus"":""run_exp/static/images/task_images/rocket-07.jpg"",""time"":6224.099999904633},{""stimulus"":""run_exp/static/images/task_images/rocket-08.jpg"",""time"":7275.700000047684},{""stimulus"":""run_exp/static/images/task_images/rocket-09.jpg"",""time"":8311.099999904633}]",[],7,,,,,,,,,,,,,,
alien_welcome,164,575250,0.0-53.0-1.0,"""event"",""trial"",""time""
""fullscreenenter"",""1"",""3072""
","
","
","""event"",""trial"",""time""
""fullscreenenter"",""1"",""3072""
","
",,null,run_exp/static/images/task_images/aliens/old_aliens/planet/alien_planet-76.jpg,null,,,,,,,,,,,,,76,"53,41,62,35,30,70,39,76,55,7,44,12,15,17,29,14,69,64,8,26,49,32,75,19,3,79,80,13,59,33,52,1,21,4,56,20,74,24,43,37,22,61,51,50,10,48,73",,,,,,,,,,
land,165,575762,0.0-53.0-2.0,"""event"",""trial"",""time""
""fullscreenenter"",""1"",""3072""
","
","
","""event"",""trial"",""time""
""fullscreenenter"",""1"",""3072""
","
",,null,run_exp/static/images/task_images/land.jpg,null,,,,,,,98,,,8,,,,,,,,,,,,,,
dig,166,577772,0.0-53.0-3.0,"""event"",""trial"",""time""
""fullscreenenter"",""1"",""3072""
","
","
","""event"",""trial"",""time""
""fullscreenenter"",""1"",""3072""
","
",,,,,,,,,,,,"[{""stimulus"":""run_exp/static/images/task_images/dig.jpg"",""time"":0.2999999523162842},{""stimulus"":""run_exp/static/images/task_images/land.jpg"",""time"":679.0999999046326},{""stimulus"":""run_exp/static/images/task_images/dig.jpg"",""time"":1349.9000000953674}]",[],8,,,,,,,,,,,,,,
harvest,167,578780,0.0-53.0-4.0,"""event"",""trial"",""time""
""fullscreenenter"",""1"",""3072""
","
","
","""event"",""trial"",""time""
""fullscreenenter"",""1"",""3072""
","
",,null,run_exp/static/images/task_images/gems/98.jpg,null,,,,,,,83,,,8,,,,,98,0.850006438,0.846938776,,,,,,,
decision,168,579431,0.0-53.0-5.0,"""event"",""trial"",""time""
""fullscreenenter"",""1"",""3072""
","
","
","""event"",""trial"",""time""
""fullscreenenter"",""1"",""3072""
","
",,649.1000001,run_exp/static/images/task_images/land.jpg,65,,,,,,,83,,,8,,,,,,,,207373,1,0,FALSE,,,
dig,169,581790,0.0-54.0-0.0,"""event"",""trial"",""time""
""fullscreenenter"",""1"",""3072""
","
","
","""event"",""trial"",""time""
""fullscreenenter"",""1"",""3072""
","
",,,,,,,,,,,,"[{""stimulus"":""run_exp/static/images/task_images/dig.jpg"",""time"":0.10000014305114746},{""stimulus"":""run_exp/static/images/task_images/land.jpg"",""time"":794.1000001430511},{""stimulus"":""run_exp/static/images/task_images/dig.jpg"",""time"":1578.4000000953674}]",[],8,,,,,,,,,,,,,,
harvest,170,582801,0.0-54.0-1.0,"""event"",""trial"",""time""
""fullscreenenter"",""1"",""3072""
","
","
","""event"",""trial"",""time""
""fullscreenenter"",""1"",""3072""
","
",,null,run_exp/static/images/task_images/gems/83.jpg,null,,,,,,,65,,,8,,,,,83,0.787766776,0.78313253,,,,,,,
decision,171,583415,0.0-54.0-2.0,"""event"",""trial"",""time""
""fullscreenenter"",""1"",""3072""
","
","
","""event"",""trial"",""time""
""fullscreenenter"",""1"",""3072""
","
",,612.4000001,run_exp/static/images/task_images/land.jpg,65,,,,,,,65,,,8,,,,,,,,211357,1,1,FALSE,,,
dig,172,585808,0.0-55.0-0.0,"""event"",""trial"",""time""
""fullscreenenter"",""1"",""3072""
","
","
","""event"",""trial"",""time""
""fullscreenenter"",""1"",""3072""
","
",,,,,,,,,,,,"[{""stimulus"":""run_exp/static/images/task_images/dig.jpg"",""time"":0.10000014305114746},{""stimulus"":""run_exp/static/images/task_images/land.jpg"",""time"":798.7000000476837},{""stimulus"":""run_exp/static/images/task_images/dig.jpg"",""time"":1598.3000001907349}]",[],8,,,,,,,,,,,,,,
harvest,173,586824,0.0-55.0-1.0,"""event"",""trial"",""time""
""fullscreenenter"",""1"",""3072""
","
","
","""event"",""trial"",""time""
""fullscreenenter"",""1"",""3072""
","
",,null,run_exp/static/images/task_images/gems/65.jpg,null,,,,,,,52,,,8,,,,,65,0.803399725,0.8,,,,,,,
decision,174,587454,0.0-55.0-2.0,"""event"",""trial"",""time""
""fullscreenenter"",""1"",""3072""
","
","
","""event"",""trial"",""time""
""fullscreenenter"",""1"",""3072""
","
",,628.5,run_exp/static/images/task_images/land.jpg,76,,,,,,,52,,,8,,,,,,,,215396,1,2,TRUE,,,
travel,175,596841,0.0-56.0-0.0,"""event"",""trial"",""time""
""fullscreenenter"",""1"",""3072""
","
","
","""event"",""trial"",""time""
""fullscreenenter"",""1"",""3072""
","
",,,,,,,,,,,,"[{""stimulus"":""run_exp/static/images/task_images/rocket-01.jpg"",""time"":0.20000004768371582},{""stimulus"":""run_exp/static/images/task_images/rocket-02.jpg"",""time"":1047.2999999523163},{""stimulus"":""run_exp/static/images/task_images/rocket-03.jpg"",""time"":2083.9000000953674},{""stimulus"":""run_exp/static/images/task_images/rocket-04.jpg"",""time"":3135.2999999523163},{""stimulus"":""run_exp/static/images/task_images/rocket-05.jpg"",""time"":4169.400000095367},{""stimulus"":""run_exp/static/images/task_images/rocket-06.jpg"",""time"":5206.299999952316},{""stimulus"":""run_exp/static/images/task_images/rocket-07.jpg"",""time"":6258.099999904633},{""stimulus"":""run_exp/static/images/task_images/rocket-08.jpg"",""time"":7292.900000095367},{""stimulus"":""run_exp/static/images/task_images/rocket-09.jpg"",""time"":8329.799999952316}]",[],8,,,,,,,,,,,,,,
alien_welcome,176,601847,0.0-56.0-1.0,"""event"",""trial"",""time""
""fullscreenenter"",""1"",""3072""
","
","
","""event"",""trial"",""time""
""fullscreenenter"",""1"",""3072""
","
",,null,run_exp/static/images/task_images/aliens/old_aliens/planet/alien_planet-55.jpg,null,,,,,,,,,,,,,55,"53,41,62,35,30,70,39,76,55,7,44,12,15,17,29,14,69,64,8,26,49,32,75,19,3,79,80,13,59,33,52,1,21,4,56,20,74,24,43,37,22,61,51,50,10,48,73",,,,,,,,,,
land,177,602356,0.0-56.0-2.0,"""event"",""trial"",""time""
""fullscreenenter"",""1"",""3072""
","
","
","""event"",""trial"",""time""
""fullscreenenter"",""1"",""3072""
","
",,null,run_exp/static/images/task_images/land.jpg,null,,,,,,,97,,,9,,,,,,,,,,,,,,
dig,178,604368,0.0-56.0-3.0,"""event"",""trial"",""time""
""fullscreenenter"",""1"",""3072""
","
","
","""event"",""trial"",""time""
""fullscreenenter"",""1"",""3072""
","
",,,,,,,,,,,,"[{""stimulus"":""run_exp/static/images/task_images/dig.jpg"",""time"":0.20000004768371582},{""stimulus"":""run_exp/static/images/task_images/land.jpg"",""time"":681.2000000476837},{""stimulus"":""run_exp/static/images/task_images/dig.jpg"",""time"":1338.4000000953674}]",[],9,,,,,,,,,,,,,,
harvest,179,605377,0.0-56.0-4.0,"""event"",""trial"",""time""
""fullscreenenter"",""1"",""3072""
","
","
","""event"",""trial"",""time""
""fullscreenenter"",""1"",""3072""
","
",,null,run_exp/static/images/task_images/gems/97.jpg,null,,,,,,,19,,,9,,,,,97,0.196428133,0.195876289,,,,,,,
decision,180,605423,0.0-56.0-5.0,"""event"",""trial"",""time""
""fullscreenenter"",""1"",""3072""
","
","
","""event"",""trial"",""time""
""fullscreenenter"",""1"",""3072""
","
",,44.69999981,run_exp/static/images/task_images/land.jpg,65,,,,,,,19,,,9,,,,,,,,233365,1,0,FALSE,,,
dig,181,608389,0.0-57.0-0.0,"""event"",""trial"",""time""
""fullscreenenter"",""1"",""3072""
","
","
","""event"",""trial"",""time""
""fullscreenenter"",""1"",""3072""
","
",,,,,,,,,,,,"[{""stimulus"":""run_exp/static/images/task_images/dig.jpg"",""time"":0},{""stimulus"":""run_exp/static/images/task_images/land.jpg"",""time"":1000.1000001430511},{""stimulus"":""run_exp/static/images/task_images/dig.jpg"",""time"":1980.1000001430511}]",[],9,,,,,,,,,,,,,,
harvest,182,609397,0.0-57.0-1.0,"""event"",""trial"",""time""
""fullscreenenter"",""1"",""3072""
","
","
","""event"",""trial"",""time""
""fullscreenenter"",""1"",""3072""
","
",,null,run_exp/static/images/task_images/gems/19.jpg,null,,,,,,,4,,,9,,,,,19,0.199901292,0.210526316,,,,,,,
decision,183,609478,0.0-57.0-2.0,"""event"",""trial"",""time""
""fullscreenenter"",""1"",""3072""
","
","
","""event"",""trial"",""time""
""fullscreenenter"",""1"",""3072""
","
",,79.70000005,run_exp/static/images/task_images/land.jpg,76,,,,,,,4,,,9,,,,,,,,237420,1,1,TRUE,,,
travel,184,619412,0.0-58.0-0.0,"""event"",""trial"",""time""
""fullscreenenter"",""1"",""3072""
","
","
","""event"",""trial"",""time""
""fullscreenenter"",""1"",""3072""
","
",,,,,,,,,,,,"[{""stimulus"":""run_exp/static/images/task_images/rocket-01.jpg"",""time"":0.10000014305114746},{""stimulus"":""run_exp/static/images/task_images/rocket-02.jpg"",""time"":1105.8000001907349},{""stimulus"":""run_exp/static/images/task_images/rocket-03.jpg"",""time"":2205.100000143051},{""stimulus"":""run_exp/static/images/task_images/rocket-04.jpg"",""time"":3321.9000000953674},{""stimulus"":""run_exp/static/images/task_images/rocket-05.jpg"",""time"":4420.100000143051},{""stimulus"":""run_exp/static/images/task_images/rocket-06.jpg"",""time"":5520.600000143051},{""stimulus"":""run_exp/static/images/task_images/rocket-07.jpg"",""time"":6620.700000047684},{""stimulus"":""run_exp/static/images/task_images/rocket-08.jpg"",""time"":7716.100000143051},{""stimulus"":""run_exp/static/images/task_images/rocket-09.jpg"",""time"":8829.800000190735}]",[],9,,,,,,,,,,,,,,
alien_welcome,185,624416,0.0-58.0-1.0,"""event"",""trial"",""time""
""fullscreenenter"",""1"",""3072""
","
","
","""event"",""trial"",""time""
""fullscreenenter"",""1"",""3072""
","
",,null,run_exp/static/images/task_images/aliens/old_aliens/planet/alien_planet-7.jpg,null,,,,,,,,,,,,,7,"53,41,62,35,30,70,39,76,55,7,44,12,15,17,29,14,69,64,8,26,49,32,75,19,3,79,80,13,59,33,52,1,21,4,56,20,74,24,43,37,22,61,51,50,10,48,73",,,,,,,,,,
land,186,624931,0.0-58.0-2.0,"""event"",""trial"",""time""
""fullscreenenter"",""1"",""3072""
","
","
","""event"",""trial"",""time""
""fullscreenenter"",""1"",""3072""
","
",,null,run_exp/static/images/task_images/land.jpg,null,,,,,,,102,,,10,,,,,,,,,,,,,,
dig,187,626944,0.0-58.0-3.0,"""event"",""trial"",""time""
""fullscreenenter"",""1"",""3072""
","
","
","""event"",""trial"",""time""
""fullscreenenter"",""1"",""3072""
","
",,,,,,,,,,,,"[{""stimulus"":""run_exp/static/images/task_images/dig.jpg"",""time"":0.20000004768371582},{""stimulus"":""run_exp/static/images/task_images/land.jpg"",""time"":682.9000000953674},{""stimulus"":""run_exp/static/images/task_images/dig.jpg"",""time"":1338.2000000476837}]",[],10,,,,,,,,,,,,,,
harvest,188,627954,0.0-58.0-4.0,"""event"",""trial"",""time""
""fullscreenenter"",""1"",""3072""
","
","
","""event"",""trial"",""time""
""fullscreenenter"",""1"",""3072""
","
",,null,run_exp/static/images/task_images/gems/102.jpg,null,,,,,,,23,,,10,,,,,102,0.225173632,0.225490196,,,,,,,
decision,189,628046,0.0-58.0-5.0,"""event"",""trial"",""time""
""fullscreenenter"",""1"",""3072""
","
","
","""event"",""trial"",""time""
""fullscreenenter"",""1"",""3072""
","
",,91.70000005,run_exp/static/images/task_images/land.jpg,65,,,,,,,23,,,10,,,,,,,,255988,1,0,FALSE,,,
dig,190,630971,0.0-59.0-0.0,"""event"",""trial"",""time""
""fullscreenenter"",""1"",""3072""
","
","
","""event"",""trial"",""time""
""fullscreenenter"",""1"",""3072""
","
",,,,,,,,,,,,"[{""stimulus"":""run_exp/static/images/task_images/dig.jpg"",""time"":0.09999990463256836},{""stimulus"":""run_exp/static/images/task_images/land.jpg"",""time"":969.5},{""stimulus"":""run_exp/static/images/task_images/dig.jpg"",""time"":1948.5}]",[],10,,,,,,,,,,,,,,
harvest,191,631986,0.0-59.0-1.0,"""event"",""trial"",""time""
""fullscreenenter"",""1"",""3072""
","
","
","""event"",""trial"",""time""
""fullscreenenter"",""1"",""3072""
","
",,null,run_exp/static/images/task_images/gems/23.jpg,null,,,,,,,3,,,10,,,,,23,0.13626748,0.130434783,,,,,,,
decision,192,632078,0.0-59.0-2.0,"""event"",""trial"",""time""
""fullscreenenter"",""1"",""3072""
","
","
","""event"",""trial"",""time""
""fullscreenenter"",""1"",""3072""
","
",,90.5,run_exp/static/images/task_images/land.jpg,76,,,,,,,3,,,10,,,,,,,,260020,1,1,TRUE,,,
travel,193,642004,0.0-60.0-0.0,"""event"",""trial"",""time""
""fullscreenenter"",""1"",""3072""
","
","
","""event"",""trial"",""time""
""fullscreenenter"",""1"",""3072""
","
",,,,,,,,,,,,"[{""stimulus"":""run_exp/static/images/task_images/rocket-01.jpg"",""time"":0.09999990463256836},{""stimulus"":""run_exp/static/images/task_images/rocket-02.jpg"",""time"":1113.7000000476837},{""stimulus"":""run_exp/static/images/task_images/rocket-03.jpg"",""time"":2214.7999999523163},{""stimulus"":""run_exp/static/images/task_images/rocket-04.jpg"",""time"":3314.4000000953674},{""stimulus"":""run_exp/static/images/task_images/rocket-05.jpg"",""time"":4412.900000095367},{""stimulus"":""run_exp/static/images/task_images/rocket-06.jpg"",""time"":5512.799999952316},{""stimulus"":""run_exp/static/images/task_images/rocket-07.jpg"",""time"":6612.5},{""stimulus"":""run_exp/static/images/task_images/rocket-08.jpg"",""time"":7709.5},{""stimulus"":""run_exp/static/images/task_images/rocket-09.jpg"",""time"":8809}]",[],10,,,,,,,,,,,,,,
alien_welcome,194,647008,0.0-60.0-1.0,"""event"",""trial"",""time""
""fullscreenenter"",""1"",""3072""
","
","
","""event"",""trial"",""time""
""fullscreenenter"",""1"",""3072""
","
",,null,run_exp/static/images/task_images/aliens/old_aliens/planet/alien_planet-44.jpg,null,,,,,,,,,,,,,44,"53,41,62,35,30,70,39,76,55,7,44,12,15,17,29,14,69,64,8,26,49,32,75,19,3,79,80,13,59,33,52,1,21,4,56,20,74,24,43,37,22,61,51,50,10,48,73",,,,,,,,,,
land,195,647522,0.0-60.0-2.0,"""event"",""trial"",""time""
""fullscreenenter"",""1"",""3072""
","
","
","""event"",""trial"",""time""
""fullscreenenter"",""1"",""3072""
","
",,null,run_exp/static/images/task_images/land.jpg,null,,,,,,,107,,,11,,,,,,,,,,,,,,
dig,196,649536,0.0-60.0-3.0,"""event"",""trial"",""time""
""fullscreenenter"",""1"",""3072""
","
","
","""event"",""trial"",""time""
""fullscreenenter"",""1"",""3072""
","
",,,,,,,,,,,,"[{""stimulus"":""run_exp/static/images/task_images/dig.jpg"",""time"":0.20000004768371582},{""stimulus"":""run_exp/static/images/task_images/land.jpg"",""time"":682.8999998569489},{""stimulus"":""run_exp/static/images/task_images/dig.jpg"",""time"":1338.7999999523163}]",[],11,,,,,,,,,,,,,,
harvest,197,650544,0.0-60.0-4.0,"""event"",""trial"",""time""
""fullscreenenter"",""1"",""3072""
","
","
","""event"",""trial"",""time""
""fullscreenenter"",""1"",""3072""
","
",,null,run_exp/static/images/task_images/gems/107.jpg,null,,,,,,,22,,,11,,,,,107,0.208114665,0.205607477,,,,,,,
decision,198,650694,0.0-60.0-5.0,"""event"",""trial"",""time""
""fullscreenenter"",""1"",""3072""
","
","
","""event"",""trial"",""time""
""fullscreenenter"",""1"",""3072""
","
",,148.5,run_exp/static/images/task_images/land.jpg,65,,,,,,,22,,,11,,,,,,,,278636,1,0,FALSE,,,
dig,199,653562,0.0-61.0-0.0,"""event"",""trial"",""time""
""fullscreenenter"",""1"",""3072""
","
","
","""event"",""trial"",""time""
""fullscreenenter"",""1"",""3072""
","
",,,,,,,,,,,,"[{""stimulus"":""run_exp/static/images/task_images/dig.jpg"",""time"":0.20000004768371582},{""stimulus"":""run_exp/static/images/task_images/land.jpg"",""time"":963},{""stimulus"":""run_exp/static/images/task_images/dig.jpg"",""time"":1913.2000000476837}]",[],11,,,,,,,,,,,,,,
harvest,200,654564,0.0-61.0-1.0,"""event"",""trial"",""time""
""fullscreenenter"",""1"",""3072""
","
","
","""event"",""trial"",""time""
""fullscreenenter"",""1"",""3072""
","
",,null,run_exp/static/images/task_images/gems/22.jpg,null,,,,,,,5,,,11,,,,,22,0.212126236,0.227272727,,,,,,,
decision,201,654598,0.0-61.0-2.0,"""event"",""trial"",""time""
""fullscreenenter"",""1"",""3072""
","
","
","""event"",""trial"",""time""
""fullscreenenter"",""1"",""3072""
","
",,33.0999999,run_exp/static/images/task_images/land.jpg,76,,,,,,,5,,,11,,,,,,,,282540,1,1,TRUE,,,
travel,202,664576,0.0-62.0-0.0,"""event"",""trial"",""time""
""fullscreenenter"",""1"",""3072""
","
","
","""event"",""trial"",""time""
""fullscreenenter"",""1"",""3072""
","
",,,,,,,,,,,,"[{""stimulus"":""run_exp/static/images/task_images/rocket-01.jpg"",""time"":0},{""stimulus"":""run_exp/static/images/task_images/rocket-02.jpg"",""time"":1119.2000000476837},{""stimulus"":""run_exp/static/images/task_images/rocket-03.jpg"",""time"":2219},{""stimulus"":""run_exp/static/images/task_images/rocket-04.jpg"",""time"":3334.2000000476837},{""stimulus"":""run_exp/static/images/task_images/rocket-05.jpg"",""time"":4435.299999952316},{""stimulus"":""run_exp/static/images/task_images/rocket-06.jpg"",""time"":5550.700000047684},{""stimulus"":""run_exp/static/images/task_images/rocket-07.jpg"",""time"":6649.5},{""stimulus"":""run_exp/static/images/task_images/rocket-08.jpg"",""time"":7750.399999856949},{""stimulus"":""run_exp/static/images/task_images/rocket-09.jpg"",""time"":8858.299999952316}]",[],11,,,,,,,,,,,,,,
alien_welcome,203,669580,0.0-62.0-1.0,"""event"",""trial"",""time""
""fullscreenenter"",""1"",""3072""
","
","
","""event"",""trial"",""time""
""fullscreenenter"",""1"",""3072""
","
",,null,run_exp/static/images/task_images/aliens/old_aliens/planet/alien_planet-12.jpg,null,,,,,,,,,,,,,12,"53,41,62,35,30,70,39,76,55,7,44,12,15,17,29,14,69,64,8,26,49,32,75,19,3,79,80,13,59,33,52,1,21,4,56,20,74,24,43,37,22,61,51,50,10,48,73",,,,,,,,,,
land,204,670096,0.0-62.0-2.0,"""event"",""trial"",""time""
""fullscreenenter"",""1"",""3072""
","
","
","""event"",""trial"",""time""
""fullscreenenter"",""1"",""3072""
","
",,null,run_exp/static/images/task_images/land.jpg,null,,,,,,,100,,,12,,,,,,,,,,,,,,
dig,205,672110,0.0-62.0-3.0,"""event"",""trial"",""time""
""fullscreenenter"",""1"",""3072""
","
","
","""event"",""trial"",""time""
""fullscreenenter"",""1"",""3072""
","
",,,,,,,,,,,,"[{""stimulus"":""run_exp/static/images/task_images/dig.jpg"",""time"":0.09999990463256836},{""stimulus"":""run_exp/static/images/task_images/land.jpg"",""time"":683.2999999523163},{""stimulus"":""run_exp/static/images/task_images/dig.jpg"",""time"":1346.7000000476837}]",[],12,,,,,,,,,,,,,,
harvest,206,673121,0.0-62.0-4.0,"""event"",""trial"",""time""
""fullscreenenter"",""1"",""3072""
","
","
","""event"",""trial"",""time""
""fullscreenenter"",""1"",""3072""
","
",,null,run_exp/static/images/task_images/gems/100.jpg,null,,,,,,,14,,,12,,,,,100,0.142590384,0.14,,,,,,,
decision,207,673583,0.0-62.0-5.0,"""event"",""trial"",""time""
""fullscreenenter"",""1"",""3072""
","
","
","""event"",""trial"",""time""
""fullscreenenter"",""1"",""3072""
","
",,460.5,run_exp/static/images/task_images/land.jpg,65,,,,,,,14,,,12,,,,,,,,301525,1,0,TRUE,,,
end_of_block_continue,208,682428,0.0-63.0-0.0,"""event"",""trial"",""time""
""fullscreenenter"",""1"",""3072""
","
","
","""event"",""trial"",""time""
""fullscreenenter"",""1"",""3072""
","
",,null,run_exp/static/audio/clip_32_block_end.m4a,,,,,,,null,,,,,,,,,,,,,,,,,,
alien_welcome,209,687441,0.0-64.0-0.0,"""event"",""trial"",""time""
""fullscreenenter"",""1"",""3072""
","
","
","""event"",""trial"",""time""
""fullscreenenter"",""1"",""3072""
","
",,null,run_exp/static/images/task_images/aliens/old_aliens/planet/alien_planet-15.jpg,null,,,,,,,,,,,,,15,"53,41,62,35,30,70,39,76,55,7,44,12,15,17,29,14,69,64,8,26,49,32,75,19,3,79,80,13,59,33,52,1,21,4,56,20,74,24,43,37,22,61,51,50,10,48,73",,,,,,,,,,
land,210,687951,0.0-64.0-1.0,"""event"",""trial"",""time""
""fullscreenenter"",""1"",""3072""
","
","
","""event"",""trial"",""time""
""fullscreenenter"",""1"",""3072""
","
",,null,run_exp/static/images/task_images/land.jpg,null,,,,,,,98,,,13,,,,,,,,,,,,,,
dig,211,689963,0.0-64.0-2.0,"""event"",""trial"",""time""
""fullscreenenter"",""1"",""3072""
","
","
","""event"",""trial"",""time""
""fullscreenenter"",""1"",""3072""
","
",,,,,,,,,,,,"[{""stimulus"":""run_exp/static/images/task_images/dig.jpg"",""time"":0.2999999523162842},{""stimulus"":""run_exp/static/images/task_images/land.jpg"",""time"":680.7000000476837},{""stimulus"":""run_exp/static/images/task_images/dig.jpg"",""time"":1345.5}]",[],13,,,,,,,,,,,,,,
harvest,212,690965,0.0-64.0-3.0,"""event"",""trial"",""time""
""fullscreenenter"",""1"",""3072""
","
","
","""event"",""trial"",""time""
""fullscreenenter"",""1"",""3072""
","
",,null,run_exp/static/images/task_images/gems/98.jpg,null,,,,,,,24,,,13,,,,,98,0.242329732,0.244897959,,,,,,,
decision,213,691606,0.0-64.0-4.0,"""event"",""trial"",""time""
""fullscreenenter"",""1"",""3072""
","
","
","""event"",""trial"",""time""
""fullscreenenter"",""1"",""3072""
","
",,640.8,run_exp/static/images/task_images/land.jpg,65,,,,,,,24,,,13,,,,,,,,9176,2,0,FALSE,,,
dig,214,693980,0.0-65.0-0.0,"""event"",""trial"",""time""
""fullscreenenter"",""1"",""3072""
","
","
","""event"",""trial"",""time""
""fullscreenenter"",""1"",""3072""
","
",,,,,,,,,,,,"[{""stimulus"":""run_exp/static/images/task_images/dig.jpg"",""time"":0.10000014305114746},{""stimulus"":""run_exp/static/images/task_images/land.jpg"",""time"":799.9000000953674},{""stimulus"":""run_exp/static/images/task_images/dig.jpg"",""time"":1576.7000000476837}]",[],13,,,,,,,,,,,,,,
harvest,215,694986,0.0-65.0-1.0,"""event"",""trial"",""time""
""fullscreenenter"",""1"",""3072""
","
","
","""event"",""trial"",""time""
""fullscreenenter"",""1"",""3072""
","
",,null,run_exp/static/images/task_images/gems/24.jpg,null,,,,,,,3,,,13,,,,,24,0.132348682,0.125,,,,,,,
decision,216,695271,0.0-65.0-2.0,"""event"",""trial"",""time""
""fullscreenenter"",""1"",""3072""
","
","
","""event"",""trial"",""time""
""fullscreenenter"",""1"",""3072""
","
",,283.4000001,run_exp/static/images/task_images/land.jpg,76,,,,,,,3,,,13,,,,,,,,12841,2,1,TRUE,,,
travel,217,704998,0.0-66.0-0.0,"""event"",""trial"",""time""
""fullscreenenter"",""1"",""3072""
","
","
","""event"",""trial"",""time""
""fullscreenenter"",""1"",""3072""
","
",,,,,,,,,,,,"[{""stimulus"":""run_exp/static/images/task_images/rocket-01.jpg"",""time"":0},{""stimulus"":""run_exp/static/images/task_images/rocket-02.jpg"",""time"":1079.8999998569489},{""stimulus"":""run_exp/static/images/task_images/rocket-03.jpg"",""time"":2159.5},{""stimulus"":""run_exp/static/images/task_images/rocket-04.jpg"",""time"":3238.399999856949},{""stimulus"":""run_exp/static/images/task_images/rocket-05.jpg"",""time"":4327.299999952316},{""stimulus"":""run_exp/static/images/task_images/rocket-06.jpg"",""time"":5410.099999904633},{""stimulus"":""run_exp/static/images/task_images/rocket-07.jpg"",""time"":6479},{""stimulus"":""run_exp/static/images/task_images/rocket-08.jpg"",""time"":7562.099999904633},{""stimulus"":""run_exp/static/images/task_images/rocket-09.jpg"",""time"":8645.599999904633}]",[],13,,,,,,,,,,,,,,
alien_welcome,218,710002,0.0-66.0-1.0,"""event"",""trial"",""time""
""fullscreenenter"",""1"",""3072""
","
","
","""event"",""trial"",""time""
""fullscreenenter"",""1"",""3072""
","
",,null,run_exp/static/images/task_images/aliens/old_aliens/planet/alien_planet-17.jpg,null,,,,,,,,,,,,,17,"53,41,62,35,30,70,39,76,55,7,44,12,15,17,29,14,69,64,8,26,49,32,75,19,3,79,80,13,59,33,52,1,21,4,56,20,74,24,43,37,22,61,51,50,10,48,73",,,,,,,,,,
land,219,710507,0.0-66.0-2.0,"""event"",""trial"",""time""
""fullscreenenter"",""1"",""3072""
","
","
","""event"",""trial"",""time""
""fullscreenenter"",""1"",""3072""
","
",,null,run_exp/static/images/task_images/land.jpg,null,,,,,,,98,,,14,,,,,,,,,,,,,,
dig,220,712522,0.0-66.0-3.0,"""event"",""trial"",""time""
""fullscreenenter"",""1"",""3072""
","
","
","""event"",""trial"",""time""
""fullscreenenter"",""1"",""3072""
","
",,,,,,,,,,,,"[{""stimulus"":""run_exp/static/images/task_images/dig.jpg"",""time"":0.10000014305114746},{""stimulus"":""run_exp/static/images/task_images/land.jpg"",""time"":668.5},{""stimulus"":""run_exp/static/images/task_images/dig.jpg"",""time"":1338.5}]",[],14,,,,,,,,,,,,,,
harvest,221,713538,0.0-66.0-4.0,"""event"",""trial"",""time""
""fullscreenenter"",""1"",""3072""
","
","
","""event"",""trial"",""time""
""fullscreenenter"",""1"",""3072""
","
",,null,run_exp/static/images/task_images/gems/98.jpg,null,,,,,,,22,,,14,,,,,98,0.220850999,0.224489796,,,,,,,
decision,222,716191,0.0-66.0-5.0,"""event"",""trial"",""time""
""fullscreenenter"",""1"",""3072""
","
","
","""event"",""trial"",""time""
""fullscreenenter"",""1"",""3072""
","
",,2652,run_exp/static/images/task_images/land.jpg,65,,,,,,,22,,,14,,,,,,,,33761,2,0,FALSE,,,
dig,223,716551,0.0-67.0-0.0,"""event"",""trial"",""time""
""fullscreenenter"",""1"",""3072""
","
","
","""event"",""trial"",""time""
""fullscreenenter"",""1"",""3072""
","
",,,,,,,,,,,,"[{""stimulus"":""run_exp/static/images/task_images/dig.jpg"",""time"":0},{""stimulus"":""run_exp/static/images/task_images/land.jpg"",""time"":123.20000004768372},{""stimulus"":""run_exp/static/images/task_images/dig.jpg"",""time"":240.09999990463257}]",[],14,,,,,,,,,,,,,,
harvest,224,717568,0.0-67.0-1.0,"""event"",""trial"",""time""
""fullscreenenter"",""1"",""3072""
","
","
","""event"",""trial"",""time""
""fullscreenenter"",""1"",""3072""
","
",,null,run_exp/static/images/task_images/gems/22.jpg,null,,,,,,,5,,,14,,,,,22,0.227266062,0.227272727,,,,,,,
decision,225,717846,0.0-67.0-2.0,"""event"",""trial"",""time""
""fullscreenenter"",""1"",""3072""
","
","
","""event"",""trial"",""time""
""fullscreenenter"",""1"",""3072""
","
",,278.1000001,run_exp/static/images/task_images/land.jpg,76,,,,,,,5,,,14,,,,,,,,35416,2,1,TRUE,,,
travel,226,727574,0.0-68.0-0.0,"""event"",""trial"",""time""
""fullscreenenter"",""1"",""3072""
","
","
","""event"",""trial"",""time""
""fullscreenenter"",""1"",""3072""
","
",,,,,,,,,,,,"[{""stimulus"":""run_exp/static/images/task_images/rocket-01.jpg"",""time"":0.09999990463256836},{""stimulus"":""run_exp/static/images/task_images/rocket-02.jpg"",""time"":1081.0999999046326},{""stimulus"":""run_exp/static/images/task_images/rocket-03.jpg"",""time"":2161.0999999046326},{""stimulus"":""run_exp/static/images/task_images/rocket-04.jpg"",""time"":3241.5999999046326},{""stimulus"":""run_exp/static/images/task_images/rocket-05.jpg"",""time"":4328.099999904633},{""stimulus"":""run_exp/static/images/task_images/rocket-06.jpg"",""time"":5410.5},{""stimulus"":""run_exp/static/images/task_images/rocket-07.jpg"",""time"":6493.799999952316},{""stimulus"":""run_exp/static/images/task_images/rocket-08.jpg"",""time"":7563.899999856949},{""stimulus"":""run_exp/static/images/task_images/rocket-09.jpg"",""time"":8644.5}]",[],14,,,,,,,,,,,,,,
alien_welcome,227,732578,0.0-68.0-1.0,"""event"",""trial"",""time""
""fullscreenenter"",""1"",""3072""
","
","
","""event"",""trial"",""time""
""fullscreenenter"",""1"",""3072""
","
",,null,run_exp/static/images/task_images/aliens/old_aliens/planet/alien_planet-29.jpg,null,,,,,,,,,,,,,29,"53,41,62,35,30,70,39,76,55,7,44,12,15,17,29,14,69,64,8,26,49,32,75,19,3,79,80,13,59,33,52,1,21,4,56,20,74,24,43,37,22,61,51,50,10,48,73",,,,,,,,,,
land,228,733084,0.0-68.0-2.0,"""event"",""trial"",""time""
""fullscreenenter"",""1"",""3072""
","
","
","""event"",""trial"",""time""
""fullscreenenter"",""1"",""3072""
","
",,null,run_exp/static/images/task_images/land.jpg,null,,,,,,,102,,,15,,,,,,,,,,,,,,
dig,229,735096,0.0-68.0-3.0,"""event"",""trial"",""time""
""fullscreenenter"",""1"",""3072""
","
","
","""event"",""trial"",""time""
""fullscreenenter"",""1"",""3072""
","
",,,,,,,,,,,,"[{""stimulus"":""run_exp/static/images/task_images/dig.jpg"",""time"":0.09999990463256836},{""stimulus"":""run_exp/static/images/task_images/land.jpg"",""time"":682.5999999046326},{""stimulus"":""run_exp/static/images/task_images/dig.jpg"",""time"":1337.5}]",[],15,,,,,,,,,,,,,,
harvest,230,736102,0.0-68.0-4.0,"""event"",""trial"",""time""
""fullscreenenter"",""1"",""3072""
","
","
","""event"",""trial"",""time""
""fullscreenenter"",""1"",""3072""
","
",,null,run_exp/static/images/task_images/gems/102.jpg,null,,,,,,,20,,,15,,,,,102,0.196796552,0.196078431,,,,,,,
decision,231,736278,0.0-68.0-5.0,"""event"",""trial"",""time""
""fullscreenenter"",""1"",""3072""
","
","
","""event"",""trial"",""time""
""fullscreenenter"",""1"",""3072""
","
",,174.8,run_exp/static/images/task_images/land.jpg,65,,,,,,,20,,,15,,,,,,,,53848,2,0,FALSE,,,
dig,232,739106,0.0-69.0-0.0,"""event"",""trial"",""time""
""fullscreenenter"",""1"",""3072""
","
","
","""event"",""trial"",""time""
""fullscreenenter"",""1"",""3072""
","
",,,,,,,,,,,,"[{""stimulus"":""run_exp/static/images/task_images/dig.jpg"",""time"":0},{""stimulus"":""run_exp/static/images/task_images/land.jpg"",""time"":956.7999999523163},{""stimulus"":""run_exp/static/images/task_images/dig.jpg"",""time"":1888.2999999523163}]",[],15,,,,,,,,,,,,,,
harvest,233,740110,0.0-69.0-1.0,"""event"",""trial"",""time""
""fullscreenenter"",""1"",""3072""
","
","
","""event"",""trial"",""time""
""fullscreenenter"",""1"",""3072""
","
",,null,run_exp/static/images/task_images/gems/20.jpg,null,,,,,,,4,,,15,,,,,20,0.190065422,0.2,,,,,,,
decision,234,740207,0.0-69.0-2.0,"""event"",""trial"",""time""
""fullscreenenter"",""1"",""3072""
","
","
","""event"",""trial"",""time""
""fullscreenenter"",""1"",""3072""
","
",,95.9000001,run_exp/static/images/task_images/land.jpg,76,,,,,,,4,,,15,,,,,,,,57777,2,1,TRUE,,,
travel,235,750123,0.0-70.0-0.0,"""event"",""trial"",""time""
""fullscreenenter"",""1"",""3072""
","
","
","""event"",""trial"",""time""
""fullscreenenter"",""1"",""3072""
","
",,,,,,,,,,,,"[{""stimulus"":""run_exp/static/images/task_images/rocket-01.jpg"",""time"":0.09999990463256836},{""stimulus"":""run_exp/static/images/task_images/rocket-02.jpg"",""time"":1100.7999999523163},{""stimulus"":""run_exp/static/images/task_images/rocket-03.jpg"",""time"":2204.199999809265},{""stimulus"":""run_exp/static/images/task_images/rocket-04.jpg"",""time"":3304.7999999523163},{""stimulus"":""run_exp/static/images/task_images/rocket-05.jpg"",""time"":4406.199999809265},{""stimulus"":""run_exp/static/images/task_images/rocket-06.jpg"",""time"":5505.199999809265},{""stimulus"":""run_exp/static/images/task_images/rocket-07.jpg"",""time"":6606.199999809265},{""stimulus"":""run_exp/static/images/task_images/rocket-08.jpg"",""time"":7704.899999856949},{""stimulus"":""run_exp/static/images/task_images/rocket-09.jpg"",""time"":8804.199999809265}]",[],15,,,,,,,,,,,,,,
alien_welcome,236,755140,0.0-70.0-1.0,"""event"",""trial"",""time""
""fullscreenenter"",""1"",""3072""
","
","
","""event"",""trial"",""time""
""fullscreenenter"",""1"",""3072""
","
",,null,run_exp/static/images/task_images/aliens/old_aliens/planet/alien_planet-14.jpg,null,,,,,,,,,,,,,14,"53,41,62,35,30,70,39,76,55,7,44,12,15,17,29,14,69,64,8,26,49,32,75,19,3,79,80,13,59,33,52,1,21,4,56,20,74,24,43,37,22,61,51,50,10,48,73",,,,,,,,,,
land,237,755646,0.0-70.0-2.0,"""event"",""trial"",""time""
""fullscreenenter"",""1"",""3072""
","
","
","""event"",""trial"",""time""
""fullscreenenter"",""1"",""3072""
","
",,null,run_exp/static/images/task_images/land.jpg,null,,,,,,,96,,,16,,,,,,,,,,,,,,
dig,238,757661,0.0-70.0-3.0,"""event"",""trial"",""time""
""fullscreenenter"",""1"",""3072""
","
","
","""event"",""trial"",""time""
""fullscreenenter"",""1"",""3072""
","
",,,,,,,,,,,,"[{""stimulus"":""run_exp/static/images/task_images/dig.jpg"",""time"":0.10000014305114746},{""stimulus"":""run_exp/static/images/task_images/land.jpg"",""time"":678.5},{""stimulus"":""run_exp/static/images/task_images/dig.jpg"",""time"":1334.8000001907349}]",[],16,,,,,,,,,,,,,,
harvest,239,758671,0.0-70.0-4.0,"""event"",""trial"",""time""
""fullscreenenter"",""1"",""3072""
","
","
","""event"",""trial"",""time""
