trial_type,trial_index,time_elapsed,internal_node_id,interactions,blur_events,focus_events,fullscreenenter_events,fullscreenexit_events,success,rt,stimulus,key_press,prompt,subject_id,participant_id,age,gender,button_pressed,next_reward,animation_sequence,responses,planet,curr_prac_trial,n_prac_rounds,alien,aliens,reward_received,decay_rate_actual,decay_rate_exp,time_in_block,block_num,prt,last_trial_on_planet,button_html,bonus,num_failures
pavlovia,0,4,0.0-0.0,"""event"",""trial"",""time""
""fullscreenenter"",""1"",""3526""
","
","
","""event"",""trial"",""time""
""fullscreenenter"",""1"",""3526""
","
",,,,,,,,,,,,,,,,,,,,,,,,,,,,
fullscreen,1,4494,0.0-1.0,"""event"",""trial"",""time""
""fullscreenenter"",""1"",""3526""
","
","
","""event"",""trial"",""time""
""fullscreenenter"",""1"",""3526""
","
",TRUE,,,,,,,,,,,,,,,,,,,,,,,,,,,
instruc_welcome,2,14245,0.0-2.0,"""event"",""trial"",""time""
""fullscreenenter"",""1"",""3526""
","
","
","""event"",""trial"",""time""
""fullscreenenter"",""1"",""3526""
","
",,null,run_exp/static/audio/clip_1_welcome.m4a,null,"<p>Howdy! In this experiment, you’ll be an explorer traveling through space to collect space treasure.</p><p>Your mission is to collect as much treasure as possible.</p><br><br><p><img src='run_exp/static/images/task_images/opening_img-01.jpg' height='300' width='auto'></p>",9501,3568,10.63,Male,,,,,,,,,,,,,,,,,,,
audio-keyboard-response,3,30864,0.0-3.0,"""event"",""trial"",""time""
""fullscreenenter"",""1"",""3526""
","
","
","""event"",""trial"",""time""
""fullscreenenter"",""1"",""3526""
","
",,null,run_exp/static/audio/clip_2_move.m4a,null,,,,,,,,,,,,,,,,,,,,,,,,
welcome_dec,4,37131,0.0-4.0,"""event"",""trial"",""time""
""fullscreenenter"",""1"",""3526""
","
","
","""event"",""trial"",""time""
""fullscreenenter"",""1"",""3526""
","
",,6261.9,"<p>Howdy! In this experiment, you’ll be an explorer traveling through space to collect space treasure.</p><p>Your mission is to collect as much treasure as possible.</p><br><br><p><img src='run_exp/static/images/task_images/opening_img-01.jpg' height='300' width='auto'></p>",,,,,,,0,,,,,,,,,,,,,,,,,,
html-keyboard-response,5,40566,0.0-5.0,"""event"",""trial"",""time""
""fullscreenenter"",""1"",""3526""
","
","
","""event"",""trial"",""time""
""fullscreenenter"",""1"",""3526""
","
",,3430,"<p>Howdy! In this experiment, you’ll be an explorer traveling through space to collect space treasure.</p><p>Your mission is to collect as much treasure as possible.</p><br><br><p><img src='run_exp/static/images/task_images/opening_img-01.jpg' height='300' width='auto'></p><button class=""jspsych-html-btn-chosen""><img src=""run_exp/static/images/task_images/planet-01.jpg"" height=""50""></button><button class=""jspsych-html-btn-unchosen""><img src=""run_exp/static/images/task_images/planet-02.jpg"" height=""50""></button><p><b>[press the space bar to lock in your answer]<b><br></p>",32,,,,,,,,,,,,,,,,,,,,,,,,
instruc_welcome,6,50321,0.0-6.0-0.0,"""event"",""trial"",""time""
""fullscreenenter"",""1"",""3526""
","
","
","""event"",""trial"",""time""
""fullscreenenter"",""1"",""3526""
","
",,null,run_exp/static/audio/clip_1_welcome.m4a,null,"<p>Howdy! In this experiment, you’ll be an explorer traveling through space to collect space treasure.</p><p>Your mission is to collect as much treasure as possible.</p><br><br><p><img src='run_exp/static/images/task_images/opening_img-01.jpg' height='300' width='auto'></p>",9501,3568,10.63,Male,,,,,,,,,,,,,,,,,,,
audio-keyboard-response,7,66897,0.0-6.0-1.0,"""event"",""trial"",""time""
""fullscreenenter"",""1"",""3526""
","
","
","""event"",""trial"",""time""
""fullscreenenter"",""1"",""3526""
","
",,null,run_exp/static/audio/clip_2_move.m4a,null,,,,,,,,,,,,,,,,,,,,,,,,
welcome_dec,8,68968,0.0-6.0-2.0,"""event"",""trial"",""time""
""fullscreenenter"",""1"",""3526""
","
","
","""event"",""trial"",""time""
""fullscreenenter"",""1"",""3526""
","
",,2065.8,"<p>Howdy! In this experiment, you’ll be an explorer traveling through space to collect space treasure.</p><p>Your mission is to collect as much treasure as possible.</p><br><br><p><img src='run_exp/static/images/task_images/opening_img-01.jpg' height='300' width='auto'></p>",,,,,,,1,,,,,,,,,,,,,,,,,,
html-keyboard-response,9,74126,0.0-6.0-3.0,"""event"",""trial"",""time""
""fullscreenenter"",""1"",""3526""
","
","
","""event"",""trial"",""time""
""fullscreenenter"",""1"",""3526""
","
",,5155.1,"<p>Howdy! In this experiment, you’ll be an explorer traveling through space to collect space treasure.</p><p>Your mission is to collect as much treasure as possible.</p><br><br><p><img src='run_exp/static/images/task_images/opening_img-01.jpg' height='300' width='auto'></p><button class=""jspsych-html-btn-unchosen""><img src=""run_exp/static/images/task_images/planet-01.jpg"" height=""50""></button><button class=""jspsych-html-btn-chosen""><img src=""run_exp/static/images/task_images/planet-02.jpg"" height=""50""></button><p><b>[press the space bar to lock in your answer]<b><br></p>",32,,,,,,,,,,,,,,,,,,,,,,,,
instruc_goal,10,84220,0.0-7.0-0.0,"""event"",""trial"",""time""
""fullscreenenter"",""1"",""3526""
","
","
","""event"",""trial"",""time""
""fullscreenenter"",""1"",""3526""
","
",,null,run_exp/static/audio/clip_3_goal.m4a,null,"<p> As a space explorer, you’ll visit different planets to dig for space treasure, these pink gems.</p> <p> The more treasure you dig up, the more bonus money you’ll win! </p><br><br><p><img src='run_exp/static/images/task_images/pink_gem.jpg' height='300' width='auto'></p>",,,,,,,,,,,,,,,,,,,,,,,
instruc_goal,11,90371,0.0-7.0-1.0,"""event"",""trial"",""time""
""fullscreenenter"",""1"",""3526""
","
","
","""event"",""trial"",""time""
""fullscreenenter"",""1"",""3526""
","
",,6147.8,"<p> As a space explorer, you’ll visit different planets to dig for space treasure, these pink gems.</p> <p> The more treasure you dig up, the more bonus money you’ll win! </p><br><br><p><img src='run_exp/static/images/task_images/pink_gem.jpg' height='300' width='auto'></p>",,,,,,,1,,,,,,,,,,,,,,,,,,
html-keyboard-response,12,91558,0.0-7.0-2.0,"""event"",""trial"",""time""
""fullscreenenter"",""1"",""3526""
","
","
","""event"",""trial"",""time""
""fullscreenenter"",""1"",""3526""
","
",,1183.9,"<p> As a space explorer, you’ll visit different planets to dig for space treasure, these pink gems.</p> <p> The more treasure you dig up, the more bonus money you’ll win! </p><br><br><p><img src='run_exp/static/images/task_images/pink_gem.jpg' height='300' width='auto'></p><button class=""jspsych-html-btn-unchosen""><img src=""run_exp/static/images/task_images/planet-01.jpg"" height=""50""></button><button class=""jspsych-html-btn-chosen""><img src=""run_exp/static/images/task_images/planet-02.jpg"" height=""50""></button><p><b>[press the space bar to lock in your answer]<b><br></p>",32,,,,,,,,,,,,,,,,,,,,,,,,
instruc_dig,13,107581,0.0-8.0-0.0,"""event"",""trial"",""time""
""fullscreenenter"",""1"",""3526""
","
","
","""event"",""trial"",""time""
""fullscreenenter"",""1"",""3526""
","
",,null,run_exp/static/audio/clip_4_dig.m4a,null,,,,,,,100,,,,,,,,,,,,,,,,,
instruc_dig_try,14,108525,0.0-8.0-1.0,"""event"",""trial"",""time""
""fullscreenenter"",""1"",""3526""
","
","
","""event"",""trial"",""time""
""fullscreenenter"",""1"",""3526""
","
",,942,"<p> When you’ve arrived at a new planet, you will dig once. </p> <p>Then, you get to decide if you want to stay on the planet and dig again or travel to a new planet and dig there.</p> <p> To stay and dig, press the letter <strong>‘A’</strong> on your keyboard. Try pressing it now! </p><p><img src='run_exp/static/images/task_images/land.jpg'  height='700' width='auto'></p>",65,"<p> When you’ve arrived at a new planet, you will dig once. </p> <p>Then, you get to decide if you want to stay on the planet and dig again or travel to a new planet and dig there.</p> <p> To stay and dig, press the letter <strong>‘A’</strong> on your keyboard. Try pressing it now! </p><p><img src='run_exp/static/images/task_images/land.jpg'  height='700' width='auto'></p>",,,,,,100,,,,,,,,,,,,,,,,,
dig_prac,15,110539,0.0-8.0-2.0,"""event"",""trial"",""time""
""fullscreenenter"",""1"",""3526""
","
","
","""event"",""trial"",""time""
""fullscreenenter"",""1"",""3526""
","
",,,,,,,,,,,,"[{""stimulus"":""run_exp/static/images/task_images/dig.jpg"",""time"":0.5999999046325684},{""stimulus"":""run_exp/static/images/task_images/land.jpg"",""time"":670.0999999046326},{""stimulus"":""run_exp/static/images/task_images/dig.jpg"",""time"":1336.3999998569489}]",[],,,,,,,,,,,,,,,
instruc_travel,16,146793,0.0-8.0-3.0,"""event"",""trial"",""time""
""fullscreenenter"",""1"",""3526""
","
","
","""event"",""trial"",""time""
""fullscreenenter"",""1"",""3526""
","
",,null,run_exp/static/audio/clip_5_travel.m4a,null,"<p>Every time you dig up gems, there are less gems on the planet, so the more you dig on a planet the fewer gems you’ll get with each dig.</p><p>When gems are running low, you may want to travel to a new planet. </p> <p>  Planets are very far apart in this galaxy, so it will take some time to travel between them. </p> <br><p>There are lots and lots of planets for you to visit, so you won’t be able to return to any planets you’ve seen before. </p><br><p>To leave this planet and travel to a new one, press the letter <strong>‘L’</strong> on your keyboard. Try pressing it now! </p><p><img src='run_exp/static/images/task_images/rocket-01.jpg'  height='600' width='auto'></p>",,,,,,,,,,,,,,,,,,,,,,,
instruc_travel_try,17,147650,0.0-8.0-4.0,"""event"",""trial"",""time""
""fullscreenenter"",""1"",""3526""
","
","
","""event"",""trial"",""time""
""fullscreenenter"",""1"",""3526""
","
",,854.8999999,"<p>Every time you dig up gems, there are less gems on the planet, so the more you dig on a planet the fewer gems you’ll get with each dig.</p><p>When gems are running low, you may want to travel to a new planet. </p> <p>  Planets are very far apart in this galaxy, so it will take some time to travel between them. </p> <br><p>There are lots and lots of planets for you to visit, so you won’t be able to return to any planets you’ve seen before. </p><br><p>To leave this planet and travel to a new one, press the letter <strong>‘L’</strong> on your keyboard. Try pressing it now! </p><p><img src='run_exp/static/images/task_images/rocket-01.jpg'  height='600' width='auto'></p>",76,"<p>Every time you dig up gems, there are less gems on the planet, so the more you dig on a planet the fewer gems you’ll get with each dig.</p><p>When gems are running low, you may want to travel to a new planet. </p> <p>  Planets are very far apart in this galaxy, so it will take some time to travel between them. </p> <br><p>There are lots and lots of planets for you to visit, so you won’t be able to return to any planets you’ve seen before. </p><br><p>To leave this planet and travel to a new one, press the letter <strong>‘L’</strong> on your keyboard. Try pressing it now! </p><p><img src='run_exp/static/images/task_images/rocket-01.jpg'  height='600' width='auto'></p>",,,,,,,,,,,,,,,,,,,,,,,
travel_prac,18,157653,0.0-8.0-5.0,"""event"",""trial"",""time""
""fullscreenenter"",""1"",""3526""
","
","
","""event"",""trial"",""time""
""fullscreenenter"",""1"",""3526""
","
",,,,,,,,,,,,"[{""stimulus"":""run_exp/static/images/task_images/rocket-01.jpg"",""time"":0.39999985694885254},{""stimulus"":""run_exp/static/images/task_images/rocket-02.jpg"",""time"":1113},{""stimulus"":""run_exp/static/images/task_images/rocket-03.jpg"",""time"":2224},{""stimulus"":""run_exp/static/images/task_images/rocket-04.jpg"",""time"":3335.2999999523163},{""stimulus"":""run_exp/static/images/task_images/rocket-05.jpg"",""time"":4445.599999904633},{""stimulus"":""run_exp/static/images/task_images/rocket-06.jpg"",""time"":5556.5},{""stimulus"":""run_exp/static/images/task_images/rocket-07.jpg"",""time"":6668},{""stimulus"":""run_exp/static/images/task_images/rocket-08.jpg"",""time"":7779.5},{""stimulus"":""run_exp/static/images/task_images/rocket-09.jpg"",""time"":8889.5}]",[],0,,,,,,,,,,,,,,
instruc_alien_greet,19,184853,0.0-8.0-6.0,"""event"",""trial"",""time""
""fullscreenenter"",""1"",""3526""
","
","
","""event"",""trial"",""time""
""fullscreenenter"",""1"",""3526""
","
",,null,run_exp/static/audio/clip_6_alien.m4a,null,"<p>When you arrive at a new planet, the alien who owns the treasure mine on that planet will greet you!</p><p>The better an alien takes care of their mine the easier it is to dig for gems. Some aliens take better care of their mine than others. So, you won’t get exactly the same amount of gems on each planet.</p><p>What the alien looks like does not tell you anything about how many gems there are on the planet.</p><br><p><img src=""run_exp/static/images/task_images/aliens/instructions_aliens/planet/alien_planet-1.jpg""  height=""600"" width=""auto""></p>",,,,,,,,,,,,,,,,,,,,,,,
instruc_alien_greet,20,188211,0.0-8.0-7.0,"""event"",""trial"",""time""
""fullscreenenter"",""1"",""3526""
","
","
","""event"",""trial"",""time""
""fullscreenenter"",""1"",""3526""
","
",,3354.8,"<p>When you arrive at a new planet, the alien who owns the treasure mine on that planet will greet you!</p><p>The better an alien takes care of their mine the easier it is to dig for gems. Some aliens take better care of their mine than others. So, you won’t get exactly the same amount of gems on each planet.</p><p>What the alien looks like does not tell you anything about how many gems there are on the planet.</p><br><p><img src=""run_exp/static/images/task_images/aliens/instructions_aliens/planet/alien_planet-1.jpg""  height=""600"" width=""auto""></p>",,,,,,,1,,,,,,,,,,,,,,,,,,
html-keyboard-response,21,191960,0.0-8.0-8.0,"""event"",""trial"",""time""
""fullscreenenter"",""1"",""3526""
","
","
","""event"",""trial"",""time""
""fullscreenenter"",""1"",""3526""
","
",,3746.6,"<p>When you arrive at a new planet, the alien who owns the treasure mine on that planet will greet you!</p><p>The better an alien takes care of their mine the easier it is to dig for gems. Some aliens take better care of their mine than others. So, you won’t get exactly the same amount of gems on each planet.</p><p>What the alien looks like does not tell you anything about how many gems there are on the planet.</p><br><p><img src=""run_exp/static/images/task_images/aliens/instructions_aliens/planet/alien_planet-1.jpg""  height=""600"" width=""auto""></p><button class=""jspsych-html-btn-unchosen""><img src=""run_exp/static/images/task_images/planet-01.jpg"" height=""50""></button><button class=""jspsych-html-btn-chosen""><img src=""run_exp/static/images/task_images/planet-02.jpg"" height=""50""></button><p><b>[press the space bar to lock in your answer]<b><br></p>",32,,,,,,,,,,,,,,,,,,,,,,,,
time_out,22,203072,0.0-9.0-0.0,"""event"",""trial"",""time""
""fullscreenenter"",""1"",""3526""
","
","
","""event"",""trial"",""time""
""fullscreenenter"",""1"",""3526""
","
",,null,run_exp/static/audio/clip_7_timeout.m4a,null,"<p>If you don't make your choice fast enough, you’ll have to wait a few seconds before you can make another one.</p><p>You can’t dig for more gems or travel to new planets. You just have to sit and wait.</p><br><p><img src='run_exp/static/images/task_images/time_out.jpg'  height='600' width='auto'></p>",,,,,,,,,,,,,,,,,,,,,,,
time_out,23,208290,0.0-9.0-1.0,"""event"",""trial"",""time""
""fullscreenenter"",""1"",""3526""
","
","
","""event"",""trial"",""time""
""fullscreenenter"",""1"",""3526""
","
",,5215,"<p>If you don't make your choice fast enough, you’ll have to wait a few seconds before you can make another one.</p><p>You can’t dig for more gems or travel to new planets. You just have to sit and wait.</p><br><p><img src='run_exp/static/images/task_images/time_out.jpg'  height='600' width='auto'></p>",,,,,,,1,,,,,,,,,,,,,,,,,,
html-keyboard-response,24,210017,0.0-9.0-2.0,"""event"",""trial"",""time""
""fullscreenenter"",""1"",""3526""
","
","
","""event"",""trial"",""time""
""fullscreenenter"",""1"",""3526""
","
",,1723.9,"<p>If you don't make your choice fast enough, you’ll have to wait a few seconds before you can make another one.</p><p>You can’t dig for more gems or travel to new planets. You just have to sit and wait.</p><br><p><img src='run_exp/static/images/task_images/time_out.jpg'  height='600' width='auto'></p><button class=""jspsych-html-btn-unchosen""><img src=""run_exp/static/images/task_images/planet-01.jpg"" height=""50""></button><button class=""jspsych-html-btn-chosen""><img src=""run_exp/static/images/task_images/planet-02.jpg"" height=""50""></button><p><b>[press the space bar to lock in your answer]<b><br></p>",32,,,,,,,,,,,,,,,,,,,,,,,,
instruc_break,25,225707,0.0-10.0-0.0,"""event"",""trial"",""time""
""fullscreenenter"",""1"",""3526""
","
","
","""event"",""trial"",""time""
""fullscreenenter"",""1"",""3526""
","
",,null,run_exp/static/audio/clip_8_break.m4a,null,"<p> After digging and traveling for a while, you’ll be able to take a break at home base. </p><p>The game will last 20 minutes no matter what.</p><p>You will visit home base every 5 minutes, so, you will visit home base three times during the game.</p><br><p><img src='run_exp/static/images/task_images/home_base.jpg' height='600' width='auto'></p>",,,,,,,,,,,,,,,,,,,,,,,
instruc_break,26,228587,0.0-10.0-1.0,"""event"",""trial"",""time""
""fullscreenenter"",""1"",""3526""
","
","
","""event"",""trial"",""time""
""fullscreenenter"",""1"",""3526""
","
",,2877.6,"<p> After digging and traveling for a while, you’ll be able to take a break at home base. </p><p>The game will last 20 minutes no matter what.</p><p>You will visit home base every 5 minutes, so, you will visit home base three times during the game.</p><br><p><img src='run_exp/static/images/task_images/home_base.jpg' height='600' width='auto'></p>",,,,,,,1,,,,,,,,,,,,,,,,,,
html-keyboard-response,27,229879,0.0-10.0-2.0,"""event"",""trial"",""time""
""fullscreenenter"",""1"",""3526""
","
","
","""event"",""trial"",""time""
""fullscreenenter"",""1"",""3526""
","
",,1289.2,"<p> After digging and traveling for a while, you’ll be able to take a break at home base. </p><p>The game will last 20 minutes no matter what.</p><p>You will visit home base every 5 minutes, so, you will visit home base three times during the game.</p><br><p><img src='run_exp/static/images/task_images/home_base.jpg' height='600' width='auto'></p><button class=""jspsych-html-btn-unchosen""><img src=""run_exp/static/images/task_images/planet-01.jpg"" height=""50""></button><button class=""jspsych-html-btn-chosen""><img src=""run_exp/static/images/task_images/planet-02.jpg"" height=""50""></button><p><b>[press the space bar to lock in your answer]<b><br></p>",32,,,,,,,,,,,,,,,,,,,,,,,,
instruc_prac_game,28,240022,0.0-11.0-0.0,"""event"",""trial"",""time""
""fullscreenenter"",""1"",""3526""
","
","
","""event"",""trial"",""time""
""fullscreenenter"",""1"",""3526""
","
",,null,run_exp/static/audio/clip_9_practice.m4a,null,"<p> Are you ready to play a practice game? </p> <p>In this practice game, you'll be digging up barrels of gems. But, in the real game, you'll be digging up the gems themselves. </p>",,,,,,,,,,,,,,,,,,,,,,,
html-button-response,29,243357,0.0-11.0-1.0,"""event"",""trial"",""time""
""fullscreenenter"",""1"",""3526""
","
","
","""event"",""trial"",""time""
""fullscreenenter"",""1"",""3526""
","
",,3332.8,"<p> Are you ready to play a practice game? </p> <p>In this practice game, you'll be digging up barrels of gems. But, in the real game, you'll be digging up the gems themselves. </p>",,,,,,,0,,,,,,,,,,,,,,,,,,
alien_welcome_prac,30,248364,0.0-12.0-0.0,"""event"",""trial"",""time""
""fullscreenenter"",""1"",""3526""
","
","
","""event"",""trial"",""time""
""fullscreenenter"",""1"",""3526""
","
",,null,run_exp/static/images/task_images/aliens/practice_aliens/planet/alien_planet-5.jpg,null,,,,,,,,,,,,,,,,,,,,,,,,
land_prac,31,248866,0.0-12.0-1.0,"""event"",""trial"",""time""
""fullscreenenter"",""1"",""3526""
","
","
","""event"",""trial"",""time""
""fullscreenenter"",""1"",""3526""
","
",,null,run_exp/static/images/task_images/land.jpg,null,,,,,,,102,,,0,,,,,,,,,,,,,,
dig_prac,32,250872,0.0-12.0-2.0,"""event"",""trial"",""time""
""fullscreenenter"",""1"",""3526""
","
","
","""event"",""trial"",""time""
""fullscreenenter"",""1"",""3526""
","
",,,,,,,,,,,,"[{""stimulus"":""run_exp/static/images/task_images/dig.jpg"",""time"":0.40000009536743164},{""stimulus"":""run_exp/static/images/task_images/land.jpg"",""time"":668.9000000953674},{""stimulus"":""run_exp/static/images/task_images/dig.jpg"",""time"":1336.5}]",[],,,,,,,,,,,,,,,
harvest_prac,33,251874,0.0-12.0-3.0,"""event"",""trial"",""time""
""fullscreenenter"",""1"",""3526""
","
","
","""event"",""trial"",""time""
""fullscreenenter"",""1"",""3526""
","
",,null,run_exp/static/images/task_images/barrel_text.jpg,null,,,,,,,,,,,,,,,,,,,,,,,,
decision_prac,34,253815,0.0-12.0-4.0,"""event"",""trial"",""time""
""fullscreenenter"",""1"",""3526""
","
","
","""event"",""trial"",""time""
""fullscreenenter"",""1"",""3526""
","
",,1938.7,run_exp/static/images/task_images/land.jpg,65,,,,,,,,,,,1,,,,,,,,,,,,,
dig_prac,35,255824,0.0-13.0-0.0,"""event"",""trial"",""time""
""fullscreenenter"",""1"",""3526""
","
","
","""event"",""trial"",""time""
""fullscreenenter"",""1"",""3526""
","
",,,,,,,,,,,,"[{""stimulus"":""run_exp/static/images/task_images/dig.jpg"",""time"":0.39999985694885254},{""stimulus"":""run_exp/static/images/task_images/land.jpg"",""time"":669.2000000476837},{""stimulus"":""run_exp/static/images/task_images/dig.jpg"",""time"":1335.7999999523163}]",[],,,,,,,,,,,,,,,
harvest_prac,36,256827,0.0-13.0-1.0,"""event"",""trial"",""time""
""fullscreenenter"",""1"",""3526""
","
","
","""event"",""trial"",""time""
""fullscreenenter"",""1"",""3526""
","
",,null,run_exp/static/images/task_images/barrel_text.jpg,null,,,,,,,,,,,,,,,,,,,,,,,,
decision_prac,37,257323,0.0-13.0-2.0,"""event"",""trial"",""time""
""fullscreenenter"",""1"",""3526""
","
","
","""event"",""trial"",""time""
""fullscreenenter"",""1"",""3526""
","
",,495.0999999,run_exp/static/images/task_images/land.jpg,65,,,,,,,,,,,2,,,,,,,,,,,,,
dig_prac,38,259331,0.0-14.0-0.0,"""event"",""trial"",""time""
""fullscreenenter"",""1"",""3526""
","
","
","""event"",""trial"",""time""
""fullscreenenter"",""1"",""3526""
","
",,,,,,,,,,,,"[{""stimulus"":""run_exp/static/images/task_images/dig.jpg"",""time"":0.2999999523162842},{""stimulus"":""run_exp/static/images/task_images/land.jpg"",""time"":668.3999998569489},{""stimulus"":""run_exp/static/images/task_images/dig.jpg"",""time"":1335.7000000476837}]",[],,,,,,,,,,,,,,,
harvest_prac,39,260334,0.0-14.0-1.0,"""event"",""trial"",""time""
""fullscreenenter"",""1"",""3526""
","
","
","""event"",""trial"",""time""
""fullscreenenter"",""1"",""3526""
","
",,null,run_exp/static/images/task_images/barrel_text.jpg,null,,,,,,,,,,,,,,,,,,,,,,,,
decision_prac,40,261056,0.0-14.0-2.0,"""event"",""trial"",""time""
""fullscreenenter"",""1"",""3526""
","
","
","""event"",""trial"",""time""
""fullscreenenter"",""1"",""3526""
","
",,720.5999999,run_exp/static/images/task_images/land.jpg,65,,,,,,,,,,,3,,,,,,,,,,,,,
dig_prac,41,263063,0.0-15.0-0.0,"""event"",""trial"",""time""
""fullscreenenter"",""1"",""3526""
","
","
","""event"",""trial"",""time""
""fullscreenenter"",""1"",""3526""
","
",,,,,,,,,,,,"[{""stimulus"":""run_exp/static/images/task_images/dig.jpg"",""time"":0.2999999523162842},{""stimulus"":""run_exp/static/images/task_images/land.jpg"",""time"":669},{""stimulus"":""run_exp/static/images/task_images/dig.jpg"",""time"":1336.2000000476837}]",[],,,,,,,,,,,,,,,
harvest_prac,42,264064,0.0-15.0-1.0,"""event"",""trial"",""time""
""fullscreenenter"",""1"",""3526""
","
","
","""event"",""trial"",""time""
""fullscreenenter"",""1"",""3526""
","
",,null,run_exp/static/images/task_images/barrel_text.jpg,null,,,,,,,,,,,,,,,,,,,,,,,,
decision_prac,43,264330,0.0-15.0-2.0,"""event"",""trial"",""time""
""fullscreenenter"",""1"",""3526""
","
","
","""event"",""trial"",""time""
""fullscreenenter"",""1"",""3526""
","
",,263.8,run_exp/static/images/task_images/land.jpg,76,,,,,,,,,,,4,,,,,,,,,,,,,
travel,44,274065,0.0-16.0-0.0,"""event"",""trial"",""time""
""fullscreenenter"",""1"",""3526""
","
","
","""event"",""trial"",""time""
""fullscreenenter"",""1"",""3526""
","
",,,,,,,,,,,,"[{""stimulus"":""run_exp/static/images/task_images/rocket-01.jpg"",""time"":0.2999999523162842},{""stimulus"":""run_exp/static/images/task_images/rocket-02.jpg"",""time"":1082.9000000953674},{""stimulus"":""run_exp/static/images/task_images/rocket-03.jpg"",""time"":2164.7000000476837},{""stimulus"":""run_exp/static/images/task_images/rocket-04.jpg"",""time"":3245.600000143051},{""stimulus"":""run_exp/static/images/task_images/rocket-05.jpg"",""time"":4325.700000047684},{""stimulus"":""run_exp/static/images/task_images/rocket-06.jpg"",""time"":5408},{""stimulus"":""run_exp/static/images/task_images/rocket-07.jpg"",""time"":6487.900000095367},{""stimulus"":""run_exp/static/images/task_images/rocket-08.jpg"",""time"":7568.5},{""stimulus"":""run_exp/static/images/task_images/rocket-09.jpg"",""time"":8650.700000047684}]",[],0,,,,,,,,,,,,,,
alien_welcome_prac,45,279068,0.0-16.0-1.0,"""event"",""trial"",""time""
""fullscreenenter"",""1"",""3526""
","
","
","""event"",""trial"",""time""
""fullscreenenter"",""1"",""3526""
","
",,null,run_exp/static/images/task_images/aliens/practice_aliens/planet/alien_planet-4.jpg,null,,,,,,,,,,,,,,,,,,,,,,,,
land_prac,46,279570,0.0-16.0-2.0,"""event"",""trial"",""time""
""fullscreenenter"",""1"",""3526""
","
","
","""event"",""trial"",""time""
""fullscreenenter"",""1"",""3526""
","
",,null,run_exp/static/images/task_images/land.jpg,null,,,,,,,98,,,0,,,,,,,,,,,,,,
dig_prac,47,281574,0.0-16.0-3.0,"""event"",""trial"",""time""
""fullscreenenter"",""1"",""3526""
","
","
","""event"",""trial"",""time""
""fullscreenenter"",""1"",""3526""
","
",,,,,,,,,,,,"[{""stimulus"":""run_exp/static/images/task_images/dig.jpg"",""time"":0.2999999523162842},{""stimulus"":""run_exp/static/images/task_images/land.jpg"",""time"":669.7000000476837},{""stimulus"":""run_exp/static/images/task_images/dig.jpg"",""time"":1335.2000000476837}]",[],,,,,,,,,,,,,,,
harvest_prac,48,282577,0.0-16.0-4.0,"""event"",""trial"",""time""
""fullscreenenter"",""1"",""3526""
","
","
","""event"",""trial"",""time""
""fullscreenenter"",""1"",""3526""
","
",,null,run_exp/static/images/task_images/barrel_text.jpg,null,,,,,,,,,,,,,,,,,,,,,,,,
decision_prac,49,283334,0.0-16.0-5.0,"""event"",""trial"",""time""
""fullscreenenter"",""1"",""3526""
","
","
","""event"",""trial"",""time""
""fullscreenenter"",""1"",""3526""
","
",,755.9000001,run_exp/static/images/task_images/land.jpg,65,,,,,,,,,,,,1,,,,,,,,,,,,
quiz_instruc,50,294899,0.0-17.0-0.0,"""event"",""trial"",""time""
""fullscreenenter"",""1"",""3526""
","
","
","""event"",""trial"",""time""
""fullscreenenter"",""1"",""3526""
","
",,11558.9,run_exp/static/audio/clip_10_quiz.m4a,,,,,,,0,,,,,,,,,,,,,,,,,,
instruc_repeat,51,337690,0.0-17.0-1.0,"""event"",""trial"",""time""
""fullscreenenter"",""1"",""3526""
","
","
","""event"",""trial"",""time""
""fullscreenenter"",""1"",""3526""
","
",,null,"<p> Are you ready to play a practice game? </p> <p>In this practice game, you'll be digging up barrels of gems. But, in the real game, you'll be digging up the gems themselves. </p>",null,"<p>In this game, your goal is to collect as many gems as you can. That’s how you will win bonus money. </p> <p>The entire game will last 20 minutes no matter how many gems you collect or how many planets you visit. </p><p>To stay on a planet and dig again, press the letter A on your keyboard. To leave for a new planet, press the letter L.</p><p>The more you dig on a planet, the fewer gems you’ll get with each dig which is why you might consider leaving for a new planet. </p><p>When you arrive at a new planet, you’ll be greeted by an alien. What the alien looks like does not tell you anything about how much treasure is on the planet. </p>",,,,,,,,,,,,,,,,,,,,,,,
instruc_repeat_continue,52,340211,0.0-17.0-2.0,"""event"",""trial"",""time""
""fullscreenenter"",""1"",""3526""
","
","
","""event"",""trial"",""time""
""fullscreenenter"",""1"",""3526""
","
",,2518.6,"<p> Are you ready to play a practice game? </p> <p>In this practice game, you'll be digging up barrels of gems. But, in the real game, you'll be digging up the gems themselves. </p>",,,,,,,0,,,,,,,,,,,,,,,,,,
quiz_q_1_ask,53,344968,0.0-17.0-3.0,"""event"",""trial"",""time""
""fullscreenenter"",""1"",""3526""
","
","
","""event"",""trial"",""time""
""fullscreenenter"",""1"",""3526""
","
",,4754.8,run_exp/static/audio/clip_11_q1_ask.m4a,,,,,,,2,,,,,,,,,,,,,,,,,,
quiz_q_1_fb_correct,54,348848,0.0-18.0-0.0,"""event"",""trial"",""time""
""fullscreenenter"",""1"",""3526""
","
","
","""event"",""trial"",""time""
""fullscreenenter"",""1"",""3526""
","
",,null,run_exp/static/audio/clip_12_q1_correct.m4a,null,<p>That’s correct. You win extra money by collecting more gems.</p>,,,,,,,,,,,,,,,,,,,,,,,
quiz_q_2_ask,55,353791,0.0-18.0-1.0,"""event"",""trial"",""time""
""fullscreenenter"",""1"",""3526""
","
","
","""event"",""trial"",""time""
""fullscreenenter"",""1"",""3526""
","
",,4940.5,run_exp/static/audio/clip_14_q2_ask.m4a,,,,,,,1,,,,,,,,,,,,,,,,,,
quiz_q_2_fb_correct,56,357829,0.0-19.0-0.0,"""event"",""trial"",""time""
""fullscreenenter"",""1"",""3526""
","
","
","""event"",""trial"",""time""
""fullscreenenter"",""1"",""3526""
","
",,null,run_exp/static/audio/clip_15_q2_correct.m4a,null,<p>That’s correct. The experiment is 20 minutes no matter what.</p>,,,,,,,,,,,,,,,,,,,,,,,
quiz_q_3_ask,57,362378,0.0-19.0-1.0,"""event"",""trial"",""time""
""fullscreenenter"",""1"",""3526""
","
","
","""event"",""trial"",""time""
""fullscreenenter"",""1"",""3526""
","
",,4545.9,run_exp/static/audio/clip_17_q3_ask.m4a,,,,,,,1,,,,,,,,,,,,,,,,,,
quiz_q_3_fb_correct,58,366385,0.0-20.0-0.0,"""event"",""trial"",""time""
""fullscreenenter"",""1"",""3526""
","
","
","""event"",""trial"",""time""
""fullscreenenter"",""1"",""3526""
","
",,null,run_exp/static/audio/clip_18_q3_correct.m4a,null,<p> That’s correct. You press the letter L to travel to a new planet.</p>,,,,,,,,,,,,,,,,,,,,,,,
quiz_q_4_ask,59,371511,0.0-20.0-1.0,"""event"",""trial"",""time""
""fullscreenenter"",""1"",""3526""
","
","
","""event"",""trial"",""time""
""fullscreenenter"",""1"",""3526""
","
",,5123.5,run_exp/static/audio/clip_20_q4_ask.m4a,,,,,,,0,,,,,,,,,,,,,,,,,,
quiz_q_4_fb_correct,60,376859,0.0-21.0-0.0,"""event"",""trial"",""time""
""fullscreenenter"",""1"",""3526""
","
","
","""event"",""trial"",""time""
""fullscreenenter"",""1"",""3526""
","
",,null,run_exp/static/audio/clip_21_q4_correct.m4a,null,<p> That’s correct. The more you dig on a planet the fewer gems you’ll get with each dig. </p>,,,,,,,,,,,,,,,,,,,,,,,
quiz_q_5_ask,61,387218,0.0-21.0-1.0,"""event"",""trial"",""time""
""fullscreenenter"",""1"",""3526""
","
","
","""event"",""trial"",""time""
""fullscreenenter"",""1"",""3526""
","
",,10356.3,run_exp/static/audio/clip_23_q5_ask.m4a,,,,,,,1,,,,,,,,,,,,,,,,,,
quiz_q_5_fb_correct,62,392241,0.0-22.0-0.0,"""event"",""trial"",""time""
""fullscreenenter"",""1"",""3526""
","
","
","""event"",""trial"",""time""
""fullscreenenter"",""1"",""3526""
","
",,null,run_exp/static/audio/clip_24_q5_correct.m4a,null,<p> That’s correct. The alien tells you nothing about how much treasure is on the planet.</p>,,,,,,,,,,,,,,,,,,,,,,,
quiz_correct,63,395719,0.0-23.0-0.0,"""event"",""trial"",""time""
""fullscreenenter"",""1"",""3526""
","
","
","""event"",""trial"",""time""
""fullscreenenter"",""1"",""3526""
","
",,null,run_exp/static/audio/clip_26_correct_quiz.m4a,null,,,,,,,,,,,,,,,,,,,,,,,,
quiz_correct_continue,64,404413,0.0-23.0-1.0,"""event"",""trial"",""time""
""fullscreenenter"",""1"",""3526""
","
","
","""event"",""trial"",""time""
""fullscreenenter"",""1"",""3526""
","
",,8692.9,<p>Good job! You're now ready to move on to the real game!</p>,,,,,,,0,,,,,,,,,,,,,,,,,,
audio-keyboard-response,65,414556,0.0-23.0-2.0,"""event"",""trial"",""time""
""fullscreenenter"",""1"",""3526""
","
","
","""event"",""trial"",""time""
""fullscreenenter"",""1"",""3526""
","
",,null,run_exp/static/audio/clip_28_real_game.m4a,null,,,,,,,,,,,,,,,,,,,,,,,,
instruc_begin_exp_contine,66,419062,0.0-23.0-3.0,"""event"",""trial"",""time""
""fullscreenenter"",""1"",""3526""
","
","
","""event"",""trial"",""time""
""fullscreenenter"",""1"",""3526""
","
",,4503.4,"<p>Now that you know how  to dig for space treasure and travel to new planets,you can start exploring! </p><p>Do you want to go over the instructions again or get started with the real game?</p>",,,,,,,1,,,,,,1,,,,,,,,,,,,
alien_welcome,67,424068,0.0-24.0-0.0,"""event"",""trial"",""time""
""fullscreenenter"",""1"",""3526""
","
","
","""event"",""trial"",""time""
""fullscreenenter"",""1"",""3526""
","
",,null,run_exp/static/images/task_images/aliens/old_aliens/planet/alien_planet-65.jpg,null,,,,,,,,,,,,,65,"65,53,56,35,1,52,54,5,41,75,27,46,55,61,73,37,23,77,17,21,7,32,72,69,13,59,66,12,50,29,48,33,31,58,78,43,47,2,10,38,51",,,,,,,,,,
land,68,424570,0.0-24.0-1.0,"""event"",""trial"",""time""
""fullscreenenter"",""1"",""3526""
","
","
","""event"",""trial"",""time""
""fullscreenenter"",""1"",""3526""
","
",,null,run_exp/static/images/task_images/land.jpg,null,,,,,,,97,,,1,,,,,,,,,,,,,,
dig,69,426575,0.0-24.0-2.0,"""event"",""trial"",""time""
""fullscreenenter"",""1"",""3526""
","
","
","""event"",""trial"",""time""
""fullscreenenter"",""1"",""3526""
","
",,,,,,,,,,,,"[{""stimulus"":""run_exp/static/images/task_images/dig.jpg"",""time"":0.39999985694885254},{""stimulus"":""run_exp/static/images/task_images/land.jpg"",""time"":668.8999998569489},{""stimulus"":""run_exp/static/images/task_images/dig.jpg"",""time"":1336.0999999046326}]",[],1,,,,,,,,,,,,,,
harvest,70,427577,0.0-24.0-3.0,"""event"",""trial"",""time""
""fullscreenenter"",""1"",""3526""
","
","
","""event"",""trial"",""time""
""fullscreenenter"",""1"",""3526""
","
",,null,run_exp/static/images/task_images/gems/97.jpg,null,,,,,,,19,,,1,,,,,97,0.190983849,0.195876289,,,,,,,
decision,71,428504,0.0-24.0-4.0,"""event"",""trial"",""time""
""fullscreenenter"",""1"",""3526""
","
","
","""event"",""trial"",""time""
""fullscreenenter"",""1"",""3526""
","
",,924.7,run_exp/static/images/task_images/land.jpg,65,,,,,,,19,,,1,,,,,,,,9438,1,0,FALSE,,,
dig,72,430584,0.0-25.0-0.0,"""event"",""trial"",""time""
""fullscreenenter"",""1"",""3526""
","
","
","""event"",""trial"",""time""
""fullscreenenter"",""1"",""3526""
","
",,,,,,,,,,,,"[{""stimulus"":""run_exp/static/images/task_images/dig.jpg"",""time"":0.3000001907348633},{""stimulus"":""run_exp/static/images/task_images/land.jpg"",""time"":693.9000000953674},{""stimulus"":""run_exp/static/images/task_images/dig.jpg"",""time"":1383.7000000476837}]",[],1,,,,,,,,,,,,,,
harvest,73,431587,0.0-25.0-1.0,"""event"",""trial"",""time""
""fullscreenenter"",""1"",""3526""
","
","
","""event"",""trial"",""time""
""fullscreenenter"",""1"",""3526""
","
",,null,run_exp/static/images/task_images/gems/19.jpg,null,,,,,,,4,,,1,,,,,19,0.225123493,0.210526316,,,,,,,
decision,74,431908,0.0-25.0-2.0,"""event"",""trial"",""time""
""fullscreenenter"",""1"",""3526""
","
","
","""event"",""trial"",""time""
""fullscreenenter"",""1"",""3526""
","
",,319.8,run_exp/static/images/task_images/land.jpg,65,,,,,,,4,,,1,,,,,,,,12842,1,1,FALSE,,,
dig,75,434593,0.0-26.0-0.0,"""event"",""trial"",""time""
""fullscreenenter"",""1"",""3526""
","
","
","""event"",""trial"",""time""
""fullscreenenter"",""1"",""3526""
","
",,,,,,,,,,,,"[{""stimulus"":""run_exp/static/images/task_images/dig.jpg"",""time"":0.3000001907348633},{""stimulus"":""run_exp/static/images/task_images/land.jpg"",""time"":894.6000001430511},{""stimulus"":""run_exp/static/images/task_images/dig.jpg"",""time"":1787.4000000953674}]",[],1,,,,,,,,,,,,,,
harvest,76,435595,0.0-26.0-1.0,"""event"",""trial"",""time""
""fullscreenenter"",""1"",""3526""
","
","
","""event"",""trial"",""time""
""fullscreenenter"",""1"",""3526""
","
",,null,run_exp/static/images/task_images/gems/4.jpg,null,,,,,,,1,,,1,,,,,4,0.146129644,0.25,,,,,,,
decision,77,438109,0.0-26.0-2.0,"""event"",""trial"",""time""
""fullscreenenter"",""1"",""3526""
","
","
","""event"",""trial"",""time""
""fullscreenenter"",""1"",""3526""
","
",,2512.6,run_exp/static/images/task_images/land.jpg,76,,,,,,,1,,,1,,,,,,,,19043,1,2,TRUE,,,
travel,78,445594,0.0-27.0-0.0,"""event"",""trial"",""time""
""fullscreenenter"",""1"",""3526""
","
","
","""event"",""trial"",""time""
""fullscreenenter"",""1"",""3526""
","
",,,,,,,,,,,,"[{""stimulus"":""run_exp/static/images/task_images/rocket-01.jpg"",""time"":0.2999999523162842},{""stimulus"":""run_exp/static/images/task_images/rocket-02.jpg"",""time"":833.5999999046326},{""stimulus"":""run_exp/static/images/task_images/rocket-03.jpg"",""time"":1663.7999999523163},{""stimulus"":""run_exp/static/images/task_images/rocket-04.jpg"",""time"":2495.7000000476837},{""stimulus"":""run_exp/static/images/task_images/rocket-05.jpg"",""time"":3326.7999999523163},{""stimulus"":""run_exp/static/images/task_images/rocket-06.jpg"",""time"":4157.799999952316},{""stimulus"":""run_exp/static/images/task_images/rocket-07.jpg"",""time"":4987.399999856949},{""stimulus"":""run_exp/static/images/task_images/rocket-08.jpg"",""time"":5818.799999952316},{""stimulus"":""run_exp/static/images/task_images/rocket-09.jpg"",""time"":6650}]",[],1,,,,,,,,,,,,,,
alien_welcome,79,450597,0.0-27.0-1.0,"""event"",""trial"",""time""
""fullscreenenter"",""1"",""3526""
","
","
","""event"",""trial"",""time""
""fullscreenenter"",""1"",""3526""
","
",,null,run_exp/static/images/task_images/aliens/old_aliens/planet/alien_planet-53.jpg,null,,,,,,,,,,,,,53,"65,53,56,35,1,52,54,5,41,75,27,46,55,61,73,37,23,77,17,21,7,32,72,69,13,59,66,12,50,29,48,33,31,58,78,43,47,2,10,38,51",,,,,,,,,,
land,80,451099,0.0-27.0-2.0,"""event"",""trial"",""time""
""fullscreenenter"",""1"",""3526""
","
","
","""event"",""trial"",""time""
""fullscreenenter"",""1"",""3526""
","
",,null,run_exp/static/images/task_images/land.jpg,null,,,,,,,102,,,2,,,,,,,,,,,,,,
dig,81,453103,0.0-27.0-3.0,"""event"",""trial"",""time""
""fullscreenenter"",""1"",""3526""
","
","
","""event"",""trial"",""time""
""fullscreenenter"",""1"",""3526""
","
",,,,,,,,,,,,"[{""stimulus"":""run_exp/static/images/task_images/dig.jpg"",""time"":0.5},{""stimulus"":""run_exp/static/images/task_images/land.jpg"",""time"":669.2999999523163},{""stimulus"":""run_exp/static/images/task_images/dig.jpg"",""time"":1336.2000000476837}]",[],2,,,,,,,,,,,,,,
harvest,82,454105,0.0-27.0-4.0,"""event"",""trial"",""time""
""fullscreenenter"",""1"",""3526""
","
","
","""event"",""trial"",""time""
""fullscreenenter"",""1"",""3526""
","
",,null,run_exp/static/images/task_images/gems/102.jpg,null,,,,,,,15,,,2,,,,,102,0.148715491,0.147058824,,,,,,,
decision,83,454576,0.0-27.0-5.0,"""event"",""trial"",""time""
""fullscreenenter"",""1"",""3526""
","
","
","""event"",""trial"",""time""
""fullscreenenter"",""1"",""3526""
","
",,468.5999999,run_exp/static/images/task_images/land.jpg,65,,,,,,,15,,,2,,,,,,,,35510,1,0,FALSE,,,
dig,84,457111,0.0-28.0-0.0,"""event"",""trial"",""time""
""fullscreenenter"",""1"",""3526""
","
","
","""event"",""trial"",""time""
""fullscreenenter"",""1"",""3526""
","
",,,,,,,,,,,,"[{""stimulus"":""run_exp/static/images/task_images/dig.jpg"",""time"":0.2999999523162842},{""stimulus"":""run_exp/static/images/task_images/land.jpg"",""time"":845.1000001430511},{""stimulus"":""run_exp/static/images/task_images/dig.jpg"",""time"":1687.5}]",[],2,,,,,,,,,,,,,,
harvest,85,458113,0.0-28.0-1.0,"""event"",""trial"",""time""
""fullscreenenter"",""1"",""3526""
","
","
","""event"",""trial"",""time""
""fullscreenenter"",""1"",""3526""
","
",,null,run_exp/static/images/task_images/gems/15.jpg,null,,,,,,,4,,,2,,,,,15,0.299573706,0.266666667,,,,,,,
decision,86,458242,0.0-28.0-2.0,"""event"",""trial"",""time""
""fullscreenenter"",""1"",""3526""
","
","
","""event"",""trial"",""time""
""fullscreenenter"",""1"",""3526""
","
",,127.4000001,run_exp/static/images/task_images/land.jpg,65,,,,,,,4,,,2,,,,,,,,39176,1,1,FALSE,,,
dig,87,461120,0.0-29.0-0.0,"""event"",""trial"",""time""
""fullscreenenter"",""1"",""3526""
","
","
","""event"",""trial"",""time""
""fullscreenenter"",""1"",""3526""
","
",,,,,,,,,,,,"[{""stimulus"":""run_exp/static/images/task_images/dig.jpg"",""time"":0.20000004768371582},{""stimulus"":""run_exp/static/images/task_images/land.jpg"",""time"":958.3999998569489},{""stimulus"":""run_exp/static/images/task_images/dig.jpg"",""time"":1915.5999999046326}]",[],2,,,,,,,,,,,,,,
harvest,88,462123,0.0-29.0-1.0,"""event"",""trial"",""time""
""fullscreenenter"",""1"",""3526""
","
","
","""event"",""trial"",""time""
""fullscreenenter"",""1"",""3526""
","
",,null,run_exp/static/images/task_images/gems/4.jpg,null,,,,,,,1,,,2,,,,,4,0.182428055,0.25,,,,,,,
decision,89,462926,0.0-29.0-2.0,"""event"",""trial"",""time""
""fullscreenenter"",""1"",""3526""
","
","
","""event"",""trial"",""time""
""fullscreenenter"",""1"",""3526""
","
",,801,run_exp/static/images/task_images/land.jpg,76,,,,,,,1,,,2,,,,,,,,43860,1,2,TRUE,,,
travel,90,472130,0.0-30.0-0.0,"""event"",""trial"",""time""
""fullscreenenter"",""1"",""3526""
","
","
","""event"",""trial"",""time""
""fullscreenenter"",""1"",""3526""
","
",,,,,,,,,,,,"[{""stimulus"":""run_exp/static/images/task_images/rocket-01.jpg"",""time"":0.40000009536743164},{""stimulus"":""run_exp/static/images/task_images/rocket-02.jpg"",""time"":1023.7000000476837},{""stimulus"":""run_exp/static/images/task_images/rocket-03.jpg"",""time"":2045.9000000953674},{""stimulus"":""run_exp/static/images/task_images/rocket-04.jpg"",""time"":3067.800000190735},{""stimulus"":""run_exp/static/images/task_images/rocket-05.jpg"",""time"":4090},{""stimulus"":""run_exp/static/images/task_images/rocket-06.jpg"",""time"":5111.900000095367},{""stimulus"":""run_exp/static/images/task_images/rocket-07.jpg"",""time"":6133.900000095367},{""stimulus"":""run_exp/static/images/task_images/rocket-08.jpg"",""time"":7156},{""stimulus"":""run_exp/static/images/task_images/rocket-09.jpg"",""time"":8178.5}]",[],2,,,,,,,,,,,,,,
alien_welcome,91,477133,0.0-30.0-1.0,"""event"",""trial"",""time""
""fullscreenenter"",""1"",""3526""
","
","
","""event"",""trial"",""time""
""fullscreenenter"",""1"",""3526""
","
",,null,run_exp/static/images/task_images/aliens/old_aliens/planet/alien_planet-56.jpg,null,,,,,,,,,,,,,56,"65,53,56,35,1,52,54,5,41,75,27,46,55,61,73,37,23,77,17,21,7,32,72,69,13,59,66,12,50,29,48,33,31,58,78,43,47,2,10,38,51",,,,,,,,,,
land,92,477635,0.0-30.0-2.0,"""event"",""trial"",""time""
""fullscreenenter"",""1"",""3526""
","
","
","""event"",""trial"",""time""
""fullscreenenter"",""1"",""3526""
","
",,null,run_exp/static/images/task_images/land.jpg,null,,,,,,,111,,,3,,,,,,,,,,,,,,
dig,93,479640,0.0-30.0-3.0,"""event"",""trial"",""time""
""fullscreenenter"",""1"",""3526""
","
","
","""event"",""trial"",""time""
""fullscreenenter"",""1"",""3526""
","
",,,,,,,,,,,,"[{""stimulus"":""run_exp/static/images/task_images/dig.jpg"",""time"":0.2999999523162842},{""stimulus"":""run_exp/static/images/task_images/land.jpg"",""time"":669.3999998569489},{""stimulus"":""run_exp/static/images/task_images/dig.jpg"",""time"":1336.5999999046326}]",[],3,,,,,,,,,,,,,,
harvest,94,480642,0.0-30.0-4.0,"""event"",""trial"",""time""
""fullscreenenter"",""1"",""3526""
","
","
","""event"",""trial"",""time""
""fullscreenenter"",""1"",""3526""
","
",,null,run_exp/static/images/task_images/gems/111.jpg,null,,,,,,,57,,,3,,,,,111,0.515647276,0.513513514,,,,,,,
decision,95,482839,0.0-30.0-5.0,"""event"",""trial"",""time""
""fullscreenenter"",""1"",""3526""
","
","
","""event"",""trial"",""time""
""fullscreenenter"",""1"",""3526""
","
",,2195.1,run_exp/static/images/task_images/land.jpg,65,,,,,,,57,,,3,,,,,,,,63773,1,0,FALSE,,,
dig,96,483649,0.0-31.0-0.0,"""event"",""trial"",""time""
""fullscreenenter"",""1"",""3526""
","
","
","""event"",""trial"",""time""
""fullscreenenter"",""1"",""3526""
","
",,,,,,,,,,,,"[{""stimulus"":""run_exp/static/images/task_images/dig.jpg"",""time"":0.40000009536743164},{""stimulus"":""run_exp/static/images/task_images/land.jpg"",""time"":270.2000000476837},{""stimulus"":""run_exp/static/images/task_images/dig.jpg"",""time"":538.0999999046326}]",[],3,,,,,,,,,,,,,,
harvest,97,484650,0.0-31.0-1.0,"""event"",""trial"",""time""
""fullscreenenter"",""1"",""3526""
","
","
","""event"",""trial"",""time""
""fullscreenenter"",""1"",""3526""
","
",,null,run_exp/static/images/task_images/gems/57.jpg,null,,,,,,,30,,,3,,,,,57,0.529154127,0.526315789,,,,,,,
decision,98,487054,0.0-31.0-2.0,"""event"",""trial"",""time""
""fullscreenenter"",""1"",""3526""
","
","
","""event"",""trial"",""time""
""fullscreenenter"",""1"",""3526""
","
",,2402.6,run_exp/static/images/task_images/land.jpg,76,,,,,,,30,,,3,,,,,,,,67989,1,1,TRUE,,,
travel,99,494656,0.0-32.0-0.0,"""event"",""trial"",""time""
""fullscreenenter"",""1"",""3526""
","
","
","""event"",""trial"",""time""
""fullscreenenter"",""1"",""3526""
","
",,,,,,,,,,,,"[{""stimulus"":""run_exp/static/images/task_images/rocket-01.jpg"",""time"":0.40000009536743164},{""stimulus"":""run_exp/static/images/task_images/rocket-02.jpg"",""time"":846.2000000476837},{""stimulus"":""run_exp/static/images/task_images/rocket-03.jpg"",""time"":1690.2000000476837},{""stimulus"":""run_exp/static/images/task_images/rocket-04.jpg"",""time"":2533.7000000476837},{""stimulus"":""run_exp/static/images/task_images/rocket-05.jpg"",""time"":3377.4000000953674},{""stimulus"":""run_exp/static/images/task_images/rocket-06.jpg"",""time"":4221.700000047684},{""stimulus"":""run_exp/static/images/task_images/rocket-07.jpg"",""time"":5065.799999952316},{""stimulus"":""run_exp/static/images/task_images/rocket-08.jpg"",""time"":5910.900000095367},{""stimulus"":""run_exp/static/images/task_images/rocket-09.jpg"",""time"":6753.700000047684}]",[],3,,,,,,,,,,,,,,
alien_welcome,100,499659,0.0-32.0-1.0,"""event"",""trial"",""time""
""fullscreenenter"",""1"",""3526""
","
","
","""event"",""trial"",""time""
""fullscreenenter"",""1"",""3526""
","
",,null,run_exp/static/images/task_images/aliens/old_aliens/planet/alien_planet-35.jpg,null,,,,,,,,,,,,,35,"65,53,56,35,1,52,54,5,41,75,27,46,55,61,73,37,23,77,17,21,7,32,72,69,13,59,66,12,50,29,48,33,31,58,78,43,47,2,10,38,51",,,,,,,,,,
land,101,500161,0.0-32.0-2.0,"""event"",""trial"",""time""
""fullscreenenter"",""1"",""3526""
","
","
","""event"",""trial"",""time""
""fullscreenenter"",""1"",""3526""
","
",,null,run_exp/static/images/task_images/land.jpg,null,,,,,,,97,,,4,,,,,,,,,,,,,,
dig,102,502167,0.0-32.0-3.0,"""event"",""trial"",""time""
""fullscreenenter"",""1"",""3526""
","
","
","""event"",""trial"",""time""
""fullscreenenter"",""1"",""3526""
","
",,,,,,,,,,,,"[{""stimulus"":""run_exp/static/images/task_images/dig.jpg"",""time"":0.2999999523162842},{""stimulus"":""run_exp/static/images/task_images/land.jpg"",""time"":668.5999999046326},{""stimulus"":""run_exp/static/images/task_images/dig.jpg"",""time"":1335.7999999523163}]",[],4,,,,,,,,,,,,,,
harvest,103,503169,0.0-32.0-4.0,"""event"",""trial"",""time""
""fullscreenenter"",""1"",""3526""
","
","
","""event"",""trial"",""time""
""fullscreenenter"",""1"",""3526""
","
",,null,run_exp/static/images/task_images/gems/97.jpg,null,,,,,,,51,,,4,,,,,97,0.525731735,0.525773196,,,,,,,
decision,104,503399,0.0-32.0-5.0,"""event"",""trial"",""time""
""fullscreenenter"",""1"",""3526""
","
","
","""event"",""trial"",""time""
""fullscreenenter"",""1"",""3526""
","
",,228.9000001,run_exp/static/images/task_images/land.jpg,65,,,,,,,51,,,4,,,,,,,,84334,1,0,FALSE,,,
dig,105,506175,0.0-33.0-0.0,"""event"",""trial"",""time""
""fullscreenenter"",""1"",""3526""
","
","
","""event"",""trial"",""time""
""fullscreenenter"",""1"",""3526""
","
",,,,,,,,,,,,"[{""stimulus"":""run_exp/static/images/task_images/dig.jpg"",""time"":0.39999985694885254},{""stimulus"":""run_exp/static/images/task_images/land.jpg"",""time"":924.8999998569489},{""stimulus"":""run_exp/static/images/task_images/dig.jpg"",""time"":1847.5}]",[],4,,,,,,,,,,,,,,
harvest,106,507177,0.0-33.0-1.0,"""event"",""trial"",""time""
""fullscreenenter"",""1"",""3526""
","
","
","""event"",""trial"",""time""
""fullscreenenter"",""1"",""3526""
","
",,null,run_exp/static/images/task_images/gems/51.jpg,null,,,,,,,30,,,4,,,,,51,0.593449756,0.588235294,,,,,,,
decision,107,507800,0.0-33.0-2.0,"""event"",""trial"",""time""
""fullscreenenter"",""1"",""3526""
","
","
","""event"",""trial"",""time""
""fullscreenenter"",""1"",""3526""
","
",,620.7,run_exp/static/images/task_images/land.jpg,65,,,,,,,30,,,4,,,,,,,,88734,1,1,FALSE,,,
dig,108,510185,0.0-34.0-0.0,"""event"",""trial"",""time""
""fullscreenenter"",""1"",""3526""
","
","
","""event"",""trial"",""time""
""fullscreenenter"",""1"",""3526""
","
",,,,,,,,,,,,"[{""stimulus"":""run_exp/static/images/task_images/dig.jpg"",""time"":0.20000004768371582},{""stimulus"":""run_exp/static/images/task_images/land.jpg"",""time"":796.2000000476837},{""stimulus"":""run_exp/static/images/task_images/dig.jpg"",""time"":1587.2000000476837}]",[],4,,,,,,,,,,,,,,
harvest,109,511188,0.0-34.0-1.0,"""event"",""trial"",""time""
""fullscreenenter"",""1"",""3526""
","
","
","""event"",""trial"",""time""
""fullscreenenter"",""1"",""3526""
","
",,null,run_exp/static/images/task_images/gems/30.jpg,null,,,,,,,17,,,4,,,,,30,0.567253146,0.566666667,,,,,,,
decision,110,511532,0.0-34.0-2.0,"""event"",""trial"",""time""
""fullscreenenter"",""1"",""3526""
","
","
","""event"",""trial"",""time""
""fullscreenenter"",""1"",""3526""
","
",,342.5,run_exp/static/images/task_images/land.jpg,65,,,,,,,17,,,4,,,,,,,,92466,1,2,FALSE,,,
dig,111,514193,0.0-35.0-0.0,"""event"",""trial"",""time""
""fullscreenenter"",""1"",""3526""
","
","
","""event"",""trial"",""time""
""fullscreenenter"",""1"",""3526""
","
",,,,,,,,,,,,"[{""stimulus"":""run_exp/static/images/task_images/dig.jpg"",""time"":0.19999980926513672},{""stimulus"":""run_exp/static/images/task_images/land.jpg"",""time"":887},{""stimulus"":""run_exp/static/images/task_images/dig.jpg"",""time"":1771.6999998092651}]",[],4,,,,,,,,,,,,,,
harvest,112,515194,0.0-35.0-1.0,"""event"",""trial"",""time""
""fullscreenenter"",""1"",""3526""
","
","
","""event"",""trial"",""time""
""fullscreenenter"",""1"",""3526""
","
",,null,run_exp/static/images/task_images/gems/17.jpg,null,,,,,,,8,,,4,,,,,17,0.496143571,0.470588235,,,,,,,
decision,113,515708,0.0-35.0-2.0,"""event"",""trial"",""time""
""fullscreenenter"",""1"",""3526""
","
","
","""event"",""trial"",""time""
""fullscreenenter"",""1"",""3526""
","
",,511.5999999,run_exp/static/images/task_images/land.jpg,76,,,,,,,8,,,4,,,,,,,,96642,1,3,TRUE,,,
travel,114,525201,0.0-36.0-0.0,"""event"",""trial"",""time""
""fullscreenenter"",""1"",""3526""
","
","
","""event"",""trial"",""time""
""fullscreenenter"",""1"",""3526""
","
",,,,,,,,,,,,"[{""stimulus"":""run_exp/static/images/task_images/rocket-01.jpg"",""time"":0.39999985694885254},{""stimulus"":""run_exp/static/images/task_images/rocket-02.jpg"",""time"":1056},{""stimulus"":""run_exp/static/images/task_images/rocket-03.jpg"",""time"":2109.899999856949},{""stimulus"":""run_exp/static/images/task_images/rocket-04.jpg"",""time"":3163.2999999523163},{""stimulus"":""run_exp/static/images/task_images/rocket-05.jpg"",""time"":4218.299999952316},{""stimulus"":""run_exp/static/images/task_images/rocket-06.jpg"",""time"":5272.099999904633},{""stimulus"":""run_exp/static/images/task_images/rocket-07.jpg"",""time"":6325.399999856949},{""stimulus"":""run_exp/static/images/task_images/rocket-08.jpg"",""time"":7379.5},{""stimulus"":""run_exp/static/images/task_images/rocket-09.jpg"",""time"":8434.299999952316}]",[],4,,,,,,,,,,,,,,
alien_welcome,115,530204,0.0-36.0-1.0,"""event"",""trial"",""time""
""fullscreenenter"",""1"",""3526""
","
","
","""event"",""trial"",""time""
""fullscreenenter"",""1"",""3526""
","
",,null,run_exp/static/images/task_images/aliens/old_aliens/planet/alien_planet-1.jpg,null,,,,,,,,,,,,,1,"65,53,56,35,1,52,54,5,41,75,27,46,55,61,73,37,23,77,17,21,7,32,72,69,13,59,66,12,50,29,48,33,31,58,78,43,47,2,10,38,51",,,,,,,,,,
land,116,530706,0.0-36.0-2.0,"""event"",""trial"",""time""
""fullscreenenter"",""1"",""3526""
","
","
","""event"",""trial"",""time""
""fullscreenenter"",""1"",""3526""
","
",,null,run_exp/static/images/task_images/land.jpg,null,,,,,,,100,,,5,,,,,,,,,,,,,,
dig,117,532711,0.0-36.0-3.0,"""event"",""trial"",""time""
""fullscreenenter"",""1"",""3526""
","
","
","""event"",""trial"",""time""
""fullscreenenter"",""1"",""3526""
","
",,,,,,,,,,,,"[{""stimulus"":""run_exp/static/images/task_images/dig.jpg"",""time"":0.2999999523162842},{""stimulus"":""run_exp/static/images/task_images/land.jpg"",""time"":668.2000000476837},{""stimulus"":""run_exp/static/images/task_images/dig.jpg"",""time"":1336.2999999523163}]",[],5,,,,,,,,,,,,,,
harvest,118,533714,0.0-36.0-4.0,"""event"",""trial"",""time""
""fullscreenenter"",""1"",""3526""
","
","
","""event"",""trial"",""time""
""fullscreenenter"",""1"",""3526""
","
",,null,run_exp/static/images/task_images/gems/100.jpg,null,,,,,,,44,,,5,,,,,100,0.439756455,0.44,,,,,,,
decision,119,534208,0.0-36.0-5.0,"""event"",""trial"",""time""
""fullscreenenter"",""1"",""3526""
","
","
","""event"",""trial"",""time""
""fullscreenenter"",""1"",""3526""
","
",,492.8999999,run_exp/static/images/task_images/land.jpg,65,,,,,,,44,,,5,,,,,,,,115142,1,0,FALSE,,,
dig,120,536719,0.0-37.0-0.0,"""event"",""trial"",""time""
""fullscreenenter"",""1"",""3526""
","
","
","""event"",""trial"",""time""
""fullscreenenter"",""1"",""3526""
","
",,,,,,,,,,,,"[{""stimulus"":""run_exp/static/images/task_images/dig.jpg"",""time"":0.2999999523162842},{""stimulus"":""run_exp/static/images/task_images/land.jpg"",""time"":836.4000000953674},{""stimulus"":""run_exp/static/images/task_images/dig.jpg"",""time"":1672.2999999523163}]",[],5,,,,,,,,,,,,,,
harvest,121,537722,0.0-37.0-1.0,"""event"",""trial"",""time""
""fullscreenenter"",""1"",""3526""
","
","
","""event"",""trial"",""time""
""fullscreenenter"",""1"",""3526""
","
",,null,run_exp/static/images/task_images/gems/44.jpg,null,,,,,,,23,,,5,,,,,44,0.51453947,0.522727273,,,,,,,
decision,122,537890,0.0-37.0-2.0,"""event"",""trial"",""time""
""fullscreenenter"",""1"",""3526""
","
","
","""event"",""trial"",""time""
""fullscreenenter"",""1"",""3526""
","
",,166.4000001,run_exp/static/images/task_images/land.jpg,65,,,,,,,23,,,5,,,,,,,,118824,1,1,FALSE,,,
dig,123,540729,0.0-38.0-0.0,"""event"",""trial"",""time""
""fullscreenenter"",""1"",""3526""
","
","
","""event"",""trial"",""time""
""fullscreenenter"",""1"",""3526""
","
",,,,,,,,,,,,"[{""stimulus"":""run_exp/static/images/task_images/dig.jpg"",""time"":0.2999999523162842},{""stimulus"":""run_exp/static/images/task_images/land.jpg"",""time"":946.3999998569489},{""stimulus"":""run_exp/static/images/task_images/dig.jpg"",""time"":1891}]",[],5,,,,,,,,,,,,,,
harvest,124,541731,0.0-38.0-1.0,"""event"",""trial"",""time""
""fullscreenenter"",""1"",""3526""
","
","
","""event"",""trial"",""time""
""fullscreenenter"",""1"",""3526""
","
",,null,run_exp/static/images/task_images/gems/23.jpg,null,,,,,,,11,,,5,,,,,23,0.470248807,0.47826087,,,,,,,
decision,125,542076,0.0-38.0-2.0,"""event"",""trial"",""time""
""fullscreenenter"",""1"",""3526""
","
","
","""event"",""trial"",""time""
""fullscreenenter"",""1"",""3526""
","
",,343.6999998,run_exp/static/images/task_images/land.jpg,65,,,,,,,11,,,5,,,,,,,,123010,1,2,FALSE,,,
dig,126,544739,0.0-39.0-0.0,"""event"",""trial"",""time""
""fullscreenenter"",""1"",""3526""
","
","
","""event"",""trial"",""time""
""fullscreenenter"",""1"",""3526""
","
",,,,,,,,,,,,"[{""stimulus"":""run_exp/static/images/task_images/dig.jpg"",""time"":0.40000009536743164},{""stimulus"":""run_exp/static/images/task_images/land.jpg"",""time"":886.9000000953674},{""stimulus"":""run_exp/static/images/task_images/dig.jpg"",""time"":1771.2000000476837}]",[],5,,,,,,,,,,,,,,
harvest,127,545741,0.0-39.0-1.0,"""event"",""trial"",""time""
""fullscreenenter"",""1"",""3526""
","
","
","""event"",""trial"",""time""
""fullscreenenter"",""1"",""3526""
","
",,null,run_exp/static/images/task_images/gems/11.jpg,null,,,,,,,6,,,5,,,,,11,0.561276145,0.545454545,,,,,,,
decision,128,546273,0.0-39.0-2.0,"""event"",""trial"",""time""
""fullscreenenter"",""1"",""3526""
","
","
","""event"",""trial"",""time""
""fullscreenenter"",""1"",""3526""
","
",,529.3,run_exp/static/images/task_images/land.jpg,76,,,,,,,6,,,5,,,,,,,,127207,1,3,TRUE,,,
travel,129,555747,0.0-40.0-0.0,"""event"",""trial"",""time""
""fullscreenenter"",""1"",""3526""
","
","
","""event"",""trial"",""time""
""fullscreenenter"",""1"",""3526""
","
",,,,,,,,,,,,"[{""stimulus"":""run_exp/static/images/task_images/rocket-01.jpg"",""time"":0.2999999523162842},{""stimulus"":""run_exp/static/images/task_images/rocket-02.jpg"",""time"":1054},{""stimulus"":""run_exp/static/images/task_images/rocket-03.jpg"",""time"":2106.4000000953674},{""stimulus"":""run_exp/static/images/task_images/rocket-04.jpg"",""time"":3157.600000143051},{""stimulus"":""run_exp/static/images/task_images/rocket-05.jpg"",""time"":4210.200000047684},{""stimulus"":""run_exp/static/images/task_images/rocket-06.jpg"",""time"":5262.299999952316},{""stimulus"":""run_exp/static/images/task_images/rocket-07.jpg"",""time"":6313.600000143051},{""stimulus"":""run_exp/static/images/task_images/rocket-08.jpg"",""time"":7365.700000047684},{""stimulus"":""run_exp/static/images/task_images/rocket-09.jpg"",""time"":8418}]",[],5,,,,,,,,,,,,,,
alien_welcome,130,560749,0.0-40.0-1.0,"""event"",""trial"",""time""
""fullscreenenter"",""1"",""3526""
","
","
","""event"",""trial"",""time""
""fullscreenenter"",""1"",""3526""
","
",,null,run_exp/static/images/task_images/aliens/old_aliens/planet/alien_planet-52.jpg,null,,,,,,,,,,,,,52,"65,53,56,35,1,52,54,5,41,75,27,46,55,61,73,37,23,77,17,21,7,32,72,69,13,59,66,12,50,29,48,33,31,58,78,43,47,2,10,38,51",,,,,,,,,,
land,131,561251,0.0-40.0-2.0,"""event"",""trial"",""time""
""fullscreenenter"",""1"",""3526""
","
","
","""event"",""trial"",""time""
""fullscreenenter"",""1"",""3526""
","
",,null,run_exp/static/images/task_images/land.jpg,null,,,,,,,99,,,6,,,,,,,,,,,,,,
dig,132,563256,0.0-40.0-3.0,"""event"",""trial"",""time""
""fullscreenenter"",""1"",""3526""
","
","
","""event"",""trial"",""time""
""fullscreenenter"",""1"",""3526""
","
",,,,,,,,,,,,"[{""stimulus"":""run_exp/static/images/task_images/dig.jpg"",""time"":0.5},{""stimulus"":""run_exp/static/images/task_images/land.jpg"",""time"":669.7999999523163},{""stimulus"":""run_exp/static/images/task_images/dig.jpg"",""time"":1336.2000000476837}]",[],6,,,,,,,,,,,,,,
harvest,133,564259,0.0-40.0-4.0,"""event"",""trial"",""time""
""fullscreenenter"",""1"",""3526""
","
","
","""event"",""trial"",""time""
""fullscreenenter"",""1"",""3526""
","
",,null,run_exp/static/images/task_images/gems/99.jpg,null,,,,,,,77,,,6,,,,,99,0.779817737,0.777777778,,,,,,,
decision,134,564714,0.0-40.0-5.0,"""event"",""trial"",""time""
""fullscreenenter"",""1"",""3526""
","
","
","""event"",""trial"",""time""
""fullscreenenter"",""1"",""3526""
","
",,453.5,run_exp/static/images/task_images/land.jpg,65,,,,,,,77,,,6,,,,,,,,145648,1,0,FALSE,,,
dig,135,567265,0.0-41.0-0.0,"""event"",""trial"",""time""
""fullscreenenter"",""1"",""3526""
","
","
","""event"",""trial"",""time""
""fullscreenenter"",""1"",""3526""
","
",,,,,,,,,,,,"[{""stimulus"":""run_exp/static/images/task_images/dig.jpg"",""time"":0.39999985694885254},{""stimulus"":""run_exp/static/images/task_images/land.jpg"",""time"":849.5},{""stimulus"":""run_exp/static/images/task_images/dig.jpg"",""time"":1698.7999999523163}]",[],6,,,,,,,,,,,,,,
harvest,136,568267,0.0-41.0-1.0,"""event"",""trial"",""time""
""fullscreenenter"",""1"",""3526""
","
","
","""event"",""trial"",""time""
""fullscreenenter"",""1"",""3526""
","
",,null,run_exp/static/images/task_images/gems/77.jpg,null,,,,,,,63,,,6,,,,,77,0.811832268,0.818181818,,,,,,,
decision,137,568428,0.0-41.0-2.0,"""event"",""trial"",""time""
""fullscreenenter"",""1"",""3526""
","
","
","""event"",""trial"",""time""
""fullscreenenter"",""1"",""3526""
","
",,158.5999999,run_exp/static/images/task_images/land.jpg,65,,,,,,,63,,,6,,,,,,,,149362,1,1,FALSE,,,
dig,138,571275,0.0-42.0-0.0,"""event"",""trial"",""time""
""fullscreenenter"",""1"",""3526""
","
","
","""event"",""trial"",""time""
""fullscreenenter"",""1"",""3526""
","
",,,,,,,,,,,,"[{""stimulus"":""run_exp/static/images/task_images/dig.jpg"",""time"":0.19999980926513672},{""stimulus"":""run_exp/static/images/task_images/land.jpg"",""time"":948.7999999523163},{""stimulus"":""run_exp/static/images/task_images/dig.jpg"",""time"":1895.5}]",[],6,,,,,,,,,,,,,,
harvest,139,572277,0.0-42.0-1.0,"""event"",""trial"",""time""
""fullscreenenter"",""1"",""3526""
","
","
","""event"",""trial"",""time""
""fullscreenenter"",""1"",""3526""
","
",,null,run_exp/static/images/task_images/gems/63.jpg,null,,,,,,,56,,,6,,,,,63,0.885168624,0.888888889,,,,,,,
decision,140,572539,0.0-42.0-2.0,"""event"",""trial"",""time""
""fullscreenenter"",""1"",""3526""
","
","
","""event"",""trial"",""time""
""fullscreenenter"",""1"",""3526""
","
",,260.3999999,run_exp/static/images/task_images/land.jpg,65,,,,,,,56,,,6,,,,,,,,153474,1,2,FALSE,,,
dig,141,575286,0.0-43.0-0.0,"""event"",""trial"",""time""
""fullscreenenter"",""1"",""3526""
","
","
","""event"",""trial"",""time""
""fullscreenenter"",""1"",""3526""
","
",,,,,,,,,,,,"[{""stimulus"":""run_exp/static/images/task_images/dig.jpg"",""time"":0.2999999523162842},{""stimulus"":""run_exp/static/images/task_images/land.jpg"",""time"":914.3999998569489},{""stimulus"":""run_exp/static/images/task_images/dig.jpg"",""time"":1828.2999999523163}]",[],6,,,,,,,,,,,,,,
harvest,142,576288,0.0-43.0-1.0,"""event"",""trial"",""time""
""fullscreenenter"",""1"",""3526""
","
","
","""event"",""trial"",""time""
""fullscreenenter"",""1"",""3526""
","
",,null,run_exp/static/images/task_images/gems/56.jpg,null,,,,,,,39,,,6,,,,,56,0.702078479,0.696428571,,,,,,,
decision,143,576590,0.0-43.0-2.0,"""event"",""trial"",""time""
""fullscreenenter"",""1"",""3526""
","
","
","""event"",""trial"",""time""
""fullscreenenter"",""1"",""3526""
","
",,300.8,run_exp/static/images/task_images/land.jpg,65,,,,,,,39,,,6,,,,,,,,157524,1,3,FALSE,,,
dig,144,579294,0.0-44.0-0.0,"""event"",""trial"",""time""
""fullscreenenter"",""1"",""3526""
","
","
","""event"",""trial"",""time""
""fullscreenenter"",""1"",""3526""
","
",,,,,,,,,,,,"[{""stimulus"":""run_exp/static/images/task_images/dig.jpg"",""time"":0.3000001907348633},{""stimulus"":""run_exp/static/images/task_images/land.jpg"",""time"":901.3000001907349},{""stimulus"":""run_exp/static/images/task_images/dig.jpg"",""time"":1799.9000000953674}]",[],6,,,,,,,,,,,,,,
harvest,145,580297,0.0-44.0-1.0,"""event"",""trial"",""time""
""fullscreenenter"",""1"",""3526""
","
","
","""event"",""trial"",""time""
""fullscreenenter"",""1"",""3526""
","
",,null,run_exp/static/images/task_images/gems/39.jpg,null,,,,,,,33,,,6,,,,,39,0.840040623,0.846153846,,,,,,,
decision,146,580659,0.0-44.0-2.0,"""event"",""trial"",""time""
""fullscreenenter"",""1"",""3526""
","
","
","""event"",""trial"",""time""
""fullscreenenter"",""1"",""3526""
","
",,361.3,run_exp/static/images/task_images/land.jpg,65,,,,,,,33,,,6,,,,,,,,161594,1,4,FALSE,,,
dig,147,583304,0.0-45.0-0.0,"""event"",""trial"",""time""
""fullscreenenter"",""1"",""3526""
","
","
","""event"",""trial"",""time""
""fullscreenenter"",""1"",""3526""
","
",,,,,,,,,,,,"[{""stimulus"":""run_exp/static/images/task_images/dig.jpg"",""time"":0.2999999523162842},{""stimulus"":""run_exp/static/images/task_images/land.jpg"",""time"":881.7999999523163},{""stimulus"":""run_exp/static/images/task_images/dig.jpg"",""time"":1760.0999999046326}]",[],6,,,,,,,,,,,,,,
harvest,148,584307,0.0-45.0-1.0,"""event"",""trial"",""time""
""fullscreenenter"",""1"",""3526""
","
","
","""event"",""trial"",""time""
""fullscreenenter"",""1"",""3526""
","
",,null,run_exp/static/images/task_images/gems/33.jpg,null,,,,,,,27,,,6,,,,,33,0.811830344,0.818181818,,,,,,,
decision,149,585180,0.0-45.0-2.0,"""event"",""trial"",""time""
""fullscreenenter"",""1"",""3526""
","
","
","""event"",""trial"",""time""
""fullscreenenter"",""1"",""3526""
","
",,871.5999999,run_exp/static/images/task_images/land.jpg,76,,,,,,,27,,,6,,,,,,,,166114,1,5,TRUE,,,
travel,150,594312,0.0-46.0-0.0,"""event"",""trial"",""time""
""fullscreenenter"",""1"",""3526""
","
","
","""event"",""trial"",""time""
""fullscreenenter"",""1"",""3526""
","
",,,,,,,,,,,,"[{""stimulus"":""run_exp/static/images/task_images/rocket-01.jpg"",""time"":0.40000009536743164},{""stimulus"":""run_exp/static/images/task_images/rocket-02.jpg"",""time"":1015.6000001430511},{""stimulus"":""run_exp/static/images/task_images/rocket-03.jpg"",""time"":2029.6000001430511},{""stimulus"":""run_exp/static/images/task_images/rocket-04.jpg"",""time"":3044.4000000953674},{""stimulus"":""run_exp/static/images/task_images/rocket-05.jpg"",""time"":4057.4000000953674},{""stimulus"":""run_exp/static/images/task_images/rocket-06.jpg"",""time"":5072.300000190735},{""stimulus"":""run_exp/static/images/task_images/rocket-07.jpg"",""time"":6085.5},{""stimulus"":""run_exp/static/images/task_images/rocket-08.jpg"",""time"":7100.300000190735},{""stimulus"":""run_exp/static/images/task_images/rocket-09.jpg"",""time"":8113.800000190735}]",[],6,,,,,,,,,,,,,,
alien_welcome,151,599315,0.0-46.0-1.0,"""event"",""trial"",""time""
""fullscreenenter"",""1"",""3526""
","
","
","""event"",""trial"",""time""
""fullscreenenter"",""1"",""3526""
","
",,null,run_exp/static/images/task_images/aliens/old_aliens/planet/alien_planet-54.jpg,null,,,,,,,,,,,,,54,"65,53,56,35,1,52,54,5,41,75,27,46,55,61,73,37,23,77,17,21,7,32,72,69,13,59,66,12,50,29,48,33,31,58,78,43,47,2,10,38,51",,,,,,,,,,
land,152,599817,0.0-46.0-2.0,"""event"",""trial"",""time""
""fullscreenenter"",""1"",""3526""
","
","
","""event"",""trial"",""time""
""fullscreenenter"",""1"",""3526""
","
",,null,run_exp/static/images/task_images/land.jpg,null,,,,,,,108,,,7,,,,,,,,,,,,,,
dig,153,601823,0.0-46.0-3.0,"""event"",""trial"",""time""
""fullscreenenter"",""1"",""3526""
","
","
","""event"",""trial"",""time""
""fullscreenenter"",""1"",""3526""
","
",,,,,,,,,,,,"[{""stimulus"":""run_exp/static/images/task_images/dig.jpg"",""time"":0.39999985694885254},{""stimulus"":""run_exp/static/images/task_images/land.jpg"",""time"":668.3999998569489},{""stimulus"":""run_exp/static/images/task_images/dig.jpg"",""time"":1336.2000000476837}]",[],7,,,,,,,,,,,,,,
harvest,154,602825,0.0-46.0-4.0,"""event"",""trial"",""time""
""fullscreenenter"",""1"",""3526""
","
","
","""event"",""trial"",""time""
""fullscreenenter"",""1"",""3526""
","
",,null,run_exp/static/images/task_images/gems/108.jpg,null,,,,,,,93,,,7,,,,,108,0.863449812,0.861111111,,,,,,,
decision,155,603063,0.0-46.0-5.0,"""event"",""trial"",""time""
""fullscreenenter"",""1"",""3526""
","
","
","""event"",""trial"",""time""
""fullscreenenter"",""1"",""3526""
","
",,236.2,run_exp/static/images/task_images/land.jpg,65,,,,,,,93,,,7,,,,,,,,183997,1,0,FALSE,,,
dig,156,605835,0.0-47.0-0.0,"""event"",""trial"",""time""
""fullscreenenter"",""1"",""3526""
","
","
","""event"",""trial"",""time""
""fullscreenenter"",""1"",""3526""
","
",,,,,,,,,,,,"[{""stimulus"":""run_exp/static/images/task_images/dig.jpg"",""time"":0.2999999523162842},{""stimulus"":""run_exp/static/images/task_images/land.jpg"",""time"":922.3999998569489},{""stimulus"":""run_exp/static/images/task_images/dig.jpg"",""time"":1844}]",[],7,,,,,,,,,,,,,,
harvest,157,606837,0.0-47.0-1.0,"""event"",""trial"",""time""
""fullscreenenter"",""1"",""3526""
","
","
","""event"",""trial"",""time""
""fullscreenenter"",""1"",""3526""
","
",,null,run_exp/static/images/task_images/gems/93.jpg,null,,,,,,,68,,,7,,,,,93,0.735830932,0.731182796,,,,,,,
decision,158,607194,0.0-47.0-2.0,"""event"",""trial"",""time""
""fullscreenenter"",""1"",""3526""
","
","
","""event"",""trial"",""time""
""fullscreenenter"",""1"",""3526""
","
",,355.2,run_exp/static/images/task_images/land.jpg,65,,,,,,,68,,,7,,,,,,,,188128,1,1,FALSE,,,
dig,159,609843,0.0-48.0-0.0,"""event"",""trial"",""time""
""fullscreenenter"",""1"",""3526""
","
","
","""event"",""trial"",""time""
""fullscreenenter"",""1"",""3526""
","
",,,,,,,,,,,,"[{""stimulus"":""run_exp/static/images/task_images/dig.jpg"",""time"":0.20000004768371582},{""stimulus"":""run_exp/static/images/task_images/land.jpg"",""time"":883},{""stimulus"":""run_exp/static/images/task_images/dig.jpg"",""time"":1764.3000001907349}]",[],7,,,,,,,,,,,,,,
harvest,160,610845,0.0-48.0-1.0,"""event"",""trial"",""time""
""fullscreenenter"",""1"",""3526""
","
","
","""event"",""trial"",""time""
""fullscreenenter"",""1"",""3526""
","
",,null,run_exp/static/images/task_images/gems/68.jpg,null,,,,,,,53,,,7,,,,,68,0.784245573,0.779411765,,,,,,,
decision,161,611048,0.0-48.0-2.0,"""event"",""trial"",""time""
""fullscreenenter"",""1"",""3526""
","
","
","""event"",""trial"",""time""
""fullscreenenter"",""1"",""3526""
","
",,201.8,run_exp/static/images/task_images/land.jpg,65,,,,,,,53,,,7,,,,,,,,191983,1,2,FALSE,,,
dig,162,613852,0.0-49.0-0.0,"""event"",""trial"",""time""
""fullscreenenter"",""1"",""3526""
","
","
","""event"",""trial"",""time""
""fullscreenenter"",""1"",""3526""
","
",,,,,,,,,,,,"[{""stimulus"":""run_exp/static/images/task_images/dig.jpg"",""time"":0.5},{""stimulus"":""run_exp/static/images/task_images/land.jpg"",""time"":933.8999998569489},{""stimulus"":""run_exp/static/images/task_images/dig.jpg"",""time"":1866.7000000476837}]",[],7,,,,,,,,,,,,,,
harvest,163,614854,0.0-49.0-1.0,"""event"",""trial"",""time""
""fullscreenenter"",""1"",""3526""
","
","
","""event"",""trial"",""time""
""fullscreenenter"",""1"",""3526""
","
",,null,run_exp/static/images/task_images/gems/53.jpg,null,,,,,,,41,,,7,,,,,53,0.774330471,0.773584906,,,,,,,
decision,164,615311,0.0-49.0-2.0,"""event"",""trial"",""time""
""fullscreenenter"",""1"",""3526""
","
","
","""event"",""trial"",""time""
""fullscreenenter"",""1"",""3526""
","
",,454.8999999,run_exp/static/images/task_images/land.jpg,65,,,,,,,41,,,7,,,,,,,,196245,1,3,FALSE,,,
dig,165,617861,0.0-50.0-0.0,"""event"",""trial"",""time""
""fullscreenenter"",""1"",""3526""
","
","
","""event"",""trial"",""time""
""fullscreenenter"",""1"",""3526""
","
",,,,,,,,,,,,"[{""stimulus"":""run_exp/static/images/task_images/dig.jpg"",""time"":0.3000001907348633},{""stimulus"":""run_exp/static/images/task_images/land.jpg"",""time"":849.4000000953674},{""stimulus"":""run_exp/static/images/task_images/dig.jpg"",""time"":1698.4000000953674}]",[],7,,,,,,,,,,,,,,
harvest,166,618865,0.0-50.0-1.0,"""event"",""trial"",""time""
""fullscreenenter"",""1"",""3526""
","
","
","""event"",""trial"",""time""
""fullscreenenter"",""1"",""3526""
","
",,null,run_exp/static/images/task_images/gems/41.jpg,null,,,,,,,33,,,7,,,,,41,0.798568891,0.804878049,,,,,,,
decision,167,619690,0.0-50.0-2.0,"""event"",""trial"",""time""
""fullscreenenter"",""1"",""3526""
","
","
","""event"",""trial"",""time""
""fullscreenenter"",""1"",""3526""
","
",,823.0999999,run_exp/static/images/task_images/land.jpg,65,,,,,,,33,,,7,,,,,,,,200624,1,4,FALSE,,,
dig,168,621872,0.0-51.0-0.0,"""event"",""trial"",""time""
""fullscreenenter"",""1"",""3526""
","
","
","""event"",""trial"",""time""
""fullscreenenter"",""1"",""3526""
","
",,,,,,,,,,,,"[{""stimulus"":""run_exp/static/images/task_images/dig.jpg"",""time"":0.2999999523162842},{""stimulus"":""run_exp/static/images/task_images/land.jpg"",""time"":726.2000000476837},{""stimulus"":""run_exp/static/images/task_images/dig.jpg"",""time"":1452.7999999523163}]",[],7,,,,,,,,,,,,,,
harvest,169,622874,0.0-51.0-1.0,"""event"",""trial"",""time""
""fullscreenenter"",""1"",""3526""
","
","
","""event"",""trial"",""time""
""fullscreenenter"",""1"",""3526""
","
",,null,run_exp/static/images/task_images/gems/33.jpg,null,,,,,,,30,,,7,,,,,33,0.907845148,0.909090909,,,,,,,
decision,170,623167,0.0-51.0-2.0,"""event"",""trial"",""time""
""fullscreenenter"",""1"",""3526""
","
","
","""event"",""trial"",""time""
""fullscreenenter"",""1"",""3526""
","
",,291.5,run_exp/static/images/task_images/land.jpg,76,,,,,,,30,,,7,,,,,,,,204101,1,5,TRUE,,,
travel,171,632877,0.0-52.0-0.0,"""event"",""trial"",""time""
""fullscreenenter"",""1"",""3526""
","
","
","""event"",""trial"",""time""
""fullscreenenter"",""1"",""3526""
","
",,,,,,,,,,,,"[{""stimulus"":""run_exp/static/images/task_images/rocket-01.jpg"",""time"":0.40000009536743164},{""stimulus"":""run_exp/static/images/task_images/rocket-02.jpg"",""time"":1080},{""stimulus"":""run_exp/static/images/task_images/rocket-03.jpg"",""time"":2158.7000000476837},{""stimulus"":""run_exp/static/images/task_images/rocket-04.jpg"",""time"":3235.9000000953674},{""stimulus"":""run_exp/static/images/task_images/rocket-05.jpg"",""time"":4313.5},{""stimulus"":""run_exp/static/images/task_images/rocket-06.jpg"",""time"":5392},{""stimulus"":""run_exp/static/images/task_images/rocket-07.jpg"",""time"":6470.400000095367},{""stimulus"":""run_exp/static/images/task_images/rocket-08.jpg"",""time"":7547.900000095367},{""stimulus"":""run_exp/static/images/task_images/rocket-09.jpg"",""time"":8626}]",[],7,,,,,,,,,,,,,,
alien_welcome,172,637881,0.0-52.0-1.0,"""event"",""trial"",""time""
""fullscreenenter"",""1"",""3526""
","
","
","""event"",""trial"",""time""
""fullscreenenter"",""1"",""3526""
","
",,null,run_exp/static/images/task_images/aliens/old_aliens/planet/alien_planet-5.jpg,null,,,,,,,,,,,,,5,"65,53,56,35,1,52,54,5,41,75,27,46,55,61,73,37,23,77,17,21,7,32,72,69,13,59,66,12,50,29,48,33,31,58,78,43,47,2,10,38,51",,,,,,,,,,
land,173,638383,0.0-52.0-2.0,"""event"",""trial"",""time""
""fullscreenenter"",""1"",""3526""
","
","
","""event"",""trial"",""time""
""fullscreenenter"",""1"",""3526""
","
",,null,run_exp/static/images/task_images/land.jpg,null,,,,,,,91,,,8,,,,,,,,,,,,,,
dig,174,640388,0.0-52.0-3.0,"""event"",""trial"",""time""
""fullscreenenter"",""1"",""3526""
","
","
","""event"",""trial"",""time""
""fullscreenenter"",""1"",""3526""
","
",,,,,,,,,,,,"[{""stimulus"":""run_exp/static/images/task_images/dig.jpg"",""time"":0.40000009536743164},{""stimulus"":""run_exp/static/images/task_images/land.jpg"",""time"":668.5},{""stimulus"":""run_exp/static/images/task_images/dig.jpg"",""time"":1336}]",[],8,,,,,,,,,,,,,,
harvest,175,641390,0.0-52.0-4.0,"""event"",""trial"",""time""
""fullscreenenter"",""1"",""3526""
","
","
","""event"",""trial"",""time""
""fullscreenenter"",""1"",""3526""
","
",,null,run_exp/static/images/task_images/gems/91.jpg,null,,,,,,,78,,,8,,,,,91,0.853522356,0.857142857,,,,,,,
decision,176,641762,0.0-52.0-5.0,"""event"",""trial"",""time""
""fullscreenenter"",""1"",""3526""
","
","
","""event"",""trial"",""time""
""fullscreenenter"",""1"",""3526""
","
",,369.5,run_exp/static/images/task_images/land.jpg,65,,,,,,,78,,,8,,,,,,,,222696,1,0,FALSE,,,
dig,177,644398,0.0-53.0-0.0,"""event"",""trial"",""time""
""fullscreenenter"",""1"",""3526""
","
","
","""event"",""trial"",""time""
""fullscreenenter"",""1"",""3526""
","
",,,,,,,,,,,,"[{""stimulus"":""run_exp/static/images/task_images/dig.jpg"",""time"":0.40000009536743164},{""stimulus"":""run_exp/static/images/task_images/land.jpg"",""time"":877.5},{""stimulus"":""run_exp/static/images/task_images/dig.jpg"",""time"":1753.8000001907349}]",[],8,,,,,,,,,,,,,,
harvest,178,645400,0.0-53.0-1.0,"""event"",""trial"",""time""
""fullscreenenter"",""1"",""3526""
","
","
","""event"",""trial"",""time""
""fullscreenenter"",""1"",""3526""
","
",,null,run_exp/static/images/task_images/gems/78.jpg,null,,,,,,,62,,,8,,,,,78,0.797065197,0.794871795,,,,,,,
decision,179,646280,0.0-53.0-2.0,"""event"",""trial"",""time""
""fullscreenenter"",""1"",""3526""
","
","
","""event"",""trial"",""time""
""fullscreenenter"",""1"",""3526""
","
",,877.9000001,run_exp/static/images/task_images/land.jpg,65,,,,,,,62,,,8,,,,,,,,227214,1,1,FALSE,,,
dig,180,648408,0.0-54.0-0.0,"""event"",""trial"",""time""
""fullscreenenter"",""1"",""3526""
","
","
","""event"",""trial"",""time""
""fullscreenenter"",""1"",""3526""
","
",,,,,,,,,,,,"[{""stimulus"":""run_exp/static/images/task_images/dig.jpg"",""time"":0.20000004768371582},{""stimulus"":""run_exp/static/images/task_images/land.jpg"",""time"":709},{""stimulus"":""run_exp/static/images/task_images/dig.jpg"",""time"":1415.2999999523163}]",[],8,,,,,,,,,,,,,,
harvest,181,649411,0.0-54.0-1.0,"""event"",""trial"",""time""
""fullscreenenter"",""1"",""3526""
","
","
","""event"",""trial"",""time""
""fullscreenenter"",""1"",""3526""
","
",,null,run_exp/static/images/task_images/gems/62.jpg,null,,,,,,,53,,,8,,,,,62,0.851167254,0.85483871,,,,,,,
decision,182,649423,0.0-54.0-2.0,"""event"",""trial"",""time""
""fullscreenenter"",""1"",""3526""
","
","
","""event"",""trial"",""time""
""fullscreenenter"",""1"",""3526""
","
",,10.29999995,run_exp/static/images/task_images/land.jpg,65,,,,,,,53,,,8,,,,,,,,230357,1,2,FALSE,,,
dig,183,652418,0.0-55.0-0.0,"""event"",""trial"",""time""
""fullscreenenter"",""1"",""3526""
","
","
","""event"",""trial"",""time""
""fullscreenenter"",""1"",""3526""
","
",,,,,,,,,,,,"[{""stimulus"":""run_exp/static/images/task_images/dig.jpg"",""time"":0.2999999523162842},{""stimulus"":""run_exp/static/images/task_images/land.jpg"",""time"":997.7000000476837},{""stimulus"":""run_exp/static/images/task_images/dig.jpg"",""time"":1993.9000000953674}]",[],8,,,,,,,,,,,,,,
harvest,184,653421,0.0-55.0-1.0,"""event"",""trial"",""time""
""fullscreenenter"",""1"",""3526""
","
","
","""event"",""trial"",""time""
""fullscreenenter"",""1"",""3526""
","
",,null,run_exp/static/images/task_images/gems/53.jpg,null,,,,,,,40,,,8,,,,,53,0.75741367,0.754716981,,,,,,,
decision,185,653518,0.0-55.0-2.0,"""event"",""trial"",""time""
""fullscreenenter"",""1"",""3526""
","
","
","""event"",""trial"",""time""
""fullscreenenter"",""1"",""3526""
","
",,95.4000001,run_exp/static/images/task_images/land.jpg,65,,,,,,,40,,,8,,,,,,,,234452,1,3,FALSE,,,
dig,186,656429,0.0-56.0-0.0,"""event"",""trial"",""time""
""fullscreenenter"",""1"",""3526""
","
","
","""event"",""trial"",""time""
""fullscreenenter"",""1"",""3526""
","
",,,,,,,,,,,,"[{""stimulus"":""run_exp/static/images/task_images/dig.jpg"",""time"":0.2999999523162842},{""stimulus"":""run_exp/static/images/task_images/land.jpg"",""time"":969.0999999046326},{""stimulus"":""run_exp/static/images/task_images/dig.jpg"",""time"":1937.6999998092651}]",[],8,,,,,,,,,,,,,,
harvest,187,657430,0.0-56.0-1.0,"""event"",""trial"",""time""
""fullscreenenter"",""1"",""3526""
","
","
","""event"",""trial"",""time""
""fullscreenenter"",""1"",""3526""
","
",,null,run_exp/static/images/task_images/gems/40.jpg,null,,,,,,,30,,,8,,,,,40,0.750815169,0.75,,,,,,,
decision,188,657704,0.0-56.0-2.0,"""event"",""trial"",""time""
""fullscreenenter"",""1"",""3526""
","
","
","""event"",""trial"",""time""
""fullscreenenter"",""1"",""3526""
","
",,272.0999999,run_exp/static/images/task_images/land.jpg,65,,,,,,,30,,,8,,,,,,,,238638,1,4,FALSE,,,
dig,189,660437,0.0-57.0-0.0,"""event"",""trial"",""time""
""fullscreenenter"",""1"",""3526""
","
","
","""event"",""trial"",""time""
""fullscreenenter"",""1"",""3526""
","
",,,,,,,,,,,,"[{""stimulus"":""run_exp/static/images/task_images/dig.jpg"",""time"":0.40000009536743164},{""stimulus"":""run_exp/static/images/task_images/land.jpg"",""time"":910.7000000476837},{""stimulus"":""run_exp/static/images/task_images/dig.jpg"",""time"":1820.6000001430511}]",[],8,,,,,,,,,,,,,,
harvest,190,661439,0.0-57.0-1.0,"""event"",""trial"",""time""
""fullscreenenter"",""1"",""3526""
","
","
","""event"",""trial"",""time""
""fullscreenenter"",""1"",""3526""
","
",,null,run_exp/static/images/task_images/gems/30.jpg,null,,,,,,,26,,,8,,,,,30,0.85344943,0.866666667,,,,,,,
decision,191,661831,0.0-57.0-2.0,"""event"",""trial"",""time""
""fullscreenenter"",""1"",""3526""
","
","
","""event"",""trial"",""time""
""fullscreenenter"",""1"",""3526""
","
",,390.3,run_exp/static/images/task_images/land.jpg,76,,,,,,,26,,,8,,,,,,,,242765,1,5,TRUE,,,
travel,192,671443,0.0-58.0-0.0,"""event"",""trial"",""time""
""fullscreenenter"",""1"",""3526""
","
","
","""event"",""trial"",""time""
""fullscreenenter"",""1"",""3526""
","
",,,,,,,,,,,,"[{""stimulus"":""run_exp/static/images/task_images/rocket-01.jpg"",""time"":0.5},{""stimulus"":""run_exp/static/images/task_images/rocket-02.jpg"",""time"":1070.7999999523163},{""stimulus"":""run_exp/static/images/task_images/rocket-03.jpg"",""time"":2135.5},{""stimulus"":""run_exp/static/images/task_images/rocket-04.jpg"",""time"":3203},{""stimulus"":""run_exp/static/images/task_images/rocket-05.jpg"",""time"":4269.700000047684},{""stimulus"":""run_exp/static/images/task_images/rocket-06.jpg"",""time"":5336.899999856949},{""stimulus"":""run_exp/static/images/task_images/rocket-07.jpg"",""time"":6404.299999952316},{""stimulus"":""run_exp/static/images/task_images/rocket-08.jpg"",""time"":7471},{""stimulus"":""run_exp/static/images/task_images/rocket-09.jpg"",""time"":8538.899999856949}]",[],8,,,,,,,,,,,,,,
alien_welcome,193,676446,0.0-58.0-1.0,"""event"",""trial"",""time""
""fullscreenenter"",""1"",""3526""
","
","
","""event"",""trial"",""time""
""fullscreenenter"",""1"",""3526""
","
",,null,run_exp/static/images/task_images/aliens/old_aliens/planet/alien_planet-41.jpg,null,,,,,,,,,,,,,41,"65,53,56,35,1,52,54,5,41,75,27,46,55,61,73,37,23,77,17,21,7,32,72,69,13,59,66,12,50,29,48,33,31,58,78,43,47,2,10,38,51",,,,,,,,,,
land,194,676949,0.0-58.0-2.0,"""event"",""trial"",""time""
""fullscreenenter"",""1"",""3526""
","
","
","""event"",""trial"",""time""
""fullscreenenter"",""1"",""3526""
","
",,null,run_exp/static/images/task_images/land.jpg,null,,,,,,,98,,,9,,,,,,,,,,,,,,
dig,195,678954,0.0-58.0-3.0,"""event"",""trial"",""time""
""fullscreenenter"",""1"",""3526""
","
","
","""event"",""trial"",""time""
""fullscreenenter"",""1"",""3526""
","
",,,,,,,,,,,,"[{""stimulus"":""run_exp/static/images/task_images/dig.jpg"",""time"":0.2999999523162842},{""stimulus"":""run_exp/static/images/task_images/land.jpg"",""time"":668.5},{""stimulus"":""run_exp/static/images/task_images/dig.jpg"",""time"":1336.4000000953674}]",[],9,,,,,,,,,,,,,,
harvest,196,679956,0.0-58.0-4.0,"""event"",""trial"",""time""
""fullscreenenter"",""1"",""3526""
","
","
","""event"",""trial"",""time""
""fullscreenenter"",""1"",""3526""
","
",,null,run_exp/static/images/task_images/gems/98.jpg,null,,,,,,,24,,,9,,,,,98,0.246946491,0.244897959,,,,,,,
decision,197,680318,0.0-58.0-5.0,"""event"",""trial"",""time""
""fullscreenenter"",""1"",""3526""
","
","
","""event"",""trial"",""time""
""fullscreenenter"",""1"",""3526""
","
",,360.3999999,run_exp/static/images/task_images/land.jpg,65,,,,,,,24,,,9,,,,,,,,261252,1,0,FALSE,,,
dig,198,682962,0.0-59.0-0.0,"""event"",""trial"",""time""
""fullscreenenter"",""1"",""3526""
","
","
","""event"",""trial"",""time""
""fullscreenenter"",""1"",""3526""
","
",,,,,,,,,,,,"[{""stimulus"":""run_exp/static/images/task_images/dig.jpg"",""time"":0.20000004768371582},{""stimulus"":""run_exp/static/images/task_images/land.jpg"",""time"":880.7999999523163},{""stimulus"":""run_exp/static/images/task_images/dig.jpg"",""time"":1759.4000000953674}]",[],9,,,,,,,,,,,,,,
harvest,199,683964,0.0-59.0-1.0,"""event"",""trial"",""time""
""fullscreenenter"",""1"",""3526""
","
","
","""event"",""trial"",""time""
""fullscreenenter"",""1"",""3526""
","
",,null,run_exp/static/images/task_images/gems/24.jpg,null,,,,,,,5,,,9,,,,,24,0.226111308,0.208333333,,,,,,,
decision,200,683969,0.0-59.0-2.0,"""event"",""trial"",""time""
""fullscreenenter"",""1"",""3526""
","
","
","""event"",""trial"",""time""
""fullscreenenter"",""1"",""3526""
","
",,3.200000048,run_exp/static/images/task_images/land.jpg,65,,,,,,,5,,,9,,,,,,,,264903,1,1,FALSE,,,
dig,201,686970,0.0-60.0-0.0,"""event"",""trial"",""time""
""fullscreenenter"",""1"",""3526""
","
","
","""event"",""trial"",""time""
""fullscreenenter"",""1"",""3526""
","
",,,,,,,,,,,,"[{""stimulus"":""run_exp/static/images/task_images/dig.jpg"",""time"":0.40000009536743164},{""stimulus"":""run_exp/static/images/task_images/land.jpg"",""time"":1000},{""stimulus"":""run_exp/static/images/task_images/dig.jpg"",""time"":1997.9000000953674}]",[],9,,,,,,,,,,,,,,
harvest,202,687972,0.0-60.0-1.0,"""event"",""trial"",""time""
""fullscreenenter"",""1"",""3526""
","
","
","""event"",""trial"",""time""
""fullscreenenter"",""1"",""3526""
","
",,null,run_exp/static/images/task_images/gems/5.jpg,null,,,,,,,1,,,9,,,,,5,0.162760982,0.2,,,,,,,
decision,203,688650,0.0-60.0-2.0,"""event"",""trial"",""time""
""fullscreenenter"",""1"",""3526""
","
","
","""event"",""trial"",""time""
""fullscreenenter"",""1"",""3526""
","
",,676.1999998,run_exp/static/images/task_images/land.jpg,76,,,,,,,1,,,9,,,,,,,,269584,1,2,TRUE,,,
travel,204,697974,0.0-61.0-0.0,"""event"",""trial"",""time""
""fullscreenenter"",""1"",""3526""
","
","
","""event"",""trial"",""time""
""fullscreenenter"",""1"",""3526""
","
",,,,,,,,,,,,"[{""stimulus"":""run_exp/static/images/task_images/rocket-01.jpg"",""time"":0.20000004768371582},{""stimulus"":""run_exp/static/images/task_images/rocket-02.jpg"",""time"":1036},{""stimulus"":""run_exp/static/images/task_images/rocket-03.jpg"",""time"":2071.7000000476837},{""stimulus"":""run_exp/static/images/task_images/rocket-04.jpg"",""time"":3107},{""stimulus"":""run_exp/static/images/task_images/rocket-05.jpg"",""time"":4141.400000095367},{""stimulus"":""run_exp/static/images/task_images/rocket-06.jpg"",""time"":5177.400000095367},{""stimulus"":""run_exp/static/images/task_images/rocket-07.jpg"",""time"":6211.400000095367},{""stimulus"":""run_exp/static/images/task_images/rocket-08.jpg"",""time"":7247.200000047684},{""stimulus"":""run_exp/static/images/task_images/rocket-09.jpg"",""time"":8281.600000143051}]",[],9,,,,,,,,,,,,,,
alien_welcome,205,702977,0.0-61.0-1.0,"""event"",""trial"",""time""
""fullscreenenter"",""1"",""3526""
","
","
","""event"",""trial"",""time""
""fullscreenenter"",""1"",""3526""
","
",,null,run_exp/static/images/task_images/aliens/old_aliens/planet/alien_planet-75.jpg,null,,,,,,,,,,,,,75,"65,53,56,35,1,52,54,5,41,75,27,46,55,61,73,37,23,77,17,21,7,32,72,69,13,59,66,12,50,29,48,33,31,58,78,43,47,2,10,38,51",,,,,,,,,,
land,206,703480,0.0-61.0-2.0,"""event"",""trial"",""time""
""fullscreenenter"",""1"",""3526""
","
","
","""event"",""trial"",""time""
""fullscreenenter"",""1"",""3526""
","
",,null,run_exp/static/images/task_images/land.jpg,null,,,,,,,95,,,10,,,,,,,,,,,,,,
dig,207,705485,0.0-61.0-3.0,"""event"",""trial"",""time""
""fullscreenenter"",""1"",""3526""
","
","
","""event"",""trial"",""time""
""fullscreenenter"",""1"",""3526""
","
",,,,,,,,,,,,"[{""stimulus"":""run_exp/static/images/task_images/dig.jpg"",""time"":0.40000009536743164},{""stimulus"":""run_exp/static/images/task_images/land.jpg"",""time"":669.2000000476837},{""stimulus"":""run_exp/static/images/task_images/dig.jpg"",""time"":1336.2000000476837}]",[],10,,,,,,,,,,,,,,
harvest,208,706487,0.0-61.0-4.0,"""event"",""trial"",""time""
""fullscreenenter"",""1"",""3526""
","
","
","""event"",""trial"",""time""
""fullscreenenter"",""1"",""3526""
","
",,null,run_exp/static/images/task_images/gems/95.jpg,null,,,,,,,17,,,10,,,,,95,0.180767887,0.178947368,,,,,,,
decision,209,706747,0.0-61.0-5.0,"""event"",""trial"",""time""
""fullscreenenter"",""1"",""3526""
","
","
","""event"",""trial"",""time""
""fullscreenenter"",""1"",""3526""
","
",,258.3,run_exp/static/images/task_images/land.jpg,65,,,,,,,17,,,10,,,,,,,,287681,1,0,FALSE,,,
dig,210,709492,0.0-62.0-0.0,"""event"",""trial"",""time""
""fullscreenenter"",""1"",""3526""
","
","
","""event"",""trial"",""time""
""fullscreenenter"",""1"",""3526""
","
",,,,,,,,,,,,"[{""stimulus"":""run_exp/static/images/task_images/dig.jpg"",""time"":0.3000001907348633},{""stimulus"":""run_exp/static/images/task_images/land.jpg"",""time"":914.9000000953674},{""stimulus"":""run_exp/static/images/task_images/dig.jpg"",""time"":1828.1000001430511}]",[],10,,,,,,,,,,,,,,
harvest,211,710495,0.0-62.0-1.0,"""event"",""trial"",""time""
""fullscreenenter"",""1"",""3526""
","
","
","""event"",""trial"",""time""
""fullscreenenter"",""1"",""3526""
","
",,null,run_exp/static/images/task_images/gems/17.jpg,null,,,,,,,2,,,10,,,,,17,0.13721891,0.117647059,,,,,,,
decision,212,711116,0.0-62.0-2.0,"""event"",""trial"",""time""
""fullscreenenter"",""1"",""3526""
","
","
","""event"",""trial"",""time""
""fullscreenenter"",""1"",""3526""
","
",,619.7,run_exp/static/images/task_images/land.jpg,76,,,,,,,2,,,10,,,,,,,,292050,1,1,TRUE,,,
travel,213,720501,0.0-63.0-0.0,"""event"",""trial"",""time""
""fullscreenenter"",""1"",""3526""
","
","
","""event"",""trial"",""time""
""fullscreenenter"",""1"",""3526""
","
",,,,,,,,,,,,"[{""stimulus"":""run_exp/static/images/task_images/rocket-01.jpg"",""time"":0.20000004768371582},{""stimulus"":""run_exp/static/images/task_images/rocket-02.jpg"",""time"":1044.9000000953674},{""stimulus"":""run_exp/static/images/task_images/rocket-03.jpg"",""time"":2085.600000143051},{""stimulus"":""run_exp/static/images/task_images/rocket-04.jpg"",""time"":3127.9000000953674},{""stimulus"":""run_exp/static/images/task_images/rocket-05.jpg"",""time"":4170.100000143051},{""stimulus"":""run_exp/static/images/task_images/rocket-06.jpg"",""time"":5211.200000047684},{""stimulus"":""run_exp/static/images/task_images/rocket-07.jpg"",""time"":6253.600000143051},{""stimulus"":""run_exp/static/images/task_images/rocket-08.jpg"",""time"":7295.400000095367},{""stimulus"":""run_exp/static/images/task_images/rocket-09.jpg"",""time"":8337.900000095367}]",[],10,,,,,,,,,,,,,,
alien_welcome,214,725504,0.0-63.0-1.0,"""event"",""trial"",""time""
""fullscreenenter"",""1"",""3526""
","
","
","""event"",""trial"",""time""
""fullscreenenter"",""1"",""3526""
","
",,null,run_exp/static/images/task_images/aliens/old_aliens/planet/alien_planet-27.jpg,null,,,,,,,,,,,,,27,"65,53,56,35,1,52,54,5,41,75,27,46,55,61,73,37,23,77,17,21,7,32,72,69,13,59,66,12,50,29,48,33,31,58,78,43,47,2,10,38,51",,,,,,,,,,
land,215,726007,0.0-63.0-2.0,"""event"",""trial"",""time""
""fullscreenenter"",""1"",""3526""
","
","
","""event"",""trial"",""time""
""fullscreenenter"",""1"",""3526""
","
",,null,run_exp/static/images/task_images/land.jpg,null,,,,,,,93,,,11,,,,,,,,,,,,,,
dig,216,728011,0.0-63.0-3.0,"""event"",""trial"",""time""
""fullscreenenter"",""1"",""3526""
","
","
","""event"",""trial"",""time""
""fullscreenenter"",""1"",""3526""
","
",,,,,,,,,,,,"[{""stimulus"":""run_exp/static/images/task_images/dig.jpg"",""time"":0.3000001907348633},{""stimulus"":""run_exp/static/images/task_images/land.jpg"",""time"":668.4000000953674},{""stimulus"":""run_exp/static/images/task_images/dig.jpg"",""time"":1335.5}]",[],11,,,,,,,,,,,,,,
harvest,217,729013,0.0-63.0-4.0,"""event"",""trial"",""time""
""fullscreenenter"",""1"",""3526""
","
","
","""event"",""trial"",""time""
""fullscreenenter"",""1"",""3526""
","
",,null,run_exp/static/images/task_images/gems/93.jpg,null,,,,,,,21,,,11,,,,,93,0.220458244,0.225806452,,,,,,,
decision,218,729498,0.0-63.0-5.0,"""event"",""trial"",""time""
""fullscreenenter"",""1"",""3526""
","
","
","""event"",""trial"",""time""
""fullscreenenter"",""1"",""3526""
","
",,482.8999999,run_exp/static/images/task_images/land.jpg,65,,,,,,,21,,,11,,,,,,,,310432,1,0,TRUE,,,
end_of_block_continue,219,738407,0.0-64.0-0.0,"""event"",""trial"",""time""
""fullscreenenter"",""1"",""3526""
","
","
","""event"",""trial"",""time""
""fullscreenenter"",""1"",""3526""
","
",,null,run_exp/static/audio/clip_32_block_end.m4a,,,,,,,null,,,,,,,,,,,,,,,,,,
alien_welcome,220,743417,0.0-65.0-0.0,"""event"",""trial"",""time""
""fullscreenenter"",""1"",""3526""
","
","
","""event"",""trial"",""time""
""fullscreenenter"",""1"",""3526""
","
",,null,run_exp/static/images/task_images/aliens/old_aliens/planet/alien_planet-46.jpg,null,,,,,,,,,,,,,46,"65,53,56,35,1,52,54,5,41,75,27,46,55,61,73,37,23,77,17,21,7,32,72,69,13,59,66,12,50,29,48,33,31,58,78,43,47,2,10,38,51",,,,,,,,,,
land,221,743918,0.0-65.0-1.0,"""event"",""trial"",""time""
""fullscreenenter"",""1"",""3526""
","
","
","""event"",""trial"",""time""
""fullscreenenter"",""1"",""3526""
","
",,null,run_exp/static/images/task_images/land.jpg,null,,,,,,,94,,,12,,,,,,,,,,,,,,
dig,222,745923,0.0-65.0-2.0,"""event"",""trial"",""time""
""fullscreenenter"",""1"",""3526""
","
","
","""event"",""trial"",""time""
""fullscreenenter"",""1"",""3526""
","
",,,,,,,,,,,,"[{""stimulus"":""run_exp/static/images/task_images/dig.jpg"",""time"":0.2999999523162842},{""stimulus"":""run_exp/static/images/task_images/land.jpg"",""time"":669.0999999046326},{""stimulus"":""run_exp/static/images/task_images/dig.jpg"",""time"":1336.4000000953674}]",[],12,,,,,,,,,,,,,,
harvest,223,746925,0.0-65.0-3.0,"""event"",""trial"",""time""
""fullscreenenter"",""1"",""3526""
","
","
","""event"",""trial"",""time""
""fullscreenenter"",""1"",""3526""
","
",,null,run_exp/static/images/task_images/gems/94.jpg,null,,,,,,,17,,,12,,,,,94,0.177528782,0.180851064,,,,,,,
decision,224,747374,0.0-65.0-4.0,"""event"",""trial"",""time""
""fullscreenenter"",""1"",""3526""
","
","
","""event"",""trial"",""time""
""fullscreenenter"",""1"",""3526""
","
",,447,run_exp/static/images/task_images/land.jpg,65,,,,,,,17,,,12,,,,,,,,8960,2,0,FALSE,,,
dig,225,749935,0.0-66.0-0.0,"""event"",""trial"",""time""
""fullscreenenter"",""1"",""3526""
","
","
","""event"",""trial"",""time""
""fullscreenenter"",""1"",""3526""
","
",,,,,,,,,,,,"[{""stimulus"":""run_exp/static/images/task_images/dig.jpg"",""time"":0.20000004768371582},{""stimulus"":""run_exp/static/images/task_images/land.jpg"",""time"":852.2999999523163},{""stimulus"":""run_exp/static/images/task_images/dig.jpg"",""time"":1703.5}]",[],12,,,,,,,,,,,,,,
harvest,226,750937,0.0-66.0-1.0,"""event"",""trial"",""time""
""fullscreenenter"",""1"",""3526""
","
","
","""event"",""trial"",""time""
""fullscreenenter"",""1"",""3526""
","
",,null,run_exp/static/images/task_images/gems/17.jpg,null,,,,,,,2,,,12,,,,,17,0.109961205,0.117647059,,,,,,,
decision,227,751067,0.0-66.0-2.0,"""event"",""trial"",""time""
""fullscreenenter"",""1"",""3526""
","
","
","""event"",""trial"",""time""
""fullscreenenter"",""1"",""3526""
","
",,129,run_exp/static/images/task_images/land.jpg,76,,,,,,,2,,,12,,,,,,,,12653,2,1,TRUE,,,
travel,228,760937,0.0-67.0-0.0,"""event"",""trial"",""time""
""fullscreenenter"",""1"",""3526""
","
","
","""event"",""trial"",""time""
""fullscreenenter"",""1"",""3526""
","
",,,,,,,,,,,,"[{""stimulus"":""run_exp/static/images/task_images/rocket-01.jpg"",""time"":0.20000004768371582},{""stimulus"":""run_exp/static/images/task_images/rocket-02.jpg"",""time"":1098.5},{""stimulus"":""run_exp/static/images/task_images/rocket-03.jpg"",""time"":2193.5},{""stimulus"":""run_exp/static/images/task_images/rocket-04.jpg"",""time"":3289.899999856949},{""stimulus"":""run_exp/static/images/task_images/rocket-05.jpg"",""time"":4386.5},{""stimulus"":""run_exp/static/images/task_images/rocket-06.jpg"",""time"":5482.700000047684},{""stimulus"":""run_exp/static/images/task_images/rocket-07.jpg"",""time"":6577.599999904633},{""stimulus"":""run_exp/static/images/task_images/rocket-08.jpg"",""time"":7673.599999904633},{""stimulus"":""run_exp/static/images/task_images/rocket-09.jpg"",""time"":8770.200000047684}]",[],12,,,,,,,,,,,,,,
alien_welcome,229,765941,0.0-67.0-1.0,"""event"",""trial"",""time""
""fullscreenenter"",""1"",""3526""
","
","
","""event"",""trial"",""time""
""fullscreenenter"",""1"",""3526""
","
",,null,run_exp/static/images/task_images/aliens/old_aliens/planet/alien_planet-55.jpg,null,,,,,,,,,,,,,55,"65,53,56,35,1,52,54,5,41,75,27,46,55,61,73,37,23,77,17,21,7,32,72,69,13,59,66,12,50,29,48,33,31,58,78,43,47,2,10,38,51",,,,,,,,,,
land,230,766443,0.0-67.0-2.0,"""event"",""trial"",""time""
""fullscreenenter"",""1"",""3526""
","
","
","""event"",""trial"",""time""
""fullscreenenter"",""1"",""3526""
","
",,null,run_exp/static/images/task_images/land.jpg,null,,,,,,,94,,,13,,,,,,,,,,,,,,
dig,231,768448,0.0-67.0-3.0,"""event"",""trial"",""time""
""fullscreenenter"",""1"",""3526""
","
","
","""event"",""trial"",""time""
""fullscreenenter"",""1"",""3526""
","
",,,,,,,,,,,,"[{""stimulus"":""run_exp/static/images/task_images/dig.jpg"",""time"":0.39999985694885254},{""stimulus"":""run_exp/static/images/task_images/land.jpg"",""time"":669.2999999523163},{""stimulus"":""run_exp/static/images/task_images/dig.jpg"",""time"":1336.7999999523163}]",[],13,,,,,,,,,,,,,,
harvest,232,769450,0.0-67.0-4.0,"""event"",""trial"",""time""
""fullscreenenter"",""1"",""3526""
","
","
","""event"",""trial"",""time""
""fullscreenenter"",""1"",""3526""
","
",,null,run_exp/static/images/task_images/gems/94.jpg,null,,,,,,,17,,,13,,,,,94,0.18390024,0.180851064,,,,,,,
decision,233,769604,0.0-67.0-5.0,"""event"",""trial"",""time""
""fullscreenenter"",""1"",""3526""
","
","
","""event"",""trial"",""time""
""fullscreenenter"",""1"",""3526""
","
",,151.5999999,run_exp/static/images/task_images/land.jpg,65,,,,,,,17,,,13,,,,,,,,31190,2,0,FALSE,,,
dig,234,772457,0.0-68.0-0.0,"""event"",""trial"",""time""
""fullscreenenter"",""1"",""3526""
","
","
","""event"",""trial"",""time""
""fullscreenenter"",""1"",""3526""
","
",,,,,,,,,,,,"[{""stimulus"":""run_exp/static/images/task_images/dig.jpg"",""time"":0.2999999523162842},{""stimulus"":""run_exp/static/images/task_images/land.jpg"",""time"":951},{""stimulus"":""run_exp/static/images/task_images/dig.jpg"",""time"":1899.7000000476837}]",[],13,,,,,,,,,,,,,,
harvest,235,773459,0.0-68.0-1.0,"""event"",""trial"",""time""
""fullscreenenter"",""1"",""3526""
","
","
","""event"",""trial"",""time""
""fullscreenenter"",""1"",""3526""
","
",,null,run_exp/static/images/task_images/gems/17.jpg,null,,,,,,,3,,,13,,,,,17,0.174394628,0.176470588,,,,,,,
decision,236,773625,0.0-68.0-2.0,"""event"",""trial"",""time""
""fullscreenenter"",""1"",""3526""
","
","
","""event"",""trial"",""time""
""fullscreenenter"",""1"",""3526""
","
",,164.2,run_exp/static/images/task_images/land.jpg,76,,,,,,,3,,,13,,,,,,,,35211,2,1,TRUE,,,
travel,237,783462,0.0-69.0-0.0,"""event"",""trial"",""time""
""fullscreenenter"",""1"",""3526""
","
","
","""event"",""trial"",""time""
""fullscreenenter"",""1"",""3526""
","
",,,,,,,,,,,,"[{""stimulus"":""run_exp/static/images/task_images/rocket-01.jpg"",""time"":0.2999999523162842},{""stimulus"":""run_exp/static/images/task_images/rocket-02.jpg"",""time"":1094.0999999046326},{""stimulus"":""run_exp/static/images/task_images/rocket-03.jpg"",""time"":2185.5999999046326},{""stimulus"":""run_exp/static/images/task_images/rocket-04.jpg"",""time"":3277.2999999523163},{""stimulus"":""run_exp/static/images/task_images/rocket-05.jpg"",""time"":4370},{""stimulus"":""run_exp/static/images/task_images/rocket-06.jpg"",""time"":5462.5},{""stimulus"":""run_exp/static/images/task_images/rocket-07.jpg"",""time"":6553.799999952316},{""stimulus"":""run_exp/static/images/task_images/rocket-08.jpg"",""time"":7646.599999904633},{""stimulus"":""run_exp/static/images/task_images/rocket-09.jpg"",""time"":8737.799999952316}]",[],13,,,,,,,,,,,,,,
alien_welcome,238,788465,0.0-69.0-1.0,"""event"",""trial"",""time""
""fullscreenenter"",""1"",""3526""
","
","
","""event"",""trial"",""time""
""fullscreenenter"",""1"",""3526""
","
",,null,run_exp/static/images/task_images/aliens/old_aliens/planet/alien_planet-61.jpg,null,,,,,,,,,,,,,61,"65,53,56,35,1,52,54,5,41,75,27,46,55,61,73,37,23,77,17,21,7,32,72,69,13,59,66,12,50,29,48,33,31,58,78,43,47,2,10,38,51",,,,,,,,,,
