trial_type,trial_index,time_elapsed,internal_node_id,interactions,blur_events,focus_events,fullscreenenter_events,fullscreenexit_events,success,rt,stimulus,key_press,prompt,subject_id,participant_id,age,gender,button_pressed,next_reward,animation_sequence,responses,planet,curr_prac_trial,n_prac_rounds,alien,aliens,reward_received,decay_rate_actual,decay_rate_exp,time_in_block,block_num,prt,last_trial_on_planet,button_html,bonus,num_failures
pavlovia,0,3,0.0-0.0,"""event"",""trial"",""time""
""fullscreenenter"",""1"",""4124""
","
","
","""event"",""trial"",""time""
""fullscreenenter"",""1"",""4124""
","
",,,,,,,,,,,,,,,,,,,,,,,,,,,,
fullscreen,1,5115,0.0-1.0,"""event"",""trial"",""time""
""fullscreenenter"",""1"",""4124""
","
","
","""event"",""trial"",""time""
""fullscreenenter"",""1"",""4124""
","
",TRUE,,,,,,,,,,,,,,,,,,,,,,,,,,,
instruc_welcome,2,14865,0.0-2.0,"""event"",""trial"",""time""
""fullscreenenter"",""1"",""4124""
","
","
","""event"",""trial"",""time""
""fullscreenenter"",""1"",""4124""
","
",,null,run_exp/static/audio/clip_1_welcome.m4a,null,"<p>Howdy! In this experiment, you’ll be an explorer traveling through space to collect space treasure.</p><p>Your mission is to collect as much treasure as possible.</p><br><br><p><img src='run_exp/static/images/task_images/opening_img-01.jpg' height='300' width='auto'></p>",9859,2509,14.17,Female,,,,,,,,,,,,,,,,,,,
audio-keyboard-response,3,31440,0.0-3.0,"""event"",""trial"",""time""
""fullscreenenter"",""1"",""4124""
","
","
","""event"",""trial"",""time""
""fullscreenenter"",""1"",""4124""
","
",,null,run_exp/static/audio/clip_2_move.m4a,null,,,,,,,,,,,,,,,,,,,,,,,,
welcome_dec,4,34866,0.0-4.0,"""event"",""trial"",""time""
""fullscreenenter"",""1"",""4124""
","
","
","""event"",""trial"",""time""
""fullscreenenter"",""1"",""4124""
","
",,3424.9,"<p>Howdy! In this experiment, you’ll be an explorer traveling through space to collect space treasure.</p><p>Your mission is to collect as much treasure as possible.</p><br><br><p><img src='run_exp/static/images/task_images/opening_img-01.jpg' height='300' width='auto'></p>",,,,,,,1,,,,,,,,,,,,,,,,,,
html-keyboard-response,5,36053,0.0-5.0,"""event"",""trial"",""time""
""fullscreenenter"",""1"",""4124""
","
","
","""event"",""trial"",""time""
""fullscreenenter"",""1"",""4124""
","
",,1186.2,"<p>Howdy! In this experiment, you’ll be an explorer traveling through space to collect space treasure.</p><p>Your mission is to collect as much treasure as possible.</p><br><br><p><img src='run_exp/static/images/task_images/opening_img-01.jpg' height='300' width='auto'></p><button class=""jspsych-html-btn-unchosen""><img src=""run_exp/static/images/task_images/planet-01.jpg"" height=""50""></button><button class=""jspsych-html-btn-chosen""><img src=""run_exp/static/images/task_images/planet-02.jpg"" height=""50""></button><p><b>[press the space bar to lock in your answer]<b><br></p>",32,,,,,,,,,,,,,,,,,,,,,,,,
instruc_goal,6,46115,0.0-6.0-0.0,"""event"",""trial"",""time""
""fullscreenenter"",""1"",""4124""
","
","
","""event"",""trial"",""time""
""fullscreenenter"",""1"",""4124""
","
",,null,run_exp/static/audio/clip_3_goal.m4a,null,"<p> As a space explorer, you’ll visit different planets to dig for space treasure, these pink gems.</p> <p> The more treasure you dig up, the more bonus money you’ll win! </p><br><br><p><img src='run_exp/static/images/task_images/pink_gem.jpg' height='300' width='auto'></p>",,,,,,,,,,,,,,,,,,,,,,,
instruc_goal,7,47793,0.0-6.0-1.0,"""event"",""trial"",""time""
""fullscreenenter"",""1"",""4124""
","
","
","""event"",""trial"",""time""
""fullscreenenter"",""1"",""4124""
","
",,1677.1,"<p> As a space explorer, you’ll visit different planets to dig for space treasure, these pink gems.</p> <p> The more treasure you dig up, the more bonus money you’ll win! </p><br><br><p><img src='run_exp/static/images/task_images/pink_gem.jpg' height='300' width='auto'></p>",,,,,,,1,,,,,,,,,,,,,,,,,,
html-keyboard-response,8,48301,0.0-6.0-2.0,"""event"",""trial"",""time""
""fullscreenenter"",""1"",""4124""
","
","
","""event"",""trial"",""time""
""fullscreenenter"",""1"",""4124""
","
",,506.6,"<p> As a space explorer, you’ll visit different planets to dig for space treasure, these pink gems.</p> <p> The more treasure you dig up, the more bonus money you’ll win! </p><br><br><p><img src='run_exp/static/images/task_images/pink_gem.jpg' height='300' width='auto'></p><button class=""jspsych-html-btn-unchosen""><img src=""run_exp/static/images/task_images/planet-01.jpg"" height=""50""></button><button class=""jspsych-html-btn-chosen""><img src=""run_exp/static/images/task_images/planet-02.jpg"" height=""50""></button><p><b>[press the space bar to lock in your answer]<b><br></p>",32,,,,,,,,,,,,,,,,,,,,,,,,
instruc_dig,9,64296,0.0-7.0-0.0,"""event"",""trial"",""time""
""fullscreenenter"",""1"",""4124""
","
","
","""event"",""trial"",""time""
""fullscreenenter"",""1"",""4124""
","
",,null,run_exp/static/audio/clip_4_dig.m4a,null,,,,,,,100,,,,,,,,,,,,,,,,,
instruc_dig_try,10,64477,0.0-7.0-1.0,"""event"",""trial"",""time""
""fullscreenenter"",""1"",""4124""
","
","
","""event"",""trial"",""time""
""fullscreenenter"",""1"",""4124""
","
",,179.9,"<p> When you’ve arrived at a new planet, you will dig once. </p> <p>Then, you get to decide if you want to stay on the planet and dig again or travel to a new planet and dig there.</p> <p> To stay and dig, press the letter <strong>‘A’</strong> on your keyboard. Try pressing it now! </p><p><img src='run_exp/static/images/task_images/land.jpg'  height='700' width='auto'></p>",65,"<p> When you’ve arrived at a new planet, you will dig once. </p> <p>Then, you get to decide if you want to stay on the planet and dig again or travel to a new planet and dig there.</p> <p> To stay and dig, press the letter <strong>‘A’</strong> on your keyboard. Try pressing it now! </p><p><img src='run_exp/static/images/task_images/land.jpg'  height='700' width='auto'></p>",,,,,,100,,,,,,,,,,,,,,,,,
dig_prac,11,66491,0.0-7.0-2.0,"""event"",""trial"",""time""
""fullscreenenter"",""1"",""4124""
","
","
","""event"",""trial"",""time""
""fullscreenenter"",""1"",""4124""
","
",,,,,,,,,,,,"[{""stimulus"":""run_exp/static/images/task_images/dig.jpg"",""time"":0.19999999552965164},{""stimulus"":""run_exp/static/images/task_images/land.jpg"",""time"":672.6999999955297},{""stimulus"":""run_exp/static/images/task_images/dig.jpg"",""time"":1343.6000000014901}]",[],,,,,,,,,,,,,,,
instruc_travel,12,102702,0.0-7.0-3.0,"""event"",""trial"",""time""
""fullscreenenter"",""1"",""4124""
","
","
","""event"",""trial"",""time""
""fullscreenenter"",""1"",""4124""
","
",,null,run_exp/static/audio/clip_5_travel.m4a,null,"<p>Every time you dig up gems, there are less gems on the planet, so the more you dig on a planet the fewer gems you’ll get with each dig.</p><p>When gems are running low, you may want to travel to a new planet. </p> <p>  Planets are very far apart in this galaxy, so it will take some time to travel between them. </p> <br><p>There are lots and lots of planets for you to visit, so you won’t be able to return to any planets you’ve seen before. </p><br><p>To leave this planet and travel to a new one, press the letter <strong>‘L’</strong> on your keyboard. Try pressing it now! </p><p><img src='run_exp/static/images/task_images/rocket-01.jpg'  height='600' width='auto'></p>",,,,,,,,,,,,,,,,,,,,,,,
instruc_travel_try,13,103109,0.0-7.0-4.0,"""event"",""trial"",""time""
""fullscreenenter"",""1"",""4124""
","
","
","""event"",""trial"",""time""
""fullscreenenter"",""1"",""4124""
","
",,406,"<p>Every time you dig up gems, there are less gems on the planet, so the more you dig on a planet the fewer gems you’ll get with each dig.</p><p>When gems are running low, you may want to travel to a new planet. </p> <p>  Planets are very far apart in this galaxy, so it will take some time to travel between them. </p> <br><p>There are lots and lots of planets for you to visit, so you won’t be able to return to any planets you’ve seen before. </p><br><p>To leave this planet and travel to a new one, press the letter <strong>‘L’</strong> on your keyboard. Try pressing it now! </p><p><img src='run_exp/static/images/task_images/rocket-01.jpg'  height='600' width='auto'></p>",76,"<p>Every time you dig up gems, there are less gems on the planet, so the more you dig on a planet the fewer gems you’ll get with each dig.</p><p>When gems are running low, you may want to travel to a new planet. </p> <p>  Planets are very far apart in this galaxy, so it will take some time to travel between them. </p> <br><p>There are lots and lots of planets for you to visit, so you won’t be able to return to any planets you’ve seen before. </p><br><p>To leave this planet and travel to a new one, press the letter <strong>‘L’</strong> on your keyboard. Try pressing it now! </p><p><img src='run_exp/static/images/task_images/rocket-01.jpg'  height='600' width='auto'></p>",,,,,,,,,,,,,,,,,,,,,,,
travel_prac,14,113117,0.0-7.0-5.0,"""event"",""trial"",""time""
""fullscreenenter"",""1"",""4124""
","
","
","""event"",""trial"",""time""
""fullscreenenter"",""1"",""4124""
","
",,,,,,,,,,,,"[{""stimulus"":""run_exp/static/images/task_images/rocket-01.jpg"",""time"":0.10000000149011612},{""stimulus"":""run_exp/static/images/task_images/rocket-02.jpg"",""time"":1117.6000000014901},{""stimulus"":""run_exp/static/images/task_images/rocket-03.jpg"",""time"":2233.3000000044703},{""stimulus"":""run_exp/static/images/task_images/rocket-04.jpg"",""time"":3342.89999999851},{""stimulus"":""run_exp/static/images/task_images/rocket-05.jpg"",""time"":4454.60000000149},{""stimulus"":""run_exp/static/images/task_images/rocket-06.jpg"",""time"":5560.10000000149},{""stimulus"":""run_exp/static/images/task_images/rocket-07.jpg"",""time"":6670.80000000447},{""stimulus"":""run_exp/static/images/task_images/rocket-08.jpg"",""time"":7782},{""stimulus"":""run_exp/static/images/task_images/rocket-09.jpg"",""time"":8896.60000000149}]",[],0,,,,,,,,,,,,,,
instruc_alien_greet,15,140295,0.0-7.0-6.0,"""event"",""trial"",""time""
""fullscreenenter"",""1"",""4124""
","
","
","""event"",""trial"",""time""
""fullscreenenter"",""1"",""4124""
","
",,null,run_exp/static/audio/clip_6_alien.m4a,null,"<p>When you arrive at a new planet, the alien who owns the treasure mine on that planet will greet you!</p><p>The better an alien takes care of their mine the easier it is to dig for gems. Some aliens take better care of their mine than others. So, you won’t get exactly the same amount of gems on each planet.</p><p>What the alien looks like does not tell you anything about how many gems there are on the planet.</p><br><p><img src=""run_exp/static/images/task_images/aliens/instructions_aliens/planet/alien_planet-1.jpg""  height=""600"" width=""auto""></p>",,,,,,,,,,,,,,,,,,,,,,,
instruc_alien_greet,16,141787,0.0-7.0-7.0,"""event"",""trial"",""time""
""fullscreenenter"",""1"",""4124""
","
","
","""event"",""trial"",""time""
""fullscreenenter"",""1"",""4124""
","
",,1490.9,"<p>When you arrive at a new planet, the alien who owns the treasure mine on that planet will greet you!</p><p>The better an alien takes care of their mine the easier it is to dig for gems. Some aliens take better care of their mine than others. So, you won’t get exactly the same amount of gems on each planet.</p><p>What the alien looks like does not tell you anything about how many gems there are on the planet.</p><br><p><img src=""run_exp/static/images/task_images/aliens/instructions_aliens/planet/alien_planet-1.jpg""  height=""600"" width=""auto""></p>",,,,,,,1,,,,,,,,,,,,,,,,,,
html-keyboard-response,17,142565,0.0-7.0-8.0,"""event"",""trial"",""time""
""fullscreenenter"",""1"",""4124""
","
","
","""event"",""trial"",""time""
""fullscreenenter"",""1"",""4124""
","
",,777,"<p>When you arrive at a new planet, the alien who owns the treasure mine on that planet will greet you!</p><p>The better an alien takes care of their mine the easier it is to dig for gems. Some aliens take better care of their mine than others. So, you won’t get exactly the same amount of gems on each planet.</p><p>What the alien looks like does not tell you anything about how many gems there are on the planet.</p><br><p><img src=""run_exp/static/images/task_images/aliens/instructions_aliens/planet/alien_planet-1.jpg""  height=""600"" width=""auto""></p><button class=""jspsych-html-btn-unchosen""><img src=""run_exp/static/images/task_images/planet-01.jpg"" height=""50""></button><button class=""jspsych-html-btn-chosen""><img src=""run_exp/static/images/task_images/planet-02.jpg"" height=""50""></button><p><b>[press the space bar to lock in your answer]<b><br></p>",32,,,,,,,,,,,,,,,,,,,,,,,,
time_out,18,153647,0.0-8.0-0.0,"""event"",""trial"",""time""
""fullscreenenter"",""1"",""4124""
","
","
","""event"",""trial"",""time""
""fullscreenenter"",""1"",""4124""
","
",,null,run_exp/static/audio/clip_7_timeout.m4a,null,"<p>If you don't make your choice fast enough, you’ll have to wait a few seconds before you can make another one.</p><p>You can’t dig for more gems or travel to new planets. You just have to sit and wait.</p><br><p><img src='run_exp/static/images/task_images/time_out.jpg'  height='600' width='auto'></p>",,,,,,,,,,,,,,,,,,,,,,,
time_out,19,154297,0.0-8.0-1.0,"""event"",""trial"",""time""
""fullscreenenter"",""1"",""4124""
","
","
","""event"",""trial"",""time""
""fullscreenenter"",""1"",""4124""
","
",,649.5,"<p>If you don't make your choice fast enough, you’ll have to wait a few seconds before you can make another one.</p><p>You can’t dig for more gems or travel to new planets. You just have to sit and wait.</p><br><p><img src='run_exp/static/images/task_images/time_out.jpg'  height='600' width='auto'></p>",,,,,,,1,,,,,,,,,,,,,,,,,,
html-keyboard-response,20,154893,0.0-8.0-2.0,"""event"",""trial"",""time""
""fullscreenenter"",""1"",""4124""
","
","
","""event"",""trial"",""time""
""fullscreenenter"",""1"",""4124""
","
",,594.7,"<p>If you don't make your choice fast enough, you’ll have to wait a few seconds before you can make another one.</p><p>You can’t dig for more gems or travel to new planets. You just have to sit and wait.</p><br><p><img src='run_exp/static/images/task_images/time_out.jpg'  height='600' width='auto'></p><button class=""jspsych-html-btn-unchosen""><img src=""run_exp/static/images/task_images/planet-01.jpg"" height=""50""></button><button class=""jspsych-html-btn-chosen""><img src=""run_exp/static/images/task_images/planet-02.jpg"" height=""50""></button><p><b>[press the space bar to lock in your answer]<b><br></p>",32,,,,,,,,,,,,,,,,,,,,,,,,
instruc_break,21,170597,0.0-9.0-0.0,"""event"",""trial"",""time""
""fullscreenenter"",""1"",""4124""
","
","
","""event"",""trial"",""time""
""fullscreenenter"",""1"",""4124""
","
",,null,run_exp/static/audio/clip_8_break.m4a,null,"<p> After digging and traveling for a while, you’ll be able to take a break at home base. </p><p>The game will last 20 minutes no matter what.</p><p>You will visit home base every 5 minutes, so, you will visit home base three times during the game.</p><br><p><img src='run_exp/static/images/task_images/home_base.jpg' height='600' width='auto'></p>",,,,,,,,,,,,,,,,,,,,,,,
instruc_break,22,178721,0.0-9.0-1.0,"""event"",""trial"",""time""
""fullscreenenter"",""1"",""4124""
","
","
","""event"",""trial"",""time""
""fullscreenenter"",""1"",""4124""
","
",,8123.1,"<p> After digging and traveling for a while, you’ll be able to take a break at home base. </p><p>The game will last 20 minutes no matter what.</p><p>You will visit home base every 5 minutes, so, you will visit home base three times during the game.</p><br><p><img src='run_exp/static/images/task_images/home_base.jpg' height='600' width='auto'></p>",,,,,,,1,,,,,,,,,,,,,,,,,,
html-keyboard-response,23,180157,0.0-9.0-2.0,"""event"",""trial"",""time""
""fullscreenenter"",""1"",""4124""
","
","
","""event"",""trial"",""time""
""fullscreenenter"",""1"",""4124""
","
",,1434.6,"<p> After digging and traveling for a while, you’ll be able to take a break at home base. </p><p>The game will last 20 minutes no matter what.</p><p>You will visit home base every 5 minutes, so, you will visit home base three times during the game.</p><br><p><img src='run_exp/static/images/task_images/home_base.jpg' height='600' width='auto'></p><button class=""jspsych-html-btn-unchosen""><img src=""run_exp/static/images/task_images/planet-01.jpg"" height=""50""></button><button class=""jspsych-html-btn-chosen""><img src=""run_exp/static/images/task_images/planet-02.jpg"" height=""50""></button><p><b>[press the space bar to lock in your answer]<b><br></p>",32,,,,,,,,,,,,,,,,,,,,,,,,
instruc_prac_game,24,190288,0.0-10.0-0.0,"""event"",""trial"",""time""
""fullscreenenter"",""1"",""4124""
","
","
","""event"",""trial"",""time""
""fullscreenenter"",""1"",""4124""
","
",,null,run_exp/static/audio/clip_9_practice.m4a,null,"<p> Are you ready to play a practice game? </p> <p>In this practice game, you'll be digging up barrels of gems. But, in the real game, you'll be digging up the gems themselves. </p>",,,,,,,,,,,,,,,,,,,,,,,
html-button-response,25,192413,0.0-10.0-1.0,"""event"",""trial"",""time""
""fullscreenenter"",""1"",""4124""
","
","
","""event"",""trial"",""time""
""fullscreenenter"",""1"",""4124""
","
",,2124.7,"<p> Are you ready to play a practice game? </p> <p>In this practice game, you'll be digging up barrels of gems. But, in the real game, you'll be digging up the gems themselves. </p>",,,,,,,0,,,,,,,,,,,,,,,,,,
alien_welcome_prac,26,197424,0.0-11.0-0.0,"""event"",""trial"",""time""
""fullscreenenter"",""1"",""4124""
","
","
","""event"",""trial"",""time""
""fullscreenenter"",""1"",""4124""
","
",,null,run_exp/static/images/task_images/aliens/practice_aliens/planet/alien_planet-5.jpg,null,,,,,,,,,,,,,,,,,,,,,,,,
land_prac,27,197931,0.0-11.0-1.0,"""event"",""trial"",""time""
""fullscreenenter"",""1"",""4124""
","
","
","""event"",""trial"",""time""
""fullscreenenter"",""1"",""4124""
","
",,null,run_exp/static/images/task_images/land.jpg,null,,,,,,,91,,,0,,,,,,,,,,,,,,
dig_prac,28,199944,0.0-11.0-2.0,"""event"",""trial"",""time""
""fullscreenenter"",""1"",""4124""
","
","
","""event"",""trial"",""time""
""fullscreenenter"",""1"",""4124""
","
",,,,,,,,,,,,"[{""stimulus"":""run_exp/static/images/task_images/dig.jpg"",""time"":0.09999999403953552},{""stimulus"":""run_exp/static/images/task_images/land.jpg"",""time"":676.2999999970198},{""stimulus"":""run_exp/static/images/task_images/dig.jpg"",""time"":1337.1999999955297}]",[],,,,,,,,,,,,,,,
harvest_prac,29,200950,0.0-11.0-3.0,"""event"",""trial"",""time""
""fullscreenenter"",""1"",""4124""
","
","
","""event"",""trial"",""time""
""fullscreenenter"",""1"",""4124""
","
",,null,run_exp/static/images/task_images/barrel_text.jpg,null,,,,,,,,,,,,,,,,,,,,,,,,
decision_prac,30,203869,0.0-11.0-4.0,"""event"",""trial"",""time""
""fullscreenenter"",""1"",""4124""
","
","
","""event"",""trial"",""time""
""fullscreenenter"",""1"",""4124""
","
",,2918.3,run_exp/static/images/task_images/land.jpg,65,,,,,,,,,,,1,,,,,,,,,,,,,
dig_prac,31,205876,0.0-12.0-0.0,"""event"",""trial"",""time""
""fullscreenenter"",""1"",""4124""
","
","
","""event"",""trial"",""time""
""fullscreenenter"",""1"",""4124""
","
",,,,,,,,,,,,"[{""stimulus"":""run_exp/static/images/task_images/dig.jpg"",""time"":0.10000000149011612},{""stimulus"":""run_exp/static/images/task_images/land.jpg"",""time"":680.1999999955297},{""stimulus"":""run_exp/static/images/task_images/dig.jpg"",""time"":1336.7999999970198}]",[],,,,,,,,,,,,,,,
harvest_prac,32,206886,0.0-12.0-1.0,"""event"",""trial"",""time""
""fullscreenenter"",""1"",""4124""
","
","
","""event"",""trial"",""time""
""fullscreenenter"",""1"",""4124""
","
",,null,run_exp/static/images/task_images/barrel_text.jpg,null,,,,,,,,,,,,,,,,,,,,,,,,
decision_prac,33,208285,0.0-12.0-2.0,"""event"",""trial"",""time""
""fullscreenenter"",""1"",""4124""
","
","
","""event"",""trial"",""time""
""fullscreenenter"",""1"",""4124""
","
",,1398.7,run_exp/static/images/task_images/land.jpg,65,,,,,,,,,,,2,,,,,,,,,,,,,
dig_prac,34,210294,0.0-13.0-0.0,"""event"",""trial"",""time""
""fullscreenenter"",""1"",""4124""
","
","
","""event"",""trial"",""time""
""fullscreenenter"",""1"",""4124""
","
",,,,,,,,,,,,"[{""stimulus"":""run_exp/static/images/task_images/dig.jpg"",""time"":0},{""stimulus"":""run_exp/static/images/task_images/land.jpg"",""time"":670.3999999985099},{""stimulus"":""run_exp/static/images/task_images/dig.jpg"",""time"":1340.1999999955297}]",[],,,,,,,,,,,,,,,
harvest_prac,35,211302,0.0-13.0-1.0,"""event"",""trial"",""time""
""fullscreenenter"",""1"",""4124""
","
","
","""event"",""trial"",""time""
""fullscreenenter"",""1"",""4124""
","
",,null,run_exp/static/images/task_images/barrel_text.jpg,null,,,,,,,,,,,,,,,,,,,,,,,,
decision_prac,36,211997,0.0-13.0-2.0,"""event"",""trial"",""time""
""fullscreenenter"",""1"",""4124""
","
","
","""event"",""trial"",""time""
""fullscreenenter"",""1"",""4124""
","
",,694.5,run_exp/static/images/task_images/land.jpg,65,,,,,,,,,,,3,,,,,,,,,,,,,
dig_prac,37,214007,0.0-14.0-0.0,"""event"",""trial"",""time""
""fullscreenenter"",""1"",""4124""
","
","
","""event"",""trial"",""time""
""fullscreenenter"",""1"",""4124""
","
",,,,,,,,,,,,"[{""stimulus"":""run_exp/static/images/task_images/dig.jpg"",""time"":0.19999999552965164},{""stimulus"":""run_exp/static/images/task_images/land.jpg"",""time"":670.6000000014901},{""stimulus"":""run_exp/static/images/task_images/dig.jpg"",""time"":1336.3999999985099}]",[],,,,,,,,,,,,,,,
harvest_prac,38,215011,0.0-14.0-1.0,"""event"",""trial"",""time""
""fullscreenenter"",""1"",""4124""
","
","
","""event"",""trial"",""time""
""fullscreenenter"",""1"",""4124""
","
",,null,run_exp/static/images/task_images/barrel_text.jpg,null,,,,,,,,,,,,,,,,,,,,,,,,
decision_prac,39,215653,0.0-14.0-2.0,"""event"",""trial"",""time""
""fullscreenenter"",""1"",""4124""
","
","
","""event"",""trial"",""time""
""fullscreenenter"",""1"",""4124""
","
",,641.5,run_exp/static/images/task_images/land.jpg,65,,,,,,,,,,,4,,,,,,,,,,,,,
dig_prac,40,217658,0.0-15.0-0.0,"""event"",""trial"",""time""
""fullscreenenter"",""1"",""4124""
","
","
","""event"",""trial"",""time""
""fullscreenenter"",""1"",""4124""
","
",,,,,,,,,,,,"[{""stimulus"":""run_exp/static/images/task_images/dig.jpg"",""time"":0.09999999403953552},{""stimulus"":""run_exp/static/images/task_images/land.jpg"",""time"":672.1999999955297},{""stimulus"":""run_exp/static/images/task_images/dig.jpg"",""time"":1336.2999999970198}]",[],,,,,,,,,,,,,,,
harvest_prac,41,218669,0.0-15.0-1.0,"""event"",""trial"",""time""
""fullscreenenter"",""1"",""4124""
","
","
","""event"",""trial"",""time""
""fullscreenenter"",""1"",""4124""
","
",,null,run_exp/static/images/task_images/barrel_text.jpg,null,,,,,,,,,,,,,,,,,,,,,,,,
decision_prac,42,219189,0.0-15.0-2.0,"""event"",""trial"",""time""
""fullscreenenter"",""1"",""4124""
","
","
","""event"",""trial"",""time""
""fullscreenenter"",""1"",""4124""
","
",,519.9,run_exp/static/images/task_images/land.jpg,65,,,,,,,,,,,,1,,,,,,,,,,,,
quiz_instruc,43,227986,0.0-16.0-0.0,"""event"",""trial"",""time""
""fullscreenenter"",""1"",""4124""
","
","
","""event"",""trial"",""time""
""fullscreenenter"",""1"",""4124""
","
",,8795.3,run_exp/static/audio/clip_10_quiz.m4a,,,,,,,0,,,,,,,,,,,,,,,,,,
instruc_repeat,44,270745,0.0-16.0-1.0,"""event"",""trial"",""time""
""fullscreenenter"",""1"",""4124""
","
","
","""event"",""trial"",""time""
""fullscreenenter"",""1"",""4124""
","
",,null,"<p> Are you ready to play a practice game? </p> <p>In this practice game, you'll be digging up barrels of gems. But, in the real game, you'll be digging up the gems themselves. </p>",null,"<p>In this game, your goal is to collect as many gems as you can. That’s how you will win bonus money. </p> <p>The entire game will last 20 minutes no matter how many gems you collect or how many planets you visit. </p><p>To stay on a planet and dig again, press the letter A on your keyboard. To leave for a new planet, press the letter L.</p><p>The more you dig on a planet, the fewer gems you’ll get with each dig which is why you might consider leaving for a new planet. </p><p>When you arrive at a new planet, you’ll be greeted by an alien. What the alien looks like does not tell you anything about how much treasure is on the planet. </p>",,,,,,,,,,,,,,,,,,,,,,,
instruc_repeat_continue,45,272649,0.0-16.0-2.0,"""event"",""trial"",""time""
""fullscreenenter"",""1"",""4124""
","
","
","""event"",""trial"",""time""
""fullscreenenter"",""1"",""4124""
","
",,1903.3,"<p> Are you ready to play a practice game? </p> <p>In this practice game, you'll be digging up barrels of gems. But, in the real game, you'll be digging up the gems themselves. </p>",,,,,,,0,,,,,,,,,,,,,,,,,,
quiz_q_1_ask,46,277622,0.0-16.0-3.0,"""event"",""trial"",""time""
""fullscreenenter"",""1"",""4124""
","
","
","""event"",""trial"",""time""
""fullscreenenter"",""1"",""4124""
","
",,4971.6,run_exp/static/audio/clip_11_q1_ask.m4a,,,,,,,2,,,,,,,,,,,,,,,,,,
quiz_q_1_fb_correct,47,281473,0.0-17.0-0.0,"""event"",""trial"",""time""
""fullscreenenter"",""1"",""4124""
","
","
","""event"",""trial"",""time""
""fullscreenenter"",""1"",""4124""
","
",,null,run_exp/static/audio/clip_12_q1_correct.m4a,null,<p>That’s correct. You win extra money by collecting more gems.</p>,,,,,,,,,,,,,,,,,,,,,,,
quiz_q_2_ask,48,287286,0.0-17.0-1.0,"""event"",""trial"",""time""
""fullscreenenter"",""1"",""4124""
","
","
","""event"",""trial"",""time""
""fullscreenenter"",""1"",""4124""
","
",,5812,run_exp/static/audio/clip_14_q2_ask.m4a,,,,,,,1,,,,,,,,,,,,,,,,,,
quiz_q_2_fb_correct,49,291272,0.0-18.0-0.0,"""event"",""trial"",""time""
""fullscreenenter"",""1"",""4124""
","
","
","""event"",""trial"",""time""
""fullscreenenter"",""1"",""4124""
","
",,null,run_exp/static/audio/clip_15_q2_correct.m4a,null,<p>That’s correct. The experiment is 20 minutes no matter what.</p>,,,,,,,,,,,,,,,,,,,,,,,
quiz_q_3_ask,50,294013,0.0-18.0-1.0,"""event"",""trial"",""time""
""fullscreenenter"",""1"",""4124""
","
","
","""event"",""trial"",""time""
""fullscreenenter"",""1"",""4124""
","
",,2740.8,run_exp/static/audio/clip_17_q3_ask.m4a,,,,,,,1,,,,,,,,,,,,,,,,,,
quiz_q_3_fb_correct,51,297982,0.0-19.0-0.0,"""event"",""trial"",""time""
""fullscreenenter"",""1"",""4124""
","
","
","""event"",""trial"",""time""
""fullscreenenter"",""1"",""4124""
","
",,null,run_exp/static/audio/clip_18_q3_correct.m4a,null,<p> That’s correct. You press the letter L to travel to a new planet.</p>,,,,,,,,,,,,,,,,,,,,,,,
quiz_q_4_ask,52,302215,0.0-19.0-1.0,"""event"",""trial"",""time""
""fullscreenenter"",""1"",""4124""
","
","
","""event"",""trial"",""time""
""fullscreenenter"",""1"",""4124""
","
",,4231.6,run_exp/static/audio/clip_20_q4_ask.m4a,,,,,,,0,,,,,,,,,,,,,,,,,,
quiz_q_4_fb_correct,53,307526,0.0-20.0-0.0,"""event"",""trial"",""time""
""fullscreenenter"",""1"",""4124""
","
","
","""event"",""trial"",""time""
""fullscreenenter"",""1"",""4124""
","
",,null,run_exp/static/audio/clip_21_q4_correct.m4a,null,<p> That’s correct. The more you dig on a planet the fewer gems you’ll get with each dig. </p>,,,,,,,,,,,,,,,,,,,,,,,
quiz_q_5_ask,54,310315,0.0-20.0-1.0,"""event"",""trial"",""time""
""fullscreenenter"",""1"",""4124""
","
","
","""event"",""trial"",""time""
""fullscreenenter"",""1"",""4124""
","
",,2788.3,run_exp/static/audio/clip_23_q5_ask.m4a,,,,,,,1,,,,,,,,,,,,,,,,,,
quiz_q_5_fb_correct,55,315304,0.0-21.0-0.0,"""event"",""trial"",""time""
""fullscreenenter"",""1"",""4124""
","
","
","""event"",""trial"",""time""
""fullscreenenter"",""1"",""4124""
","
",,null,run_exp/static/audio/clip_24_q5_correct.m4a,null,<p> That’s correct. The alien tells you nothing about how much treasure is on the planet.</p>,,,,,,,,,,,,,,,,,,,,,,,
quiz_correct,56,318764,0.0-22.0-0.0,"""event"",""trial"",""time""
""fullscreenenter"",""1"",""4124""
","
","
","""event"",""trial"",""time""
""fullscreenenter"",""1"",""4124""
","
",,null,run_exp/static/audio/clip_26_correct_quiz.m4a,null,,,,,,,,,,,,,,,,,,,,,,,,
quiz_correct_continue,57,319528,0.0-22.0-1.0,"""event"",""trial"",""time""
""fullscreenenter"",""1"",""4124""
","
","
","""event"",""trial"",""time""
""fullscreenenter"",""1"",""4124""
","
",,763.8,<p>Good job! You're now ready to move on to the real game!</p>,,,,,,,0,,,,,,,,,,,,,,,,,,
audio-keyboard-response,58,329654,0.0-22.0-2.0,"""event"",""trial"",""time""
""fullscreenenter"",""1"",""4124""
","
","
","""event"",""trial"",""time""
""fullscreenenter"",""1"",""4124""
","
",,null,run_exp/static/audio/clip_28_real_game.m4a,null,,,,,,,,,,,,,,,,,,,,,,,,
instruc_begin_exp_contine,59,330891,0.0-22.0-3.0,"""event"",""trial"",""time""
""fullscreenenter"",""1"",""4124""
","
","
","""event"",""trial"",""time""
""fullscreenenter"",""1"",""4124""
","
",,1236.3,"<p>Now that you know how  to dig for space treasure and travel to new planets,you can start exploring! </p><p>Do you want to go over the instructions again or get started with the real game?</p>",,,,,,,1,,,,,,1,,,,,,,,,,,,
alien_welcome,60,335900,0.0-23.0-0.0,"""event"",""trial"",""time""
""fullscreenenter"",""1"",""4124""
","
","
","""event"",""trial"",""time""
""fullscreenenter"",""1"",""4124""
","
",,null,run_exp/static/images/task_images/aliens/old_aliens/planet/alien_planet-51.jpg,null,,,,,,,,,,,,,51,"51,36,31,7,53,61,1,22,4,40,19,12,13,23,26,66,42,10,30,9,38,48,24,62,29,74,58,27,49,64,15,20,25,34,68,75,43,59,52,6,79,55,11,35",,,,,,,,,,
land,61,336407,0.0-23.0-1.0,"""event"",""trial"",""time""
""fullscreenenter"",""1"",""4124""
","
","
","""event"",""trial"",""time""
""fullscreenenter"",""1"",""4124""
","
",,null,run_exp/static/images/task_images/land.jpg,null,,,,,,,104,,,1,,,,,,,,,,,,,,
dig,62,338414,0.0-23.0-2.0,"""event"",""trial"",""time""
""fullscreenenter"",""1"",""4124""
","
","
","""event"",""trial"",""time""
""fullscreenenter"",""1"",""4124""
","
",,,,,,,,,,,,"[{""stimulus"":""run_exp/static/images/task_images/dig.jpg"",""time"":0.20000000298023224},{""stimulus"":""run_exp/static/images/task_images/land.jpg"",""time"":676.8000000044703},{""stimulus"":""run_exp/static/images/task_images/dig.jpg"",""time"":1342}]",[],1,,,,,,,,,,,,,,
harvest,63,339419,0.0-23.0-3.0,"""event"",""trial"",""time""
""fullscreenenter"",""1"",""4124""
","
","
","""event"",""trial"",""time""
""fullscreenenter"",""1"",""4124""
","
",,null,run_exp/static/images/task_images/gems/104.jpg,null,,,,,,,36,,,1,,,,,104,0.345896563,0.346153846,,,,,,,
decision,64,340974,0.0-23.0-4.0,"""event"",""trial"",""time""
""fullscreenenter"",""1"",""4124""
","
","
","""event"",""trial"",""time""
""fullscreenenter"",""1"",""4124""
","
",,1553.5,run_exp/static/images/task_images/land.jpg,65,,,,,,,36,,,1,,,,,,,,10082,1,0,FALSE,,,
dig,65,342430,0.0-24.0-0.0,"""event"",""trial"",""time""
""fullscreenenter"",""1"",""4124""
","
","
","""event"",""trial"",""time""
""fullscreenenter"",""1"",""4124""
","
",,,,,,,,,,,,"[{""stimulus"":""run_exp/static/images/task_images/dig.jpg"",""time"":0.09999999403953552},{""stimulus"":""run_exp/static/images/task_images/land.jpg"",""time"":492.69999999552965},{""stimulus"":""run_exp/static/images/task_images/dig.jpg"",""time"":967.7999999970198}]",[],1,,,,,,,,,,,,,,
harvest,66,343436,0.0-24.0-1.0,"""event"",""trial"",""time""
""fullscreenenter"",""1"",""4124""
","
","
","""event"",""trial"",""time""
""fullscreenenter"",""1"",""4124""
","
",,null,run_exp/static/images/task_images/gems/36.jpg,null,,,,,,,6,,,1,,,,,36,0.168778697,0.166666667,,,,,,,
decision,67,343989,0.0-24.0-2.0,"""event"",""trial"",""time""
""fullscreenenter"",""1"",""4124""
","
","
","""event"",""trial"",""time""
""fullscreenenter"",""1"",""4124""
","
",,552,run_exp/static/images/task_images/land.jpg,65,,,,,,,6,,,1,,,,,,,,13097,1,1,FALSE,,,
dig,68,346447,0.0-25.0-0.0,"""event"",""trial"",""time""
""fullscreenenter"",""1"",""4124""
","
","
","""event"",""trial"",""time""
""fullscreenenter"",""1"",""4124""
","
",,,,,,,,,,,,"[{""stimulus"":""run_exp/static/images/task_images/dig.jpg"",""time"":0},{""stimulus"":""run_exp/static/images/task_images/land.jpg"",""time"":823.3999999985099},{""stimulus"":""run_exp/static/images/task_images/dig.jpg"",""time"":1639}]",[],1,,,,,,,,,,,,,,
harvest,69,347453,0.0-25.0-1.0,"""event"",""trial"",""time""
""fullscreenenter"",""1"",""4124""
","
","
","""event"",""trial"",""time""
""fullscreenenter"",""1"",""4124""
","
",,null,run_exp/static/images/task_images/gems/6.jpg,null,,,,,,,1,,,1,,,,,6,0.187486618,0.166666667,,,,,,,
decision,70,347893,0.0-25.0-2.0,"""event"",""trial"",""time""
""fullscreenenter"",""1"",""4124""
","
","
","""event"",""trial"",""time""
""fullscreenenter"",""1"",""4124""
","
",,439.2,run_exp/static/images/task_images/land.jpg,65,,,,,,,1,,,1,,,,,,,,17001,1,2,FALSE,,,
dig,71,350463,0.0-26.0-0.0,"""event"",""trial"",""time""
""fullscreenenter"",""1"",""4124""
","
","
","""event"",""trial"",""time""
""fullscreenenter"",""1"",""4124""
","
",,,,,,,,,,,,"[{""stimulus"":""run_exp/static/images/task_images/dig.jpg"",""time"":0.10000000149011612},{""stimulus"":""run_exp/static/images/task_images/land.jpg"",""time"":865.2000000029802},{""stimulus"":""run_exp/static/images/task_images/dig.jpg"",""time"":1711.3999999985099}]",[],1,,,,,,,,,,,,,,
harvest,72,351471,0.0-26.0-1.0,"""event"",""trial"",""time""
""fullscreenenter"",""1"",""4124""
","
","
","""event"",""trial"",""time""
""fullscreenenter"",""1"",""4124""
","
",,null,run_exp/static/images/task_images/gems/1.jpg,null,,,,,,,0,,,1,,,,,1,0.222219872,0,,,,,,,
decision,73,352453,0.0-26.0-2.0,"""event"",""trial"",""time""
""fullscreenenter"",""1"",""4124""
","
","
","""event"",""trial"",""time""
""fullscreenenter"",""1"",""4124""
","
",,981.9,run_exp/static/images/task_images/land.jpg,76,,,,,,,0,,,1,,,,,,,,21561,1,3,TRUE,,,
travel,74,361474,0.0-27.0-0.0,"""event"",""trial"",""time""
""fullscreenenter"",""1"",""4124""
","
","
","""event"",""trial"",""time""
""fullscreenenter"",""1"",""4124""
","
",,,,,,,,,,,,"[{""stimulus"":""run_exp/static/images/task_images/rocket-01.jpg"",""time"":0.09999999403953552},{""stimulus"":""run_exp/static/images/task_images/rocket-02.jpg"",""time"":1008.8999999985099},{""stimulus"":""run_exp/static/images/task_images/rocket-03.jpg"",""time"":2012.7999999970198},{""stimulus"":""run_exp/static/images/task_images/rocket-04.jpg"",""time"":3015.39999999851},{""stimulus"":""run_exp/static/images/task_images/rocket-05.jpg"",""time"":4013.5},{""stimulus"":""run_exp/static/images/task_images/rocket-06.jpg"",""time"":5017.0999999940395},{""stimulus"":""run_exp/static/images/task_images/rocket-07.jpg"",""time"":6025.19999999553},{""stimulus"":""run_exp/static/images/task_images/rocket-08.jpg"",""time"":7021.29999999702},{""stimulus"":""run_exp/static/images/task_images/rocket-09.jpg"",""time"":8025.0999999940395}]",[],1,,,,,,,,,,,,,,
alien_welcome,75,366483,0.0-27.0-1.0,"""event"",""trial"",""time""
""fullscreenenter"",""1"",""4124""
","
","
","""event"",""trial"",""time""
""fullscreenenter"",""1"",""4124""
","
",,null,run_exp/static/images/task_images/aliens/old_aliens/planet/alien_planet-36.jpg,null,,,,,,,,,,,,,36,"51,36,31,7,53,61,1,22,4,40,19,12,13,23,26,66,42,10,30,9,38,48,24,62,29,74,58,27,49,64,15,20,25,34,68,75,43,59,52,6,79,55,11,35",,,,,,,,,,
land,76,366992,0.0-27.0-2.0,"""event"",""trial"",""time""
""fullscreenenter"",""1"",""4124""
","
","
","""event"",""trial"",""time""
""fullscreenenter"",""1"",""4124""
","
",,null,run_exp/static/images/task_images/land.jpg,null,,,,,,,99,,,2,,,,,,,,,,,,,,
dig,77,368995,0.0-27.0-3.0,"""event"",""trial"",""time""
""fullscreenenter"",""1"",""4124""
","
","
","""event"",""trial"",""time""
""fullscreenenter"",""1"",""4124""
","
",,,,,,,,,,,,"[{""stimulus"":""run_exp/static/images/task_images/dig.jpg"",""time"":0.20000000298023224},{""stimulus"":""run_exp/static/images/task_images/land.jpg"",""time"":670.3999999985099},{""stimulus"":""run_exp/static/images/task_images/dig.jpg"",""time"":1341.8999999985099}]",[],2,,,,,,,,,,,,,,
harvest,78,370005,0.0-27.0-4.0,"""event"",""trial"",""time""
""fullscreenenter"",""1"",""4124""
","
","
","""event"",""trial"",""time""
""fullscreenenter"",""1"",""4124""
","
",,null,run_exp/static/images/task_images/gems/99.jpg,null,,,,,,,25,,,2,,,,,99,0.252590272,0.252525253,,,,,,,
decision,79,370509,0.0-27.0-5.0,"""event"",""trial"",""time""
""fullscreenenter"",""1"",""4124""
","
","
","""event"",""trial"",""time""
""fullscreenenter"",""1"",""4124""
","
",,502.9,run_exp/static/images/task_images/land.jpg,65,,,,,,,25,,,2,,,,,,,,39617,1,0,FALSE,,,
dig,80,373013,0.0-28.0-0.0,"""event"",""trial"",""time""
""fullscreenenter"",""1"",""4124""
","
","
","""event"",""trial"",""time""
""fullscreenenter"",""1"",""4124""
","
",,,,,,,,,,,,"[{""stimulus"":""run_exp/static/images/task_images/dig.jpg"",""time"":0.10000000149011612},{""stimulus"":""run_exp/static/images/task_images/land.jpg"",""time"":838},{""stimulus"":""run_exp/static/images/task_images/dig.jpg"",""time"":1668.8999999985099}]",[],2,,,,,,,,,,,,,,
harvest,81,374023,0.0-28.0-1.0,"""event"",""trial"",""time""
""fullscreenenter"",""1"",""4124""
","
","
","""event"",""trial"",""time""
""fullscreenenter"",""1"",""4124""
","
",,null,run_exp/static/images/task_images/gems/25.jpg,null,,,,,,,4,,,2,,,,,25,0.165394359,0.16,,,,,,,
decision,82,374189,0.0-28.0-2.0,"""event"",""trial"",""time""
""fullscreenenter"",""1"",""4124""
","
","
","""event"",""trial"",""time""
""fullscreenenter"",""1"",""4124""
","
",,165,run_exp/static/images/task_images/land.jpg,65,,,,,,,4,,,2,,,,,,,,43297,1,1,FALSE,,,
dig,83,377035,0.0-29.0-0.0,"""event"",""trial"",""time""
""fullscreenenter"",""1"",""4124""
","
","
","""event"",""trial"",""time""
""fullscreenenter"",""1"",""4124""
","
",,,,,,,,,,,,"[{""stimulus"":""run_exp/static/images/task_images/dig.jpg"",""time"":0.10000000149011612},{""stimulus"":""run_exp/static/images/task_images/land.jpg"",""time"":949.8000000044703},{""stimulus"":""run_exp/static/images/task_images/dig.jpg"",""time"":1896.6000000014901}]",[],2,,,,,,,,,,,,,,
harvest,84,378045,0.0-29.0-1.0,"""event"",""trial"",""time""
""fullscreenenter"",""1"",""4124""
","
","
","""event"",""trial"",""time""
""fullscreenenter"",""1"",""4124""
","
",,null,run_exp/static/images/task_images/gems/4.jpg,null,,,,,,,1,,,2,,,,,4,0.199374069,0.25,,,,,,,
decision,85,378205,0.0-29.0-2.0,"""event"",""trial"",""time""
""fullscreenenter"",""1"",""4124""
","
","
","""event"",""trial"",""time""
""fullscreenenter"",""1"",""4124""
","
",,160,run_exp/static/images/task_images/land.jpg,65,,,,,,,1,,,2,,,,,,,,47313,1,2,FALSE,,,
dig,86,381053,0.0-30.0-0.0,"""event"",""trial"",""time""
""fullscreenenter"",""1"",""4124""
","
","
","""event"",""trial"",""time""
""fullscreenenter"",""1"",""4124""
","
",,,,,,,,,,,,"[{""stimulus"":""run_exp/static/images/task_images/dig.jpg"",""time"":0.19999999552965164},{""stimulus"":""run_exp/static/images/task_images/land.jpg"",""time"":952.5},{""stimulus"":""run_exp/static/images/task_images/dig.jpg"",""time"":1904.5999999940395}]",[],2,,,,,,,,,,,,,,
harvest,87,382062,0.0-30.0-1.0,"""event"",""trial"",""time""
""fullscreenenter"",""1"",""4124""
","
","
","""event"",""trial"",""time""
""fullscreenenter"",""1"",""4124""
","
",,null,run_exp/static/images/task_images/gems/1.jpg,null,,,,,,,0,,,2,,,,,1,0.185778846,0,,,,,,,
decision,88,384205,0.0-30.0-2.0,"""event"",""trial"",""time""
""fullscreenenter"",""1"",""4124""
","
","
","""event"",""trial"",""time""
""fullscreenenter"",""1"",""4124""
","
",,2142.9,run_exp/static/images/task_images/land.jpg,65,,,,,,,0,,,2,,,,,,,,53313,1,3,FALSE,,,
dig,89,385069,0.0-31.0-0.0,"""event"",""trial"",""time""
""fullscreenenter"",""1"",""4124""
","
","
","""event"",""trial"",""time""
""fullscreenenter"",""1"",""4124""
","
",,,,,,,,,,,,"[{""stimulus"":""run_exp/static/images/task_images/dig.jpg"",""time"":0},{""stimulus"":""run_exp/static/images/task_images/land.jpg"",""time"":293.09999999403954},{""stimulus"":""run_exp/static/images/task_images/dig.jpg"",""time"":573.0999999940395}]",[],2,,,,,,,,,,,,,,
harvest,90,386079,0.0-31.0-1.0,"""event"",""trial"",""time""
""fullscreenenter"",""1"",""4124""
","
","
","""event"",""trial"",""time""
""fullscreenenter"",""1"",""4124""
","
",,null,run_exp/static/images/task_images/gems/0.jpg,null,,,,,,,0,,,2,,,,,0,0.132383238,NaN,,,,,,,
decision,91,386349,0.0-31.0-2.0,"""event"",""trial"",""time""
""fullscreenenter"",""1"",""4124""
","
","
","""event"",""trial"",""time""
""fullscreenenter"",""1"",""4124""
","
",,269.9,run_exp/static/images/task_images/land.jpg,76,,,,,,,0,,,2,,,,,,,,55457,1,4,TRUE,,,
travel,92,396086,0.0-32.0-0.0,"""event"",""trial"",""time""
""fullscreenenter"",""1"",""4124""
","
","
","""event"",""trial"",""time""
""fullscreenenter"",""1"",""4124""
","
",,,,,,,,,,,,"[{""stimulus"":""run_exp/static/images/task_images/rocket-01.jpg"",""time"":0.09999999403953552},{""stimulus"":""run_exp/static/images/task_images/rocket-02.jpg"",""time"":1084.5999999940395},{""stimulus"":""run_exp/static/images/task_images/rocket-03.jpg"",""time"":2165.6999999955297},{""stimulus"":""run_exp/static/images/task_images/rocket-04.jpg"",""time"":3256.2999999970198},{""stimulus"":""run_exp/static/images/task_images/rocket-05.jpg"",""time"":4332.19999999553},{""stimulus"":""run_exp/static/images/task_images/rocket-06.jpg"",""time"":5411.5},{""stimulus"":""run_exp/static/images/task_images/rocket-07.jpg"",""time"":6492.29999999702},{""stimulus"":""run_exp/static/images/task_images/rocket-08.jpg"",""time"":7575.69999999553},{""stimulus"":""run_exp/static/images/task_images/rocket-09.jpg"",""time"":8652.5}]",[],2,,,,,,,,,,,,,,
alien_welcome,93,401095,0.0-32.0-1.0,"""event"",""trial"",""time""
""fullscreenenter"",""1"",""4124""
","
","
","""event"",""trial"",""time""
""fullscreenenter"",""1"",""4124""
","
",,null,run_exp/static/images/task_images/aliens/old_aliens/planet/alien_planet-31.jpg,null,,,,,,,,,,,,,31,"51,36,31,7,53,61,1,22,4,40,19,12,13,23,26,66,42,10,30,9,38,48,24,62,29,74,58,27,49,64,15,20,25,34,68,75,43,59,52,6,79,55,11,35",,,,,,,,,,
land,94,401604,0.0-32.0-2.0,"""event"",""trial"",""time""
""fullscreenenter"",""1"",""4124""
","
","
","""event"",""trial"",""time""
""fullscreenenter"",""1"",""4124""
","
",,null,run_exp/static/images/task_images/land.jpg,null,,,,,,,104,,,3,,,,,,,,,,,,,,
dig,95,403611,0.0-32.0-3.0,"""event"",""trial"",""time""
""fullscreenenter"",""1"",""4124""
","
","
","""event"",""trial"",""time""
""fullscreenenter"",""1"",""4124""
","
",,,,,,,,,,,,"[{""stimulus"":""run_exp/static/images/task_images/dig.jpg"",""time"":0.10000000149011612},{""stimulus"":""run_exp/static/images/task_images/land.jpg"",""time"":673.8000000044703},{""stimulus"":""run_exp/static/images/task_images/dig.jpg"",""time"":1335}]",[],3,,,,,,,,,,,,,,
harvest,96,404621,0.0-32.0-4.0,"""event"",""trial"",""time""
""fullscreenenter"",""1"",""4124""
","
","
","""event"",""trial"",""time""
""fullscreenenter"",""1"",""4124""
","
",,null,run_exp/static/images/task_images/gems/104.jpg,null,,,,,,,48,,,3,,,,,104,0.464929256,0.461538462,,,,,,,
decision,97,405125,0.0-32.0-5.0,"""event"",""trial"",""time""
""fullscreenenter"",""1"",""4124""
","
","
","""event"",""trial"",""time""
""fullscreenenter"",""1"",""4124""
","
",,503.5,run_exp/static/images/task_images/land.jpg,65,,,,,,,48,,,3,,,,,,,,74233,1,0,FALSE,,,
dig,98,407627,0.0-33.0-0.0,"""event"",""trial"",""time""
""fullscreenenter"",""1"",""4124""
","
","
","""event"",""trial"",""time""
""fullscreenenter"",""1"",""4124""
","
",,,,,,,,,,,,"[{""stimulus"":""run_exp/static/images/task_images/dig.jpg"",""time"":0.10000000149011612},{""stimulus"":""run_exp/static/images/task_images/land.jpg"",""time"":840.3999999985099},{""stimulus"":""run_exp/static/images/task_images/dig.jpg"",""time"":1671}]",[],3,,,,,,,,,,,,,,
harvest,99,408638,0.0-33.0-1.0,"""event"",""trial"",""time""
""fullscreenenter"",""1"",""4124""
","
","
","""event"",""trial"",""time""
""fullscreenenter"",""1"",""4124""
","
",,null,run_exp/static/images/task_images/gems/48.jpg,null,,,,,,,23,,,3,,,,,48,0.482651469,0.479166667,,,,,,,
decision,100,409309,0.0-33.0-2.0,"""event"",""trial"",""time""
""fullscreenenter"",""1"",""4124""
","
","
","""event"",""trial"",""time""
""fullscreenenter"",""1"",""4124""
","
",,670.6,run_exp/static/images/task_images/land.jpg,65,,,,,,,23,,,3,,,,,,,,78417,1,1,FALSE,,,
dig,101,411644,0.0-34.0-0.0,"""event"",""trial"",""time""
""fullscreenenter"",""1"",""4124""
","
","
","""event"",""trial"",""time""
""fullscreenenter"",""1"",""4124""
","
",,,,,,,,,,,,"[{""stimulus"":""run_exp/static/images/task_images/dig.jpg"",""time"":0.10000000149011612},{""stimulus"":""run_exp/static/images/task_images/land.jpg"",""time"":784.1000000014901},{""stimulus"":""run_exp/static/images/task_images/dig.jpg"",""time"":1556.7000000029802}]",[],3,,,,,,,,,,,,,,
harvest,102,412652,0.0-34.0-1.0,"""event"",""trial"",""time""
""fullscreenenter"",""1"",""4124""
","
","
","""event"",""trial"",""time""
""fullscreenenter"",""1"",""4124""
","
",,null,run_exp/static/images/task_images/gems/23.jpg,null,,,,,,,11,,,3,,,,,23,0.464643478,0.47826087,,,,,,,
decision,103,412885,0.0-34.0-2.0,"""event"",""trial"",""time""
""fullscreenenter"",""1"",""4124""
","
","
","""event"",""trial"",""time""
""fullscreenenter"",""1"",""4124""
","
",,233.1,run_exp/static/images/task_images/land.jpg,76,,,,,,,11,,,3,,,,,,,,81993,1,2,TRUE,,,
travel,104,422662,0.0-35.0-0.0,"""event"",""trial"",""time""
""fullscreenenter"",""1"",""4124""
","
","
","""event"",""trial"",""time""
""fullscreenenter"",""1"",""4124""
","
",,,,,,,,,,,,"[{""stimulus"":""run_exp/static/images/task_images/rocket-01.jpg"",""time"":0.10000000149011612},{""stimulus"":""run_exp/static/images/task_images/rocket-02.jpg"",""time"":1097},{""stimulus"":""run_exp/static/images/task_images/rocket-03.jpg"",""time"":2174.3000000044703},{""stimulus"":""run_exp/static/images/task_images/rocket-04.jpg"",""time"":3261.9000000059605},{""stimulus"":""run_exp/static/images/task_images/rocket-05.jpg"",""time"":4350.20000000298},{""stimulus"":""run_exp/static/images/task_images/rocket-06.jpg"",""time"":5432.70000000298},{""stimulus"":""run_exp/static/images/task_images/rocket-07.jpg"",""time"":6517.60000000149},{""stimulus"":""run_exp/static/images/task_images/rocket-08.jpg"",""time"":7597.30000000447},{""stimulus"":""run_exp/static/images/task_images/rocket-09.jpg"",""time"":8684.5}]",[],3,,,,,,,,,,,,,,
alien_welcome,105,427672,0.0-35.0-1.0,"""event"",""trial"",""time""
""fullscreenenter"",""1"",""4124""
","
","
","""event"",""trial"",""time""
""fullscreenenter"",""1"",""4124""
","
",,null,run_exp/static/images/task_images/aliens/old_aliens/planet/alien_planet-7.jpg,null,,,,,,,,,,,,,7,"51,36,31,7,53,61,1,22,4,40,19,12,13,23,26,66,42,10,30,9,38,48,24,62,29,74,58,27,49,64,15,20,25,34,68,75,43,59,52,6,79,55,11,35",,,,,,,,,,
land,106,428184,0.0-35.0-2.0,"""event"",""trial"",""time""
""fullscreenenter"",""1"",""4124""
","
","
","""event"",""trial"",""time""
""fullscreenenter"",""1"",""4124""
","
",,null,run_exp/static/images/task_images/land.jpg,null,,,,,,,102,,,4,,,,,,,,,,,,,,
dig,107,430191,0.0-35.0-3.0,"""event"",""trial"",""time""
""fullscreenenter"",""1"",""4124""
","
","
","""event"",""trial"",""time""
""fullscreenenter"",""1"",""4124""
","
",,,,,,,,,,,,"[{""stimulus"":""run_exp/static/images/task_images/dig.jpg"",""time"":0.19999999552965164},{""stimulus"":""run_exp/static/images/task_images/land.jpg"",""time"":676.3999999985099},{""stimulus"":""run_exp/static/images/task_images/dig.jpg"",""time"":1339.1999999955297}]",[],4,,,,,,,,,,,,,,
harvest,108,431195,0.0-35.0-4.0,"""event"",""trial"",""time""
""fullscreenenter"",""1"",""4124""
","
","
","""event"",""trial"",""time""
""fullscreenenter"",""1"",""4124""
","
",,null,run_exp/static/images/task_images/gems/102.jpg,null,,,,,,,59,,,4,,,,,102,0.576146116,0.578431373,,,,,,,
decision,109,431877,0.0-35.0-5.0,"""event"",""trial"",""time""
""fullscreenenter"",""1"",""4124""
","
","
","""event"",""trial"",""time""
""fullscreenenter"",""1"",""4124""
","
",,681.5,run_exp/static/images/task_images/land.jpg,65,,,,,,,59,,,4,,,,,,,,100985,1,0,FALSE,,,
dig,110,434208,0.0-36.0-0.0,"""event"",""trial"",""time""
""fullscreenenter"",""1"",""4124""
","
","
","""event"",""trial"",""time""
""fullscreenenter"",""1"",""4124""
","
",,,,,,,,,,,,"[{""stimulus"":""run_exp/static/images/task_images/dig.jpg"",""time"":0.10000000149011612},{""stimulus"":""run_exp/static/images/task_images/land.jpg"",""time"":781.8999999985099},{""stimulus"":""run_exp/static/images/task_images/dig.jpg"",""time"":1553.7000000029802}]",[],4,,,,,,,,,,,,,,
harvest,111,435212,0.0-36.0-1.0,"""event"",""trial"",""time""
""fullscreenenter"",""1"",""4124""
","
","
","""event"",""trial"",""time""
""fullscreenenter"",""1"",""4124""
","
",,null,run_exp/static/images/task_images/gems/59.jpg,null,,,,,,,27,,,4,,,,,59,0.458626734,0.457627119,,,,,,,
decision,112,435685,0.0-36.0-2.0,"""event"",""trial"",""time""
""fullscreenenter"",""1"",""4124""
","
","
","""event"",""trial"",""time""
""fullscreenenter"",""1"",""4124""
","
",,472.4,run_exp/static/images/task_images/land.jpg,65,,,,,,,27,,,4,,,,,,,,104793,1,1,FALSE,,,
dig,113,438219,0.0-37.0-0.0,"""event"",""trial"",""time""
""fullscreenenter"",""1"",""4124""
","
","
","""event"",""trial"",""time""
""fullscreenenter"",""1"",""4124""
","
",,,,,,,,,,,,"[{""stimulus"":""run_exp/static/images/task_images/dig.jpg"",""time"":0.20000000298023224},{""stimulus"":""run_exp/static/images/task_images/land.jpg"",""time"":849.2000000029802},{""stimulus"":""run_exp/static/images/task_images/dig.jpg"",""time"":1697.2000000029802}]",[],4,,,,,,,,,,,,,,
harvest,114,439229,0.0-37.0-1.0,"""event"",""trial"",""time""
""fullscreenenter"",""1"",""4124""
","
","
","""event"",""trial"",""time""
""fullscreenenter"",""1"",""4124""
","
",,null,run_exp/static/images/task_images/gems/27.jpg,null,,,,,,,13,,,4,,,,,27,0.473488849,0.481481481,,,,,,,
decision,115,440717,0.0-37.0-2.0,"""event"",""trial"",""time""
""fullscreenenter"",""1"",""4124""
","
","
","""event"",""trial"",""time""
""fullscreenenter"",""1"",""4124""
","
",,1487.4,run_exp/static/images/task_images/land.jpg,76,,,,,,,13,,,4,,,,,,,,109825,1,2,TRUE,,,
travel,116,449226,0.0-38.0-0.0,"""event"",""trial"",""time""
""fullscreenenter"",""1"",""4124""
","
","
","""event"",""trial"",""time""
""fullscreenenter"",""1"",""4124""
","
",,,,,,,,,,,,"[{""stimulus"":""run_exp/static/images/task_images/rocket-01.jpg"",""time"":0.09999999403953552},{""stimulus"":""run_exp/static/images/task_images/rocket-02.jpg"",""time"":948.6999999955297},{""stimulus"":""run_exp/static/images/task_images/rocket-03.jpg"",""time"":1892.7999999970198},{""stimulus"":""run_exp/static/images/task_images/rocket-04.jpg"",""time"":2836.7999999970198},{""stimulus"":""run_exp/static/images/task_images/rocket-05.jpg"",""time"":3791.1999999955297},{""stimulus"":""run_exp/static/images/task_images/rocket-06.jpg"",""time"":4733.5999999940395},{""stimulus"":""run_exp/static/images/task_images/rocket-07.jpg"",""time"":5677.19999999553},{""stimulus"":""run_exp/static/images/task_images/rocket-08.jpg"",""time"":6624.5},{""stimulus"":""run_exp/static/images/task_images/rocket-09.jpg"",""time"":7566.39999999851}]",[],4,,,,,,,,,,,,,,
alien_welcome,117,454239,0.0-38.0-1.0,"""event"",""trial"",""time""
""fullscreenenter"",""1"",""4124""
","
","
","""event"",""trial"",""time""
""fullscreenenter"",""1"",""4124""
","
",,null,run_exp/static/images/task_images/aliens/old_aliens/planet/alien_planet-53.jpg,null,,,,,,,,,,,,,53,"51,36,31,7,53,61,1,22,4,40,19,12,13,23,26,66,42,10,30,9,38,48,24,62,29,74,58,27,49,64,15,20,25,34,68,75,43,59,52,6,79,55,11,35",,,,,,,,,,
land,118,454749,0.0-38.0-2.0,"""event"",""trial"",""time""
""fullscreenenter"",""1"",""4124""
","
","
","""event"",""trial"",""time""
""fullscreenenter"",""1"",""4124""
","
",,null,run_exp/static/images/task_images/land.jpg,null,,,,,,,94,,,5,,,,,,,,,,,,,,
dig,119,456759,0.0-38.0-3.0,"""event"",""trial"",""time""
""fullscreenenter"",""1"",""4124""
","
","
","""event"",""trial"",""time""
""fullscreenenter"",""1"",""4124""
","
",,,,,,,,,,,,"[{""stimulus"":""run_exp/static/images/task_images/dig.jpg"",""time"":0.19999999552965164},{""stimulus"":""run_exp/static/images/task_images/land.jpg"",""time"":674.8999999985099},{""stimulus"":""run_exp/static/images/task_images/dig.jpg"",""time"":1343.6000000014901}]",[],5,,,,,,,,,,,,,,
harvest,120,457763,0.0-38.0-4.0,"""event"",""trial"",""time""
""fullscreenenter"",""1"",""4124""
","
","
","""event"",""trial"",""time""
""fullscreenenter"",""1"",""4124""
","
",,null,run_exp/static/images/task_images/gems/94.jpg,null,,,,,,,49,,,5,,,,,94,0.51852771,0.521276596,,,,,,,
decision,121,458214,0.0-38.0-5.0,"""event"",""trial"",""time""
""fullscreenenter"",""1"",""4124""
","
","
","""event"",""trial"",""time""
""fullscreenenter"",""1"",""4124""
","
",,449.6,run_exp/static/images/task_images/land.jpg,65,,,,,,,49,,,5,,,,,,,,127322,1,0,FALSE,,,
dig,122,460776,0.0-39.0-0.0,"""event"",""trial"",""time""
""fullscreenenter"",""1"",""4124""
","
","
","""event"",""trial"",""time""
""fullscreenenter"",""1"",""4124""
","
",,,,,,,,,,,,"[{""stimulus"":""run_exp/static/images/task_images/dig.jpg"",""time"":0.10000000149011612},{""stimulus"":""run_exp/static/images/task_images/land.jpg"",""time"":851.8000000044703},{""stimulus"":""run_exp/static/images/task_images/dig.jpg"",""time"":1710.6000000014901}]",[],5,,,,,,,,,,,,,,
harvest,123,461780,0.0-39.0-1.0,"""event"",""trial"",""time""
""fullscreenenter"",""1"",""4124""
","
","
","""event"",""trial"",""time""
""fullscreenenter"",""1"",""4124""
","
",,null,run_exp/static/images/task_images/gems/49.jpg,null,,,,,,,28,,,5,,,,,49,0.573364842,0.571428571,,,,,,,
decision,124,462173,0.0-39.0-2.0,"""event"",""trial"",""time""
""fullscreenenter"",""1"",""4124""
","
","
","""event"",""trial"",""time""
""fullscreenenter"",""1"",""4124""
","
",,392.8,run_exp/static/images/task_images/land.jpg,65,,,,,,,28,,,5,,,,,,,,131281,1,1,FALSE,,,
dig,125,464792,0.0-40.0-0.0,"""event"",""trial"",""time""
""fullscreenenter"",""1"",""4124""
","
","
","""event"",""trial"",""time""
""fullscreenenter"",""1"",""4124""
","
",,,,,,,,,,,,"[{""stimulus"":""run_exp/static/images/task_images/dig.jpg"",""time"":0.09999999403953552},{""stimulus"":""run_exp/static/images/task_images/land.jpg"",""time"":878.0999999940395},{""stimulus"":""run_exp/static/images/task_images/dig.jpg"",""time"":1743.5999999940395}]",[],5,,,,,,,,,,,,,,
harvest,126,465800,0.0-40.0-1.0,"""event"",""trial"",""time""
""fullscreenenter"",""1"",""4124""
","
","
","""event"",""trial"",""time""
""fullscreenenter"",""1"",""4124""
","
",,null,run_exp/static/images/task_images/gems/28.jpg,null,,,,,,,14,,,5,,,,,28,0.494068775,0.5,,,,,,,
decision,127,466141,0.0-40.0-2.0,"""event"",""trial"",""time""
""fullscreenenter"",""1"",""4124""
","
","
","""event"",""trial"",""time""
""fullscreenenter"",""1"",""4124""
","
",,340.6,run_exp/static/images/task_images/land.jpg,65,,,,,,,14,,,5,,,,,,,,135249,1,2,FALSE,,,
dig,128,468803,0.0-41.0-0.0,"""event"",""trial"",""time""
""fullscreenenter"",""1"",""4124""
","
","
","""event"",""trial"",""time""
""fullscreenenter"",""1"",""4124""
","
",,,,,,,,,,,,"[{""stimulus"":""run_exp/static/images/task_images/dig.jpg"",""time"":0.20000000298023224},{""stimulus"":""run_exp/static/images/task_images/land.jpg"",""time"":893.4000000059605},{""stimulus"":""run_exp/static/images/task_images/dig.jpg"",""time"":1783}]",[],5,,,,,,,,,,,,,,
harvest,129,469816,0.0-41.0-1.0,"""event"",""trial"",""time""
""fullscreenenter"",""1"",""4124""
","
","
","""event"",""trial"",""time""
""fullscreenenter"",""1"",""4124""
","
",,null,run_exp/static/images/task_images/gems/14.jpg,null,,,,,,,8,,,5,,,,,14,0.566141977,0.571428571,,,,,,,
decision,130,469917,0.0-41.0-2.0,"""event"",""trial"",""time""
""fullscreenenter"",""1"",""4124""
","
","
","""event"",""trial"",""time""
""fullscreenenter"",""1"",""4124""
","
",,100.8,run_exp/static/images/task_images/land.jpg,76,,,,,,,8,,,5,,,,,,,,139026,1,3,TRUE,,,
travel,131,479823,0.0-42.0-0.0,"""event"",""trial"",""time""
""fullscreenenter"",""1"",""4124""
","
","
","""event"",""trial"",""time""
""fullscreenenter"",""1"",""4124""
","
",,,,,,,,,,,,"[{""stimulus"":""run_exp/static/images/task_images/rocket-01.jpg"",""time"":0.10000000149011612},{""stimulus"":""run_exp/static/images/task_images/rocket-02.jpg"",""time"":1112.8000000044703},{""stimulus"":""run_exp/static/images/task_images/rocket-03.jpg"",""time"":2207.89999999851},{""stimulus"":""run_exp/static/images/task_images/rocket-04.jpg"",""time"":3300.5},{""stimulus"":""run_exp/static/images/task_images/rocket-05.jpg"",""time"":4407.89999999851},{""stimulus"":""run_exp/static/images/task_images/rocket-06.jpg"",""time"":5499.80000000447},{""stimulus"":""run_exp/static/images/task_images/rocket-07.jpg"",""time"":6600.80000000447},{""stimulus"":""run_exp/static/images/task_images/rocket-08.jpg"",""time"":7703},{""stimulus"":""run_exp/static/images/task_images/rocket-09.jpg"",""time"":8800.80000000447}]",[],5,,,,,,,,,,,,,,
alien_welcome,132,484827,0.0-42.0-1.0,"""event"",""trial"",""time""
""fullscreenenter"",""1"",""4124""
","
","
","""event"",""trial"",""time""
""fullscreenenter"",""1"",""4124""
","
",,null,run_exp/static/images/task_images/aliens/old_aliens/planet/alien_planet-61.jpg,null,,,,,,,,,,,,,61,"51,36,31,7,53,61,1,22,4,40,19,12,13,23,26,66,42,10,30,9,38,48,24,62,29,74,58,27,49,64,15,20,25,34,68,75,43,59,52,6,79,55,11,35",,,,,,,,,,
land,133,485334,0.0-42.0-2.0,"""event"",""trial"",""time""
""fullscreenenter"",""1"",""4124""
","
","
","""event"",""trial"",""time""
""fullscreenenter"",""1"",""4124""
","
",,null,run_exp/static/images/task_images/land.jpg,null,,,,,,,105,,,6,,,,,,,,,,,,,,
dig,134,487341,0.0-42.0-3.0,"""event"",""trial"",""time""
""fullscreenenter"",""1"",""4124""
","
","
","""event"",""trial"",""time""
""fullscreenenter"",""1"",""4124""
","
",,,,,,,,,,,,"[{""stimulus"":""run_exp/static/images/task_images/dig.jpg"",""time"":0.30000000447034836},{""stimulus"":""run_exp/static/images/task_images/land.jpg"",""time"":673.8000000044703},{""stimulus"":""run_exp/static/images/task_images/dig.jpg"",""time"":1340.5}]",[],6,,,,,,,,,,,,,,
harvest,135,488351,0.0-42.0-4.0,"""event"",""trial"",""time""
""fullscreenenter"",""1"",""4124""
","
","
","""event"",""trial"",""time""
""fullscreenenter"",""1"",""4124""
","
",,null,run_exp/static/images/task_images/gems/105.jpg,null,,,,,,,78,,,6,,,,,105,0.739505357,0.742857143,,,,,,,
decision,136,488774,0.0-42.0-5.0,"""event"",""trial"",""time""
""fullscreenenter"",""1"",""4124""
","
","
","""event"",""trial"",""time""
""fullscreenenter"",""1"",""4124""
","
",,422.3,run_exp/static/images/task_images/land.jpg,65,,,,,,,78,,,6,,,,,,,,157882,1,0,FALSE,,,
dig,137,491358,0.0-43.0-0.0,"""event"",""trial"",""time""
""fullscreenenter"",""1"",""4124""
","
","
","""event"",""trial"",""time""
""fullscreenenter"",""1"",""4124""
","
",,,,,,,,,,,,"[{""stimulus"":""run_exp/static/images/task_images/dig.jpg"",""time"":0},{""stimulus"":""run_exp/static/images/task_images/land.jpg"",""time"":860.2000000029802},{""stimulus"":""run_exp/static/images/task_images/dig.jpg"",""time"":1723.3999999985099}]",[],6,,,,,,,,,,,,,,
harvest,138,492368,0.0-43.0-1.0,"""event"",""trial"",""time""
""fullscreenenter"",""1"",""4124""
","
","
","""event"",""trial"",""time""
""fullscreenenter"",""1"",""4124""
","
",,null,run_exp/static/images/task_images/gems/78.jpg,null,,,,,,,66,,,6,,,,,78,0.847860695,0.846153846,,,,,,,
decision,139,492909,0.0-43.0-2.0,"""event"",""trial"",""time""
""fullscreenenter"",""1"",""4124""
","
","
","""event"",""trial"",""time""
""fullscreenenter"",""1"",""4124""
","
",,540.9,run_exp/static/images/task_images/land.jpg,65,,,,,,,66,,,6,,,,,,,,162017,1,1,FALSE,,,
dig,140,495375,0.0-44.0-0.0,"""event"",""trial"",""time""
""fullscreenenter"",""1"",""4124""
","
","
","""event"",""trial"",""time""
""fullscreenenter"",""1"",""4124""
","
",,,,,,,,,,,,"[{""stimulus"":""run_exp/static/images/task_images/dig.jpg"",""time"":0.10000000149011612},{""stimulus"":""run_exp/static/images/task_images/land.jpg"",""time"":829.9000000059605},{""stimulus"":""run_exp/static/images/task_images/dig.jpg"",""time"":1646.6000000014901}]",[],6,,,,,,,,,,,,,,
harvest,141,496384,0.0-44.0-1.0,"""event"",""trial"",""time""
""fullscreenenter"",""1"",""4124""
","
","
","""event"",""trial"",""time""
""fullscreenenter"",""1"",""4124""
","
",,null,run_exp/static/images/task_images/gems/66.jpg,null,,,,,,,59,,,6,,,,,66,0.895952488,0.893939394,,,,,,,
decision,142,496837,0.0-44.0-2.0,"""event"",""trial"",""time""
""fullscreenenter"",""1"",""4124""
","
","
","""event"",""trial"",""time""
""fullscreenenter"",""1"",""4124""
","
",,452.3,run_exp/static/images/task_images/land.jpg,65,,,,,,,59,,,6,,,,,,,,165945,1,2,FALSE,,,
dig,143,499396,0.0-45.0-0.0,"""event"",""trial"",""time""
""fullscreenenter"",""1"",""4124""
","
","
","""event"",""trial"",""time""
""fullscreenenter"",""1"",""4124""
","
",,,,,,,,,,,,"[{""stimulus"":""run_exp/static/images/task_images/dig.jpg"",""time"":0.10000000149011612},{""stimulus"":""run_exp/static/images/task_images/land.jpg"",""time"":852.3000000044703},{""stimulus"":""run_exp/static/images/task_images/dig.jpg"",""time"":1702.2000000029802}]",[],6,,,,,,,,,,,,,,
harvest,144,500408,0.0-45.0-1.0,"""event"",""trial"",""time""
""fullscreenenter"",""1"",""4124""
","
","
","""event"",""trial"",""time""
""fullscreenenter"",""1"",""4124""
","
",,null,run_exp/static/images/task_images/gems/59.jpg,null,,,,,,,52,,,6,,,,,59,0.874537831,0.881355932,,,,,,,
decision,145,500853,0.0-45.0-2.0,"""event"",""trial"",""time""
""fullscreenenter"",""1"",""4124""
","
","
","""event"",""trial"",""time""
""fullscreenenter"",""1"",""4124""
","
",,445.1,run_exp/static/images/task_images/land.jpg,65,,,,,,,52,,,6,,,,,,,,169961,1,3,FALSE,,,
dig,146,503414,0.0-46.0-0.0,"""event"",""trial"",""time""
""fullscreenenter"",""1"",""4124""
","
","
","""event"",""trial"",""time""
""fullscreenenter"",""1"",""4124""
","
",,,,,,,,,,,,"[{""stimulus"":""run_exp/static/images/task_images/dig.jpg"",""time"":0.20000000298023224},{""stimulus"":""run_exp/static/images/task_images/land.jpg"",""time"":859.6000000014901},{""stimulus"":""run_exp/static/images/task_images/dig.jpg"",""time"":1708.7000000029802}]",[],6,,,,,,,,,,,,,,
harvest,147,504420,0.0-46.0-1.0,"""event"",""trial"",""time""
""fullscreenenter"",""1"",""4124""
","
","
","""event"",""trial"",""time""
""fullscreenenter"",""1"",""4124""
","
",,null,run_exp/static/images/task_images/gems/52.jpg,null,,,,,,,41,,,6,,,,,52,0.796063152,0.788461538,,,,,,,
decision,148,504757,0.0-46.0-2.0,"""event"",""trial"",""time""
""fullscreenenter"",""1"",""4124""
","
","
","""event"",""trial"",""time""
""fullscreenenter"",""1"",""4124""
","
",,336.3,run_exp/static/images/task_images/land.jpg,65,,,,,,,41,,,6,,,,,,,,173865,1,4,FALSE,,,
dig,149,507427,0.0-47.0-0.0,"""event"",""trial"",""time""
""fullscreenenter"",""1"",""4124""
","
","
","""event"",""trial"",""time""
""fullscreenenter"",""1"",""4124""
","
",,,,,,,,,,,,"[{""stimulus"":""run_exp/static/images/task_images/dig.jpg"",""time"":0.09999999403953552},{""stimulus"":""run_exp/static/images/task_images/land.jpg"",""time"":897.0999999940395},{""stimulus"":""run_exp/static/images/task_images/dig.jpg"",""time"":1782.0999999940395}]",[],6,,,,,,,,,,,,,,
harvest,150,508435,0.0-47.0-1.0,"""event"",""trial"",""time""
""fullscreenenter"",""1"",""4124""
","
","
","""event"",""trial"",""time""
""fullscreenenter"",""1"",""4124""
","
",,null,run_exp/static/images/task_images/gems/41.jpg,null,,,,,,,34,,,6,,,,,41,0.839092434,0.829268293,,,,,,,
decision,151,508821,0.0-47.0-2.0,"""event"",""trial"",""time""
""fullscreenenter"",""1"",""4124""
","
","
","""event"",""trial"",""time""
""fullscreenenter"",""1"",""4124""
","
",,385.8,run_exp/static/images/task_images/land.jpg,65,,,,,,,34,,,6,,,,,,,,177930,1,5,FALSE,,,
dig,152,511443,0.0-48.0-0.0,"""event"",""trial"",""time""
""fullscreenenter"",""1"",""4124""
","
","
","""event"",""trial"",""time""
""fullscreenenter"",""1"",""4124""
","
",,,,,,,,,,,,"[{""stimulus"":""run_exp/static/images/task_images/dig.jpg"",""time"":0},{""stimulus"":""run_exp/static/images/task_images/land.jpg"",""time"":876.2000000029802},{""stimulus"":""run_exp/static/images/task_images/dig.jpg"",""time"":1750.8999999985099}]",[],6,,,,,,,,,,,,,,
harvest,153,512455,0.0-48.0-1.0,"""event"",""trial"",""time""
""fullscreenenter"",""1"",""4124""
","
","
","""event"",""trial"",""time""
""fullscreenenter"",""1"",""4124""
","
",,null,run_exp/static/images/task_images/gems/34.jpg,null,,,,,,,24,,,6,,,,,34,0.715386556,0.705882353,,,,,,,
decision,154,512678,0.0-48.0-2.0,"""event"",""trial"",""time""
""fullscreenenter"",""1"",""4124""
","
","
","""event"",""trial"",""time""
""fullscreenenter"",""1"",""4124""
","
",,221.5,run_exp/static/images/task_images/land.jpg,65,,,,,,,24,,,6,,,,,,,,181786,1,6,FALSE,,,
dig,155,515460,0.0-49.0-0.0,"""event"",""trial"",""time""
""fullscreenenter"",""1"",""4124""
","
","
","""event"",""trial"",""time""
""fullscreenenter"",""1"",""4124""
","
",,,,,,,,,,,,"[{""stimulus"":""run_exp/static/images/task_images/dig.jpg"",""time"":0.10000000149011612},{""stimulus"":""run_exp/static/images/task_images/land.jpg"",""time"":932.5},{""stimulus"":""run_exp/static/images/task_images/dig.jpg"",""time"":1860.5}]",[],6,,,,,,,,,,,,,,
harvest,156,516467,0.0-49.0-1.0,"""event"",""trial"",""time""
""fullscreenenter"",""1"",""4124""
","
","
","""event"",""trial"",""time""
""fullscreenenter"",""1"",""4124""
","
",,null,run_exp/static/images/task_images/gems/24.jpg,null,,,,,,,17,,,6,,,,,24,0.711171631,0.708333333,,,,,,,
decision,157,516549,0.0-49.0-2.0,"""event"",""trial"",""time""
""fullscreenenter"",""1"",""4124""
","
","
","""event"",""trial"",""time""
""fullscreenenter"",""1"",""4124""
","
",,81.5,run_exp/static/images/task_images/land.jpg,65,,,,,,,17,,,6,,,,,,,,185657,1,7,FALSE,,,
dig,158,519477,0.0-50.0-0.0,"""event"",""trial"",""time""
""fullscreenenter"",""1"",""4124""
","
","
","""event"",""trial"",""time""
""fullscreenenter"",""1"",""4124""
","
",,,,,,,,,,,,"[{""stimulus"":""run_exp/static/images/task_images/dig.jpg"",""time"":0.09999999403953552},{""stimulus"":""run_exp/static/images/task_images/land.jpg"",""time"":984.1999999955297},{""stimulus"":""run_exp/static/images/task_images/dig.jpg"",""time"":1948.7999999970198}]",[],6,,,,,,,,,,,,,,
harvest,159,520483,0.0-50.0-1.0,"""event"",""trial"",""time""
""fullscreenenter"",""1"",""4124""
","
","
","""event"",""trial"",""time""
""fullscreenenter"",""1"",""4124""
","
",,null,run_exp/static/images/task_images/gems/17.jpg,null,,,,,,,14,,,6,,,,,17,0.829660875,0.823529412,,,,,,,
decision,160,521725,0.0-50.0-2.0,"""event"",""trial"",""time""
""fullscreenenter"",""1"",""4124""
","
","
","""event"",""trial"",""time""
""fullscreenenter"",""1"",""4124""
","
",,1241.3,run_exp/static/images/task_images/land.jpg,76,,,,,,,14,,,6,,,,,,,,190833,1,8,TRUE,,,
travel,161,530496,0.0-51.0-0.0,"""event"",""trial"",""time""
""fullscreenenter"",""1"",""4124""
","
","
","""event"",""trial"",""time""
""fullscreenenter"",""1"",""4124""
","
",,,,,,,,,,,,"[{""stimulus"":""run_exp/static/images/task_images/rocket-01.jpg"",""time"":0.09999999403953552},{""stimulus"":""run_exp/static/images/task_images/rocket-02.jpg"",""time"":980},{""stimulus"":""run_exp/static/images/task_images/rocket-03.jpg"",""time"":1953.3999999985099},{""stimulus"":""run_exp/static/images/task_images/rocket-04.jpg"",""time"":2928.7999999970198},{""stimulus"":""run_exp/static/images/task_images/rocket-05.jpg"",""time"":3904},{""stimulus"":""run_exp/static/images/task_images/rocket-06.jpg"",""time"":4868.0999999940395},{""stimulus"":""run_exp/static/images/task_images/rocket-07.jpg"",""time"":5846.5},{""stimulus"":""run_exp/static/images/task_images/rocket-08.jpg"",""time"":6811.89999999851},{""stimulus"":""run_exp/static/images/task_images/rocket-09.jpg"",""time"":7788.79999999702}]",[],6,,,,,,,,,,,,,,
alien_welcome,162,535499,0.0-51.0-1.0,"""event"",""trial"",""time""
""fullscreenenter"",""1"",""4124""
","
","
","""event"",""trial"",""time""
""fullscreenenter"",""1"",""4124""
","
",,null,run_exp/static/images/task_images/aliens/old_aliens/planet/alien_planet-1.jpg,null,,,,,,,,,,,,,1,"51,36,31,7,53,61,1,22,4,40,19,12,13,23,26,66,42,10,30,9,38,48,24,62,29,74,58,27,49,64,15,20,25,34,68,75,43,59,52,6,79,55,11,35",,,,,,,,,,
land,163,536006,0.0-51.0-2.0,"""event"",""trial"",""time""
""fullscreenenter"",""1"",""4124""
","
","
","""event"",""trial"",""time""
""fullscreenenter"",""1"",""4124""
","
",,null,run_exp/static/images/task_images/land.jpg,null,,,,,,,96,,,7,,,,,,,,,,,,,,
dig,164,538011,0.0-51.0-3.0,"""event"",""trial"",""time""
""fullscreenenter"",""1"",""4124""
","
","
","""event"",""trial"",""time""
""fullscreenenter"",""1"",""4124""
","
",,,,,,,,,,,,"[{""stimulus"":""run_exp/static/images/task_images/dig.jpg"",""time"":0.10000000149011612},{""stimulus"":""run_exp/static/images/task_images/land.jpg"",""time"":670.3999999985099},{""stimulus"":""run_exp/static/images/task_images/dig.jpg"",""time"":1345.5}]",[],7,,,,,,,,,,,,,,
harvest,165,539023,0.0-51.0-4.0,"""event"",""trial"",""time""
""fullscreenenter"",""1"",""4124""
","
","
","""event"",""trial"",""time""
""fullscreenenter"",""1"",""4124""
","
",,null,run_exp/static/images/task_images/gems/96.jpg,null,,,,,,,74,,,7,,,,,96,0.768995191,0.770833333,,,,,,,
decision,166,539206,0.0-51.0-5.0,"""event"",""trial"",""time""
""fullscreenenter"",""1"",""4124""
","
","
","""event"",""trial"",""time""
""fullscreenenter"",""1"",""4124""
","
",,182.2,run_exp/static/images/task_images/land.jpg,65,,,,,,,74,,,7,,,,,,,,208314,1,0,FALSE,,,
dig,167,542031,0.0-52.0-0.0,"""event"",""trial"",""time""
""fullscreenenter"",""1"",""4124""
","
","
","""event"",""trial"",""time""
""fullscreenenter"",""1"",""4124""
","
",,,,,,,,,,,,"[{""stimulus"":""run_exp/static/images/task_images/dig.jpg"",""time"":0.10000000149011612},{""stimulus"":""run_exp/static/images/task_images/land.jpg"",""time"":948.7000000029802},{""stimulus"":""run_exp/static/images/task_images/dig.jpg"",""time"":1887.8000000044703}]",[],7,,,,,,,,,,,,,,
harvest,168,543039,0.0-52.0-1.0,"""event"",""trial"",""time""
""fullscreenenter"",""1"",""4124""
","
","
","""event"",""trial"",""time""
""fullscreenenter"",""1"",""4124""
","
",,null,run_exp/static/images/task_images/gems/74.jpg,null,,,,,,,62,,,7,,,,,74,0.834946316,0.837837838,,,,,,,
decision,169,544605,0.0-52.0-2.0,"""event"",""trial"",""time""
""fullscreenenter"",""1"",""4124""
","
","
","""event"",""trial"",""time""
""fullscreenenter"",""1"",""4124""
","
",,1565.5,run_exp/static/images/task_images/land.jpg,65,,,,,,,62,,,7,,,,,,,,213714,1,1,FALSE,,,
dig,170,546044,0.0-53.0-0.0,"""event"",""trial"",""time""
""fullscreenenter"",""1"",""4124""
","
","
","""event"",""trial"",""time""
""fullscreenenter"",""1"",""4124""
","
",,,,,,,,,,,,"[{""stimulus"":""run_exp/static/images/task_images/dig.jpg"",""time"":0.19999999552965164},{""stimulus"":""run_exp/static/images/task_images/land.jpg"",""time"":486.79999999701977},{""stimulus"":""run_exp/static/images/task_images/dig.jpg"",""time"":964.7999999970198}]",[],7,,,,,,,,,,,,,,
harvest,171,547056,0.0-53.0-1.0,"""event"",""trial"",""time""
""fullscreenenter"",""1"",""4124""
","
","
","""event"",""trial"",""time""
""fullscreenenter"",""1"",""4124""
","
",,null,run_exp/static/images/task_images/gems/62.jpg,null,,,,,,,53,,,7,,,,,62,0.855993163,0.85483871,,,,,,,
decision,172,547941,0.0-53.0-2.0,"""event"",""trial"",""time""
""fullscreenenter"",""1"",""4124""
","
","
","""event"",""trial"",""time""
""fullscreenenter"",""1"",""4124""
","
",,885,run_exp/static/images/task_images/land.jpg,65,,,,,,,53,,,7,,,,,,,,217050,1,2,FALSE,,,
dig,173,550062,0.0-54.0-0.0,"""event"",""trial"",""time""
""fullscreenenter"",""1"",""4124""
","
","
","""event"",""trial"",""time""
""fullscreenenter"",""1"",""4124""
","
",,,,,,,,,,,,"[{""stimulus"":""run_exp/static/images/task_images/dig.jpg"",""time"":0.09999999403953552},{""stimulus"":""run_exp/static/images/task_images/land.jpg"",""time"":711.5999999940395},{""stimulus"":""run_exp/static/images/task_images/dig.jpg"",""time"":1413}]",[],7,,,,,,,,,,,,,,
harvest,174,551069,0.0-54.0-1.0,"""event"",""trial"",""time""
""fullscreenenter"",""1"",""4124""
","
","
","""event"",""trial"",""time""
""fullscreenenter"",""1"",""4124""
","
",,null,run_exp/static/images/task_images/gems/53.jpg,null,,,,,,,40,,,7,,,,,53,0.757349637,0.754716981,,,,,,,
decision,175,551190,0.0-54.0-2.0,"""event"",""trial"",""time""
""fullscreenenter"",""1"",""4124""
","
","
","""event"",""trial"",""time""
""fullscreenenter"",""1"",""4124""
","
",,119.6,run_exp/static/images/task_images/land.jpg,65,,,,,,,40,,,7,,,,,,,,220298,1,3,FALSE,,,
dig,176,554077,0.0-55.0-0.0,"""event"",""trial"",""time""
""fullscreenenter"",""1"",""4124""
","
","
","""event"",""trial"",""time""
""fullscreenenter"",""1"",""4124""
","
",,,,,,,,,,,,"[{""stimulus"":""run_exp/static/images/task_images/dig.jpg"",""time"":0},{""stimulus"":""run_exp/static/images/task_images/land.jpg"",""time"":964.5},{""stimulus"":""run_exp/static/images/task_images/dig.jpg"",""time"":1924.6999999955297}]",[],7,,,,,,,,,,,,,,
harvest,177,555084,0.0-55.0-1.0,"""event"",""trial"",""time""
""fullscreenenter"",""1"",""4124""
","
","
","""event"",""trial"",""time""
""fullscreenenter"",""1"",""4124""
","
",,null,run_exp/static/images/task_images/gems/40.jpg,null,,,,,,,33,,,7,,,,,40,0.822396585,0.825,,,,,,,
decision,178,555510,0.0-55.0-2.0,"""event"",""trial"",""time""
""fullscreenenter"",""1"",""4124""
","
","
","""event"",""trial"",""time""
""fullscreenenter"",""1"",""4124""
","
",,425.2,run_exp/static/images/task_images/land.jpg,65,,,,,,,33,,,7,,,,,,,,224618,1,4,FALSE,,,
dig,179,558092,0.0-56.0-0.0,"""event"",""trial"",""time""
""fullscreenenter"",""1"",""4124""
","
","
","""event"",""trial"",""time""
""fullscreenenter"",""1"",""4124""
","
",,,,,,,,,,,,"[{""stimulus"":""run_exp/static/images/task_images/dig.jpg"",""time"":0.10000000149011612},{""stimulus"":""run_exp/static/images/task_images/land.jpg"",""time"":860.5},{""stimulus"":""run_exp/static/images/task_images/dig.jpg"",""time"":1727.6999999955297}]",[],7,,,,,,,,,,,,,,
harvest,180,559105,0.0-56.0-1.0,"""event"",""trial"",""time""
""fullscreenenter"",""1"",""4124""
","
","
","""event"",""trial"",""time""
""fullscreenenter"",""1"",""4124""
","
",,null,run_exp/static/images/task_images/gems/33.jpg,null,,,,,,,26,,,7,,,,,33,0.787353512,0.787878788,,,,,,,
decision,181,559581,0.0-56.0-2.0,"""event"",""trial"",""time""
""fullscreenenter"",""1"",""4124""
","
","
","""event"",""trial"",""time""
""fullscreenenter"",""1"",""4124""
","
",,476.2,run_exp/static/images/task_images/land.jpg,65,,,,,,,26,,,7,,,,,,,,228690,1,5,FALSE,,,
dig,182,562109,0.0-57.0-0.0,"""event"",""trial"",""time""
""fullscreenenter"",""1"",""4124""
","
","
","""event"",""trial"",""time""
""fullscreenenter"",""1"",""4124""
","
",,,,,,,,,,,,"[{""stimulus"":""run_exp/static/images/task_images/dig.jpg"",""time"":0.10000000149011612},{""stimulus"":""run_exp/static/images/task_images/land.jpg"",""time"":844.1000000014901},{""stimulus"":""run_exp/static/images/task_images/dig.jpg"",""time"":1684.7000000029802}]",[],7,,,,,,,,,,,,,,
harvest,183,563116,0.0-57.0-1.0,"""event"",""trial"",""time""
""fullscreenenter"",""1"",""4124""
","
","
","""event"",""trial"",""time""
""fullscreenenter"",""1"",""4124""
","
",,null,run_exp/static/images/task_images/gems/26.jpg,null,,,,,,,20,,,7,,,,,26,0.761149355,0.769230769,,,,,,,
decision,184,563573,0.0-57.0-2.0,"""event"",""trial"",""time""
""fullscreenenter"",""1"",""4124""
","
","
","""event"",""trial"",""time""
""fullscreenenter"",""1"",""4124""
","
",,456.9,run_exp/static/images/task_images/land.jpg,76,,,,,,,20,,,7,,,,,,,,232681,1,6,TRUE,,,
travel,185,573127,0.0-58.0-0.0,"""event"",""trial"",""time""
""fullscreenenter"",""1"",""4124""
","
","
","""event"",""trial"",""time""
""fullscreenenter"",""1"",""4124""
","
",,,,,,,,,,,,"[{""stimulus"":""run_exp/static/images/task_images/rocket-01.jpg"",""time"":0.09999999403953552},{""stimulus"":""run_exp/static/images/task_images/rocket-02.jpg"",""time"":1073.5},{""stimulus"":""run_exp/static/images/task_images/rocket-03.jpg"",""time"":2125.0999999940395},{""stimulus"":""run_exp/static/images/task_images/rocket-04.jpg"",""time"":3192.1999999955297},{""stimulus"":""run_exp/static/images/task_images/rocket-05.jpg"",""time"":4246.5999999940395},{""stimulus"":""run_exp/static/images/task_images/rocket-06.jpg"",""time"":5309.5},{""stimulus"":""run_exp/static/images/task_images/rocket-07.jpg"",""time"":6369.0999999940395},{""stimulus"":""run_exp/static/images/task_images/rocket-08.jpg"",""time"":7430.29999999702},{""stimulus"":""run_exp/static/images/task_images/rocket-09.jpg"",""time"":8485.29999999702}]",[],7,,,,,,,,,,,,,,
alien_welcome,186,578131,0.0-58.0-1.0,"""event"",""trial"",""time""
""fullscreenenter"",""1"",""4124""
","
","
","""event"",""trial"",""time""
""fullscreenenter"",""1"",""4124""
","
",,null,run_exp/static/images/task_images/aliens/old_aliens/planet/alien_planet-22.jpg,null,,,,,,,,,,,,,22,"51,36,31,7,53,61,1,22,4,40,19,12,13,23,26,66,42,10,30,9,38,48,24,62,29,74,58,27,49,64,15,20,25,34,68,75,43,59,52,6,79,55,11,35",,,,,,,,,,
land,187,578637,0.0-58.0-2.0,"""event"",""trial"",""time""
""fullscreenenter"",""1"",""4124""
","
","
","""event"",""trial"",""time""
""fullscreenenter"",""1"",""4124""
","
",,null,run_exp/static/images/task_images/land.jpg,null,,,,,,,102,,,8,,,,,,,,,,,,,,
dig,188,580645,0.0-58.0-3.0,"""event"",""trial"",""time""
""fullscreenenter"",""1"",""4124""
","
","
","""event"",""trial"",""time""
""fullscreenenter"",""1"",""4124""
","
",,,,,,,,,,,,"[{""stimulus"":""run_exp/static/images/task_images/dig.jpg"",""time"":0.20000000298023224},{""stimulus"":""run_exp/static/images/task_images/land.jpg"",""time"":674.5},{""stimulus"":""run_exp/static/images/task_images/dig.jpg"",""time"":1336.2999999970198}]",[],8,,,,,,,,,,,,,,
harvest,189,581655,0.0-58.0-4.0,"""event"",""trial"",""time""
""fullscreenenter"",""1"",""4124""
","
","
","""event"",""trial"",""time""
""fullscreenenter"",""1"",""4124""
","
",,null,run_exp/static/images/task_images/gems/102.jpg,null,,,,,,,84,,,8,,,,,102,0.82308957,0.823529412,,,,,,,
decision,190,582062,0.0-58.0-5.0,"""event"",""trial"",""time""
""fullscreenenter"",""1"",""4124""
","
","
","""event"",""trial"",""time""
""fullscreenenter"",""1"",""4124""
","
",,405.8,run_exp/static/images/task_images/land.jpg,65,,,,,,,84,,,8,,,,,,,,251170,1,0,FALSE,,,
dig,191,584659,0.0-59.0-0.0,"""event"",""trial"",""time""
""fullscreenenter"",""1"",""4124""
","
","
","""event"",""trial"",""time""
""fullscreenenter"",""1"",""4124""
","
",,,,,,,,,,,,"[{""stimulus"":""run_exp/static/images/task_images/dig.jpg"",""time"":0.10000000149011612},{""stimulus"":""run_exp/static/images/task_images/land.jpg"",""time"":868.6000000014901},{""stimulus"":""run_exp/static/images/task_images/dig.jpg"",""time"":1733.7000000029802}]",[],8,,,,,,,,,,,,,,
harvest,192,585671,0.0-59.0-1.0,"""event"",""trial"",""time""
""fullscreenenter"",""1"",""4124""
","
","
","""event"",""trial"",""time""
""fullscreenenter"",""1"",""4124""
","
",,null,run_exp/static/images/task_images/gems/84.jpg,null,,,,,,,70,,,8,,,,,84,0.838083853,0.833333333,,,,,,,
decision,193,585942,0.0-59.0-2.0,"""event"",""trial"",""time""
""fullscreenenter"",""1"",""4124""
","
","
","""event"",""trial"",""time""
""fullscreenenter"",""1"",""4124""
","
",,269.9,run_exp/static/images/task_images/land.jpg,65,,,,,,,70,,,8,,,,,,,,255050,1,1,FALSE,,,
dig,194,588677,0.0-60.0-0.0,"""event"",""trial"",""time""
""fullscreenenter"",""1"",""4124""
","
","
","""event"",""trial"",""time""
""fullscreenenter"",""1"",""4124""
","
",,,,,,,,,,,,"[{""stimulus"":""run_exp/static/images/task_images/dig.jpg"",""time"":0},{""stimulus"":""run_exp/static/images/task_images/land.jpg"",""time"":918.7999999970198},{""stimulus"":""run_exp/static/images/task_images/dig.jpg"",""time"":1827.7999999970198}]",[],8,,,,,,,,,,,,,,
harvest,195,589688,0.0-60.0-1.0,"""event"",""trial"",""time""
""fullscreenenter"",""1"",""4124""
","
","
","""event"",""trial"",""time""
""fullscreenenter"",""1"",""4124""
","
",,null,run_exp/static/images/task_images/gems/70.jpg,null,,,,,,,59,,,8,,,,,70,0.838490723,0.842857143,,,,,,,
decision,196,590581,0.0-60.0-2.0,"""event"",""trial"",""time""
""fullscreenenter"",""1"",""4124""
","
","
","""event"",""trial"",""time""
""fullscreenenter"",""1"",""4124""
","
",,893.2,run_exp/static/images/task_images/land.jpg,65,,,,,,,59,,,8,,,,,,,,259689,1,2,FALSE,,,
dig,197,592692,0.0-61.0-0.0,"""event"",""trial"",""time""
""fullscreenenter"",""1"",""4124""
","
","
","""event"",""trial"",""time""
""fullscreenenter"",""1"",""4124""
","
",,,,,,,,,,,,"[{""stimulus"":""run_exp/static/images/task_images/dig.jpg"",""time"":0.09999999403953552},{""stimulus"":""run_exp/static/images/task_images/land.jpg"",""time"":708.3999999985099},{""stimulus"":""run_exp/static/images/task_images/dig.jpg"",""time"":1404.5999999940395}]",[],8,,,,,,,,,,,,,,
harvest,198,593704,0.0-61.0-1.0,"""event"",""trial"",""time""
""fullscreenenter"",""1"",""4124""
","
","
","""event"",""trial"",""time""
""fullscreenenter"",""1"",""4124""
","
",,null,run_exp/static/images/task_images/gems/59.jpg,null,,,,,,,43,,,8,,,,,59,0.732039318,0.728813559,,,,,,,
decision,199,594086,0.0-61.0-2.0,"""event"",""trial"",""time""
""fullscreenenter"",""1"",""4124""
","
","
","""event"",""trial"",""time""
""fullscreenenter"",""1"",""4124""
","
",,380.9,run_exp/static/images/task_images/land.jpg,65,,,,,,,43,,,8,,,,,,,,263194,1,3,FALSE,,,
dig,200,596720,0.0-62.0-0.0,"""event"",""trial"",""time""
""fullscreenenter"",""1"",""4124""
","
","
","""event"",""trial"",""time""
""fullscreenenter"",""1"",""4124""
","
",,,,,,,,,,,,"[{""stimulus"":""run_exp/static/images/task_images/dig.jpg"",""time"":0.10000000149011612},{""stimulus"":""run_exp/static/images/task_images/land.jpg"",""time"":878.5},{""stimulus"":""run_exp/static/images/task_images/dig.jpg"",""time"":1750.3999999985099}]",[],8,,,,,,,,,,,,,,
harvest,201,597726,0.0-62.0-1.0,"""event"",""trial"",""time""
""fullscreenenter"",""1"",""4124""
","
","
","""event"",""trial"",""time""
""fullscreenenter"",""1"",""4124""
","
",,null,run_exp/static/images/task_images/gems/43.jpg,null,,,,,,,34,,,8,,,,,43,0.784691454,0.790697674,,,,,,,
decision,202,597973,0.0-62.0-2.0,"""event"",""trial"",""time""
""fullscreenenter"",""1"",""4124""
","
","
","""event"",""trial"",""time""
""fullscreenenter"",""1"",""4124""
","
",,246.6,run_exp/static/images/task_images/land.jpg,65,,,,,,,34,,,8,,,,,,,,267082,1,4,FALSE,,,
dig,203,600732,0.0-63.0-0.0,"""event"",""trial"",""time""
""fullscreenenter"",""1"",""4124""
","
","
","""event"",""trial"",""time""
""fullscreenenter"",""1"",""4124""
","
",,,,,,,,,,,,"[{""stimulus"":""run_exp/static/images/task_images/dig.jpg"",""time"":0},{""stimulus"":""run_exp/static/images/task_images/land.jpg"",""time"":928.7000000029802},{""stimulus"":""run_exp/static/images/task_images/dig.jpg"",""time"":1835.5}]",[],8,,,,,,,,,,,,,,
harvest,204,601740,0.0-63.0-1.0,"""event"",""trial"",""time""
""fullscreenenter"",""1"",""4124""
","
","
","""event"",""trial"",""time""
""fullscreenenter"",""1"",""4124""
","
",,null,run_exp/static/images/task_images/gems/34.jpg,null,,,,,,,26,,,8,,,,,34,0.751834163,0.764705882,,,,,,,
decision,205,601973,0.0-63.0-2.0,"""event"",""trial"",""time""
""fullscreenenter"",""1"",""4124""
","
","
","""event"",""trial"",""time""
""fullscreenenter"",""1"",""4124""
","
",,233.2,run_exp/static/images/task_images/land.jpg,65,,,,,,,26,,,8,,,,,,,,271081,1,5,FALSE,,,
dig,206,604752,0.0-64.0-0.0,"""event"",""trial"",""time""
""fullscreenenter"",""1"",""4124""
","
","
","""event"",""trial"",""time""
""fullscreenenter"",""1"",""4124""
","
",,,,,,,,,,,,"[{""stimulus"":""run_exp/static/images/task_images/dig.jpg"",""time"":0.09999999403953552},{""stimulus"":""run_exp/static/images/task_images/land.jpg"",""time"":928.7999999970198},{""stimulus"":""run_exp/static/images/task_images/dig.jpg"",""time"":1852.0999999940395}]",[],8,,,,,,,,,,,,,,
harvest,207,605755,0.0-64.0-1.0,"""event"",""trial"",""time""
""fullscreenenter"",""1"",""4124""
","
","
","""event"",""trial"",""time""
""fullscreenenter"",""1"",""4124""
","
",,null,run_exp/static/images/task_images/gems/26.jpg,null,,,,,,,22,,,8,,,,,26,0.830204538,0.846153846,,,,,,,
decision,208,606485,0.0-64.0-2.0,"""event"",""trial"",""time""
""fullscreenenter"",""1"",""4124""
","
","
","""event"",""trial"",""time""
""fullscreenenter"",""1"",""4124""
","
",,729.9,run_exp/static/images/task_images/land.jpg,76,,,,,,,22,,,8,,,,,,,,275594,1,6,TRUE,,,
travel,209,615765,0.0-65.0-0.0,"""event"",""trial"",""time""
""fullscreenenter"",""1"",""4124""
","
","
","""event"",""trial"",""time""
""fullscreenenter"",""1"",""4124""
","
",,,,,,,,,,,,"[{""stimulus"":""run_exp/static/images/task_images/rocket-01.jpg"",""time"":0.10000000149011612},{""stimulus"":""run_exp/static/images/task_images/rocket-02.jpg"",""time"":1040.3999999985099},{""stimulus"":""run_exp/static/images/task_images/rocket-03.jpg"",""time"":2062.2000000029802},{""stimulus"":""run_exp/static/images/task_images/rocket-04.jpg"",""time"":3096.60000000149},{""stimulus"":""run_exp/static/images/task_images/rocket-05.jpg"",""time"":4128.89999999851},{""stimulus"":""run_exp/static/images/task_images/rocket-06.jpg"",""time"":5150.60000000149},{""stimulus"":""run_exp/static/images/task_images/rocket-07.jpg"",""time"":6189.89999999851},{""stimulus"":""run_exp/static/images/task_images/rocket-08.jpg"",""time"":7215.89999999851},{""stimulus"":""run_exp/static/images/task_images/rocket-09.jpg"",""time"":8246.80000000447}]",[],8,,,,,,,,,,,,,,
alien_welcome,210,620776,0.0-65.0-1.0,"""event"",""trial"",""time""
""fullscreenenter"",""1"",""4124""
","
","
","""event"",""trial"",""time""
""fullscreenenter"",""1"",""4124""
","
",,null,run_exp/static/images/task_images/aliens/old_aliens/planet/alien_planet-4.jpg,null,,,,,,,,,,,,,4,"51,36,31,7,53,61,1,22,4,40,19,12,13,23,26,66,42,10,30,9,38,48,24,62,29,74,58,27,49,64,15,20,25,34,68,75,43,59,52,6,79,55,11,35",,,,,,,,,,
land,211,621286,0.0-65.0-2.0,"""event"",""trial"",""time""
""fullscreenenter"",""1"",""4124""
","
","
","""event"",""trial"",""time""
""fullscreenenter"",""1"",""4124""
","
",,null,run_exp/static/images/task_images/land.jpg,null,,,,,,,97,,,9,,,,,,,,,,,,,,
dig,212,623294,0.0-65.0-3.0,"""event"",""trial"",""time""
""fullscreenenter"",""1"",""4124""
","
","
","""event"",""trial"",""time""
""fullscreenenter"",""1"",""4124""
","
",,,,,,,,,,,,"[{""stimulus"":""run_exp/static/images/task_images/dig.jpg"",""time"":0.19999999552965164},{""stimulus"":""run_exp/static/images/task_images/land.jpg"",""time"":673},{""stimulus"":""run_exp/static/images/task_images/dig.jpg"",""time"":1340.0999999940395}]",[],9,,,,,,,,,,,,,,
harvest,213,624302,0.0-65.0-4.0,"""event"",""trial"",""time""
""fullscreenenter"",""1"",""4124""
","
","
","""event"",""trial"",""time""
""fullscreenenter"",""1"",""4124""
","
",,null,run_exp/static/images/task_images/gems/97.jpg,null,,,,,,,15,,,9,,,,,97,0.156865536,0.154639175,,,,,,,
decision,214,624949,0.0-65.0-5.0,"""event"",""trial"",""time""
""fullscreenenter"",""1"",""4124""
","
","
","""event"",""trial"",""time""
""fullscreenenter"",""1"",""4124""
","
",,647,run_exp/static/images/task_images/land.jpg,65,,,,,,,15,,,9,,,,,,,,294058,1,0,FALSE,,,
dig,215,627311,0.0-66.0-0.0,"""event"",""trial"",""time""
""fullscreenenter"",""1"",""4124""
","
","
","""event"",""trial"",""time""
""fullscreenenter"",""1"",""4124""
","
",,,,,,,,,,,,"[{""stimulus"":""run_exp/static/images/task_images/dig.jpg"",""time"":0.20000000298023224},{""stimulus"":""run_exp/static/images/task_images/land.jpg"",""time"":788.7000000029802},{""stimulus"":""run_exp/static/images/task_images/dig.jpg"",""time"":1576.1000000014901}]",[],9,,,,,,,,,,,,,,
harvest,216,628319,0.0-66.0-1.0,"""event"",""trial"",""time""
""fullscreenenter"",""1"",""4124""
","
","
","""event"",""trial"",""time""
""fullscreenenter"",""1"",""4124""
","
",,null,run_exp/static/images/task_images/gems/15.jpg,null,,,,,,,3,,,9,,,,,15,0.231244536,0.2,,,,,,,
decision,217,628405,0.0-66.0-2.0,"""event"",""trial"",""time""
""fullscreenenter"",""1"",""4124""
","
","
","""event"",""trial"",""time""
""fullscreenenter"",""1"",""4124""
","
",,85.3,run_exp/static/images/task_images/land.jpg,76,,,,,,,3,,,9,,,,,,,,297514,1,1,TRUE,,,
travel,218,638327,0.0-67.0-0.0,"""event"",""trial"",""time""
""fullscreenenter"",""1"",""4124""
","
","
","""event"",""trial"",""time""
""fullscreenenter"",""1"",""4124""
","
",,,,,,,,,,,,"[{""stimulus"":""run_exp/static/images/task_images/rocket-01.jpg"",""time"":0.20000000298023224},{""stimulus"":""run_exp/static/images/task_images/rocket-02.jpg"",""time"":1110},{""stimulus"":""run_exp/static/images/task_images/rocket-03.jpg"",""time"":2209.2000000029802},{""stimulus"":""run_exp/static/images/task_images/rocket-04.jpg"",""time"":3312.2000000029802},{""stimulus"":""run_exp/static/images/task_images/rocket-05.jpg"",""time"":4412.30000000447},{""stimulus"":""run_exp/static/images/task_images/rocket-06.jpg"",""time"":5512.20000000298},{""stimulus"":""run_exp/static/images/task_images/rocket-07.jpg"",""time"":6613},{""stimulus"":""run_exp/static/images/task_images/rocket-08.jpg"",""time"":7718.5},{""stimulus"":""run_exp/static/images/task_images/rocket-09.jpg"",""time"":8812}]",[],9,,,,,,,,,,,,,,
alien_welcome,219,643335,0.0-67.0-1.0,"""event"",""trial"",""time""
""fullscreenenter"",""1"",""4124""
","
","
","""event"",""trial"",""time""
""fullscreenenter"",""1"",""4124""
","
",,null,run_exp/static/images/task_images/aliens/old_aliens/planet/alien_planet-40.jpg,null,,,,,,,,,,,,,40,"51,36,31,7,53,61,1,22,4,40,19,12,13,23,26,66,42,10,30,9,38,48,24,62,29,74,58,27,49,64,15,20,25,34,68,75,43,59,52,6,79,55,11,35",,,,,,,,,,
land,220,643844,0.0-67.0-2.0,"""event"",""trial"",""time""
""fullscreenenter"",""1"",""4124""
","
","
","""event"",""trial"",""time""
""fullscreenenter"",""1"",""4124""
","
",,null,run_exp/static/images/task_images/land.jpg,null,,,,,,,93,,,10,,,,,,,,,,,,,,
dig,221,645852,0.0-67.0-3.0,"""event"",""trial"",""time""
""fullscreenenter"",""1"",""4124""
","
","
","""event"",""trial"",""time""
""fullscreenenter"",""1"",""4124""
","
",,,,,,,,,,,,"[{""stimulus"":""run_exp/static/images/task_images/dig.jpg"",""time"":0.19999999552965164},{""stimulus"":""run_exp/static/images/task_images/land.jpg"",""time"":674.3999999985099},{""stimulus"":""run_exp/static/images/task_images/dig.jpg"",""time"":1346.1999999955297}]",[],10,,,,,,,,,,,,,,
harvest,222,646862,0.0-67.0-4.0,"""event"",""trial"",""time""
""fullscreenenter"",""1"",""4124""
","
","
","""event"",""trial"",""time""
""fullscreenenter"",""1"",""4124""
","
",,null,run_exp/static/images/task_images/gems/93.jpg,null,,,,,,,18,,,10,,,,,93,0.195927273,0.193548387,,,,,,,
decision,223,647573,0.0-67.0-5.0,"""event"",""trial"",""time""
""fullscreenenter"",""1"",""4124""
","
","
","""event"",""trial"",""time""
""fullscreenenter"",""1"",""4124""
","
",,710.6,run_exp/static/images/task_images/land.jpg,65,,,,,,,18,,,10,,,,,,,,316682,1,0,TRUE,,,
end_of_block_continue,224,656429,0.0-68.0-0.0,"""event"",""trial"",""time""
""fullscreenenter"",""1"",""4124""
","
","
","""event"",""trial"",""time""
""fullscreenenter"",""1"",""4124""
","
",,null,run_exp/static/audio/clip_32_block_end.m4a,,,,,,,null,,,,,,,,,,,,,,,,,,
alien_welcome,225,661437,0.0-69.0-0.0,"""event"",""trial"",""time""
""fullscreenenter"",""1"",""4124""
","
","
","""event"",""trial"",""time""
""fullscreenenter"",""1"",""4124""
","
",,null,run_exp/static/images/task_images/aliens/old_aliens/planet/alien_planet-19.jpg,null,,,,,,,,,,,,,19,"51,36,31,7,53,61,1,22,4,40,19,12,13,23,26,66,42,10,30,9,38,48,24,62,29,74,58,27,49,64,15,20,25,34,68,75,43,59,52,6,79,55,11,35",,,,,,,,,,
land,226,661944,0.0-69.0-1.0,"""event"",""trial"",""time""
""fullscreenenter"",""1"",""4124""
","
","
","""event"",""trial"",""time""
""fullscreenenter"",""1"",""4124""
","
",,null,run_exp/static/images/task_images/land.jpg,null,,,,,,,106,,,11,,,,,,,,,,,,,,
dig,227,663952,0.0-69.0-2.0,"""event"",""trial"",""time""
""fullscreenenter"",""1"",""4124""
","
","
","""event"",""trial"",""time""
""fullscreenenter"",""1"",""4124""
","
",,,,,,,,,,,,"[{""stimulus"":""run_exp/static/images/task_images/dig.jpg"",""time"":0.10000000149011612},{""stimulus"":""run_exp/static/images/task_images/land.jpg"",""time"":679.6000000014901},{""stimulus"":""run_exp/static/images/task_images/dig.jpg"",""time"":1339.1000000014901}]",[],11,,,,,,,,,,,,,,
harvest,228,664959,0.0-69.0-3.0,"""event"",""trial"",""time""
""fullscreenenter"",""1"",""4124""
","
","
","""event"",""trial"",""time""
""fullscreenenter"",""1"",""4124""
","
",,null,run_exp/static/images/task_images/gems/106.jpg,null,,,,,,,27,,,11,,,,,106,0.251189797,0.254716981,,,,,,,
decision,229,665925,0.0-69.0-4.0,"""event"",""trial"",""time""
""fullscreenenter"",""1"",""4124""
","
","
","""event"",""trial"",""time""
""fullscreenenter"",""1"",""4124""
","
",,966,run_exp/static/images/task_images/land.jpg,65,,,,,,,27,,,11,,,,,,,,9489,2,0,FALSE,,,
dig,230,667968,0.0-70.0-0.0,"""event"",""trial"",""time""
""fullscreenenter"",""1"",""4124""
","
","
","""event"",""trial"",""time""
""fullscreenenter"",""1"",""4124""
","
",,,,,,,,,,,,"[{""stimulus"":""run_exp/static/images/task_images/dig.jpg"",""time"":0.10000000149011612},{""stimulus"":""run_exp/static/images/task_images/land.jpg"",""time"":686.6000000014901},{""stimulus"":""run_exp/static/images/task_images/dig.jpg"",""time"":1368.3000000044703}]",[],11,,,,,,,,,,,,,,
harvest,231,668976,0.0-70.0-1.0,"""event"",""trial"",""time""
""fullscreenenter"",""1"",""4124""
","
","
","""event"",""trial"",""time""
""fullscreenenter"",""1"",""4124""
","
",,null,run_exp/static/images/task_images/gems/27.jpg,null,,,,,,,5,,,11,,,,,27,0.199178801,0.185185185,,,,,,,
decision,232,669070,0.0-70.0-2.0,"""event"",""trial"",""time""
""fullscreenenter"",""1"",""4124""
","
","
","""event"",""trial"",""time""
""fullscreenenter"",""1"",""4124""
","
",,92.9,run_exp/static/images/task_images/land.jpg,65,,,,,,,5,,,11,,,,,,,,12634,2,1,FALSE,,,
dig,233,671989,0.0-71.0-0.0,"""event"",""trial"",""time""
""fullscreenenter"",""1"",""4124""
","
","
","""event"",""trial"",""time""
""fullscreenenter"",""1"",""4124""
","
",,,,,,,,,,,,"[{""stimulus"":""run_exp/static/images/task_images/dig.jpg"",""time"":0},{""stimulus"":""run_exp/static/images/task_images/land.jpg"",""time"":976.7999999970198},{""stimulus"":""run_exp/static/images/task_images/dig.jpg"",""time"":1939.8999999985099}]",[],11,,,,,,,,,,,,,,
harvest,234,672995,0.0-71.0-1.0,"""event"",""trial"",""time""
""fullscreenenter"",""1"",""4124""
","
","
","""event"",""trial"",""time""
""fullscreenenter"",""1"",""4124""
","
",,null,run_exp/static/images/task_images/gems/5.jpg,null,,,,,,,1,,,11,,,,,5,0.145065755,0.2,,,,,,,
decision,235,673206,0.0-71.0-2.0,"""event"",""trial"",""time""
""fullscreenenter"",""1"",""4124""
","
","
","""event"",""trial"",""time""
""fullscreenenter"",""1"",""4124""
","
",,209.8,run_exp/static/images/task_images/land.jpg,76,,,,,,,1,,,11,,,,,,,,16770,2,2,TRUE,,,
travel,236,683000,0.0-72.0-0.0,"""event"",""trial"",""time""
""fullscreenenter"",""1"",""4124""
","
","
","""event"",""trial"",""time""
""fullscreenenter"",""1"",""4124""
","
",,,,,,,,,,,,"[{""stimulus"":""run_exp/static/images/task_images/rocket-01.jpg"",""time"":0},{""stimulus"":""run_exp/static/images/task_images/rocket-02.jpg"",""time"":1092.8000000044703},{""stimulus"":""run_exp/static/images/task_images/rocket-03.jpg"",""time"":2181.7000000029802},{""stimulus"":""run_exp/static/images/task_images/rocket-04.jpg"",""time"":3269.39999999851},{""stimulus"":""run_exp/static/images/task_images/rocket-05.jpg"",""time"":4353.5},{""stimulus"":""run_exp/static/images/task_images/rocket-06.jpg"",""time"":5444},{""stimulus"":""run_exp/static/images/task_images/rocket-07.jpg"",""time"":6526.39999999851},{""stimulus"":""run_exp/static/images/task_images/rocket-08.jpg"",""time"":7611.80000000447},{""stimulus"":""run_exp/static/images/task_images/rocket-09.jpg"",""time"":8704.60000000149}]",[],11,,,,,,,,,,,,,,
alien_welcome,237,688005,0.0-72.0-1.0,"""event"",""trial"",""time""
""fullscreenenter"",""1"",""4124""
","
","
","""event"",""trial"",""time""
""fullscreenenter"",""1"",""4124""
","
",,null,run_exp/static/images/task_images/aliens/old_aliens/planet/alien_planet-12.jpg,null,,,,,,,,,,,,,12,"51,36,31,7,53,61,1,22,4,40,19,12,13,23,26,66,42,10,30,9,38,48,24,62,29,74,58,27,49,64,15,20,25,34,68,75,43,59,52,6,79,55,11,35",,,,,,,,,,
land,238,688510,0.0-72.0-2.0,"""event"",""trial"",""time""
""fullscreenenter"",""1"",""4124""
","
","
","""event"",""trial"",""time""
""fullscreenenter"",""1"",""4124""
","
",,null,run_exp/static/images/task_images/land.jpg,null,,,,,,,104,,,12,,,,,,,,,,,,,,
dig,239,690516,0.0-72.0-3.0,"""event"",""trial"",""time""
""fullscreenenter"",""1"",""4124""
","
","
","""event"",""trial"",""time""
""fullscreenenter"",""1"",""4124""
","
",,,,,,,,,,,,"[{""stimulus"":""run_exp/static/images/task_images/dig.jpg"",""time"":0.10000000149011612},{""stimulus"":""run_exp/static/images/task_images/land.jpg"",""time"":672.7999999970198},{""stimulus"":""run_exp/static/images/task_images/dig.jpg"",""time"":1337.5}]",[],12,,,,,,,,,,,,,,
harvest,240,691527,0.0-72.0-4.0,"""event"",""trial"",""time""
""fullscreenenter"",""1"",""4124""
","
","
","""event"",""trial"",""time""
""fullscreenenter"",""1"",""4124""
","
",,null,run_exp/static/images/task_images/gems/104.jpg,null,,,,,,,18,,,12,,,,,104,0.176825505,0.173076923,,,,,,,
decision,241,691974,0.0-72.0-5.0,"""event"",""trial"",""time""
""fullscreenenter"",""1"",""4124""
","
","
","""event"",""trial"",""time""
""fullscreenenter"",""1"",""4124""
","
",,445.9,run_exp/static/images/task_images/land.jpg,65,,,,,,,18,,,12,,,,,,,,35538,2,0,FALSE,,,
dig,242,694533,0.0-73.0-0.0,"""event"",""trial"",""time""
""fullscreenenter"",""1"",""4124""
","
","
","""event"",""trial"",""time""
""fullscreenenter"",""1"",""4124""
","
",,,,,,,,,,,,"[{""stimulus"":""run_exp/static/images/task_images/dig.jpg"",""time"":0.10000000149011612},{""stimulus"":""run_exp/static/images/task_images/land.jpg"",""time"":860.2000000029802},{""stimulus"":""run_exp/static/images/task_images/dig.jpg"",""time"":1710.8000000044703}]",[],12,,,,,,,,,,,,,,
harvest,243,695540,0.0-73.0-1.0,"""event"",""trial"",""time""
""fullscreenenter"",""1"",""4124""
","
","
","""event"",""trial"",""time""
""fullscreenenter"",""1"",""4124""
","
",,null,run_exp/static/images/task_images/gems/18.jpg,null,,,,,,,3,,,12,,,,,18,0.165046218,0.166666667,,,,,,,
decision,244,695981,0.0-73.0-2.0,"""event"",""trial"",""time""
""fullscreenenter"",""1"",""4124""
","
","
","""event"",""trial"",""time""
""fullscreenenter"",""1"",""4124""
","
",,441,run_exp/static/images/task_images/land.jpg,76,,,,,,,3,,,12,,,,,,,,39546,2,1,TRUE,,,
travel,245,705550,0.0-74.0-0.0,"""event"",""trial"",""time""
""fullscreenenter"",""1"",""4124""
","
","
","""event"",""trial"",""time""
""fullscreenenter"",""1"",""4124""
","
