trial_type,trial_index,time_elapsed,internal_node_id,interactions,blur_events,focus_events,fullscreenenter_events,fullscreenexit_events,success,rt,stimulus,key_press,prompt,subject_id,participant_id,age,gender,button_pressed,next_reward,animation_sequence,responses,planet,curr_prac_trial,n_prac_rounds,alien,aliens,reward_received,decay_rate_actual,decay_rate_exp,time_in_block,block_num,prt,last_trial_on_planet,button_html,bonus,num_failures
pavlovia,0,5,0.0-0.0,"""event"",""trial"",""time""
""fullscreenenter"",""1"",""278086""
","
","
","""event"",""trial"",""time""
""fullscreenenter"",""1"",""278086""
","
",,,,,,,,,,,,,,,,,,,,,,,,,,,,
fullscreen,1,279085,0.0-1.0,"""event"",""trial"",""time""
""fullscreenenter"",""1"",""278086""
","
","
","""event"",""trial"",""time""
""fullscreenenter"",""1"",""278086""
","
",TRUE,,,,,,,,,,,,,,,,,,,,,,,,,,,
instruc_welcome,2,288909,0.0-2.0,"""event"",""trial"",""time""
""fullscreenenter"",""1"",""278086""
","
","
","""event"",""trial"",""time""
""fullscreenenter"",""1"",""278086""
","
",,null,run_exp/static/audio/clip_1_welcome.m4a,null,"<p>Howdy! In this experiment, you’ll be an explorer traveling through space to collect space treasure.</p><p>Your mission is to collect as much treasure as possible.</p><br><br><p><img src='run_exp/static/images/task_images/opening_img-01.jpg' height='300' width='auto'></p>",7927,1818,21.49,Female,,,,,,,,,,,,,,,,,,,
audio-keyboard-response,3,305525,0.0-3.0,"""event"",""trial"",""time""
""fullscreenenter"",""1"",""278086""
","
","
","""event"",""trial"",""time""
""fullscreenenter"",""1"",""278086""
","
",,null,run_exp/static/audio/clip_2_move.m4a,null,,,,,,,,,,,,,,,,,,,,,,,,
welcome_dec,4,308499,0.0-4.0,"""event"",""trial"",""time""
""fullscreenenter"",""1"",""278086""
","
","
","""event"",""trial"",""time""
""fullscreenenter"",""1"",""278086""
","
",,2971.1,"<p>Howdy! In this experiment, you’ll be an explorer traveling through space to collect space treasure.</p><p>Your mission is to collect as much treasure as possible.</p><br><br><p><img src='run_exp/static/images/task_images/opening_img-01.jpg' height='300' width='auto'></p>",,,,,,,0,,,,,,,,,,,,,,,,,,
html-keyboard-response,5,311139,0.0-5.0,"""event"",""trial"",""time""
""fullscreenenter"",""1"",""278086""
","
","
","""event"",""trial"",""time""
""fullscreenenter"",""1"",""278086""
","
",,2635.4,"<p>Howdy! In this experiment, you’ll be an explorer traveling through space to collect space treasure.</p><p>Your mission is to collect as much treasure as possible.</p><br><br><p><img src='run_exp/static/images/task_images/opening_img-01.jpg' height='300' width='auto'></p><button class=""jspsych-html-btn-chosen""><img src=""run_exp/static/images/task_images/planet-01.jpg"" height=""50""></button><button class=""jspsych-html-btn-unchosen""><img src=""run_exp/static/images/task_images/planet-02.jpg"" height=""50""></button><p><b>[press the space bar to lock in your answer]<b><br></p>",32,,,,,,,,,,,,,,,,,,,,,,,,
instruc_welcome,6,320926,0.0-6.0-0.0,"""event"",""trial"",""time""
""fullscreenenter"",""1"",""278086""
","
","
","""event"",""trial"",""time""
""fullscreenenter"",""1"",""278086""
","
",,null,run_exp/static/audio/clip_1_welcome.m4a,null,"<p>Howdy! In this experiment, you’ll be an explorer traveling through space to collect space treasure.</p><p>Your mission is to collect as much treasure as possible.</p><br><br><p><img src='run_exp/static/images/task_images/opening_img-01.jpg' height='300' width='auto'></p>",7927,1818,21,Female,,,,,,,,,,,,,,,,,,,
audio-keyboard-response,7,337545,0.0-6.0-1.0,"""event"",""trial"",""time""
""fullscreenenter"",""1"",""278086""
","
","
","""event"",""trial"",""time""
""fullscreenenter"",""1"",""278086""
","
",,null,run_exp/static/audio/clip_2_move.m4a,null,,,,,,,,,,,,,,,,,,,,,,,,
welcome_dec,8,340130,0.0-6.0-2.0,"""event"",""trial"",""time""
""fullscreenenter"",""1"",""278086""
","
","
","""event"",""trial"",""time""
""fullscreenenter"",""1"",""278086""
","
",,2582,"<p>Howdy! In this experiment, you’ll be an explorer traveling through space to collect space treasure.</p><p>Your mission is to collect as much treasure as possible.</p><br><br><p><img src='run_exp/static/images/task_images/opening_img-01.jpg' height='300' width='auto'></p>",,,,,,,1,,,,,,,,,,,,,,,,,,
html-keyboard-response,9,340344,0.0-6.0-3.0,"""event"",""trial"",""time""
""fullscreenenter"",""1"",""278086""
","
","
","""event"",""trial"",""time""
""fullscreenenter"",""1"",""278086""
","
",,211.5,"<p>Howdy! In this experiment, you’ll be an explorer traveling through space to collect space treasure.</p><p>Your mission is to collect as much treasure as possible.</p><br><br><p><img src='run_exp/static/images/task_images/opening_img-01.jpg' height='300' width='auto'></p><button class=""jspsych-html-btn-unchosen""><img src=""run_exp/static/images/task_images/planet-01.jpg"" height=""50""></button><button class=""jspsych-html-btn-chosen""><img src=""run_exp/static/images/task_images/planet-02.jpg"" height=""50""></button><p><b>[press the space bar to lock in your answer]<b><br></p>",32,,,,,,,,,,,,,,,,,,,,,,,,
instruc_goal,10,350451,0.0-7.0-0.0,"""event"",""trial"",""time""
""fullscreenenter"",""1"",""278086""
","
","
","""event"",""trial"",""time""
""fullscreenenter"",""1"",""278086""
","
",,null,run_exp/static/audio/clip_3_goal.m4a,null,"<p> As a space explorer, you’ll visit different planets to dig for space treasure, these pink gems.</p> <p> The more treasure you dig up, the more bonus money you’ll win! </p><br><br><p><img src='run_exp/static/images/task_images/pink_gem.jpg' height='300' width='auto'></p>",,,,,,,,,,,,,,,,,,,,,,,
instruc_goal,11,352728,0.0-7.0-1.0,"""event"",""trial"",""time""
""fullscreenenter"",""1"",""278086""
","
","
","""event"",""trial"",""time""
""fullscreenenter"",""1"",""278086""
","
",,2273.2,"<p> As a space explorer, you’ll visit different planets to dig for space treasure, these pink gems.</p> <p> The more treasure you dig up, the more bonus money you’ll win! </p><br><br><p><img src='run_exp/static/images/task_images/pink_gem.jpg' height='300' width='auto'></p>",,,,,,,1,,,,,,,,,,,,,,,,,,
html-keyboard-response,12,352986,0.0-7.0-2.0,"""event"",""trial"",""time""
""fullscreenenter"",""1"",""278086""
","
","
","""event"",""trial"",""time""
""fullscreenenter"",""1"",""278086""
","
",,256.4,"<p> As a space explorer, you’ll visit different planets to dig for space treasure, these pink gems.</p> <p> The more treasure you dig up, the more bonus money you’ll win! </p><br><br><p><img src='run_exp/static/images/task_images/pink_gem.jpg' height='300' width='auto'></p><button class=""jspsych-html-btn-unchosen""><img src=""run_exp/static/images/task_images/planet-01.jpg"" height=""50""></button><button class=""jspsych-html-btn-chosen""><img src=""run_exp/static/images/task_images/planet-02.jpg"" height=""50""></button><p><b>[press the space bar to lock in your answer]<b><br></p>",32,,,,,,,,,,,,,,,,,,,,,,,,
instruc_dig,13,369032,0.0-8.0-0.0,"""event"",""trial"",""time""
""fullscreenenter"",""1"",""278086""
","
","
","""event"",""trial"",""time""
""fullscreenenter"",""1"",""278086""
","
",,null,run_exp/static/audio/clip_4_dig.m4a,null,,,,,,,100,,,,,,,,,,,,,,,,,
instruc_dig_try,14,370246,0.0-8.0-1.0,"""event"",""trial"",""time""
""fullscreenenter"",""1"",""278086""
","
","
","""event"",""trial"",""time""
""fullscreenenter"",""1"",""278086""
","
",,1213.3,"<p> When you’ve arrived at a new planet, you will dig once. </p> <p>Then, you get to decide if you want to stay on the planet and dig again or travel to a new planet and dig there.</p> <p> To stay and dig, press the letter <strong>‘A’</strong> on your keyboard. Try pressing it now! </p><p><img src='run_exp/static/images/task_images/land.jpg'  height='700' width='auto'></p>",65,"<p> When you’ve arrived at a new planet, you will dig once. </p> <p>Then, you get to decide if you want to stay on the planet and dig again or travel to a new planet and dig there.</p> <p> To stay and dig, press the letter <strong>‘A’</strong> on your keyboard. Try pressing it now! </p><p><img src='run_exp/static/images/task_images/land.jpg'  height='700' width='auto'></p>",,,,,,100,,,,,,,,,,,,,,,,,
dig_prac,15,372272,0.0-8.0-2.0,"""event"",""trial"",""time""
""fullscreenenter"",""1"",""278086""
","
","
","""event"",""trial"",""time""
""fullscreenenter"",""1"",""278086""
","
",,,,,,,,,,,,"[{""stimulus"":""run_exp/static/images/task_images/dig.jpg"",""time"":0.3999999761581421},{""stimulus"":""run_exp/static/images/task_images/land.jpg"",""time"":679.6000000238419},{""stimulus"":""run_exp/static/images/task_images/dig.jpg"",""time"":1335.6000000238419}]",[],,,,,,,,,,,,,,,
instruc_travel,16,408541,0.0-8.0-3.0,"""event"",""trial"",""time""
""fullscreenenter"",""1"",""278086""
","
","
","""event"",""trial"",""time""
""fullscreenenter"",""1"",""278086""
","
",,null,run_exp/static/audio/clip_5_travel.m4a,null,"<p>Every time you dig up gems, there are less gems on the planet, so the more you dig on a planet the fewer gems you’ll get with each dig.</p><p>When gems are running low, you may want to travel to a new planet. </p> <p>  Planets are very far apart in this galaxy, so it will take some time to travel between them. </p> <br><p>There are lots and lots of planets for you to visit, so you won’t be able to return to any planets you’ve seen before. </p><br><p>To leave this planet and travel to a new one, press the letter <strong>‘L’</strong> on your keyboard. Try pressing it now! </p><p><img src='run_exp/static/images/task_images/rocket-01.jpg'  height='600' width='auto'></p>",,,,,,,,,,,,,,,,,,,,,,,
instruc_travel_try,17,409924,0.0-8.0-4.0,"""event"",""trial"",""time""
""fullscreenenter"",""1"",""278086""
","
","
","""event"",""trial"",""time""
""fullscreenenter"",""1"",""278086""
","
",,1381.1,"<p>Every time you dig up gems, there are less gems on the planet, so the more you dig on a planet the fewer gems you’ll get with each dig.</p><p>When gems are running low, you may want to travel to a new planet. </p> <p>  Planets are very far apart in this galaxy, so it will take some time to travel between them. </p> <br><p>There are lots and lots of planets for you to visit, so you won’t be able to return to any planets you’ve seen before. </p><br><p>To leave this planet and travel to a new one, press the letter <strong>‘L’</strong> on your keyboard. Try pressing it now! </p><p><img src='run_exp/static/images/task_images/rocket-01.jpg'  height='600' width='auto'></p>",76,"<p>Every time you dig up gems, there are less gems on the planet, so the more you dig on a planet the fewer gems you’ll get with each dig.</p><p>When gems are running low, you may want to travel to a new planet. </p> <p>  Planets are very far apart in this galaxy, so it will take some time to travel between them. </p> <br><p>There are lots and lots of planets for you to visit, so you won’t be able to return to any planets you’ve seen before. </p><br><p>To leave this planet and travel to a new one, press the letter <strong>‘L’</strong> on your keyboard. Try pressing it now! </p><p><img src='run_exp/static/images/task_images/rocket-01.jpg'  height='600' width='auto'></p>",,,,,,,,,,,,,,,,,,,,,,,
travel_prac,18,419931,0.0-8.0-5.0,"""event"",""trial"",""time""
""fullscreenenter"",""1"",""278086""
","
","
","""event"",""trial"",""time""
""fullscreenenter"",""1"",""278086""
","
",,,,,,,,,,,,"[{""stimulus"":""run_exp/static/images/task_images/rocket-01.jpg"",""time"":0.5},{""stimulus"":""run_exp/static/images/task_images/rocket-02.jpg"",""time"":1116.1000000238419},{""stimulus"":""run_exp/static/images/task_images/rocket-03.jpg"",""time"":2232.100000023842},{""stimulus"":""run_exp/static/images/task_images/rocket-04.jpg"",""time"":3340.3000000715256},{""stimulus"":""run_exp/static/images/task_images/rocket-05.jpg"",""time"":4452.700000047684},{""stimulus"":""run_exp/static/images/task_images/rocket-06.jpg"",""time"":5568.800000071526},{""stimulus"":""run_exp/static/images/task_images/rocket-07.jpg"",""time"":6678.700000047684},{""stimulus"":""run_exp/static/images/task_images/rocket-08.jpg"",""time"":7782},{""stimulus"":""run_exp/static/images/task_images/rocket-09.jpg"",""time"":8893}]",[],0,,,,,,,,,,,,,,
instruc_alien_greet,19,447174,0.0-8.0-6.0,"""event"",""trial"",""time""
""fullscreenenter"",""1"",""278086""
","
","
","""event"",""trial"",""time""
""fullscreenenter"",""1"",""278086""
","
",,null,run_exp/static/audio/clip_6_alien.m4a,null,"<p>When you arrive at a new planet, the alien who owns the treasure mine on that planet will greet you!</p><p>The better an alien takes care of their mine the easier it is to dig for gems. Some aliens take better care of their mine than others. So, you won’t get exactly the same amount of gems on each planet.</p><p>What the alien looks like does not tell you anything about how many gems there are on the planet.</p><br><p><img src=""run_exp/static/images/task_images/aliens/instructions_aliens/planet/alien_planet-1.jpg""  height=""600"" width=""auto""></p>",,,,,,,,,,,,,,,,,,,,,,,
instruc_alien_greet,20,452698,0.0-8.0-7.0,"""event"",""trial"",""time""
""fullscreenenter"",""1"",""278086""
","
","
","""event"",""trial"",""time""
""fullscreenenter"",""1"",""278086""
","
",,5520.2,"<p>When you arrive at a new planet, the alien who owns the treasure mine on that planet will greet you!</p><p>The better an alien takes care of their mine the easier it is to dig for gems. Some aliens take better care of their mine than others. So, you won’t get exactly the same amount of gems on each planet.</p><p>What the alien looks like does not tell you anything about how many gems there are on the planet.</p><br><p><img src=""run_exp/static/images/task_images/aliens/instructions_aliens/planet/alien_planet-1.jpg""  height=""600"" width=""auto""></p>",,,,,,,1,,,,,,,,,,,,,,,,,,
html-keyboard-response,21,453092,0.0-8.0-8.0,"""event"",""trial"",""time""
""fullscreenenter"",""1"",""278086""
","
","
","""event"",""trial"",""time""
""fullscreenenter"",""1"",""278086""
","
",,391.3,"<p>When you arrive at a new planet, the alien who owns the treasure mine on that planet will greet you!</p><p>The better an alien takes care of their mine the easier it is to dig for gems. Some aliens take better care of their mine than others. So, you won’t get exactly the same amount of gems on each planet.</p><p>What the alien looks like does not tell you anything about how many gems there are on the planet.</p><br><p><img src=""run_exp/static/images/task_images/aliens/instructions_aliens/planet/alien_planet-1.jpg""  height=""600"" width=""auto""></p><button class=""jspsych-html-btn-unchosen""><img src=""run_exp/static/images/task_images/planet-01.jpg"" height=""50""></button><button class=""jspsych-html-btn-chosen""><img src=""run_exp/static/images/task_images/planet-02.jpg"" height=""50""></button><p><b>[press the space bar to lock in your answer]<b><br></p>",32,,,,,,,,,,,,,,,,,,,,,,,,
time_out,22,464219,0.0-9.0-0.0,"""event"",""trial"",""time""
""fullscreenenter"",""1"",""278086""
","
","
","""event"",""trial"",""time""
""fullscreenenter"",""1"",""278086""
","
",,null,run_exp/static/audio/clip_7_timeout.m4a,null,"<p>If you don't make your choice fast enough, you’ll have to wait a few seconds before you can make another one.</p><p>You can’t dig for more gems or travel to new planets. You just have to sit and wait.</p><br><p><img src='run_exp/static/images/task_images/time_out.jpg'  height='600' width='auto'></p>",,,,,,,,,,,,,,,,,,,,,,,
time_out,23,466399,0.0-9.0-1.0,"""event"",""trial"",""time""
""fullscreenenter"",""1"",""278086""
","
","
","""event"",""trial"",""time""
""fullscreenenter"",""1"",""278086""
","
",,2176.2,"<p>If you don't make your choice fast enough, you’ll have to wait a few seconds before you can make another one.</p><p>You can’t dig for more gems or travel to new planets. You just have to sit and wait.</p><br><p><img src='run_exp/static/images/task_images/time_out.jpg'  height='600' width='auto'></p>",,,,,,,1,,,,,,,,,,,,,,,,,,
html-keyboard-response,24,466696,0.0-9.0-2.0,"""event"",""trial"",""time""
""fullscreenenter"",""1"",""278086""
","
","
","""event"",""trial"",""time""
""fullscreenenter"",""1"",""278086""
","
",,295.6,"<p>If you don't make your choice fast enough, you’ll have to wait a few seconds before you can make another one.</p><p>You can’t dig for more gems or travel to new planets. You just have to sit and wait.</p><br><p><img src='run_exp/static/images/task_images/time_out.jpg'  height='600' width='auto'></p><button class=""jspsych-html-btn-unchosen""><img src=""run_exp/static/images/task_images/planet-01.jpg"" height=""50""></button><button class=""jspsych-html-btn-chosen""><img src=""run_exp/static/images/task_images/planet-02.jpg"" height=""50""></button><p><b>[press the space bar to lock in your answer]<b><br></p>",32,,,,,,,,,,,,,,,,,,,,,,,,
instruc_break,25,482374,0.0-10.0-0.0,"""event"",""trial"",""time""
""fullscreenenter"",""1"",""278086""
","
","
","""event"",""trial"",""time""
""fullscreenenter"",""1"",""278086""
","
",,null,run_exp/static/audio/clip_8_break.m4a,null,"<p> After digging and traveling for a while, you’ll be able to take a break at home base. </p><p>The game will last 20 minutes no matter what.</p><p>You will visit home base every 5 minutes, so, you will visit home base three times during the game.</p><br><p><img src='run_exp/static/images/task_images/home_base.jpg' height='600' width='auto'></p>",,,,,,,,,,,,,,,,,,,,,,,
instruc_break,26,484100,0.0-10.0-1.0,"""event"",""trial"",""time""
""fullscreenenter"",""1"",""278086""
","
","
","""event"",""trial"",""time""
""fullscreenenter"",""1"",""278086""
","
",,1723.3,"<p> After digging and traveling for a while, you’ll be able to take a break at home base. </p><p>The game will last 20 minutes no matter what.</p><p>You will visit home base every 5 minutes, so, you will visit home base three times during the game.</p><br><p><img src='run_exp/static/images/task_images/home_base.jpg' height='600' width='auto'></p>",,,,,,,1,,,,,,,,,,,,,,,,,,
html-keyboard-response,27,484457,0.0-10.0-2.0,"""event"",""trial"",""time""
""fullscreenenter"",""1"",""278086""
","
","
","""event"",""trial"",""time""
""fullscreenenter"",""1"",""278086""
","
",,354.5999999,"<p> After digging and traveling for a while, you’ll be able to take a break at home base. </p><p>The game will last 20 minutes no matter what.</p><p>You will visit home base every 5 minutes, so, you will visit home base three times during the game.</p><br><p><img src='run_exp/static/images/task_images/home_base.jpg' height='600' width='auto'></p><button class=""jspsych-html-btn-unchosen""><img src=""run_exp/static/images/task_images/planet-01.jpg"" height=""50""></button><button class=""jspsych-html-btn-chosen""><img src=""run_exp/static/images/task_images/planet-02.jpg"" height=""50""></button><p><b>[press the space bar to lock in your answer]<b><br></p>",32,,,,,,,,,,,,,,,,,,,,,,,,
instruc_prac_game,28,494619,0.0-11.0-0.0,"""event"",""trial"",""time""
""fullscreenenter"",""1"",""278086""
","
","
","""event"",""trial"",""time""
""fullscreenenter"",""1"",""278086""
","
",,null,run_exp/static/audio/clip_9_practice.m4a,null,"<p> Are you ready to play a practice game? </p> <p>In this practice game, you'll be digging up barrels of gems. But, in the real game, you'll be digging up the gems themselves. </p>",,,,,,,,,,,,,,,,,,,,,,,
html-button-response,29,496250,0.0-11.0-1.0,"""event"",""trial"",""time""
""fullscreenenter"",""1"",""278086""
","
","
","""event"",""trial"",""time""
""fullscreenenter"",""1"",""278086""
","
",,1629.2,"<p> Are you ready to play a practice game? </p> <p>In this practice game, you'll be digging up barrels of gems. But, in the real game, you'll be digging up the gems themselves. </p>",,,,,,,0,,,,,,,,,,,,,,,,,,
alien_welcome_prac,30,501257,0.0-12.0-0.0,"""event"",""trial"",""time""
""fullscreenenter"",""1"",""278086""
","
","
","""event"",""trial"",""time""
""fullscreenenter"",""1"",""278086""
","
",,null,run_exp/static/images/task_images/aliens/practice_aliens/planet/alien_planet-5.jpg,null,,,,,,,,,,,,,,,,,,,,,,,,
land_prac,31,501761,0.0-12.0-1.0,"""event"",""trial"",""time""
""fullscreenenter"",""1"",""278086""
","
","
","""event"",""trial"",""time""
""fullscreenenter"",""1"",""278086""
","
",,null,run_exp/static/images/task_images/land.jpg,null,,,,,,,94,,,0,,,,,,,,,,,,,,
dig_prac,32,503770,0.0-12.0-2.0,"""event"",""trial"",""time""
""fullscreenenter"",""1"",""278086""
","
","
","""event"",""trial"",""time""
""fullscreenenter"",""1"",""278086""
","
",,,,,,,,,,,,"[{""stimulus"":""run_exp/static/images/task_images/dig.jpg"",""time"":0.3999999761581421},{""stimulus"":""run_exp/static/images/task_images/land.jpg"",""time"":677.8999999761581},{""stimulus"":""run_exp/static/images/task_images/dig.jpg"",""time"":1345.0999999046326}]",[],,,,,,,,,,,,,,,
harvest_prac,33,504781,0.0-12.0-3.0,"""event"",""trial"",""time""
""fullscreenenter"",""1"",""278086""
","
","
","""event"",""trial"",""time""
""fullscreenenter"",""1"",""278086""
","
",,null,run_exp/static/images/task_images/barrel_text.jpg,null,,,,,,,,,,,,,,,,,,,,,,,,
decision_prac,34,506649,0.0-12.0-4.0,"""event"",""trial"",""time""
""fullscreenenter"",""1"",""278086""
","
","
","""event"",""trial"",""time""
""fullscreenenter"",""1"",""278086""
","
",,1865.7,run_exp/static/images/task_images/land.jpg,65,,,,,,,,,,,1,,,,,,,,,,,,,
dig_prac,35,508658,0.0-13.0-0.0,"""event"",""trial"",""time""
""fullscreenenter"",""1"",""278086""
","
","
","""event"",""trial"",""time""
""fullscreenenter"",""1"",""278086""
","
",,,,,,,,,,,,"[{""stimulus"":""run_exp/static/images/task_images/dig.jpg"",""time"":0.20000004768371582},{""stimulus"":""run_exp/static/images/task_images/land.jpg"",""time"":680.5},{""stimulus"":""run_exp/static/images/task_images/dig.jpg"",""time"":1343.3000000715256}]",[],,,,,,,,,,,,,,,
harvest_prac,36,509665,0.0-13.0-1.0,"""event"",""trial"",""time""
""fullscreenenter"",""1"",""278086""
","
","
","""event"",""trial"",""time""
""fullscreenenter"",""1"",""278086""
","
",,null,run_exp/static/images/task_images/barrel_text.jpg,null,,,,,,,,,,,,,,,,,,,,,,,,
decision_prac,37,510806,0.0-13.0-2.0,"""event"",""trial"",""time""
""fullscreenenter"",""1"",""278086""
","
","
","""event"",""trial"",""time""
""fullscreenenter"",""1"",""278086""
","
",,1139.3,run_exp/static/images/task_images/land.jpg,65,,,,,,,,,,,2,,,,,,,,,,,,,
dig_prac,38,512817,0.0-14.0-0.0,"""event"",""trial"",""time""
""fullscreenenter"",""1"",""278086""
","
","
","""event"",""trial"",""time""
""fullscreenenter"",""1"",""278086""
","
",,,,,,,,,,,,"[{""stimulus"":""run_exp/static/images/task_images/dig.jpg"",""time"":0.40000009536743164},{""stimulus"":""run_exp/static/images/task_images/land.jpg"",""time"":676.3000000715256},{""stimulus"":""run_exp/static/images/task_images/dig.jpg"",""time"":1344}]",[],,,,,,,,,,,,,,,
harvest_prac,39,513829,0.0-14.0-1.0,"""event"",""trial"",""time""
""fullscreenenter"",""1"",""278086""
","
","
","""event"",""trial"",""time""
""fullscreenenter"",""1"",""278086""
","
",,null,run_exp/static/images/task_images/barrel_text.jpg,null,,,,,,,,,,,,,,,,,,,,,,,,
decision_prac,40,515232,0.0-14.0-2.0,"""event"",""trial"",""time""
""fullscreenenter"",""1"",""278086""
","
","
","""event"",""trial"",""time""
""fullscreenenter"",""1"",""278086""
","
",,1401.2,run_exp/static/images/task_images/land.jpg,65,,,,,,,,,,,3,,,,,,,,,,,,,
dig_prac,41,517244,0.0-15.0-0.0,"""event"",""trial"",""time""
""fullscreenenter"",""1"",""278086""
","
","
","""event"",""trial"",""time""
""fullscreenenter"",""1"",""278086""
","
",,,,,,,,,,,,"[{""stimulus"":""run_exp/static/images/task_images/dig.jpg"",""time"":0.19999992847442627},{""stimulus"":""run_exp/static/images/task_images/land.jpg"",""time"":670.3999999761581},{""stimulus"":""run_exp/static/images/task_images/dig.jpg"",""time"":1338}]",[],,,,,,,,,,,,,,,
harvest_prac,42,518253,0.0-15.0-1.0,"""event"",""trial"",""time""
""fullscreenenter"",""1"",""278086""
","
","
","""event"",""trial"",""time""
""fullscreenenter"",""1"",""278086""
","
",,null,run_exp/static/images/task_images/barrel_text.jpg,null,,,,,,,,,,,,,,,,,,,,,,,,
decision_prac,43,519666,0.0-15.0-2.0,"""event"",""trial"",""time""
""fullscreenenter"",""1"",""278086""
","
","
","""event"",""trial"",""time""
""fullscreenenter"",""1"",""278086""
","
",,1411.9,run_exp/static/images/task_images/land.jpg,65,,,,,,,,,,,4,,,,,,,,,,,,,
dig_prac,44,521679,0.0-16.0-0.0,"""event"",""trial"",""time""
""fullscreenenter"",""1"",""278086""
","
","
","""event"",""trial"",""time""
""fullscreenenter"",""1"",""278086""
","
",,,,,,,,,,,,"[{""stimulus"":""run_exp/static/images/task_images/dig.jpg"",""time"":0.19999992847442627},{""stimulus"":""run_exp/static/images/task_images/land.jpg"",""time"":678.5},{""stimulus"":""run_exp/static/images/task_images/dig.jpg"",""time"":1340}]",[],,,,,,,,,,,,,,,
harvest_prac,45,522688,0.0-16.0-1.0,"""event"",""trial"",""time""
""fullscreenenter"",""1"",""278086""
","
","
","""event"",""trial"",""time""
""fullscreenenter"",""1"",""278086""
","
",,null,run_exp/static/images/task_images/barrel_text.jpg,null,,,,,,,,,,,,,,,,,,,,,,,,
decision_prac,46,524021,0.0-16.0-2.0,"""event"",""trial"",""time""
""fullscreenenter"",""1"",""278086""
","
","
","""event"",""trial"",""time""
""fullscreenenter"",""1"",""278086""
","
",,1331.4,run_exp/static/images/task_images/land.jpg,65,,,,,,,,,,,,1,,,,,,,,,,,,
quiz_instruc,47,537183,0.0-17.0-0.0,"""event"",""trial"",""time""
""fullscreenenter"",""1"",""278086""
","
","
","""event"",""trial"",""time""
""fullscreenenter"",""1"",""278086""
","
",,13158.4,run_exp/static/audio/clip_10_quiz.m4a,,,,,,,0,,,,,,,,,,,,,,,,,,
instruc_repeat,48,579993,0.0-17.0-1.0,"""event"",""trial"",""time""
""fullscreenenter"",""1"",""278086""
","
","
","""event"",""trial"",""time""
""fullscreenenter"",""1"",""278086""
","
",,null,"<p> Are you ready to play a practice game? </p> <p>In this practice game, you'll be digging up barrels of gems. But, in the real game, you'll be digging up the gems themselves. </p>",null,"<p>In this game, your goal is to collect as many gems as you can. That’s how you will win bonus money. </p> <p>The entire game will last 20 minutes no matter how many gems you collect or how many planets you visit. </p><p>To stay on a planet and dig again, press the letter A on your keyboard. To leave for a new planet, press the letter L.</p><p>The more you dig on a planet, the fewer gems you’ll get with each dig which is why you might consider leaving for a new planet. </p><p>When you arrive at a new planet, you’ll be greeted by an alien. What the alien looks like does not tell you anything about how much treasure is on the planet. </p>",,,,,,,,,,,,,,,,,,,,,,,
instruc_repeat_continue,49,586670,0.0-17.0-2.0,"""event"",""trial"",""time""
""fullscreenenter"",""1"",""278086""
","
","
","""event"",""trial"",""time""
""fullscreenenter"",""1"",""278086""
","
",,6674.5,"<p> Are you ready to play a practice game? </p> <p>In this practice game, you'll be digging up barrels of gems. But, in the real game, you'll be digging up the gems themselves. </p>",,,,,,,0,,,,,,,,,,,,,,,,,,
quiz_q_1_ask,50,589832,0.0-17.0-3.0,"""event"",""trial"",""time""
""fullscreenenter"",""1"",""278086""
","
","
","""event"",""trial"",""time""
""fullscreenenter"",""1"",""278086""
","
",,3158.5,run_exp/static/audio/clip_11_q1_ask.m4a,,,,,,,2,,,,,,,,,,,,,,,,,,
quiz_q_1_fb_correct,51,593688,0.0-18.0-0.0,"""event"",""trial"",""time""
""fullscreenenter"",""1"",""278086""
","
","
","""event"",""trial"",""time""
""fullscreenenter"",""1"",""278086""
","
",,null,run_exp/static/audio/clip_12_q1_correct.m4a,null,<p>That’s correct. You win extra money by collecting more gems.</p>,,,,,,,,,,,,,,,,,,,,,,,
quiz_q_2_ask,52,601016,0.0-18.0-1.0,"""event"",""trial"",""time""
""fullscreenenter"",""1"",""278086""
","
","
","""event"",""trial"",""time""
""fullscreenenter"",""1"",""278086""
","
",,7324.6,run_exp/static/audio/clip_14_q2_ask.m4a,,,,,,,1,,,,,,,,,,,,,,,,,,
quiz_q_2_fb_correct,53,605037,0.0-19.0-0.0,"""event"",""trial"",""time""
""fullscreenenter"",""1"",""278086""
","
","
","""event"",""trial"",""time""
""fullscreenenter"",""1"",""278086""
","
",,null,run_exp/static/audio/clip_15_q2_correct.m4a,null,<p>That’s correct. The experiment is 20 minutes no matter what.</p>,,,,,,,,,,,,,,,,,,,,,,,
quiz_q_3_ask,54,606684,0.0-19.0-1.0,"""event"",""trial"",""time""
""fullscreenenter"",""1"",""278086""
","
","
","""event"",""trial"",""time""
""fullscreenenter"",""1"",""278086""
","
",,1643.9,run_exp/static/audio/clip_17_q3_ask.m4a,,,,,,,1,,,,,,,,,,,,,,,,,,
quiz_q_3_fb_correct,55,610670,0.0-20.0-0.0,"""event"",""trial"",""time""
""fullscreenenter"",""1"",""278086""
","
","
","""event"",""trial"",""time""
""fullscreenenter"",""1"",""278086""
","
",,null,run_exp/static/audio/clip_18_q3_correct.m4a,null,<p> That’s correct. You press the letter L to travel to a new planet.</p>,,,,,,,,,,,,,,,,,,,,,,,
quiz_q_4_ask,56,615190,0.0-20.0-1.0,"""event"",""trial"",""time""
""fullscreenenter"",""1"",""278086""
","
","
","""event"",""trial"",""time""
""fullscreenenter"",""1"",""278086""
","
",,4517.5,run_exp/static/audio/clip_20_q4_ask.m4a,,,,,,,0,,,,,,,,,,,,,,,,,,
quiz_q_4_fb_correct,57,620504,0.0-21.0-0.0,"""event"",""trial"",""time""
""fullscreenenter"",""1"",""278086""
","
","
","""event"",""trial"",""time""
""fullscreenenter"",""1"",""278086""
","
",,null,run_exp/static/audio/clip_21_q4_correct.m4a,null,<p> That’s correct. The more you dig on a planet the fewer gems you’ll get with each dig. </p>,,,,,,,,,,,,,,,,,,,,,,,
quiz_q_5_ask,58,622114,0.0-21.0-1.0,"""event"",""trial"",""time""
""fullscreenenter"",""1"",""278086""
","
","
","""event"",""trial"",""time""
""fullscreenenter"",""1"",""278086""
","
",,1607.7,run_exp/static/audio/clip_23_q5_ask.m4a,,,,,,,1,,,,,,,,,,,,,,,,,,
quiz_q_5_fb_correct,59,627117,0.0-22.0-0.0,"""event"",""trial"",""time""
""fullscreenenter"",""1"",""278086""
","
","
","""event"",""trial"",""time""
""fullscreenenter"",""1"",""278086""
","
",,null,run_exp/static/audio/clip_24_q5_correct.m4a,null,<p> That’s correct. The alien tells you nothing about how much treasure is on the planet.</p>,,,,,,,,,,,,,,,,,,,,,,,
quiz_correct,60,630573,0.0-23.0-0.0,"""event"",""trial"",""time""
""fullscreenenter"",""1"",""278086""
","
","
","""event"",""trial"",""time""
""fullscreenenter"",""1"",""278086""
","
",,null,run_exp/static/audio/clip_26_correct_quiz.m4a,null,,,,,,,,,,,,,,,,,,,,,,,,
quiz_correct_continue,61,631285,0.0-23.0-1.0,"""event"",""trial"",""time""
""fullscreenenter"",""1"",""278086""
","
","
","""event"",""trial"",""time""
""fullscreenenter"",""1"",""278086""
","
",,709.9,<p>Good job! You're now ready to move on to the real game!</p>,,,,,,,0,,,,,,,,,,,,,,,,,,
audio-keyboard-response,62,641410,0.0-23.0-2.0,"""event"",""trial"",""time""
""fullscreenenter"",""1"",""278086""
","
","
","""event"",""trial"",""time""
""fullscreenenter"",""1"",""278086""
","
",,null,run_exp/static/audio/clip_28_real_game.m4a,null,,,,,,,,,,,,,,,,,,,,,,,,
instruc_begin_exp_contine,63,642145,0.0-23.0-3.0,"""event"",""trial"",""time""
""fullscreenenter"",""1"",""278086""
","
","
","""event"",""trial"",""time""
""fullscreenenter"",""1"",""278086""
","
",,732.5,"<p>Now that you know how  to dig for space treasure and travel to new planets,you can start exploring! </p><p>Do you want to go over the instructions again or get started with the real game?</p>",,,,,,,1,,,,,,1,,,,,,,,,,,,
alien_welcome,64,647158,0.0-24.0-0.0,"""event"",""trial"",""time""
""fullscreenenter"",""1"",""278086""
","
","
","""event"",""trial"",""time""
""fullscreenenter"",""1"",""278086""
","
",,null,run_exp/static/images/task_images/aliens/old_aliens/planet/alien_planet-72.jpg,null,,,,,,,,,,,,,72,"72,43,33,58,15,8,37,38,44,20,47,23,18,51,52,27,60,68,49,3,76,62,56,32,24,42,57,11,34,9,28,59,4,19,67,78,70",,,,,,,,,,
land,65,647670,0.0-24.0-1.0,"""event"",""trial"",""time""
""fullscreenenter"",""1"",""278086""
","
","
","""event"",""trial"",""time""
""fullscreenenter"",""1"",""278086""
","
",,null,run_exp/static/images/task_images/land.jpg,null,,,,,,,104,,,1,,,,,,,,,,,,,,
dig,66,649683,0.0-24.0-2.0,"""event"",""trial"",""time""
""fullscreenenter"",""1"",""278086""
","
","
","""event"",""trial"",""time""
""fullscreenenter"",""1"",""278086""
","
",,,,,,,,,,,,"[{""stimulus"":""run_exp/static/images/task_images/dig.jpg"",""time"":0.3999999761581421},{""stimulus"":""run_exp/static/images/task_images/land.jpg"",""time"":671.5},{""stimulus"":""run_exp/static/images/task_images/dig.jpg"",""time"":1339.1000000238419}]",[],1,,,,,,,,,,,,,,
harvest,67,650689,0.0-24.0-3.0,"""event"",""trial"",""time""
""fullscreenenter"",""1"",""278086""
","
","
","""event"",""trial"",""time""
""fullscreenenter"",""1"",""278086""
","
",,null,run_exp/static/images/task_images/gems/104.jpg,null,,,,,,,19,,,1,,,,,104,0.18573109,0.182692308,,,,,,,
decision,68,651462,0.0-24.0-4.0,"""event"",""trial"",""time""
""fullscreenenter"",""1"",""278086""
","
","
","""event"",""trial"",""time""
""fullscreenenter"",""1"",""278086""
","
",,770.1,run_exp/static/images/task_images/land.jpg,65,,,,,,,19,,,1,,,,,,,,9316,1,0,FALSE,,,
dig,69,653703,0.0-25.0-0.0,"""event"",""trial"",""time""
""fullscreenenter"",""1"",""278086""
","
","
","""event"",""trial"",""time""
""fullscreenenter"",""1"",""278086""
","
",,,,,,,,,,,,"[{""stimulus"":""run_exp/static/images/task_images/dig.jpg"",""time"":0.30000007152557373},{""stimulus"":""run_exp/static/images/task_images/land.jpg"",""time"":749.7000000476837},{""stimulus"":""run_exp/static/images/task_images/dig.jpg"",""time"":1494.3999999761581}]",[],1,,,,,,,,,,,,,,
harvest,70,654716,0.0-25.0-1.0,"""event"",""trial"",""time""
""fullscreenenter"",""1"",""278086""
","
","
","""event"",""trial"",""time""
""fullscreenenter"",""1"",""278086""
","
",,null,run_exp/static/images/task_images/gems/19.jpg,null,,,,,,,4,,,1,,,,,19,0.205214528,0.210526316,,,,,,,
decision,71,655460,0.0-25.0-2.0,"""event"",""trial"",""time""
""fullscreenenter"",""1"",""278086""
","
","
","""event"",""trial"",""time""
""fullscreenenter"",""1"",""278086""
","
",,741.7,run_exp/static/images/task_images/land.jpg,65,,,,,,,4,,,1,,,,,,,,13313,1,1,FALSE,,,
dig,72,657729,0.0-26.0-0.0,"""event"",""trial"",""time""
""fullscreenenter"",""1"",""278086""
","
","
","""event"",""trial"",""time""
""fullscreenenter"",""1"",""278086""
","
",,,,,,,,,,,,"[{""stimulus"":""run_exp/static/images/task_images/dig.jpg"",""time"":0.20000004768371582},{""stimulus"":""run_exp/static/images/task_images/land.jpg"",""time"":761.5},{""stimulus"":""run_exp/static/images/task_images/dig.jpg"",""time"":1517.6000000238419}]",[],1,,,,,,,,,,,,,,
harvest,73,658735,0.0-26.0-1.0,"""event"",""trial"",""time""
""fullscreenenter"",""1"",""278086""
","
","
","""event"",""trial"",""time""
""fullscreenenter"",""1"",""278086""
","
",,null,run_exp/static/images/task_images/gems/4.jpg,null,,,,,,,1,,,1,,,,,4,0.196753784,0.25,,,,,,,
decision,74,659786,0.0-26.0-2.0,"""event"",""trial"",""time""
""fullscreenenter"",""1"",""278086""
","
","
","""event"",""trial"",""time""
""fullscreenenter"",""1"",""278086""
","
",,1048.5,run_exp/static/images/task_images/land.jpg,65,,,,,,,1,,,1,,,,,,,,17639,1,2,FALSE,,,
dig,75,661743,0.0-27.0-0.0,"""event"",""trial"",""time""
""fullscreenenter"",""1"",""278086""
","
","
","""event"",""trial"",""time""
""fullscreenenter"",""1"",""278086""
","
",,,,,,,,,,,,"[{""stimulus"":""run_exp/static/images/task_images/dig.jpg"",""time"":0.20000004768371582},{""stimulus"":""run_exp/static/images/task_images/land.jpg"",""time"":660.8000000715256},{""stimulus"":""run_exp/static/images/task_images/dig.jpg"",""time"":1313.1000000238419}]",[],1,,,,,,,,,,,,,,
harvest,76,662752,0.0-27.0-1.0,"""event"",""trial"",""time""
""fullscreenenter"",""1"",""278086""
","
","
","""event"",""trial"",""time""
""fullscreenenter"",""1"",""278086""
","
",,null,run_exp/static/images/task_images/gems/1.jpg,null,,,,,,,0,,,1,,,,,1,0.15460302,0,,,,,,,
decision,77,663358,0.0-27.0-2.0,"""event"",""trial"",""time""
""fullscreenenter"",""1"",""278086""
","
","
","""event"",""trial"",""time""
""fullscreenenter"",""1"",""278086""
","
",,604,run_exp/static/images/task_images/land.jpg,76,,,,,,,0,,,1,,,,,,,,21211,1,3,TRUE,,,
travel,78,672769,0.0-28.0-0.0,"""event"",""trial"",""time""
""fullscreenenter"",""1"",""278086""
","
","
","""event"",""trial"",""time""
""fullscreenenter"",""1"",""278086""
","
",,,,,,,,,,,,"[{""stimulus"":""run_exp/static/images/task_images/rocket-01.jpg"",""time"":0.20000004768371582},{""stimulus"":""run_exp/static/images/task_images/rocket-02.jpg"",""time"":1057},{""stimulus"":""run_exp/static/images/task_images/rocket-03.jpg"",""time"":2095.8000000715256},{""stimulus"":""run_exp/static/images/task_images/rocket-04.jpg"",""time"":3146.2000000476837},{""stimulus"":""run_exp/static/images/task_images/rocket-05.jpg"",""time"":4182},{""stimulus"":""run_exp/static/images/task_images/rocket-06.jpg"",""time"":5232.100000023842},{""stimulus"":""run_exp/static/images/task_images/rocket-07.jpg"",""time"":6271.300000071526},{""stimulus"":""run_exp/static/images/task_images/rocket-08.jpg"",""time"":7318.800000071526},{""stimulus"":""run_exp/static/images/task_images/rocket-09.jpg"",""time"":8356.200000047684}]",[],1,,,,,,,,,,,,,,
alien_welcome,79,677780,0.0-28.0-1.0,"""event"",""trial"",""time""
""fullscreenenter"",""1"",""278086""
","
","
","""event"",""trial"",""time""
""fullscreenenter"",""1"",""278086""
","
",,null,run_exp/static/images/task_images/aliens/old_aliens/planet/alien_planet-43.jpg,null,,,,,,,,,,,,,43,"72,43,33,58,15,8,37,38,44,20,47,23,18,51,52,27,60,68,49,3,76,62,56,32,24,42,57,11,34,9,28,59,4,19,67,78,70",,,,,,,,,,
land,80,678288,0.0-28.0-2.0,"""event"",""trial"",""time""
""fullscreenenter"",""1"",""278086""
","
","
","""event"",""trial"",""time""
""fullscreenenter"",""1"",""278086""
","
",,null,run_exp/static/images/task_images/land.jpg,null,,,,,,,100,,,2,,,,,,,,,,,,,,
dig,81,680299,0.0-28.0-3.0,"""event"",""trial"",""time""
""fullscreenenter"",""1"",""278086""
","
","
","""event"",""trial"",""time""
""fullscreenenter"",""1"",""278086""
","
",,,,,,,,,,,,"[{""stimulus"":""run_exp/static/images/task_images/dig.jpg"",""time"":0.5},{""stimulus"":""run_exp/static/images/task_images/land.jpg"",""time"":674.3999999761581},{""stimulus"":""run_exp/static/images/task_images/dig.jpg"",""time"":1342.6999999284744}]",[],2,,,,,,,,,,,,,,
harvest,82,681308,0.0-28.0-4.0,"""event"",""trial"",""time""
""fullscreenenter"",""1"",""278086""
","
","
","""event"",""trial"",""time""
""fullscreenenter"",""1"",""278086""
","
",,null,run_exp/static/images/task_images/gems/100.jpg,null,,,,,,,18,,,2,,,,,100,0.183580464,0.18,,,,,,,
decision,83,681839,0.0-28.0-5.0,"""event"",""trial"",""time""
""fullscreenenter"",""1"",""278086""
","
","
","""event"",""trial"",""time""
""fullscreenenter"",""1"",""278086""
","
",,529.1,run_exp/static/images/task_images/land.jpg,65,,,,,,,18,,,2,,,,,,,,39692,1,0,FALSE,,,
dig,84,684324,0.0-29.0-0.0,"""event"",""trial"",""time""
""fullscreenenter"",""1"",""278086""
","
","
","""event"",""trial"",""time""
""fullscreenenter"",""1"",""278086""
","
",,,,,,,,,,,,"[{""stimulus"":""run_exp/static/images/task_images/dig.jpg"",""time"":0.20000004768371582},{""stimulus"":""run_exp/static/images/task_images/land.jpg"",""time"":834.1000000238419},{""stimulus"":""run_exp/static/images/task_images/dig.jpg"",""time"":1657}]",[],2,,,,,,,,,,,,,,
harvest,85,685332,0.0-29.0-1.0,"""event"",""trial"",""time""
""fullscreenenter"",""1"",""278086""
","
","
","""event"",""trial"",""time""
""fullscreenenter"",""1"",""278086""
","
",,null,run_exp/static/images/task_images/gems/18.jpg,null,,,,,,,3,,,2,,,,,18,0.146684125,0.166666667,,,,,,,
decision,86,685807,0.0-29.0-2.0,"""event"",""trial"",""time""
""fullscreenenter"",""1"",""278086""
","
","
","""event"",""trial"",""time""
""fullscreenenter"",""1"",""278086""
","
",,472.9,run_exp/static/images/task_images/land.jpg,65,,,,,,,3,,,2,,,,,,,,43660,1,1,FALSE,,,
dig,87,688344,0.0-30.0-0.0,"""event"",""trial"",""time""
""fullscreenenter"",""1"",""278086""
","
","
","""event"",""trial"",""time""
""fullscreenenter"",""1"",""278086""
","
",,,,,,,,,,,,"[{""stimulus"":""run_exp/static/images/task_images/dig.jpg"",""time"":0.20000004768371582},{""stimulus"":""run_exp/static/images/task_images/land.jpg"",""time"":845.8000000715256},{""stimulus"":""run_exp/static/images/task_images/dig.jpg"",""time"":1699.2000000476837}]",[],2,,,,,,,,,,,,,,
harvest,88,689351,0.0-30.0-1.0,"""event"",""trial"",""time""
""fullscreenenter"",""1"",""278086""
","
","
","""event"",""trial"",""time""
""fullscreenenter"",""1"",""278086""
","
",,null,run_exp/static/images/task_images/gems/3.jpg,null,,,,,,,1,,,2,,,,,3,0.180519672,0.333333333,,,,,,,
decision,89,689771,0.0-30.0-2.0,"""event"",""trial"",""time""
""fullscreenenter"",""1"",""278086""
","
","
","""event"",""trial"",""time""
""fullscreenenter"",""1"",""278086""
","
",,418.3,run_exp/static/images/task_images/land.jpg,76,,,,,,,1,,,2,,,,,,,,47625,1,2,TRUE,,,
travel,90,699364,0.0-31.0-0.0,"""event"",""trial"",""time""
""fullscreenenter"",""1"",""278086""
","
","
","""event"",""trial"",""time""
""fullscreenenter"",""1"",""278086""
","
",,,,,,,,,,,,"[{""stimulus"":""run_exp/static/images/task_images/rocket-01.jpg"",""time"":0.20000004768371582},{""stimulus"":""run_exp/static/images/task_images/rocket-02.jpg"",""time"":1072.5},{""stimulus"":""run_exp/static/images/task_images/rocket-03.jpg"",""time"":2136.100000023842},{""stimulus"":""run_exp/static/images/task_images/rocket-04.jpg"",""time"":3202.2999999523163},{""stimulus"":""run_exp/static/images/task_images/rocket-05.jpg"",""time"":4266.799999952316},{""stimulus"":""run_exp/static/images/task_images/rocket-06.jpg"",""time"":5331},{""stimulus"":""run_exp/static/images/task_images/rocket-07.jpg"",""time"":6397.600000023842},{""stimulus"":""run_exp/static/images/task_images/rocket-08.jpg"",""time"":7456.600000023842},{""stimulus"":""run_exp/static/images/task_images/rocket-09.jpg"",""time"":8522.600000023842}]",[],2,,,,,,,,,,,,,,
alien_welcome,91,704371,0.0-31.0-1.0,"""event"",""trial"",""time""
""fullscreenenter"",""1"",""278086""
","
","
","""event"",""trial"",""time""
""fullscreenenter"",""1"",""278086""
","
",,null,run_exp/static/images/task_images/aliens/old_aliens/planet/alien_planet-33.jpg,null,,,,,,,,,,,,,33,"72,43,33,58,15,8,37,38,44,20,47,23,18,51,52,27,60,68,49,3,76,62,56,32,24,42,57,11,34,9,28,59,4,19,67,78,70",,,,,,,,,,
land,92,704880,0.0-31.0-2.0,"""event"",""trial"",""time""
""fullscreenenter"",""1"",""278086""
","
","
","""event"",""trial"",""time""
""fullscreenenter"",""1"",""278086""
","
",,null,run_exp/static/images/task_images/land.jpg,null,,,,,,,102,,,3,,,,,,,,,,,,,,
dig,93,706887,0.0-31.0-3.0,"""event"",""trial"",""time""
""fullscreenenter"",""1"",""278086""
","
","
","""event"",""trial"",""time""
""fullscreenenter"",""1"",""278086""
","
",,,,,,,,,,,,"[{""stimulus"":""run_exp/static/images/task_images/dig.jpg"",""time"":0.40000009536743164},{""stimulus"":""run_exp/static/images/task_images/land.jpg"",""time"":672.5},{""stimulus"":""run_exp/static/images/task_images/dig.jpg"",""time"":1337.1000000238419}]",[],3,,,,,,,,,,,,,,
harvest,94,707898,0.0-31.0-4.0,"""event"",""trial"",""time""
""fullscreenenter"",""1"",""278086""
","
","
","""event"",""trial"",""time""
""fullscreenenter"",""1"",""278086""
","
",,null,run_exp/static/images/task_images/gems/102.jpg,null,,,,,,,58,,,3,,,,,102,0.566803084,0.568627451,,,,,,,
decision,95,708511,0.0-31.0-5.0,"""event"",""trial"",""time""
""fullscreenenter"",""1"",""278086""
","
","
","""event"",""trial"",""time""
""fullscreenenter"",""1"",""278086""
","
",,611.3,run_exp/static/images/task_images/land.jpg,65,,,,,,,58,,,3,,,,,,,,66364,1,0,FALSE,,,
dig,96,710914,0.0-32.0-0.0,"""event"",""trial"",""time""
""fullscreenenter"",""1"",""278086""
","
","
","""event"",""trial"",""time""
""fullscreenenter"",""1"",""278086""
","
",,,,,,,,,,,,"[{""stimulus"":""run_exp/static/images/task_images/dig.jpg"",""time"":0.2999999523162842},{""stimulus"":""run_exp/static/images/task_images/land.jpg"",""time"":808.2000000476837},{""stimulus"":""run_exp/static/images/task_images/dig.jpg"",""time"":1599.6000000238419}]",[],3,,,,,,,,,,,,,,
harvest,97,711920,0.0-32.0-1.0,"""event"",""trial"",""time""
""fullscreenenter"",""1"",""278086""
","
","
","""event"",""trial"",""time""
""fullscreenenter"",""1"",""278086""
","
",,null,run_exp/static/images/task_images/gems/58.jpg,null,,,,,,,28,,,3,,,,,58,0.482131166,0.482758621,,,,,,,
decision,98,712399,0.0-32.0-2.0,"""event"",""trial"",""time""
""fullscreenenter"",""1"",""278086""
","
","
","""event"",""trial"",""time""
""fullscreenenter"",""1"",""278086""
","
",,477.3000001,run_exp/static/images/task_images/land.jpg,65,,,,,,,28,,,3,,,,,,,,70252,1,1,FALSE,,,
dig,99,714934,0.0-33.0-0.0,"""event"",""trial"",""time""
""fullscreenenter"",""1"",""278086""
","
","
","""event"",""trial"",""time""
""fullscreenenter"",""1"",""278086""
","
",,,,,,,,,,,,"[{""stimulus"":""run_exp/static/images/task_images/dig.jpg"",""time"":0.10000002384185791},{""stimulus"":""run_exp/static/images/task_images/land.jpg"",""time"":849.6000000238419},{""stimulus"":""run_exp/static/images/task_images/dig.jpg"",""time"":1690.5}]",[],3,,,,,,,,,,,,,,
harvest,100,715947,0.0-33.0-1.0,"""event"",""trial"",""time""
""fullscreenenter"",""1"",""278086""
","
","
","""event"",""trial"",""time""
""fullscreenenter"",""1"",""278086""
","
",,null,run_exp/static/images/task_images/gems/28.jpg,null,,,,,,,13,,,3,,,,,28,0.477444339,0.464285714,,,,,,,
decision,101,716335,0.0-33.0-2.0,"""event"",""trial"",""time""
""fullscreenenter"",""1"",""278086""
","
","
","""event"",""trial"",""time""
""fullscreenenter"",""1"",""278086""
","
",,386.1,run_exp/static/images/task_images/land.jpg,65,,,,,,,13,,,3,,,,,,,,74188,1,2,FALSE,,,
dig,102,718966,0.0-34.0-0.0,"""event"",""trial"",""time""
""fullscreenenter"",""1"",""278086""
","
","
","""event"",""trial"",""time""
""fullscreenenter"",""1"",""278086""
","
",,,,,,,,,,,,"[{""stimulus"":""run_exp/static/images/task_images/dig.jpg"",""time"":0.2999999523162842},{""stimulus"":""run_exp/static/images/task_images/land.jpg"",""time"":879.1999999284744},{""stimulus"":""run_exp/static/images/task_images/dig.jpg"",""time"":1749.3999999761581}]",[],3,,,,,,,,,,,,,,
harvest,103,719979,0.0-34.0-1.0,"""event"",""trial"",""time""
""fullscreenenter"",""1"",""278086""
","
","
","""event"",""trial"",""time""
""fullscreenenter"",""1"",""278086""
","
",,null,run_exp/static/images/task_images/gems/13.jpg,null,,,,,,,7,,,3,,,,,13,0.543882888,0.538461538,,,,,,,
decision,104,720337,0.0-34.0-2.0,"""event"",""trial"",""time""
""fullscreenenter"",""1"",""278086""
","
","
","""event"",""trial"",""time""
""fullscreenenter"",""1"",""278086""
","
",,356.5,run_exp/static/images/task_images/land.jpg,76,,,,,,,7,,,3,,,,,,,,78190,1,3,TRUE,,,
travel,105,729986,0.0-35.0-0.0,"""event"",""trial"",""time""
""fullscreenenter"",""1"",""278086""
","
","
","""event"",""trial"",""time""
""fullscreenenter"",""1"",""278086""
","
",,,,,,,,,,,,"[{""stimulus"":""run_exp/static/images/task_images/rocket-01.jpg"",""time"":0.2999999523162842},{""stimulus"":""run_exp/static/images/task_images/rocket-02.jpg"",""time"":1073.6999999284744},{""stimulus"":""run_exp/static/images/task_images/rocket-03.jpg"",""time"":2143.5999999046326},{""stimulus"":""run_exp/static/images/task_images/rocket-04.jpg"",""time"":3220.399999976158},{""stimulus"":""run_exp/static/images/task_images/rocket-05.jpg"",""time"":4293.799999952316},{""stimulus"":""run_exp/static/images/task_images/rocket-06.jpg"",""time"":5362.899999976158},{""stimulus"":""run_exp/static/images/task_images/rocket-07.jpg"",""time"":6434},{""stimulus"":""run_exp/static/images/task_images/rocket-08.jpg"",""time"":7505.799999952316},{""stimulus"":""run_exp/static/images/task_images/rocket-09.jpg"",""time"":8577.699999928474}]",[],3,,,,,,,,,,,,,,
alien_welcome,106,734994,0.0-35.0-1.0,"""event"",""trial"",""time""
""fullscreenenter"",""1"",""278086""
","
","
","""event"",""trial"",""time""
""fullscreenenter"",""1"",""278086""
","
",,null,run_exp/static/images/task_images/aliens/old_aliens/planet/alien_planet-58.jpg,null,,,,,,,,,,,,,58,"72,43,33,58,15,8,37,38,44,20,47,23,18,51,52,27,60,68,49,3,76,62,56,32,24,42,57,11,34,9,28,59,4,19,67,78,70",,,,,,,,,,
land,107,735508,0.0-35.0-2.0,"""event"",""trial"",""time""
""fullscreenenter"",""1"",""278086""
","
","
","""event"",""trial"",""time""
""fullscreenenter"",""1"",""278086""
","
",,null,run_exp/static/images/task_images/land.jpg,null,,,,,,,92,,,4,,,,,,,,,,,,,,
dig,108,737525,0.0-35.0-3.0,"""event"",""trial"",""time""
""fullscreenenter"",""1"",""278086""
","
","
","""event"",""trial"",""time""
""fullscreenenter"",""1"",""278086""
","
",,,,,,,,,,,,"[{""stimulus"":""run_exp/static/images/task_images/dig.jpg"",""time"":0.5},{""stimulus"":""run_exp/static/images/task_images/land.jpg"",""time"":675.1000000238419},{""stimulus"":""run_exp/static/images/task_images/dig.jpg"",""time"":1337.9000000953674}]",[],4,,,,,,,,,,,,,,
harvest,109,738538,0.0-35.0-4.0,"""event"",""trial"",""time""
""fullscreenenter"",""1"",""278086""
","
","
","""event"",""trial"",""time""
""fullscreenenter"",""1"",""278086""
","
",,null,run_exp/static/images/task_images/gems/92.jpg,null,,,,,,,46,,,4,,,,,92,0.504733665,0.5,,,,,,,
decision,110,741012,0.0-35.0-5.0,"""event"",""trial"",""time""
""fullscreenenter"",""1"",""278086""
","
","
","""event"",""trial"",""time""
""fullscreenenter"",""1"",""278086""
","
",,2471.7,run_exp/static/images/task_images/land.jpg,65,,,,,,,46,,,4,,,,,,,,98865,1,0,FALSE,,,
dig,111,741557,0.0-36.0-0.0,"""event"",""trial"",""time""
""fullscreenenter"",""1"",""278086""
","
","
","""event"",""trial"",""time""
""fullscreenenter"",""1"",""278086""
","
",,,,,,,,,,,,"[{""stimulus"":""run_exp/static/images/task_images/dig.jpg"",""time"":0.30000007152557373},{""stimulus"":""run_exp/static/images/task_images/land.jpg"",""time"":188.20000004768372},{""stimulus"":""run_exp/static/images/task_images/dig.jpg"",""time"":360.2000000476837}]",[],4,,,,,,,,,,,,,,
harvest,112,742572,0.0-36.0-1.0,"""event"",""trial"",""time""
""fullscreenenter"",""1"",""278086""
","
","
","""event"",""trial"",""time""
""fullscreenenter"",""1"",""278086""
","
",,null,run_exp/static/images/task_images/gems/46.jpg,null,,,,,,,20,,,4,,,,,46,0.433332455,0.434782609,,,,,,,
decision,113,743010,0.0-36.0-2.0,"""event"",""trial"",""time""
""fullscreenenter"",""1"",""278086""
","
","
","""event"",""trial"",""time""
""fullscreenenter"",""1"",""278086""
","
",,435.1999999,run_exp/static/images/task_images/land.jpg,65,,,,,,,20,,,4,,,,,,,,100863,1,1,FALSE,,,
dig,114,745589,0.0-37.0-0.0,"""event"",""trial"",""time""
""fullscreenenter"",""1"",""278086""
","
","
","""event"",""trial"",""time""
""fullscreenenter"",""1"",""278086""
","
",,,,,,,,,,,,"[{""stimulus"":""run_exp/static/images/task_images/dig.jpg"",""time"":0.2999999523162842},{""stimulus"":""run_exp/static/images/task_images/land.jpg"",""time"":859.1000000238419},{""stimulus"":""run_exp/static/images/task_images/dig.jpg"",""time"":1720.8999999761581}]",[],4,,,,,,,,,,,,,,
harvest,115,746602,0.0-37.0-1.0,"""event"",""trial"",""time""
""fullscreenenter"",""1"",""278086""
","
","
","""event"",""trial"",""time""
""fullscreenenter"",""1"",""278086""
","
",,null,run_exp/static/images/task_images/gems/20.jpg,null,,,,,,,11,,,4,,,,,20,0.553117876,0.55,,,,,,,
decision,116,747158,0.0-37.0-2.0,"""event"",""trial"",""time""
""fullscreenenter"",""1"",""278086""
","
","
","""event"",""trial"",""time""
""fullscreenenter"",""1"",""278086""
","
",,553.6999999,run_exp/static/images/task_images/land.jpg,76,,,,,,,11,,,4,,,,,,,,105011,1,2,TRUE,,,
travel,117,756607,0.0-38.0-0.0,"""event"",""trial"",""time""
""fullscreenenter"",""1"",""278086""
","
","
","""event"",""trial"",""time""
""fullscreenenter"",""1"",""278086""
","
",,,,,,,,,,,,"[{""stimulus"":""run_exp/static/images/task_images/rocket-01.jpg"",""time"":0.09999990463256836},{""stimulus"":""run_exp/static/images/task_images/rocket-02.jpg"",""time"":1060.7999999523163},{""stimulus"":""run_exp/static/images/task_images/rocket-03.jpg"",""time"":2102.7999999523163},{""stimulus"":""run_exp/static/images/task_images/rocket-04.jpg"",""time"":3153.1999999284744},{""stimulus"":""run_exp/static/images/task_images/rocket-05.jpg"",""time"":4198.699999928474},{""stimulus"":""run_exp/static/images/task_images/rocket-06.jpg"",""time"":5259},{""stimulus"":""run_exp/static/images/task_images/rocket-07.jpg"",""time"":6302.699999928474},{""stimulus"":""run_exp/static/images/task_images/rocket-08.jpg"",""time"":7357},{""stimulus"":""run_exp/static/images/task_images/rocket-09.jpg"",""time"":8403.099999904633}]",[],4,,,,,,,,,,,,,,
alien_welcome,118,761622,0.0-38.0-1.0,"""event"",""trial"",""time""
""fullscreenenter"",""1"",""278086""
","
","
","""event"",""trial"",""time""
""fullscreenenter"",""1"",""278086""
","
",,null,run_exp/static/images/task_images/aliens/old_aliens/planet/alien_planet-15.jpg,null,,,,,,,,,,,,,15,"72,43,33,58,15,8,37,38,44,20,47,23,18,51,52,27,60,68,49,3,76,62,56,32,24,42,57,11,34,9,28,59,4,19,67,78,70",,,,,,,,,,
land,119,762126,0.0-38.0-2.0,"""event"",""trial"",""time""
""fullscreenenter"",""1"",""278086""
","
","
","""event"",""trial"",""time""
""fullscreenenter"",""1"",""278086""
","
",,null,run_exp/static/images/task_images/land.jpg,null,,,,,,,97,,,5,,,,,,,,,,,,,,
dig,120,764137,0.0-38.0-3.0,"""event"",""trial"",""time""
""fullscreenenter"",""1"",""278086""
","
","
","""event"",""trial"",""time""
""fullscreenenter"",""1"",""278086""
","
",,,,,,,,,,,,"[{""stimulus"":""run_exp/static/images/task_images/dig.jpg"",""time"":0.5},{""stimulus"":""run_exp/static/images/task_images/land.jpg"",""time"":670},{""stimulus"":""run_exp/static/images/task_images/dig.jpg"",""time"":1343.2000000476837}]",[],5,,,,,,,,,,,,,,
harvest,121,765147,0.0-38.0-4.0,"""event"",""trial"",""time""
""fullscreenenter"",""1"",""278086""
","
","
","""event"",""trial"",""time""
""fullscreenenter"",""1"",""278086""
","
",,null,run_exp/static/images/task_images/gems/97.jpg,null,,,,,,,49,,,5,,,,,97,0.507869835,0.505154639,,,,,,,
decision,122,765561,0.0-38.0-5.0,"""event"",""trial"",""time""
""fullscreenenter"",""1"",""278086""
","
","
","""event"",""trial"",""time""
""fullscreenenter"",""1"",""278086""
","
",,411.3000001,run_exp/static/images/task_images/land.jpg,65,,,,,,,49,,,5,,,,,,,,123414,1,0,FALSE,,,
dig,123,768163,0.0-39.0-0.0,"""event"",""trial"",""time""
""fullscreenenter"",""1"",""278086""
","
","
","""event"",""trial"",""time""
""fullscreenenter"",""1"",""278086""
","
",,,,,,,,,,,,"[{""stimulus"":""run_exp/static/images/task_images/dig.jpg"",""time"":0.20000004768371582},{""stimulus"":""run_exp/static/images/task_images/land.jpg"",""time"":865.8000000715256},{""stimulus"":""run_exp/static/images/task_images/dig.jpg"",""time"":1732.3999999761581}]",[],5,,,,,,,,,,,,,,
harvest,124,769174,0.0-39.0-1.0,"""event"",""trial"",""time""
""fullscreenenter"",""1"",""278086""
","
","
","""event"",""trial"",""time""
""fullscreenenter"",""1"",""278086""
","
",,null,run_exp/static/images/task_images/gems/49.jpg,null,,,,,,,24,,,5,,,,,49,0.499610212,0.489795918,,,,,,,
decision,125,769559,0.0-39.0-2.0,"""event"",""trial"",""time""
""fullscreenenter"",""1"",""278086""
","
","
","""event"",""trial"",""time""
""fullscreenenter"",""1"",""278086""
","
",,383.0999999,run_exp/static/images/task_images/land.jpg,65,,,,,,,24,,,5,,,,,,,,127412,1,1,FALSE,,,
dig,126,772187,0.0-40.0-0.0,"""event"",""trial"",""time""
""fullscreenenter"",""1"",""278086""
","
","
","""event"",""trial"",""time""
""fullscreenenter"",""1"",""278086""
","
",,,,,,,,,,,,"[{""stimulus"":""run_exp/static/images/task_images/dig.jpg"",""time"":0.20000004768371582},{""stimulus"":""run_exp/static/images/task_images/land.jpg"",""time"":883.5},{""stimulus"":""run_exp/static/images/task_images/dig.jpg"",""time"":1755.6000000238419}]",[],5,,,,,,,,,,,,,,
harvest,127,773191,0.0-40.0-1.0,"""event"",""trial"",""time""
""fullscreenenter"",""1"",""278086""
","
","
","""event"",""trial"",""time""
""fullscreenenter"",""1"",""278086""
","
",,null,run_exp/static/images/task_images/gems/24.jpg,null,,,,,,,15,,,5,,,,,24,0.608342765,0.625,,,,,,,
decision,128,773682,0.0-40.0-2.0,"""event"",""trial"",""time""
""fullscreenenter"",""1"",""278086""
","
","
","""event"",""trial"",""time""
""fullscreenenter"",""1"",""278086""
","
",,488.8000001,run_exp/static/images/task_images/land.jpg,65,,,,,,,15,,,5,,,,,,,,131535,1,2,FALSE,,,
dig,129,776198,0.0-41.0-0.0,"""event"",""trial"",""time""
""fullscreenenter"",""1"",""278086""
","
","
","""event"",""trial"",""time""
""fullscreenenter"",""1"",""278086""
","
",,,,,,,,,,,,"[{""stimulus"":""run_exp/static/images/task_images/dig.jpg"",""time"":0.30000007152557373},{""stimulus"":""run_exp/static/images/task_images/land.jpg"",""time"":843.7000000476837},{""stimulus"":""run_exp/static/images/task_images/dig.jpg"",""time"":1684.4000000953674}]",[],5,,,,,,,,,,,,,,
harvest,130,777208,0.0-41.0-1.0,"""event"",""trial"",""time""
""fullscreenenter"",""1"",""278086""
","
","
","""event"",""trial"",""time""
""fullscreenenter"",""1"",""278086""
","
",,null,run_exp/static/images/task_images/gems/15.jpg,null,,,,,,,8,,,5,,,,,15,0.553011845,0.533333333,,,,,,,
decision,131,777585,0.0-41.0-2.0,"""event"",""trial"",""time""
""fullscreenenter"",""1"",""278086""
","
","
","""event"",""trial"",""time""
""fullscreenenter"",""1"",""278086""
","
",,375.6999999,run_exp/static/images/task_images/land.jpg,76,,,,,,,8,,,5,,,,,,,,135438,1,3,TRUE,,,
travel,132,787221,0.0-42.0-0.0,"""event"",""trial"",""time""
""fullscreenenter"",""1"",""278086""
","
","
","""event"",""trial"",""time""
""fullscreenenter"",""1"",""278086""
","
",,,,,,,,,,,,"[{""stimulus"":""run_exp/static/images/task_images/rocket-01.jpg"",""time"":0.20000004768371582},{""stimulus"":""run_exp/static/images/task_images/rocket-02.jpg"",""time"":1075.2000000476837},{""stimulus"":""run_exp/static/images/task_images/rocket-03.jpg"",""time"":2147.100000023842},{""stimulus"":""run_exp/static/images/task_images/rocket-04.jpg"",""time"":3210.600000023842},{""stimulus"":""run_exp/static/images/task_images/rocket-05.jpg"",""time"":4286.600000023842},{""stimulus"":""run_exp/static/images/task_images/rocket-06.jpg"",""time"":5358.899999976158},{""stimulus"":""run_exp/static/images/task_images/rocket-07.jpg"",""time"":6424.600000023842},{""stimulus"":""run_exp/static/images/task_images/rocket-08.jpg"",""time"":7490.200000047684},{""stimulus"":""run_exp/static/images/task_images/rocket-09.jpg"",""time"":8558.399999976158}]",[],5,,,,,,,,,,,,,,
alien_welcome,133,792235,0.0-42.0-1.0,"""event"",""trial"",""time""
""fullscreenenter"",""1"",""278086""
","
","
","""event"",""trial"",""time""
""fullscreenenter"",""1"",""278086""
","
",,null,run_exp/static/images/task_images/aliens/old_aliens/planet/alien_planet-8.jpg,null,,,,,,,,,,,,,8,"72,43,33,58,15,8,37,38,44,20,47,23,18,51,52,27,60,68,49,3,76,62,56,32,24,42,57,11,34,9,28,59,4,19,67,78,70",,,,,,,,,,
land,134,792747,0.0-42.0-2.0,"""event"",""trial"",""time""
""fullscreenenter"",""1"",""278086""
","
","
","""event"",""trial"",""time""
""fullscreenenter"",""1"",""278086""
","
",,null,run_exp/static/images/task_images/land.jpg,null,,,,,,,104,,,6,,,,,,,,,,,,,,
dig,135,794765,0.0-42.0-3.0,"""event"",""trial"",""time""
""fullscreenenter"",""1"",""278086""
","
","
","""event"",""trial"",""time""
""fullscreenenter"",""1"",""278086""
","
",,,,,,,,,,,,"[{""stimulus"":""run_exp/static/images/task_images/dig.jpg"",""time"":0.5},{""stimulus"":""run_exp/static/images/task_images/land.jpg"",""time"":676.3999999761581},{""stimulus"":""run_exp/static/images/task_images/dig.jpg"",""time"":1340}]",[],6,,,,,,,,,,,,,,
harvest,136,795774,0.0-42.0-4.0,"""event"",""trial"",""time""
""fullscreenenter"",""1"",""278086""
","
","
","""event"",""trial"",""time""
""fullscreenenter"",""1"",""278086""
","
",,null,run_exp/static/images/task_images/gems/104.jpg,null,,,,,,,77,,,6,,,,,104,0.744440464,0.740384615,,,,,,,
decision,137,796371,0.0-42.0-5.0,"""event"",""trial"",""time""
""fullscreenenter"",""1"",""278086""
","
","
","""event"",""trial"",""time""
""fullscreenenter"",""1"",""278086""
","
",,594.8,run_exp/static/images/task_images/land.jpg,65,,,,,,,77,,,6,,,,,,,,154224,1,0,FALSE,,,
dig,138,798784,0.0-43.0-0.0,"""event"",""trial"",""time""
""fullscreenenter"",""1"",""278086""
","
","
","""event"",""trial"",""time""
""fullscreenenter"",""1"",""278086""
","
",,,,,,,,,,,,"[{""stimulus"":""run_exp/static/images/task_images/dig.jpg"",""time"":0.2999999523162842},{""stimulus"":""run_exp/static/images/task_images/land.jpg"",""time"":808.2000000476837},{""stimulus"":""run_exp/static/images/task_images/dig.jpg"",""time"":1613.1000000238419}]",[],6,,,,,,,,,,,,,,
harvest,139,799795,0.0-43.0-1.0,"""event"",""trial"",""time""
""fullscreenenter"",""1"",""278086""
","
","
","""event"",""trial"",""time""
""fullscreenenter"",""1"",""278086""
","
",,null,run_exp/static/images/task_images/gems/77.jpg,null,,,,,,,63,,,6,,,,,77,0.82204771,0.818181818,,,,,,,
decision,140,800191,0.0-43.0-2.0,"""event"",""trial"",""time""
""fullscreenenter"",""1"",""278086""
","
","
","""event"",""trial"",""time""
""fullscreenenter"",""1"",""278086""
","
",,394,run_exp/static/images/task_images/land.jpg,65,,,,,,,63,,,6,,,,,,,,158045,1,1,FALSE,,,
dig,141,802813,0.0-44.0-0.0,"""event"",""trial"",""time""
""fullscreenenter"",""1"",""278086""
","
","
","""event"",""trial"",""time""
""fullscreenenter"",""1"",""278086""
","
",,,,,,,,,,,,"[{""stimulus"":""run_exp/static/images/task_images/dig.jpg"",""time"":0.19999992847442627},{""stimulus"":""run_exp/static/images/task_images/land.jpg"",""time"":882.5},{""stimulus"":""run_exp/static/images/task_images/dig.jpg"",""time"":1745.6000000238419}]",[],6,,,,,,,,,,,,,,
harvest,142,803824,0.0-44.0-1.0,"""event"",""trial"",""time""
""fullscreenenter"",""1"",""278086""
","
","
","""event"",""trial"",""time""
""fullscreenenter"",""1"",""278086""
","
",,null,run_exp/static/images/task_images/gems/63.jpg,null,,,,,,,52,,,6,,,,,63,0.831641498,0.825396825,,,,,,,
decision,143,804176,0.0-44.0-2.0,"""event"",""trial"",""time""
""fullscreenenter"",""1"",""278086""
","
","
","""event"",""trial"",""time""
""fullscreenenter"",""1"",""278086""
","
",,349.8,run_exp/static/images/task_images/land.jpg,65,,,,,,,52,,,6,,,,,,,,162029,1,2,FALSE,,,
dig,144,806837,0.0-45.0-0.0,"""event"",""trial"",""time""
""fullscreenenter"",""1"",""278086""
","
","
","""event"",""trial"",""time""
""fullscreenenter"",""1"",""278086""
","
",,,,,,,,,,,,"[{""stimulus"":""run_exp/static/images/task_images/dig.jpg"",""time"":0.20000004768371582},{""stimulus"":""run_exp/static/images/task_images/land.jpg"",""time"":895.6000000238419},{""stimulus"":""run_exp/static/images/task_images/dig.jpg"",""time"":1770.8000000715256}]",[],6,,,,,,,,,,,,,,
harvest,145,807848,0.0-45.0-1.0,"""event"",""trial"",""time""
""fullscreenenter"",""1"",""278086""
","
","
","""event"",""trial"",""time""
""fullscreenenter"",""1"",""278086""
","
",,null,run_exp/static/images/task_images/gems/52.jpg,null,,,,,,,43,,,6,,,,,52,0.824924282,0.826923077,,,,,,,
decision,146,808224,0.0-45.0-2.0,"""event"",""trial"",""time""
""fullscreenenter"",""1"",""278086""
","
","
","""event"",""trial"",""time""
""fullscreenenter"",""1"",""278086""
","
",,373.4,run_exp/static/images/task_images/land.jpg,65,,,,,,,43,,,6,,,,,,,,166077,1,3,FALSE,,,
dig,147,810856,0.0-46.0-0.0,"""event"",""trial"",""time""
""fullscreenenter"",""1"",""278086""
","
","
","""event"",""trial"",""time""
""fullscreenenter"",""1"",""278086""
","
",,,,,,,,,,,,"[{""stimulus"":""run_exp/static/images/task_images/dig.jpg"",""time"":0.20000004768371582},{""stimulus"":""run_exp/static/images/task_images/land.jpg"",""time"":888.3000000715256},{""stimulus"":""run_exp/static/images/task_images/dig.jpg"",""time"":1757.1000000238419}]",[],6,,,,,,,,,,,,,,
harvest,148,811867,0.0-46.0-1.0,"""event"",""trial"",""time""
""fullscreenenter"",""1"",""278086""
","
","
","""event"",""trial"",""time""
""fullscreenenter"",""1"",""278086""
","
",,null,run_exp/static/images/task_images/gems/43.jpg,null,,,,,,,37,,,6,,,,,43,0.849933957,0.860465116,,,,,,,
decision,149,812190,0.0-46.0-2.0,"""event"",""trial"",""time""
""fullscreenenter"",""1"",""278086""
","
","
","""event"",""trial"",""time""
""fullscreenenter"",""1"",""278086""
","
",,320.8000001,run_exp/static/images/task_images/land.jpg,65,,,,,,,37,,,6,,,,,,,,170043,1,4,FALSE,,,
dig,150,814879,0.0-47.0-0.0,"""event"",""trial"",""time""
""fullscreenenter"",""1"",""278086""
","
","
","""event"",""trial"",""time""
""fullscreenenter"",""1"",""278086""
","
",,,,,,,,,,,,"[{""stimulus"":""run_exp/static/images/task_images/dig.jpg"",""time"":0.2999999523162842},{""stimulus"":""run_exp/static/images/task_images/land.jpg"",""time"":901.0999999046326},{""stimulus"":""run_exp/static/images/task_images/dig.jpg"",""time"":1791.8999999761581}]",[],6,,,,,,,,,,,,,,
harvest,151,815886,0.0-47.0-1.0,"""event"",""trial"",""time""
""fullscreenenter"",""1"",""278086""
","
","
","""event"",""trial"",""time""
""fullscreenenter"",""1"",""278086""
","
",,null,run_exp/static/images/task_images/gems/37.jpg,null,,,,,,,32,,,6,,,,,37,0.852855394,0.864864865,,,,,,,
decision,152,816212,0.0-47.0-2.0,"""event"",""trial"",""time""
""fullscreenenter"",""1"",""278086""
","
","
","""event"",""trial"",""time""
""fullscreenenter"",""1"",""278086""
","
",,323.4000001,run_exp/static/images/task_images/land.jpg,65,,,,,,,32,,,6,,,,,,,,174065,1,5,FALSE,,,
dig,153,818899,0.0-48.0-0.0,"""event"",""trial"",""time""
""fullscreenenter"",""1"",""278086""
","
","
","""event"",""trial"",""time""
""fullscreenenter"",""1"",""278086""
","
",,,,,,,,,,,,"[{""stimulus"":""run_exp/static/images/task_images/dig.jpg"",""time"":0.19999992847442627},{""stimulus"":""run_exp/static/images/task_images/land.jpg"",""time"":896},{""stimulus"":""run_exp/static/images/task_images/dig.jpg"",""time"":1797.8999999761581}]",[],6,,,,,,,,,,,,,,
harvest,154,819902,0.0-48.0-1.0,"""event"",""trial"",""time""
""fullscreenenter"",""1"",""278086""
","
","
","""event"",""trial"",""time""
""fullscreenenter"",""1"",""278086""
","
",,null,run_exp/static/images/task_images/gems/32.jpg,null,,,,,,,25,,,6,,,,,32,0.776424872,0.78125,,,,,,,
decision,155,820246,0.0-48.0-2.0,"""event"",""trial"",""time""
""fullscreenenter"",""1"",""278086""
","
","
","""event"",""trial"",""time""
""fullscreenenter"",""1"",""278086""
","
",,341.7,run_exp/static/images/task_images/land.jpg,65,,,,,,,25,,,6,,,,,,,,178099,1,6,FALSE,,,
dig,156,822915,0.0-49.0-0.0,"""event"",""trial"",""time""
""fullscreenenter"",""1"",""278086""
","
","
","""event"",""trial"",""time""
""fullscreenenter"",""1"",""278086""
","
",,,,,,,,,,,,"[{""stimulus"":""run_exp/static/images/task_images/dig.jpg"",""time"":0.20000004768371582},{""stimulus"":""run_exp/static/images/task_images/land.jpg"",""time"":893.8000000715256},{""stimulus"":""run_exp/static/images/task_images/dig.jpg"",""time"":1787.6000000238419}]",[],6,,,,,,,,,,,,,,
harvest,157,823925,0.0-49.0-1.0,"""event"",""trial"",""time""
""fullscreenenter"",""1"",""278086""
","
","
","""event"",""trial"",""time""
""fullscreenenter"",""1"",""278086""
","
",,null,run_exp/static/images/task_images/gems/25.jpg,null,,,,,,,19,,,6,,,,,25,0.740981821,0.76,,,,,,,
decision,158,824262,0.0-49.0-2.0,"""event"",""trial"",""time""
""fullscreenenter"",""1"",""278086""
","
","
","""event"",""trial"",""time""
""fullscreenenter"",""1"",""278086""
","
",,334.5,run_exp/static/images/task_images/land.jpg,65,,,,,,,19,,,6,,,,,,,,182115,1,7,FALSE,,,
dig,159,826941,0.0-50.0-0.0,"""event"",""trial"",""time""
""fullscreenenter"",""1"",""278086""
","
","
","""event"",""trial"",""time""
""fullscreenenter"",""1"",""278086""
","
",,,,,,,,,,,,"[{""stimulus"":""run_exp/static/images/task_images/dig.jpg"",""time"":0.20000004768371582},{""stimulus"":""run_exp/static/images/task_images/land.jpg"",""time"":900.3000000715256},{""stimulus"":""run_exp/static/images/task_images/dig.jpg"",""time"":1786.6000000238419}]",[],6,,,,,,,,,,,,,,
harvest,160,827951,0.0-50.0-1.0,"""event"",""trial"",""time""
""fullscreenenter"",""1"",""278086""
","
","
","""event"",""trial"",""time""
""fullscreenenter"",""1"",""278086""
","
",,null,run_exp/static/images/task_images/gems/19.jpg,null,,,,,,,15,,,6,,,,,19,0.78307173,0.789473684,,,,,,,
decision,161,828408,0.0-50.0-2.0,"""event"",""trial"",""time""
""fullscreenenter"",""1"",""278086""
","
","
","""event"",""trial"",""time""
""fullscreenenter"",""1"",""278086""
","
",,454.8000001,run_exp/static/images/task_images/land.jpg,76,,,,,,,15,,,6,,,,,,,,186261,1,8,TRUE,,,
travel,162,837963,0.0-51.0-0.0,"""event"",""trial"",""time""
""fullscreenenter"",""1"",""278086""
","
","
","""event"",""trial"",""time""
""fullscreenenter"",""1"",""278086""
","
",,,,,,,,,,,,"[{""stimulus"":""run_exp/static/images/task_images/rocket-01.jpg"",""time"":0.19999992847442627},{""stimulus"":""run_exp/static/images/task_images/rocket-02.jpg"",""time"":1071.6999999284744},{""stimulus"":""run_exp/static/images/task_images/rocket-03.jpg"",""time"":2124.899999976158},{""stimulus"":""run_exp/static/images/task_images/rocket-04.jpg"",""time"":3192.899999976158},{""stimulus"":""run_exp/static/images/task_images/rocket-05.jpg"",""time"":4248.399999976158},{""stimulus"":""run_exp/static/images/task_images/rocket-06.jpg"",""time"":5308.5},{""stimulus"":""run_exp/static/images/task_images/rocket-07.jpg"",""time"":6364.899999976158},{""stimulus"":""run_exp/static/images/task_images/rocket-08.jpg"",""time"":7434.799999952316},{""stimulus"":""run_exp/static/images/task_images/rocket-09.jpg"",""time"":8485}]",[],6,,,,,,,,,,,,,,
alien_welcome,163,842968,0.0-51.0-1.0,"""event"",""trial"",""time""
""fullscreenenter"",""1"",""278086""
","
","
","""event"",""trial"",""time""
""fullscreenenter"",""1"",""278086""
","
",,null,run_exp/static/images/task_images/aliens/old_aliens/planet/alien_planet-37.jpg,null,,,,,,,,,,,,,37,"72,43,33,58,15,8,37,38,44,20,47,23,18,51,52,27,60,68,49,3,76,62,56,32,24,42,57,11,34,9,28,59,4,19,67,78,70",,,,,,,,,,
land,164,843483,0.0-51.0-2.0,"""event"",""trial"",""time""
""fullscreenenter"",""1"",""278086""
","
","
","""event"",""trial"",""time""
""fullscreenenter"",""1"",""278086""
","
",,null,run_exp/static/images/task_images/land.jpg,null,,,,,,,96,,,7,,,,,,,,,,,,,,
dig,165,845495,0.0-51.0-3.0,"""event"",""trial"",""time""
""fullscreenenter"",""1"",""278086""
","
","
","""event"",""trial"",""time""
""fullscreenenter"",""1"",""278086""
","
",,,,,,,,,,,,"[{""stimulus"":""run_exp/static/images/task_images/dig.jpg"",""time"":0.40000009536743164},{""stimulus"":""run_exp/static/images/task_images/land.jpg"",""time"":674.4000000953674},{""stimulus"":""run_exp/static/images/task_images/dig.jpg"",""time"":1337.3000000715256}]",[],7,,,,,,,,,,,,,,
harvest,166,846504,0.0-51.0-4.0,"""event"",""trial"",""time""
""fullscreenenter"",""1"",""278086""
","
","
","""event"",""trial"",""time""
""fullscreenenter"",""1"",""278086""
","
",,null,run_exp/static/images/task_images/gems/96.jpg,null,,,,,,,77,,,7,,,,,96,0.798084638,0.802083333,,,,,,,
decision,167,846929,0.0-51.0-5.0,"""event"",""trial"",""time""
""fullscreenenter"",""1"",""278086""
","
","
","""event"",""trial"",""time""
""fullscreenenter"",""1"",""278086""
","
",,423.8,run_exp/static/images/task_images/land.jpg,65,,,,,,,77,,,7,,,,,,,,204782,1,0,FALSE,,,
dig,168,849513,0.0-52.0-0.0,"""event"",""trial"",""time""
""fullscreenenter"",""1"",""278086""
","
","
","""event"",""trial"",""time""
""fullscreenenter"",""1"",""278086""
","
",,,,,,,,,,,,"[{""stimulus"":""run_exp/static/images/task_images/dig.jpg"",""time"":0.2999999523162842},{""stimulus"":""run_exp/static/images/task_images/land.jpg"",""time"":868.6000000238419},{""stimulus"":""run_exp/static/images/task_images/dig.jpg"",""time"":1727.6000000238419}]",[],7,,,,,,,,,,,,,,
harvest,169,850519,0.0-52.0-1.0,"""event"",""trial"",""time""
""fullscreenenter"",""1"",""278086""
","
","
","""event"",""trial"",""time""
""fullscreenenter"",""1"",""278086""
","
",,null,run_exp/static/images/task_images/gems/77.jpg,null,,,,,,,69,,,7,,,,,77,0.889610438,0.896103896,,,,,,,
decision,170,850965,0.0-52.0-2.0,"""event"",""trial"",""time""
""fullscreenenter"",""1"",""278086""
","
","
","""event"",""trial"",""time""
""fullscreenenter"",""1"",""278086""
","
",,443.8,run_exp/static/images/task_images/land.jpg,65,,,,,,,69,,,7,,,,,,,,208818,1,1,FALSE,,,
dig,171,853539,0.0-53.0-0.0,"""event"",""trial"",""time""
""fullscreenenter"",""1"",""278086""
","
","
","""event"",""trial"",""time""
""fullscreenenter"",""1"",""278086""
","
",,,,,,,,,,,,"[{""stimulus"":""run_exp/static/images/task_images/dig.jpg"",""time"":0.19999992847442627},{""stimulus"":""run_exp/static/images/task_images/land.jpg"",""time"":866.2999999523163},{""stimulus"":""run_exp/static/images/task_images/dig.jpg"",""time"":1712.2999999523163}]",[],7,,,,,,,,,,,,,,
harvest,172,854545,0.0-53.0-1.0,"""event"",""trial"",""time""
""fullscreenenter"",""1"",""278086""
","
","
","""event"",""trial"",""time""
""fullscreenenter"",""1"",""278086""
","
",,null,run_exp/static/images/task_images/gems/69.jpg,null,,,,,,,61,,,7,,,,,69,0.886789923,0.884057971,,,,,,,
decision,173,854943,0.0-53.0-2.0,"""event"",""trial"",""time""
""fullscreenenter"",""1"",""278086""
","
","
","""event"",""trial"",""time""
""fullscreenenter"",""1"",""278086""
","
",,396.4,run_exp/static/images/task_images/land.jpg,65,,,,,,,61,,,7,,,,,,,,212796,1,2,FALSE,,,
dig,174,857554,0.0-54.0-0.0,"""event"",""trial"",""time""
""fullscreenenter"",""1"",""278086""
","
","
","""event"",""trial"",""time""
""fullscreenenter"",""1"",""278086""
","
",,,,,,,,,,,,"[{""stimulus"":""run_exp/static/images/task_images/dig.jpg"",""time"":0.30000007152557373},{""stimulus"":""run_exp/static/images/task_images/land.jpg"",""time"":879.8999999761581},{""stimulus"":""run_exp/static/images/task_images/dig.jpg"",""time"":1740.5}]",[],7,,,,,,,,,,,,,,
harvest,175,858563,0.0-54.0-1.0,"""event"",""trial"",""time""
""fullscreenenter"",""1"",""278086""
","
","
","""event"",""trial"",""time""
""fullscreenenter"",""1"",""278086""
","
",,null,run_exp/static/images/task_images/gems/61.jpg,null,,,,,,,51,,,7,,,,,61,0.841932442,0.836065574,,,,,,,
decision,176,859086,0.0-54.0-2.0,"""event"",""trial"",""time""
""fullscreenenter"",""1"",""278086""
","
","
","""event"",""trial"",""time""
""fullscreenenter"",""1"",""278086""
","
",,521.1,run_exp/static/images/task_images/land.jpg,65,,,,,,,51,,,7,,,,,,,,216939,1,3,FALSE,,,
dig,177,861575,0.0-55.0-0.0,"""event"",""trial"",""time""
""fullscreenenter"",""1"",""278086""
","
","
","""event"",""trial"",""time""
""fullscreenenter"",""1"",""278086""
","
",,,,,,,,,,,,"[{""stimulus"":""run_exp/static/images/task_images/dig.jpg"",""time"":0.20000004768371582},{""stimulus"":""run_exp/static/images/task_images/land.jpg"",""time"":832.8999999761581},{""stimulus"":""run_exp/static/images/task_images/dig.jpg"",""time"":1664.5}]",[],7,,,,,,,,,,,,,,
harvest,178,862582,0.0-55.0-1.0,"""event"",""trial"",""time""
""fullscreenenter"",""1"",""278086""
","
","
","""event"",""trial"",""time""
""fullscreenenter"",""1"",""278086""
","
",,null,run_exp/static/images/task_images/gems/51.jpg,null,,,,,,,38,,,7,,,,,51,0.751366969,0.745098039,,,,,,,
decision,179,862955,0.0-55.0-2.0,"""event"",""trial"",""time""
""fullscreenenter"",""1"",""278086""
","
","
","""event"",""trial"",""time""
""fullscreenenter"",""1"",""278086""
","
",,371,run_exp/static/images/task_images/land.jpg,65,,,,,,,38,,,7,,,,,,,,220808,1,4,FALSE,,,
dig,180,865592,0.0-56.0-0.0,"""event"",""trial"",""time""
""fullscreenenter"",""1"",""278086""
","
","
","""event"",""trial"",""time""
""fullscreenenter"",""1"",""278086""
","
",,,,,,,,,,,,"[{""stimulus"":""run_exp/static/images/task_images/dig.jpg"",""time"":0.2999999523162842},{""stimulus"":""run_exp/static/images/task_images/land.jpg"",""time"":880.7999999523163},{""stimulus"":""run_exp/static/images/task_images/dig.jpg"",""time"":1763.5999999046326}]",[],7,,,,,,,,,,,,,,
harvest,181,866599,0.0-56.0-1.0,"""event"",""trial"",""time""
""fullscreenenter"",""1"",""278086""
","
","
","""event"",""trial"",""time""
""fullscreenenter"",""1"",""278086""
","
",,null,run_exp/static/images/task_images/gems/38.jpg,null,,,,,,,30,,,7,,,,,38,0.798341132,0.789473684,,,,,,,
decision,182,866975,0.0-56.0-2.0,"""event"",""trial"",""time""
""fullscreenenter"",""1"",""278086""
","
","
","""event"",""trial"",""time""
""fullscreenenter"",""1"",""278086""
","
",,373.6999999,run_exp/static/images/task_images/land.jpg,65,,,,,,,30,,,7,,,,,,,,224828,1,5,FALSE,,,
dig,183,869609,0.0-57.0-0.0,"""event"",""trial"",""time""
""fullscreenenter"",""1"",""278086""
","
","
","""event"",""trial"",""time""
""fullscreenenter"",""1"",""278086""
","
",,,,,,,,,,,,"[{""stimulus"":""run_exp/static/images/task_images/dig.jpg"",""time"":0.20000004768371582},{""stimulus"":""run_exp/static/images/task_images/land.jpg"",""time"":884.8999999761581},{""stimulus"":""run_exp/static/images/task_images/dig.jpg"",""time"":1756.8999999761581}]",[],7,,,,,,,,,,,,,,
harvest,184,870619,0.0-57.0-1.0,"""event"",""trial"",""time""
""fullscreenenter"",""1"",""278086""
","
","
","""event"",""trial"",""time""
""fullscreenenter"",""1"",""278086""
","
",,null,run_exp/static/images/task_images/gems/30.jpg,null,,,,,,,26,,,7,,,,,30,0.85412464,0.866666667,,,,,,,
decision,185,871000,0.0-57.0-2.0,"""event"",""trial"",""time""
""fullscreenenter"",""1"",""278086""
","
","
","""event"",""trial"",""time""
""fullscreenenter"",""1"",""278086""
","
",,379.7,run_exp/static/images/task_images/land.jpg,65,,,,,,,26,,,7,,,,,,,,228854,1,6,FALSE,,,
dig,186,873633,0.0-58.0-0.0,"""event"",""trial"",""time""
""fullscreenenter"",""1"",""278086""
","
","
","""event"",""trial"",""time""
""fullscreenenter"",""1"",""278086""
","
",,,,,,,,,,,,"[{""stimulus"":""run_exp/static/images/task_images/dig.jpg"",""time"":0.19999992847442627},{""stimulus"":""run_exp/static/images/task_images/land.jpg"",""time"":887.3999999761581},{""stimulus"":""run_exp/static/images/task_images/dig.jpg"",""time"":1758.3999999761581}]",[],7,,,,,,,,,,,,,,
harvest,187,874641,0.0-58.0-1.0,"""event"",""trial"",""time""
""fullscreenenter"",""1"",""278086""
","
","
","""event"",""trial"",""time""
""fullscreenenter"",""1"",""278086""
","
",,null,run_exp/static/images/task_images/gems/26.jpg,null,,,,,,,22,,,7,,,,,26,0.829085893,0.846153846,,,,,,,
decision,188,875011,0.0-58.0-2.0,"""event"",""trial"",""time""
""fullscreenenter"",""1"",""278086""
","
","
","""event"",""trial"",""time""
""fullscreenenter"",""1"",""278086""
","
",,367.8,run_exp/static/images/task_images/land.jpg,65,,,,,,,22,,,7,,,,,,,,232864,1,7,FALSE,,,
dig,189,877661,0.0-59.0-0.0,"""event"",""trial"",""time""
""fullscreenenter"",""1"",""278086""
","
","
","""event"",""trial"",""time""
""fullscreenenter"",""1"",""278086""
","
",,,,,,,,,,,,"[{""stimulus"":""run_exp/static/images/task_images/dig.jpg"",""time"":0.20000004768371582},{""stimulus"":""run_exp/static/images/task_images/land.jpg"",""time"":880.5},{""stimulus"":""run_exp/static/images/task_images/dig.jpg"",""time"":1760.8999999761581}]",[],7,,,,,,,,,,,,,,
harvest,190,878670,0.0-59.0-1.0,"""event"",""trial"",""time""
""fullscreenenter"",""1"",""278086""
","
","
","""event"",""trial"",""time""
""fullscreenenter"",""1"",""278086""
","
",,null,run_exp/static/images/task_images/gems/22.jpg,null,,,,,,,16,,,7,,,,,22,0.745475895,0.727272727,,,,,,,
decision,191,879045,0.0-59.0-2.0,"""event"",""trial"",""time""
""fullscreenenter"",""1"",""278086""
","
","
","""event"",""trial"",""time""
""fullscreenenter"",""1"",""278086""
","
",,373.5,run_exp/static/images/task_images/land.jpg,76,,,,,,,16,,,7,,,,,,,,236898,1,8,TRUE,,,
travel,192,888681,0.0-60.0-0.0,"""event"",""trial"",""time""
""fullscreenenter"",""1"",""278086""
","
","
","""event"",""trial"",""time""
""fullscreenenter"",""1"",""278086""
","
",,,,,,,,,,,,"[{""stimulus"":""run_exp/static/images/task_images/rocket-01.jpg"",""time"":0.20000004768371582},{""stimulus"":""run_exp/static/images/task_images/rocket-02.jpg"",""time"":1079.4000000953674},{""stimulus"":""run_exp/static/images/task_images/rocket-03.jpg"",""time"":2142.7000000476837},{""stimulus"":""run_exp/static/images/task_images/rocket-04.jpg"",""time"":3217.7000000476837},{""stimulus"":""run_exp/static/images/task_images/rocket-05.jpg"",""time"":4280},{""stimulus"":""run_exp/static/images/task_images/rocket-06.jpg"",""time"":5351.800000071526},{""stimulus"":""run_exp/static/images/task_images/rocket-07.jpg"",""time"":6428.700000047684},{""stimulus"":""run_exp/static/images/task_images/rocket-08.jpg"",""time"":7492.700000047684},{""stimulus"":""run_exp/static/images/task_images/rocket-09.jpg"",""time"":8565.100000023842}]",[],7,,,,,,,,,,,,,,
alien_welcome,193,893689,0.0-60.0-1.0,"""event"",""trial"",""time""
""fullscreenenter"",""1"",""278086""
","
","
","""event"",""trial"",""time""
""fullscreenenter"",""1"",""278086""
","
",,null,run_exp/static/images/task_images/aliens/old_aliens/planet/alien_planet-38.jpg,null,,,,,,,,,,,,,38,"72,43,33,58,15,8,37,38,44,20,47,23,18,51,52,27,60,68,49,3,76,62,56,32,24,42,57,11,34,9,28,59,4,19,67,78,70",,,,,,,,,,
land,194,894198,0.0-60.0-2.0,"""event"",""trial"",""time""
""fullscreenenter"",""1"",""278086""
","
","
","""event"",""trial"",""time""
""fullscreenenter"",""1"",""278086""
","
",,null,run_exp/static/images/task_images/land.jpg,null,,,,,,,97,,,8,,,,,,,,,,,,,,
dig,195,896209,0.0-60.0-3.0,"""event"",""trial"",""time""
""fullscreenenter"",""1"",""278086""
","
","
","""event"",""trial"",""time""
""fullscreenenter"",""1"",""278086""
","
",,,,,,,,,,,,"[{""stimulus"":""run_exp/static/images/task_images/dig.jpg"",""time"":0.3999999761581421},{""stimulus"":""run_exp/static/images/task_images/land.jpg"",""time"":674.6999999284744},{""stimulus"":""run_exp/static/images/task_images/dig.jpg"",""time"":1348.5}]",[],8,,,,,,,,,,,,,,
harvest,196,897219,0.0-60.0-4.0,"""event"",""trial"",""time""
""fullscreenenter"",""1"",""278086""
","
","
","""event"",""trial"",""time""
""fullscreenenter"",""1"",""278086""
","
",,null,run_exp/static/images/task_images/gems/97.jpg,null,,,,,,,82,,,8,,,,,97,0.84984896,0.845360825,,,,,,,
decision,197,897624,0.0-60.0-5.0,"""event"",""trial"",""time""
""fullscreenenter"",""1"",""278086""
","
","
","""event"",""trial"",""time""
""fullscreenenter"",""1"",""278086""
","
",,403.2,run_exp/static/images/task_images/land.jpg,65,,,,,,,82,,,8,,,,,,,,255477,1,0,FALSE,,,
dig,198,900234,0.0-61.0-0.0,"""event"",""trial"",""time""
""fullscreenenter"",""1"",""278086""
","
","
","""event"",""trial"",""time""
""fullscreenenter"",""1"",""278086""
","
",,,,,,,,,,,,"[{""stimulus"":""run_exp/static/images/task_images/dig.jpg"",""time"":0.19999992847442627},{""stimulus"":""run_exp/static/images/task_images/land.jpg"",""time"":881.2999999523163},{""stimulus"":""run_exp/static/images/task_images/dig.jpg"",""time"":1739.5999999046326}]",[],8,,,,,,,,,,,,,,
harvest,199,901242,0.0-61.0-1.0,"""event"",""trial"",""time""
""fullscreenenter"",""1"",""278086""
","
","
","""event"",""trial"",""time""
""fullscreenenter"",""1"",""278086""
","
",,null,run_exp/static/images/task_images/gems/82.jpg,null,,,,,,,68,,,8,,,,,82,0.82661303,0.829268293,,,,,,,
decision,200,901658,0.0-61.0-2.0,"""event"",""trial"",""time""
""fullscreenenter"",""1"",""278086""
","
","
","""event"",""trial"",""time""
""fullscreenenter"",""1"",""278086""
","
",,413.9000001,run_exp/static/images/task_images/land.jpg,65,,,,,,,68,,,8,,,,,,,,259511,1,1,FALSE,,,
dig,201,904254,0.0-62.0-0.0,"""event"",""trial"",""time""
""fullscreenenter"",""1"",""278086""
","
","
","""event"",""trial"",""time""
""fullscreenenter"",""1"",""278086""
","
",,,,,,,,,,,,"[{""stimulus"":""run_exp/static/images/task_images/dig.jpg"",""time"":0.20000004768371582},{""stimulus"":""run_exp/static/images/task_images/land.jpg"",""time"":869.6000000238419},{""stimulus"":""run_exp/static/images/task_images/dig.jpg"",""time"":1733.3999999761581}]",[],8,,,,,,,,,,,,,,
harvest,202,905262,0.0-62.0-1.0,"""event"",""trial"",""time""
""fullscreenenter"",""1"",""278086""
","
","
","""event"",""trial"",""time""
""fullscreenenter"",""1"",""278086""
","
",,null,run_exp/static/images/task_images/gems/68.jpg,null,,,,,,,51,,,8,,,,,68,0.745286585,0.75,,,,,,,
decision,203,905975,0.0-62.0-2.0,"""event"",""trial"",""time""
""fullscreenenter"",""1"",""278086""
","
","
","""event"",""trial"",""time""
""fullscreenenter"",""1"",""278086""
","
",,711.8000001,run_exp/static/images/task_images/land.jpg,65,,,,,,,51,,,8,,,,,,,,263828,1,2,FALSE,,,
dig,204,908270,0.0-63.0-0.0,"""event"",""trial"",""time""
""fullscreenenter"",""1"",""278086""
","
","
","""event"",""trial"",""time""
""fullscreenenter"",""1"",""278086""
","
",,,,,,,,,,,,"[{""stimulus"":""run_exp/static/images/task_images/dig.jpg"",""time"":0.2999999523162842},{""stimulus"":""run_exp/static/images/task_images/land.jpg"",""time"":769.8999999761581},{""stimulus"":""run_exp/static/images/task_images/dig.jpg"",""time"":1535.7999999523163}]",[],8,,,,,,,,,,,,,,
harvest,205,909280,0.0-63.0-1.0,"""event"",""trial"",""time""
""fullscreenenter"",""1"",""278086""
","
","
","""event"",""trial"",""time""
""fullscreenenter"",""1"",""278086""
","
",,null,run_exp/static/images/task_images/gems/51.jpg,null,,,,,,,39,,,8,,,,,51,0.762846195,0.764705882,,,,,,,
decision,206,909870,0.0-63.0-2.0,"""event"",""trial"",""time""
""fullscreenenter"",""1"",""278086""
","
","
","""event"",""trial"",""time""
""fullscreenenter"",""1"",""278086""
","
",,587.8,run_exp/static/images/task_images/land.jpg,65,,,,,,,39,,,8,,,,,,,,267723,1,3,FALSE,,,
dig,207,912296,0.0-64.0-0.0,"""event"",""trial"",""time""
""fullscreenenter"",""1"",""278086""
","
","
","""event"",""trial"",""time""
""fullscreenenter"",""1"",""278086""
","
",,,,,,,,,,,,"[{""stimulus"":""run_exp/static/images/task_images/dig.jpg"",""time"":0.20000004768371582},{""stimulus"":""run_exp/static/images/task_images/land.jpg"",""time"":806},{""stimulus"":""run_exp/static/images/task_images/dig.jpg"",""time"":1613.2000000476837}]",[],8,,,,,,,,,,,,,,
harvest,208,913305,0.0-64.0-1.0,"""event"",""trial"",""time""
""fullscreenenter"",""1"",""278086""
","
","
","""event"",""trial"",""time""
""fullscreenenter"",""1"",""278086""
","
",,null,run_exp/static/images/task_images/gems/39.jpg,null,,,,,,,30,,,8,,,,,39,0.775124762,0.769230769,,,,,,,
decision,209,914145,0.0-64.0-2.0,"""event"",""trial"",""time""
""fullscreenenter"",""1"",""278086""
","
","
","""event"",""trial"",""time""
""fullscreenenter"",""1"",""278086""
","
",,838.0999999,run_exp/static/images/task_images/land.jpg,65,,,,,,,30,,,8,,,,,,,,271998,1,4,FALSE,,,
dig,210,916322,0.0-65.0-0.0,"""event"",""trial"",""time""
""fullscreenenter"",""1"",""278086""
","
","
","""event"",""trial"",""time""
""fullscreenenter"",""1"",""278086""
","
",,,,,,,,,,,,"[{""stimulus"":""run_exp/static/images/task_images/dig.jpg"",""time"":0.30000007152557373},{""stimulus"":""run_exp/static/images/task_images/land.jpg"",""time"":730.1000000238419},{""stimulus"":""run_exp/static/images/task_images/dig.jpg"",""time"":1454.1000000238419}]",[],8,,,,,,,,,,,,,,
harvest,211,917329,0.0-65.0-1.0,"""event"",""trial"",""time""
""fullscreenenter"",""1"",""278086""
","
","
","""event"",""trial"",""time""
""fullscreenenter"",""1"",""278086""
","
",,null,run_exp/static/images/task_images/gems/30.jpg,null,,,,,,,25,,,8,,,,,30,0.830490225,0.833333333,,,,,,,
decision,212,917869,0.0-65.0-2.0,"""event"",""trial"",""time""
""fullscreenenter"",""1"",""278086""
","
","
","""event"",""trial"",""time""
""fullscreenenter"",""1"",""278086""
","
",,538.4,run_exp/static/images/task_images/land.jpg,65,,,,,,,25,,,8,,,,,,,,275722,1,5,FALSE,,,
dig,213,920337,0.0-66.0-0.0,"""event"",""trial"",""time""
""fullscreenenter"",""1"",""278086""
","
","
","""event"",""trial"",""time""
""fullscreenenter"",""1"",""278086""
","
",,,,,,,,,,,,"[{""stimulus"":""run_exp/static/images/task_images/dig.jpg"",""time"":0.19999992847442627},{""stimulus"":""run_exp/static/images/task_images/land.jpg"",""time"":821.7999999523163},{""stimulus"":""run_exp/static/images/task_images/dig.jpg"",""time"":1650.5}]",[],8,,,,,,,,,,,,,,
harvest,214,921344,0.0-66.0-1.0,"""event"",""trial"",""time""
""fullscreenenter"",""1"",""278086""
","
","
","""event"",""trial"",""time""
""fullscreenenter"",""1"",""278086""
","
",,null,run_exp/static/images/task_images/gems/25.jpg,null,,,,,,,21,,,8,,,,,25,0.821966138,0.84,,,,,,,
decision,215,921723,0.0-66.0-2.0,"""event"",""trial"",""time""
""fullscreenenter"",""1"",""278086""
","
","
","""event"",""trial"",""time""
""fullscreenenter"",""1"",""278086""
","
",,377.3000001,run_exp/static/images/task_images/land.jpg,65,,,,,,,21,,,8,,,,,,,,279576,1,6,FALSE,,,
dig,216,924359,0.0-67.0-0.0,"""event"",""trial"",""time""
""fullscreenenter"",""1"",""278086""
","
","
","""event"",""trial"",""time""
""fullscreenenter"",""1"",""278086""
","
",,,,,,,,,,,,"[{""stimulus"":""run_exp/static/images/task_images/dig.jpg"",""time"":0.2999999523162842},{""stimulus"":""run_exp/static/images/task_images/land.jpg"",""time"":886},{""stimulus"":""run_exp/static/images/task_images/dig.jpg"",""time"":1756}]",[],8,,,,,,,,,,,,,,
harvest,217,925367,0.0-67.0-1.0,"""event"",""trial"",""time""
""fullscreenenter"",""1"",""278086""
","
","
","""event"",""trial"",""time""
""fullscreenenter"",""1"",""278086""
","
",,null,run_exp/static/images/task_images/gems/21.jpg,null,,,,,,,18,,,8,,,,,21,0.834849168,0.857142857,,,,,,,
decision,218,925467,0.0-67.0-2.0,"""event"",""trial"",""time""
""fullscreenenter"",""1"",""278086""
","
","
","""event"",""trial"",""time""
""fullscreenenter"",""1"",""278086""
","
",,97.39999998,run_exp/static/images/task_images/land.jpg,76,,,,,,,18,,,8,,,,,,,,283320,1,7,TRUE,,,
travel,219,935376,0.0-68.0-0.0,"""event"",""trial"",""time""
""fullscreenenter"",""1"",""278086""
","
","
","""event"",""trial"",""time""
""fullscreenenter"",""1"",""278086""
","
",,,,,,,,,,,,"[{""stimulus"":""run_exp/static/images/task_images/rocket-01.jpg"",""time"":0.20000004768371582},{""stimulus"":""run_exp/static/images/task_images/rocket-02.jpg"",""time"":1107.8999999761581},{""stimulus"":""run_exp/static/images/task_images/rocket-03.jpg"",""time"":2214.2000000476837},{""stimulus"":""run_exp/static/images/task_images/rocket-04.jpg"",""time"":3304.100000023842},{""stimulus"":""run_exp/static/images/task_images/rocket-05.jpg"",""time"":4414.300000071526},{""stimulus"":""run_exp/static/images/task_images/rocket-06.jpg"",""time"":5509.800000071526},{""stimulus"":""run_exp/static/images/task_images/rocket-07.jpg"",""time"":6608.200000047684},{""stimulus"":""run_exp/static/images/task_images/rocket-08.jpg"",""time"":7708.200000047684},{""stimulus"":""run_exp/static/images/task_images/rocket-09.jpg"",""time"":8810.899999976158}]",[],8,,,,,,,,,,,,,,
alien_welcome,220,940387,0.0-68.0-1.0,"""event"",""trial"",""time""
""fullscreenenter"",""1"",""278086""
","
","
","""event"",""trial"",""time""
""fullscreenenter"",""1"",""278086""
","
",,null,run_exp/static/images/task_images/aliens/old_aliens/planet/alien_planet-44.jpg,null,,,,,,,,,,,,,44,"72,43,33,58,15,8,37,38,44,20,47,23,18,51,52,27,60,68,49,3,76,62,56,32,24,42,57,11,34,9,28,59,4,19,67,78,70",,,,,,,,,,
land,221,940898,0.0-68.0-2.0,"""event"",""trial"",""time""
""fullscreenenter"",""1"",""278086""
","
","
","""event"",""trial"",""time""
""fullscreenenter"",""1"",""278086""
","
",,null,run_exp/static/images/task_images/land.jpg,null,,,,,,,100,,,9,,,,,,,,,,,,,,
dig,222,942910,0.0-68.0-3.0,"""event"",""trial"",""time""
""fullscreenenter"",""1"",""278086""
","
","
","""event"",""trial"",""time""
""fullscreenenter"",""1"",""278086""
","
",,,,,,,,,,,,"[{""stimulus"":""run_exp/static/images/task_images/dig.jpg"",""time"":0.5},{""stimulus"":""run_exp/static/images/task_images/land.jpg"",""time"":674.8999999761581},{""stimulus"":""run_exp/static/images/task_images/dig.jpg"",""time"":1339.5}]",[],9,,,,,,,,,,,,,,
harvest,223,943921,0.0-68.0-4.0,"""event"",""trial"",""time""
""fullscreenenter"",""1"",""278086""
","
","
","""event"",""trial"",""time""
""fullscreenenter"",""1"",""278086""
","
",,null,run_exp/static/images/task_images/gems/100.jpg,null,,,,,,,21,,,9,,,,,100,0.208883777,0.21,,,,,,,
decision,224,944310,0.0-68.0-5.0,"""event"",""trial"",""time""
""fullscreenenter"",""1"",""278086""
","
","
","""event"",""trial"",""time""
""fullscreenenter"",""1"",""278086""
","
",,387,run_exp/static/images/task_images/land.jpg,65,,,,,,,21,,,9,,,,,,,,302163,1,0,TRUE,,,
end_of_block_continue,225,948453,0.0-69.0-0.0,"""event"",""trial"",""time""
""fullscreenenter"",""1"",""278086""
","
","
","""event"",""trial"",""time""
""fullscreenenter"",""1"",""278086""
","
",,4136.9,run_exp/static/audio/clip_32_block_end.m4a,,,,,,,0,,,,,,,,,,,,,,,,,,
alien_welcome,226,953463,0.0-70.0-0.0,"""event"",""trial"",""time""
""fullscreenenter"",""1"",""278086""
","
","
","""event"",""trial"",""time""
""fullscreenenter"",""1"",""278086""
","
",,null,run_exp/static/images/task_images/aliens/old_aliens/planet/alien_planet-20.jpg,null,,,,,,,,,,,,,20,"72,43,33,58,15,8,37,38,44,20,47,23,18,51,52,27,60,68,49,3,76,62,56,32,24,42,57,11,34,9,28,59,4,19,67,78,70",,,,,,,,,,
land,227,953969,0.0-70.0-1.0,"""event"",""trial"",""time""
""fullscreenenter"",""1"",""278086""
","
","
","""event"",""trial"",""time""
""fullscreenenter"",""1"",""278086""
","
",,null,run_exp/static/images/task_images/land.jpg,null,,,,,,,97,,,10,,,,,,,,,,,,,,
dig,228,955984,0.0-70.0-2.0,"""event"",""trial"",""time""
""fullscreenenter"",""1"",""278086""
","
","
","""event"",""trial"",""time""
""fullscreenenter"",""1"",""278086""
","
",,,,,,,,,,,,"[{""stimulus"":""run_exp/static/images/task_images/dig.jpg"",""time"":0.5},{""stimulus"":""run_exp/static/images/task_images/land.jpg"",""time"":676},{""stimulus"":""run_exp/static/images/task_images/dig.jpg"",""time"":1339.7999999523163}]",[],10,,,,,,,,,,,,,,
harvest,229,956996,0.0-70.0-3.0,"""event"",""trial"",""time""
""fullscreenenter"",""1"",""278086""
","
","
","""event"",""trial"",""time""
""fullscreenenter"",""1"",""278086""
","
",,null,run_exp/static/images/task_images/gems/97.jpg,null,,,,,,,18,,,10,,,,,97,0.1859589,0.18556701,,,,,,,
decision,230,957515,0.0-70.0-4.0,"""event"",""trial"",""time""
""fullscreenenter"",""1"",""278086""
","
","
","""event"",""trial"",""time""
""fullscreenenter"",""1"",""278086""
","
",,516.3000001,run_exp/static/images/task_images/land.jpg,65,,,,,,,18,,,10,,,,,,,,9058,2,0,FALSE,,,
dig,231,960012,0.0-71.0-0.0,"""event"",""trial"",""time""
""fullscreenenter"",""1"",""278086""
","
","
","""event"",""trial"",""time""
""fullscreenenter"",""1"",""278086""
","
",,,,,,,,,,,,"[{""stimulus"":""run_exp/static/images/task_images/dig.jpg"",""time"":0.19999992847442627},{""stimulus"":""run_exp/static/images/task_images/land.jpg"",""time"":833.1999999284744},{""stimulus"":""run_exp/static/images/task_images/dig.jpg"",""time"":1663.2999999523163}]",[],10,,,,,,,,,,,,,,
harvest,232,961022,0.0-71.0-1.0,"""event"",""trial"",""time""
""fullscreenenter"",""1"",""278086""
","
","
","""event"",""trial"",""time""
""fullscreenenter"",""1"",""278086""
","
",,null,run_exp/static/images/task_images/gems/18.jpg,null,,,,,,,4,,,10,,,,,18,0.233567787,0.222222222,,,,,,,
decision,233,961800,0.0-71.0-2.0,"""event"",""trial"",""time""
""fullscreenenter"",""1"",""278086""
","
","
","""event"",""trial"",""time""
""fullscreenenter"",""1"",""278086""
","
",,776.1,run_exp/static/images/task_images/land.jpg,76,,,,,,,4,,,10,,,,,,,,13343,2,1,TRUE,,,
travel,234,971029,0.0-72.0-0.0,"""event"",""trial"",""time""
""fullscreenenter"",""1"",""278086""
","
","
","""event"",""trial"",""time""
""fullscreenenter"",""1"",""278086""
","
",,,,,,,,,,,,"[{""stimulus"":""run_exp/static/images/task_images/rocket-01.jpg"",""time"":0.19999992847442627},{""stimulus"":""run_exp/static/images/task_images/rocket-02.jpg"",""time"":1034},{""stimulus"":""run_exp/static/images/task_images/rocket-03.jpg"",""time"":2058.2999999523163},{""stimulus"":""run_exp/static/images/task_images/rocket-04.jpg"",""time"":3088.2999999523163},{""stimulus"":""run_exp/static/images/task_images/rocket-05.jpg"",""time"":4107.099999904633},{""stimulus"":""run_exp/static/images/task_images/rocket-06.jpg"",""time"":5136.599999904633},{""stimulus"":""run_exp/static/images/task_images/rocket-07.jpg"",""time"":6160.299999952316},{""stimulus"":""run_exp/static/images/task_images/rocket-08.jpg"",""time"":7170.299999952316},{""stimulus"":""run_exp/static/images/task_images/rocket-09.jpg"",""time"":8208.299999952316}]",[],10,,,,,,,,,,,,,,
alien_welcome,235,976038,0.0-72.0-1.0,"""event"",""trial"",""time""
""fullscreenenter"",""1"",""278086""
","
","
","""event"",""trial"",""time""
""fullscreenenter"",""1"",""278086""
","
",,null,run_exp/static/images/task_images/aliens/old_aliens/planet/alien_planet-47.jpg,null,,,,,,,,,,,,,47,"72,43,33,58,15,8,37,38,44,20,47,23,18,51,52,27,60,68,49,3,76,62,56,32,24,42,57,11,34,9,28,59,4,19,67,78,70",,,,,,,,,,
land,236,976548,0.0-72.0-2.0,"""event"",""trial"",""time""
""fullscreenenter"",""1"",""278086""
","
","
","""event"",""trial"",""time""
""fullscreenenter"",""1"",""278086""
","
",,null,run_exp/static/images/task_images/land.jpg,null,,,,,,,101,,,11,,,,,,,,,,,,,,
dig,237,978558,0.0-72.0-3.0,"""event"",""trial"",""time""
""fullscreenenter"",""1"",""278086""
","
","
","""event"",""trial"",""time""
""fullscreenenter"",""1"",""278086""
","
",,,,,,,,,,,,"[{""stimulus"":""run_exp/static/images/task_images/dig.jpg"",""time"":0.5},{""stimulus"":""run_exp/static/images/task_images/land.jpg"",""time"":675.6000000238419},{""stimulus"":""run_exp/static/images/task_images/dig.jpg"",""time"":1338.2999999523163}]",[],11,,,,,,,,,,,,,,
harvest,238,979565,0.0-72.0-4.0,"""event"",""trial"",""time""
""fullscreenenter"",""1"",""278086""
","
","
","""event"",""trial"",""time""
""fullscreenenter"",""1"",""278086""
","
",,null,run_exp/static/images/task_images/gems/101.jpg,null,,,,,,,30,,,11,,,,,101,0.29234958,0.297029703,,,,,,,
decision,239,980567,0.0-72.0-5.0,"""event"",""trial"",""time""
""fullscreenenter"",""1"",""278086""
","
","
","""event"",""trial"",""time""
""fullscreenenter"",""1"",""278086""
","
",,999.1999999,run_exp/static/images/task_images/land.jpg,65,,,,,,,30,,,11,,,,,,,,32110,2,0,FALSE,,,
dig,240,982575,0.0-73.0-0.0,"""event"",""trial"",""time""
""fullscreenenter"",""1"",""278086""
","
","
","""event"",""trial"",""time""
""fullscreenenter"",""1"",""278086""
","
",,,,,,,,,,,,"[{""stimulus"":""run_exp/static/images/task_images/dig.jpg"",""time"":0.2999999523162842},{""stimulus"":""run_exp/static/images/task_images/land.jpg"",""time"":674.8999999761581},{""stimulus"":""run_exp/static/images/task_images/dig.jpg"",""time"":1333.3999999761581}]",[],11,,,,,,,,,,,,,,
harvest,241,983585,0.0-73.0-1.0,"""event"",""trial"",""time""
""fullscreenenter"",""1"",""278086""
","
","
","""event"",""trial"",""time""
""fullscreenenter"",""1"",""278086""
","
",,null,run_exp/static/images/task_images/gems/30.jpg,null,,,,,,,6,,,11,,,,,30,0.214057502,0.2,,,,,,,
decision,242,983956,0.0-73.0-2.0,"""event"",""trial"",""time""
""fullscreenenter"",""1"",""278086""
","
","
","""event"",""trial"",""time""
""fullscreenenter"",""1"",""278086""
","
",,369.7,run_exp/static/images/task_images/land.jpg,65,,,,,,,6,,,11,,,,,,,,35499,2,1,FALSE,,,
dig,243,986602,0.0-74.0-0.0,"""event"",""trial"",""time""
""fullscreenenter"",""1"",""278086""
","
","
","""event"",""trial"",""time""
""fullscreenenter"",""1"",""278086""
","
",,,,,,,,,,,,"[{""stimulus"":""run_exp/static/images/task_images/dig.jpg"",""time"":0.30000007152557373},{""stimulus"":""run_exp/static/images/task_images/land.jpg"",""time"":887.9000000953674},{""stimulus"":""run_exp/static/images/task_images/dig.jpg"",""time"":1757.8000000715256}]",[],11,,,,,,,,,,,,,,
harvest,244,987606,0.0-74.0-1.0,"""event"",""trial"",""time""
""fullscreenenter"",""1"",""278086""
","
