trial_type,trial_index,time_elapsed,internal_node_id,success,rt,stimulus,key_press,prompt,subject_id,age,gender,button_pressed,next_reward,animation_sequence,responses,planet,curr_prac_trial,n_prac_rounds,alien,aliens,reward_received,decay_rate_actual,decay_rate_exp,time_in_block,block_num,prt,last_trial_on_planet,button_html,bonus,num_failures
pavlovia,0,11,0.0-0.0,,,,,,,,,,,,,,,,,,,,,,,,,,,
fullscreen,1,3750,0.0-1.0,TRUE,,,,,,,,,,,,,,,,,,,,,,,,,,
instruc_welcome,2,13497,0.0-2.0,,null,run_exp/static/audio/clip_1_welcome.m4a,null,"<p>Howdy! In this experiment, you’ll be an explorer traveling through space to collect space treasure.</p><p>Your mission is to collect as much treasure as possible.</p><br><br><p><img src='run_exp/static/images/task_images/opening_img-01.jpg' height='300' width='auto'></p>",TWHKk5jGgmBhUct_a5Ke5UddwllDBGZ_MLRP_6EXBwlEvSBGXpHg,8.28,male,,,,,,,,,,,,,,,,,,,
audio-keyboard-response,3,30172,0.0-3.0,,null,run_exp/static/audio/clip_2_move.m4a,null,,,,,,,,,,,,,,,,,,,,,,,
welcome_dec,4,33259,0.0-4.0,,3079.645,"<p>Howdy! In this experiment, you’ll be an explorer traveling through space to collect space treasure.</p><p>Your mission is to collect as much treasure as possible.</p><br><br><p><img src='run_exp/static/images/task_images/opening_img-01.jpg' height='300' width='auto'></p>",,,,,,1,,,,,,,,,,,,,,,,,,
html-keyboard-response,5,36245,0.0-5.0,,2982.44,"<p>Howdy! In this experiment, you’ll be an explorer traveling through space to collect space treasure.</p><p>Your mission is to collect as much treasure as possible.</p><br><br><p><img src='run_exp/static/images/task_images/opening_img-01.jpg' height='300' width='auto'></p><button class=""jspsych-html-btn-unchosen""><img src=""run_exp/static/images/task_images/planet-01.jpg"" height=""50""></button><button class=""jspsych-html-btn-chosen""><img src=""run_exp/static/images/task_images/planet-02.jpg"" height=""50""></button><p><b>[press the space bar to lock in your answer]<b><br></p>",32,,,,,,,,,,,,,,,,,,,,,,,
instruc_goal,6,46302,0.0-6.0-0.0,,null,run_exp/static/audio/clip_3_goal.m4a,null,"<p> As a space explorer, you’ll visit different planets to dig for space treasure, these pink gems.</p> <p> The more treasure you dig up, the more bonus money you’ll win! </p><br><br><p><img src='run_exp/static/images/task_images/pink_gem.jpg' height='300' width='auto'></p>",,,,,,,,,,,,,,,,,,,,,,
instruc_goal,7,48991,0.0-6.0-1.0,,2685.255,"<p> As a space explorer, you’ll visit different planets to dig for space treasure, these pink gems.</p> <p> The more treasure you dig up, the more bonus money you’ll win! </p><br><br><p><img src='run_exp/static/images/task_images/pink_gem.jpg' height='300' width='auto'></p>",,,,,,1,,,,,,,,,,,,,,,,,,
html-keyboard-response,8,50577,0.0-6.0-2.0,,1583.245,"<p> As a space explorer, you’ll visit different planets to dig for space treasure, these pink gems.</p> <p> The more treasure you dig up, the more bonus money you’ll win! </p><br><br><p><img src='run_exp/static/images/task_images/pink_gem.jpg' height='300' width='auto'></p><button class=""jspsych-html-btn-unchosen""><img src=""run_exp/static/images/task_images/planet-01.jpg"" height=""50""></button><button class=""jspsych-html-btn-chosen""><img src=""run_exp/static/images/task_images/planet-02.jpg"" height=""50""></button><p><b>[press the space bar to lock in your answer]<b><br></p>",32,,,,,,,,,,,,,,,,,,,,,,,
instruc_dig,9,66612,0.0-7.0-0.0,,null,run_exp/static/audio/clip_4_dig.m4a,null,,,,,,100,,,,,,,,,,,,,,,,,
instruc_dig_try,10,67970,0.0-7.0-1.0,,1355.285,"<p> When you’ve arrived at a new planet, you will dig once. </p> <p>Then, you get to decide if you want to stay on the planet and dig again or travel to a new planet and dig there.</p> <p> To stay and dig, press the letter <strong>‘A’</strong> on your keyboard. Try pressing it now! </p><p><img src='run_exp/static/images/task_images/land.jpg'  height='700' width='auto'></p>",65,"<p> When you’ve arrived at a new planet, you will dig once. </p> <p>Then, you get to decide if you want to stay on the planet and dig again or travel to a new planet and dig there.</p> <p> To stay and dig, press the letter <strong>‘A’</strong> on your keyboard. Try pressing it now! </p><p><img src='run_exp/static/images/task_images/land.jpg'  height='700' width='auto'></p>",,,,,100,,,,,,,,,,,,,,,,,
dig_prac,11,69998,0.0-7.0-2.0,,,,,,,,,,,"[{""stimulus"":""run_exp/static/images/task_images/dig.jpg"",""time"":0.5249999812804163},{""stimulus"":""run_exp/static/images/task_images/land.jpg"",""time"":691.2399999855552},{""stimulus"":""run_exp/static/images/task_images/dig.jpg"",""time"":1351.794999995036}]",[],,,,,,,,,,,,,,,
instruc_travel,12,106229,0.0-7.0-3.0,,null,run_exp/static/audio/clip_5_travel.m4a,null,"<p>Every time you dig up gems, there are less gems on the planet, so the more you dig on a planet the fewer gems you’ll get with each dig.</p><p>When gems are running low, you may want to travel to a new planet. </p> <p>  Planets are very far apart in this galaxy, so it will take some time to travel between them. </p> <br><p>There are lots and lots of planets for you to visit, so you won’t be able to return to any planets you’ve seen before. </p><br><p>To leave this planet and travel to a new one, press the letter <strong>‘L’</strong> on your keyboard. Try pressing it now! </p><p><img src='run_exp/static/images/task_images/rocket-01.jpg'  height='600' width='auto'></p>",,,,,,,,,,,,,,,,,,,,,,
instruc_travel_try,13,106868,0.0-7.0-4.0,,636.85,"<p>Every time you dig up gems, there are less gems on the planet, so the more you dig on a planet the fewer gems you’ll get with each dig.</p><p>When gems are running low, you may want to travel to a new planet. </p> <p>  Planets are very far apart in this galaxy, so it will take some time to travel between them. </p> <br><p>There are lots and lots of planets for you to visit, so you won’t be able to return to any planets you’ve seen before. </p><br><p>To leave this planet and travel to a new one, press the letter <strong>‘L’</strong> on your keyboard. Try pressing it now! </p><p><img src='run_exp/static/images/task_images/rocket-01.jpg'  height='600' width='auto'></p>",76,"<p>Every time you dig up gems, there are less gems on the planet, so the more you dig on a planet the fewer gems you’ll get with each dig.</p><p>When gems are running low, you may want to travel to a new planet. </p> <p>  Planets are very far apart in this galaxy, so it will take some time to travel between them. </p> <br><p>There are lots and lots of planets for you to visit, so you won’t be able to return to any planets you’ve seen before. </p><br><p>To leave this planet and travel to a new one, press the letter <strong>‘L’</strong> on your keyboard. Try pressing it now! </p><p><img src='run_exp/static/images/task_images/rocket-01.jpg'  height='600' width='auto'></p>",,,,,,,,,,,,,,,,,,,,,,
travel_prac,14,116872,0.0-7.0-5.0,,,,,,,,,,,"[{""stimulus"":""run_exp/static/images/task_images/rocket-01.jpg"",""time"":0.35999997635371983},{""stimulus"":""run_exp/static/images/task_images/rocket-02.jpg"",""time"":1127.825000003213},{""stimulus"":""run_exp/static/images/task_images/rocket-03.jpg"",""time"":2227.2249999805354},{""stimulus"":""run_exp/static/images/task_images/rocket-04.jpg"",""time"":3335.624999977881},{""stimulus"":""run_exp/static/images/task_images/rocket-05.jpg"",""time"":4467.039999988629},{""stimulus"":""run_exp/static/images/task_images/rocket-06.jpg"",""time"":5576.359999977285},{""stimulus"":""run_exp/static/images/task_images/rocket-07.jpg"",""time"":6685.389999998733},{""stimulus"":""run_exp/static/images/task_images/rocket-08.jpg"",""time"":7783.91999998712},{""stimulus"":""run_exp/static/images/task_images/rocket-09.jpg"",""time"":8893.144999979995}]",[],0,,,,,,,,,,,,,,
instruc_alien_greet,15,144062,0.0-7.0-6.0,,null,run_exp/static/audio/clip_6_alien.m4a,null,"<p>When you arrive at a new planet, the alien who owns the treasure mine on that planet will greet you!</p><p>The better an alien takes care of their mine the easier it is to dig for gems. Some aliens take better care of their mine than others. So, you won’t get exactly the same amount of gems on each planet.</p><p>What the alien looks like does not tell you anything about how many gems there are on the planet.</p><br><p><img src=""run_exp/static/images/task_images/aliens/instructions_aliens/planet/alien_planet-1.jpg""  height=""600"" width=""auto""></p>",,,,,,,,,,,,,,,,,,,,,,
instruc_alien_greet,16,151709,0.0-7.0-7.0,,7650.375,"<p>When you arrive at a new planet, the alien who owns the treasure mine on that planet will greet you!</p><p>The better an alien takes care of their mine the easier it is to dig for gems. Some aliens take better care of their mine than others. So, you won’t get exactly the same amount of gems on each planet.</p><p>What the alien looks like does not tell you anything about how many gems there are on the planet.</p><br><p><img src=""run_exp/static/images/task_images/aliens/instructions_aliens/planet/alien_planet-1.jpg""  height=""600"" width=""auto""></p>",,,,,,1,,,,,,,,,,,,,,,,,,
html-keyboard-response,17,157032,0.0-7.0-8.0,,5321.32,"<p>When you arrive at a new planet, the alien who owns the treasure mine on that planet will greet you!</p><p>The better an alien takes care of their mine the easier it is to dig for gems. Some aliens take better care of their mine than others. So, you won’t get exactly the same amount of gems on each planet.</p><p>What the alien looks like does not tell you anything about how many gems there are on the planet.</p><br><p><img src=""run_exp/static/images/task_images/aliens/instructions_aliens/planet/alien_planet-1.jpg""  height=""600"" width=""auto""></p><button class=""jspsych-html-btn-unchosen""><img src=""run_exp/static/images/task_images/planet-01.jpg"" height=""50""></button><button class=""jspsych-html-btn-chosen""><img src=""run_exp/static/images/task_images/planet-02.jpg"" height=""50""></button><p><b>[press the space bar to lock in your answer]<b><br></p>",32,,,,,,,,,,,,,,,,,,,,,,,
time_out,18,168111,0.0-8.0-0.0,,null,run_exp/static/audio/clip_7_timeout.m4a,null,"<p>If you don't make your choice fast enough, you’ll have to wait a few seconds before you can make another one.</p><p>You can’t dig for more gems or travel to new planets. You just have to sit and wait.</p><br><p><img src='run_exp/static/images/task_images/time_out.jpg'  height='600' width='auto'></p>",,,,,,,,,,,,,,,,,,,,,,
time_out,19,178193,0.0-8.0-1.0,,10080.135,"<p>If you don't make your choice fast enough, you’ll have to wait a few seconds before you can make another one.</p><p>You can’t dig for more gems or travel to new planets. You just have to sit and wait.</p><br><p><img src='run_exp/static/images/task_images/time_out.jpg'  height='600' width='auto'></p>",,,,,,1,,,,,,,,,,,,,,,,,,
html-keyboard-response,20,179238,0.0-8.0-2.0,,1042.76,"<p>If you don't make your choice fast enough, you’ll have to wait a few seconds before you can make another one.</p><p>You can’t dig for more gems or travel to new planets. You just have to sit and wait.</p><br><p><img src='run_exp/static/images/task_images/time_out.jpg'  height='600' width='auto'></p><button class=""jspsych-html-btn-unchosen""><img src=""run_exp/static/images/task_images/planet-01.jpg"" height=""50""></button><button class=""jspsych-html-btn-chosen""><img src=""run_exp/static/images/task_images/planet-02.jpg"" height=""50""></button><p><b>[press the space bar to lock in your answer]<b><br></p>",32,,,,,,,,,,,,,,,,,,,,,,,
instruc_break,21,194936,0.0-9.0-0.0,,null,run_exp/static/audio/clip_8_break.m4a,null,"<p> After digging and traveling for a while, you’ll be able to take a break at home base. </p><p>The game will last 20 minutes no matter what.</p><p>You will visit home base every 5 minutes, so, you will visit home base three times during the game.</p><br><p><img src='run_exp/static/images/task_images/home_base.jpg' height='600' width='auto'></p>",,,,,,,,,,,,,,,,,,,,,,
instruc_break,22,200393,0.0-9.0-1.0,,5454.42,"<p> After digging and traveling for a while, you’ll be able to take a break at home base. </p><p>The game will last 20 minutes no matter what.</p><p>You will visit home base every 5 minutes, so, you will visit home base three times during the game.</p><br><p><img src='run_exp/static/images/task_images/home_base.jpg' height='600' width='auto'></p>",,,,,,1,,,,,,,,,,,,,,,,,,
html-keyboard-response,23,200610,0.0-9.0-2.0,,214.045,"<p> After digging and traveling for a while, you’ll be able to take a break at home base. </p><p>The game will last 20 minutes no matter what.</p><p>You will visit home base every 5 minutes, so, you will visit home base three times during the game.</p><br><p><img src='run_exp/static/images/task_images/home_base.jpg' height='600' width='auto'></p><button class=""jspsych-html-btn-unchosen""><img src=""run_exp/static/images/task_images/planet-01.jpg"" height=""50""></button><button class=""jspsych-html-btn-chosen""><img src=""run_exp/static/images/task_images/planet-02.jpg"" height=""50""></button><p><b>[press the space bar to lock in your answer]<b><br></p>",32,,,,,,,,,,,,,,,,,,,,,,,
instruc_prac_game,24,210749,0.0-10.0-0.0,,null,run_exp/static/audio/clip_9_practice.m4a,null,"<p> Are you ready to play a practice game? </p> <p>In this practice game, you'll be digging up barrels of gems. But, in the real game, you'll be digging up the gems themselves. </p>",,,,,,,,,,,,,,,,,,,,,,
html-button-response,25,214634,0.0-10.0-1.0,,3877.6,"<p> Are you ready to play a practice game? </p> <p>In this practice game, you'll be digging up barrels of gems. But, in the real game, you'll be digging up the gems themselves. </p>",,,,,,0,,,,,,,,,,,,,,,,,,
alien_welcome_prac,26,219639,0.0-11.0-0.0,,null,run_exp/static/images/task_images/aliens/practice_aliens/planet/alien_planet-5.jpg,null,,,,,,,,,,,,,,,,,,,,,,,
land_prac,27,220141,0.0-11.0-1.0,,null,run_exp/static/images/task_images/land.jpg,null,,,,,,93,,,0,,,,,,,,,,,,,,
dig_prac,28,222152,0.0-11.0-2.0,,,,,,,,,,,"[{""stimulus"":""run_exp/static/images/task_images/dig.jpg"",""time"":0.34500000765547156},{""stimulus"":""run_exp/static/images/task_images/land.jpg"",""time"":676.545000023907},{""stimulus"":""run_exp/static/images/task_images/dig.jpg"",""time"":1348.505000001751}]",[],,,,,,,,,,,,,,,
harvest_prac,29,223166,0.0-11.0-3.0,,null,run_exp/static/images/task_images/barrel_text.jpg,null,,,,,,,,,,,,,,,,,,,,,,,
decision_prac,30,226184,0.0-11.0-4.0,,null,run_exp/static/images/task_images/land.jpg,null,,,,,,,,,,1,,,,,,,,,,,,,
time_out,31,228189,0.0-12.0-0.0,,null,run_exp/static/images/task_images/time_out.jpg,null,,,,,,,,,,,,,,,,,,,,,,,
decision_prac,32,231195,0.0-12.0-1.0,,null,run_exp/static/images/task_images/land.jpg,null,,,,,,,,,,2,,,,,,,,,,,,,
time_out,33,233214,0.0-13.0-0.0,,null,run_exp/static/images/task_images/time_out.jpg,null,,,,,,,,,,,,,,,,,,,,,,,
decision_prac,34,233845,0.0-13.0-1.0,,628.05,run_exp/static/images/task_images/land.jpg,65,,,,,,,,,,3,,,,,,,,,,,,,
dig_prac,35,235857,0.0-14.0-0.0,,,,,,,,,,,"[{""stimulus"":""run_exp/static/images/task_images/dig.jpg"",""time"":0.26500000967644155},{""stimulus"":""run_exp/static/images/task_images/land.jpg"",""time"":677.9399999941234},{""stimulus"":""run_exp/static/images/task_images/dig.jpg"",""time"":1344.6100000001024}]",[],,,,,,,,,,,,,,,
harvest_prac,36,236862,0.0-14.0-1.0,,null,run_exp/static/images/task_images/barrel_text.jpg,null,,,,,,,,,,,,,,,,,,,,,,,
decision_prac,37,238469,0.0-14.0-2.0,,1605.5,run_exp/static/images/task_images/land.jpg,65,,,,,,,,,,4,,,,,,,,,,,,,
dig_prac,38,240484,0.0-15.0-0.0,,,,,,,,,,,"[{""stimulus"":""run_exp/static/images/task_images/dig.jpg"",""time"":0.23999999393709004},{""stimulus"":""run_exp/static/images/task_images/land.jpg"",""time"":689.2749999824446},{""stimulus"":""run_exp/static/images/task_images/dig.jpg"",""time"":1349.7199999983422}]",[],,,,,,,,,,,,,,,
harvest_prac,39,241501,0.0-15.0-1.0,,null,run_exp/static/images/task_images/barrel_text.jpg,null,,,,,,,,,,,,,,,,,,,,,,,
decision_prac,40,242079,0.0-15.0-2.0,,575.8,run_exp/static/images/task_images/land.jpg,65,,,,,,,,,,,1,,,,,,,,,,,,
quiz_instruc,41,248579,0.0-16.0-0.0,,6496.3,run_exp/static/audio/clip_10_quiz.m4a,,,,,,0,,,,,,,,,,,,,,,,,,
instruc_repeat,42,291346,0.0-16.0-1.0,,null,"<p> Are you ready to play a practice game? </p> <p>In this practice game, you'll be digging up barrels of gems. But, in the real game, you'll be digging up the gems themselves. </p>",null,"<p>In this game, your goal is to collect as many gems as you can. That’s how you will win bonus money. </p> <p>The entire game will last 20 minutes no matter how many gems you collect or how many planets you visit. </p><p>To stay on a planet and dig again, press the letter A on your keyboard. To leave for a new planet, press the letter L.</p><p>The more you dig on a planet, the fewer gems you’ll get with each dig which is why you might consider leaving for a new planet. </p><p>When you arrive at a new planet, you’ll be greeted by an alien. What the alien looks like does not tell you anything about how much treasure is on the planet. </p>",,,,,,,,,,,,,,,,,,,,,,
instruc_repeat_continue,43,292523,0.0-16.0-2.0,,1174.695,"<p> Are you ready to play a practice game? </p> <p>In this practice game, you'll be digging up barrels of gems. But, in the real game, you'll be digging up the gems themselves. </p>",,,,,,0,,,,,,,,,,,,,,,,,,
quiz_q_1_ask,44,303088,0.0-16.0-3.0,,10562.37,run_exp/static/audio/clip_11_q1_ask.m4a,,,,,,2,,,,,,,,,,,,,,,,,,
quiz_q_1_fb_correct,45,306939,0.0-17.0-0.0,,null,run_exp/static/audio/clip_12_q1_corrrect.m4a,null,<p>That’s correct. You win extra money by collecting more gems.</p>,,,,,,,,,,,,,,,,,,,,,,
quiz_q_2_ask,46,319411,0.0-17.0-1.0,,12469.995,run_exp/static/audio/clip_14_q2_ask.m4a,,,,,,1,,,,,,,,,,,,,,,,,,
quiz_q_2_fb_correct,47,323408,0.0-18.0-0.0,,null,run_exp/static/audio/clip_15_q2_correct.m4a,null,<p>That’s correct. The experiment is 20 minutes no matter what.</p>,,,,,,,,,,,,,,,,,,,,,,
quiz_q_3_ask,48,327799,0.0-18.0-1.0,,4388.075,run_exp/static/audio/clip_17_q3_ask.m4a,,,,,,1,,,,,,,,,,,,,,,,,,
quiz_q_3_fb_correct,49,331770,0.0-19.0-0.0,,null,run_exp/static/audio/clip_18_q3_correct.m4a,null,<p> That’s correct. You press the letter L to travel to a new planet.</p>,,,,,,,,,,,,,,,,,,,,,,
quiz_q_4_ask,50,337276,0.0-19.0-1.0,,5503.245,run_exp/static/audio/clip_20_q4_ask.m4a,,,,,,0,,,,,,,,,,,,,,,,,,
quiz_q_4_fb_correct,51,342588,0.0-20.0-0.0,,null,run_exp/static/audio/clip_21_q4_correct.m4a,null,<p> That’s correct. The more you dig on a planet the fewer gems you’ll get with each dig. </p>,,,,,,,,,,,,,,,,,,,,,,
quiz_q_5_ask,52,346700,0.0-20.0-1.0,,4108.685,run_exp/static/audio/clip_23_q5_ask.m4a,,,,,,1,,,,,,,,,,,,,,,,,,
quiz_q_5_fb_correct,53,351696,0.0-21.0-0.0,,null,run_exp/static/audio/clip_24_q5_correct.m4a,null,<p> That’s correct. The alien tells you nothing about how much treasure is on the planet.</p>,,,,,,,,,,,,,,,,,,,,,,
quiz_correct,54,355174,0.0-22.0-0.0,,null,run_exp/static/audio/clip_26_correct_quiz.m4a,null,,,,,,,,,,,,,,,,,,,,,,,
quiz_correct_continue,55,357208,0.0-22.0-1.0,,2031.695,<p>Good job! You're now ready to move on to the real game!</p>,,,,,,0,,,,,,,,,,,,,,,,,,
audio-keyboard-response,56,367334,0.0-22.0-2.0,,null,run_exp/static/audio/clip_28_real_game.m4a,null,,,,,,,,,,,,,,,,,,,,,,,
instruc_begin_exp_contine,57,369328,0.0-22.0-3.0,,1991.37,"<p>Now that you know how  to dig for space treasure and travel to new planets,you can start exploring! </p><p>Do you want to go over the instructions again or get started with the real game?</p>",,,,,,1,,,,,,1,,,,,,,,,,,,
alien_welcome,58,374353,0.0-23.0-0.0,,null,run_exp/static/images/task_images/aliens/old_aliens/planet/alien_planet-43.jpg,null,,,,,,,,,,,,43,"43,41,53,25,28,17,68,64,16,66,23,21,57,59,11,42,27,63,36,6,9,26,45,69,37,77,18,22,46,3,24,34,33,31,54,7,19,60,49,12",,,,,,,,,,
land,59,374874,0.0-23.0-1.0,,null,run_exp/static/images/task_images/land.jpg,null,,,,,,91,,,1,,,,,,,,,,,,,,
dig,60,376884,0.0-23.0-2.0,,,,,,,,,,,"[{""stimulus"":""run_exp/static/images/task_images/dig.jpg"",""time"":0.3700000233948231},{""stimulus"":""run_exp/static/images/task_images/land.jpg"",""time"":672.1499999985099},{""stimulus"":""run_exp/static/images/task_images/dig.jpg"",""time"":1353.094999998575}]",[],1,,,,,,,,,,,,,,
harvest,61,377888,0.0-23.0-3.0,,null,run_exp/static/images/task_images/gems/91.jpg,null,,,,,,19,,,1,,,,,91,0.214280341,0.208791209,,,,,,,
decision,62,378455,0.0-23.0-4.0,,563.325,run_exp/static/images/task_images/land.jpg,65,,,,,,19,,,1,,,,,,,,9126,1,0,FALSE,,,
dig,63,380913,0.0-24.0-0.0,,,,,,,,,,,"[{""stimulus"":""run_exp/static/images/task_images/dig.jpg"",""time"":0.33000000985339284},{""stimulus"":""run_exp/static/images/task_images/land.jpg"",""time"":817.8250000055414},{""stimulus"":""run_exp/static/images/task_images/dig.jpg"",""time"":1640.2950000192504}]",[],1,,,,,,,,,,,,,,
harvest,64,381920,0.0-24.0-1.0,,null,run_exp/static/images/task_images/gems/19.jpg,null,,,,,,5,,,1,,,,,19,0.247208421,0.263157895,,,,,,,
decision,65,382599,0.0-24.0-2.0,,676.755,run_exp/static/images/task_images/land.jpg,65,,,,,,5,,,1,,,,,,,,13270,1,1,FALSE,,,
dig,66,384934,0.0-25.0-0.0,,,,,,,,,,,"[{""stimulus"":""run_exp/static/images/task_images/dig.jpg"",""time"":0.2350000140722841},{""stimulus"":""run_exp/static/images/task_images/land.jpg"",""time"":784.2649999947753},{""stimulus"":""run_exp/static/images/task_images/dig.jpg"",""time"":1563.4549999958836}]",[],1,,,,,,,,,,,,,,
harvest,67,385937,0.0-25.0-1.0,,null,run_exp/static/images/task_images/gems/5.jpg,null,,,,,,1,,,1,,,,,5,0.172823881,0.2,,,,,,,
decision,68,386980,0.0-25.0-2.0,,1040.64,run_exp/static/images/task_images/land.jpg,76,,,,,,1,,,1,,,,,,,,17652,1,2,TRUE,,,
travel,69,395942,0.0-26.0-0.0,,,,,,,,,,,"[{""stimulus"":""run_exp/static/images/task_images/rocket-01.jpg"",""time"":0.23999999393709004},{""stimulus"":""run_exp/static/images/task_images/rocket-02.jpg"",""time"":1002.3250000085682},{""stimulus"":""run_exp/static/images/task_images/rocket-03.jpg"",""time"":2001.524999999674},{""stimulus"":""run_exp/static/images/task_images/rocket-04.jpg"",""time"":2994.490000011865},{""stimulus"":""run_exp/static/images/task_images/rocket-05.jpg"",""time"":3984.709999989718},{""stimulus"":""run_exp/static/images/task_images/rocket-06.jpg"",""time"":4978.105000016512},{""stimulus"":""run_exp/static/images/task_images/rocket-07.jpg"",""time"":5981.005000008736},{""stimulus"":""run_exp/static/images/task_images/rocket-08.jpg"",""time"":6967.540000012377},{""stimulus"":""run_exp/static/images/task_images/rocket-09.jpg"",""time"":7963.340000016615}]",[],1,,,,,,,,,,,,,,
alien_welcome,70,400964,0.0-26.0-1.0,,null,run_exp/static/images/task_images/aliens/old_aliens/planet/alien_planet-41.jpg,null,,,,,,,,,,,,41,"43,41,53,25,28,17,68,64,16,66,23,21,57,59,11,42,27,63,36,6,9,26,45,69,37,77,18,22,46,3,24,34,33,31,54,7,19,60,49,12",,,,,,,,,,
land,71,401477,0.0-26.0-2.0,,null,run_exp/static/images/task_images/land.jpg,null,,,,,,107,,,2,,,,,,,,,,,,,,
dig,72,403486,0.0-26.0-3.0,,,,,,,,,,,"[{""stimulus"":""run_exp/static/images/task_images/dig.jpg"",""time"":0.3349999897181988},{""stimulus"":""run_exp/static/images/task_images/land.jpg"",""time"":675.8149999950547},{""stimulus"":""run_exp/static/images/task_images/dig.jpg"",""time"":1339.7249999979977}]",[],2,,,,,,,,,,,,,,
harvest,73,404506,0.0-26.0-4.0,,null,run_exp/static/images/task_images/gems/107.jpg,null,,,,,,30,,,2,,,,,107,0.280158118,0.280373832,,,,,,,
decision,74,405496,0.0-26.0-5.0,,988.31,run_exp/static/images/task_images/land.jpg,65,,,,,,30,,,2,,,,,,,,36168,1,0,FALSE,,,
dig,75,407516,0.0-27.0-0.0,,,,,,,,,,,"[{""stimulus"":""run_exp/static/images/task_images/dig.jpg"",""time"":0.2300000051036477},{""stimulus"":""run_exp/static/images/task_images/land.jpg"",""time"":690.020000009099},{""stimulus"":""run_exp/static/images/task_images/dig.jpg"",""time"":1344.535000011092}]",[],2,,,,,,,,,,,,,,
harvest,76,408526,0.0-27.0-1.0,,null,run_exp/static/images/task_images/gems/30.jpg,null,,,,,,7,,,2,,,,,30,0.226516379,0.233333333,,,,,,,
decision,77,409269,0.0-27.0-2.0,,740.52,run_exp/static/images/task_images/land.jpg,65,,,,,,7,,,2,,,,,,,,39940,1,1,FALSE,,,
dig,78,411544,0.0-28.0-0.0,,,,,,,,,,,"[{""stimulus"":""run_exp/static/images/task_images/dig.jpg"",""time"":0.2749999985098839},{""stimulus"":""run_exp/static/images/task_images/land.jpg"",""time"":756.8650000030175},{""stimulus"":""run_exp/static/images/task_images/dig.jpg"",""time"":1525.5199999955948}]",[],2,,,,,,,,,,,,,,
harvest,79,412558,0.0-28.0-1.0,,null,run_exp/static/images/task_images/gems/7.jpg,null,,,,,,1,,,2,,,,,7,0.173703275,0.142857143,,,,,,,
decision,80,413090,0.0-28.0-2.0,,530.66,run_exp/static/images/task_images/land.jpg,76,,,,,,1,,,2,,,,,,,,43762,1,2,TRUE,,,
travel,81,422566,0.0-29.0-0.0,,,,,,,,,,,"[{""stimulus"":""run_exp/static/images/task_images/rocket-01.jpg"",""time"":0.2749999985098839},{""stimulus"":""run_exp/static/images/task_images/rocket-02.jpg"",""time"":1073.9649999886751},{""stimulus"":""run_exp/static/images/task_images/rocket-03.jpg"",""time"":2108.87999998522},{""stimulus"":""run_exp/static/images/task_images/rocket-04.jpg"",""time"":3165.5350000073668},{""stimulus"":""run_exp/static/images/task_images/rocket-05.jpg"",""time"":4211.754999996629},{""stimulus"":""run_exp/static/images/task_images/rocket-06.jpg"",""time"":5277.094999997644},{""stimulus"":""run_exp/static/images/task_images/rocket-07.jpg"",""time"":6322.799999994459},{""stimulus"":""run_exp/static/images/task_images/rocket-08.jpg"",""time"":7368.5849999892525},{""stimulus"":""run_exp/static/images/task_images/rocket-09.jpg"",""time"":8418.485000001965}]",[],2,,,,,,,,,,,,,,
alien_welcome,82,427570,0.0-29.0-1.0,,null,run_exp/static/images/task_images/aliens/old_aliens/planet/alien_planet-53.jpg,null,,,,,,,,,,,,53,"43,41,53,25,28,17,68,64,16,66,23,21,57,59,11,42,27,63,36,6,9,26,45,69,37,77,18,22,46,3,24,34,33,31,54,7,19,60,49,12",,,,,,,,,,
land,83,428073,0.0-29.0-2.0,,null,run_exp/static/images/task_images/land.jpg,null,,,,,,103,,,3,,,,,,,,,,,,,,
dig,84,430078,0.0-29.0-3.0,,,,,,,,,,,"[{""stimulus"":""run_exp/static/images/task_images/dig.jpg"",""time"":0.34500000765547156},{""stimulus"":""run_exp/static/images/task_images/land.jpg"",""time"":668.7249999959022},{""stimulus"":""run_exp/static/images/task_images/dig.jpg"",""time"":1339.254999998957}]",[],3,,,,,,,,,,,,,,
harvest,85,431080,0.0-29.0-4.0,,null,run_exp/static/images/task_images/gems/103.jpg,null,,,,,,44,,,3,,,,,103,0.428385429,0.427184466,,,,,,,
decision,86,431694,0.0-29.0-5.0,,611.855,run_exp/static/images/task_images/land.jpg,65,,,,,,44,,,3,,,,,,,,62365,1,0,FALSE,,,
dig,87,434088,0.0-30.0-0.0,,,,,,,,,,,"[{""stimulus"":""run_exp/static/images/task_images/dig.jpg"",""time"":0.22499999613501132},{""stimulus"":""run_exp/static/images/task_images/land.jpg"",""time"":818.0850000062492},{""stimulus"":""run_exp/static/images/task_images/dig.jpg"",""time"":1607.3650000034831}]",[],3,,,,,,,,,,,,,,
harvest,88,435114,0.0-30.0-1.0,,null,run_exp/static/images/task_images/gems/44.jpg,null,,,,,,23,,,3,,,,,44,0.513258283,0.522727273,,,,,,,
decision,89,435683,0.0-30.0-2.0,,565.75,run_exp/static/images/task_images/land.jpg,65,,,,,,23,,,3,,,,,,,,66354,1,1,FALSE,,,
dig,90,438126,0.0-31.0-0.0,,,,,,,,,,,"[{""stimulus"":""run_exp/static/images/task_images/dig.jpg"",""time"":0.2500000118743628},{""stimulus"":""run_exp/static/images/task_images/land.jpg"",""time"":822.3700000089593},{""stimulus"":""run_exp/static/images/task_images/dig.jpg"",""time"":1627.7650000120047}]",[],3,,,,,,,,,,,,,,
harvest,91,439129,0.0-31.0-1.0,,null,run_exp/static/images/task_images/gems/23.jpg,null,,,,,,12,,,3,,,,,23,0.513080541,0.52173913,,,,,,,
decision,92,441072,0.0-31.0-2.0,,1940.85,run_exp/static/images/task_images/land.jpg,76,,,,,,12,,,3,,,,,,,,71743,1,2,TRUE,,,
travel,93,449135,0.0-32.0-0.0,,,,,,,,,,,"[{""stimulus"":""run_exp/static/images/task_images/rocket-01.jpg"",""time"":0.23499998496845365},{""stimulus"":""run_exp/static/images/task_images/rocket-02.jpg"",""time"":911.7899999837391},{""stimulus"":""run_exp/static/images/task_images/rocket-03.jpg"",""time"":1808.484999986831},{""stimulus"":""run_exp/static/images/task_images/rocket-04.jpg"",""time"":2690.100000007078},{""stimulus"":""run_exp/static/images/task_images/rocket-05.jpg"",""time"":3590.2599999972153},{""stimulus"":""run_exp/static/images/task_images/rocket-06.jpg"",""time"":4496.0900000005495},{""stimulus"":""run_exp/static/images/task_images/rocket-07.jpg"",""time"":5376.3099999923725},{""stimulus"":""run_exp/static/images/task_images/rocket-08.jpg"",""time"":6269.280000007711},{""stimulus"":""run_exp/static/images/task_images/rocket-09.jpg"",""time"":7173.464999999851}]",[],3,,,,,,,,,,,,,,
alien_welcome,94,454139,0.0-32.0-1.0,,null,run_exp/static/images/task_images/aliens/old_aliens/planet/alien_planet-25.jpg,null,,,,,,,,,,,,25,"43,41,53,25,28,17,68,64,16,66,23,21,57,59,11,42,27,63,36,6,9,26,45,69,37,77,18,22,46,3,24,34,33,31,54,7,19,60,49,12",,,,,,,,,,
land,95,454642,0.0-32.0-2.0,,null,run_exp/static/images/task_images/land.jpg,null,,,,,,90,,,4,,,,,,,,,,,,,,
dig,96,456658,0.0-32.0-3.0,,,,,,,,,,,"[{""stimulus"":""run_exp/static/images/task_images/dig.jpg"",""time"":0.34500000765547156},{""stimulus"":""run_exp/static/images/task_images/land.jpg"",""time"":672.0750000094995},{""stimulus"":""run_exp/static/images/task_images/dig.jpg"",""time"":1341.855000006035}]",[],4,,,,,,,,,,,,,,
harvest,97,457678,0.0-32.0-4.0,,null,run_exp/static/images/task_images/gems/90.jpg,null,,,,,,42,,,4,,,,,90,0.465802588,0.466666667,,,,,,,
decision,98,458196,0.0-32.0-5.0,,515.245,run_exp/static/images/task_images/land.jpg,65,,,,,,42,,,4,,,,,,,,88867,1,0,FALSE,,,
dig,99,460693,0.0-33.0-0.0,,,,,,,,,,,"[{""stimulus"":""run_exp/static/images/task_images/dig.jpg"",""time"":0.2350000140722841},{""stimulus"":""run_exp/static/images/task_images/land.jpg"",""time"":845.1050000148825},{""stimulus"":""run_exp/static/images/task_images/dig.jpg"",""time"":1660.0950000283774}]",[],4,,,,,,,,,,,,,,
harvest,100,461704,0.0-33.0-1.0,,null,run_exp/static/images/task_images/gems/42.jpg,null,,,,,,23,,,4,,,,,42,0.551821564,0.547619048,,,,,,,
decision,101,462045,0.0-33.0-2.0,,339.725,run_exp/static/images/task_images/land.jpg,65,,,,,,23,,,4,,,,,,,,92716,1,1,FALSE,,,
dig,102,464722,0.0-34.0-0.0,,,,,,,,,,,"[{""stimulus"":""run_exp/static/images/task_images/dig.jpg"",""time"":0.22500002523884177},{""stimulus"":""run_exp/static/images/task_images/land.jpg"",""time"":896.0300000035204},{""stimulus"":""run_exp/static/images/task_images/dig.jpg"",""time"":1782.5850000081118}]",[],4,,,,,,,,,,,,,,
harvest,103,465736,0.0-34.0-1.0,,null,run_exp/static/images/task_images/gems/23.jpg,null,,,,,,13,,,4,,,,,23,0.551718468,0.565217391,,,,,,,
decision,104,466428,0.0-34.0-2.0,,690.555,run_exp/static/images/task_images/land.jpg,76,,,,,,13,,,4,,,,,,,,97102,1,2,TRUE,,,
travel,105,475752,0.0-35.0-0.0,,,,,,,,,,,"[{""stimulus"":""run_exp/static/images/task_images/rocket-01.jpg"",""time"":0.33000000985339284},{""stimulus"":""run_exp/static/images/task_images/rocket-02.jpg"",""time"":1037.8300000156742},{""stimulus"":""run_exp/static/images/task_images/rocket-03.jpg"",""time"":2071.7550000117626},{""stimulus"":""run_exp/static/images/task_images/rocket-04.jpg"",""time"":3108.525000017835},{""stimulus"":""run_exp/static/images/task_images/rocket-05.jpg"",""time"":4138.429999991786},{""stimulus"":""run_exp/static/images/task_images/rocket-06.jpg"",""time"":5175.290000013774},{""stimulus"":""run_exp/static/images/task_images/rocket-07.jpg"",""time"":6222.345000016503},{""stimulus"":""run_exp/static/images/task_images/rocket-08.jpg"",""time"":7242.350000014994},{""stimulus"":""run_exp/static/images/task_images/rocket-09.jpg"",""time"":8279.905000003055}]",[],4,,,,,,,,,,,,,,
alien_welcome,106,480765,0.0-35.0-1.0,,null,run_exp/static/images/task_images/aliens/old_aliens/planet/alien_planet-28.jpg,null,,,,,,,,,,,,28,"43,41,53,25,28,17,68,64,16,66,23,21,57,59,11,42,27,63,36,6,9,26,45,69,37,77,18,22,46,3,24,34,33,31,54,7,19,60,49,12",,,,,,,,,,
land,107,481271,0.0-35.0-2.0,,null,run_exp/static/images/task_images/land.jpg,null,,,,,,106,,,5,,,,,,,,,,,,,,
dig,108,483284,0.0-35.0-3.0,,,,,,,,,,,"[{""stimulus"":""run_exp/static/images/task_images/dig.jpg"",""time"":0.33999999868683517},{""stimulus"":""run_exp/static/images/task_images/land.jpg"",""time"":687.309999979334},{""stimulus"":""run_exp/static/images/task_images/dig.jpg"",""time"":1337.8699999884702}]",[],5,,,,,,,,,,,,,,
harvest,109,484300,0.0-35.0-4.0,,null,run_exp/static/images/task_images/gems/106.jpg,null,,,,,,50,,,5,,,,,106,0.4708264,0.471698113,,,,,,,
decision,110,484833,0.0-35.0-5.0,,530.845,run_exp/static/images/task_images/land.jpg,65,,,,,,50,,,5,,,,,,,,115504,1,0,FALSE,,,
dig,111,487314,0.0-36.0-0.0,,,,,,,,,,,"[{""stimulus"":""run_exp/static/images/task_images/dig.jpg"",""time"":0.3549999964889139},{""stimulus"":""run_exp/static/images/task_images/land.jpg"",""time"":833.1849999958649},{""stimulus"":""run_exp/static/images/task_images/dig.jpg"",""time"":1648.205000004964}]",[],5,,,,,,,,,,,,,,
harvest,112,488324,0.0-36.0-1.0,,null,run_exp/static/images/task_images/gems/50.jpg,null,,,,,,23,,,5,,,,,50,0.460050968,0.46,,,,,,,
decision,113,488635,0.0-36.0-2.0,,307.375,run_exp/static/images/task_images/land.jpg,65,,,,,,23,,,5,,,,,,,,119306,1,1,FALSE,,,
dig,114,491346,0.0-37.0-0.0,,,,,,,,,,,"[{""stimulus"":""run_exp/static/images/task_images/dig.jpg"",""time"":0.34500000765547156},{""stimulus"":""run_exp/static/images/task_images/land.jpg"",""time"":902.1900000225287},{""stimulus"":""run_exp/static/images/task_images/dig.jpg"",""time"":1809.8850000242237}]",[],5,,,,,,,,,,,,,,
harvest,115,492349,0.0-37.0-1.0,,null,run_exp/static/images/task_images/gems/23.jpg,null,,,,,,8,,,5,,,,,23,0.344793693,0.347826087,,,,,,,
decision,116,492537,0.0-37.0-2.0,,185.565,run_exp/static/images/task_images/land.jpg,65,,,,,,8,,,5,,,,,,,,123208,1,2,FALSE,,,
dig,117,495363,0.0-38.0-0.0,,,,,,,,,,,"[{""stimulus"":""run_exp/static/images/task_images/dig.jpg"",""time"":0.375000003259629},{""stimulus"":""run_exp/static/images/task_images/land.jpg"",""time"":949.5850000239443},{""stimulus"":""run_exp/static/images/task_images/dig.jpg"",""time"":1881.8200000096112}]",[],5,,,,,,,,,,,,,,
harvest,118,496382,0.0-38.0-1.0,,null,run_exp/static/images/task_images/gems/8.jpg,null,,,,,,4,,,5,,,,,8,0.501000726,0.5,,,,,,,
decision,119,496410,0.0-38.0-2.0,,24.795,run_exp/static/images/task_images/land.jpg,76,,,,,,4,,,5,,,,,,,,127081,1,3,TRUE,,,
travel,120,506392,0.0-39.0-0.0,,,,,,,,,,,"[{""stimulus"":""run_exp/static/images/task_images/rocket-01.jpg"",""time"":0.30499999411404133},{""stimulus"":""run_exp/static/images/task_images/rocket-02.jpg"",""time"":1118.6349999916274},{""stimulus"":""run_exp/static/images/task_images/rocket-03.jpg"",""time"":2219.634999986738},{""stimulus"":""run_exp/static/images/task_images/rocket-04.jpg"",""time"":3327.2299999953248},{""stimulus"":""run_exp/static/images/task_images/rocket-05.jpg"",""time"":4445.319999998901},{""stimulus"":""run_exp/static/images/task_images/rocket-06.jpg"",""time"":5543.8950000097975},{""stimulus"":""run_exp/static/images/task_images/rocket-07.jpg"",""time"":6651.190000004135},{""stimulus"":""run_exp/static/images/task_images/rocket-08.jpg"",""time"":7768.769999995129},{""stimulus"":""run_exp/static/images/task_images/rocket-09.jpg"",""time"":8867.310000001453}]",[],5,,,,,,,,,,,,,,
alien_welcome,121,511396,0.0-39.0-1.0,,null,run_exp/static/images/task_images/aliens/old_aliens/planet/alien_planet-17.jpg,null,,,,,,,,,,,,17,"43,41,53,25,28,17,68,64,16,66,23,21,57,59,11,42,27,63,36,6,9,26,45,69,37,77,18,22,46,3,24,34,33,31,54,7,19,60,49,12",,,,,,,,,,
land,122,511898,0.0-39.0-2.0,,null,run_exp/static/images/task_images/land.jpg,null,,,,,,98,,,6,,,,,,,,,,,,,,
dig,123,513910,0.0-39.0-3.0,,,,,,,,,,,"[{""stimulus"":""run_exp/static/images/task_images/dig.jpg"",""time"":0.3499999875202775},{""stimulus"":""run_exp/static/images/task_images/land.jpg"",""time"":670.3149999957532},{""stimulus"":""run_exp/static/images/task_images/dig.jpg"",""time"":1340.6550000072457}]",[],6,,,,,,,,,,,,,,
harvest,124,514922,0.0-39.0-4.0,,null,run_exp/static/images/task_images/gems/98.jpg,null,,,,,,84,,,6,,,,,98,0.85880858,0.857142857,,,,,,,
decision,125,515355,0.0-39.0-5.0,,431.115,run_exp/static/images/task_images/land.jpg,65,,,,,,84,,,6,,,,,,,,146026,1,0,FALSE,,,
dig,126,517935,0.0-40.0-0.0,,,,,,,,,,,"[{""stimulus"":""run_exp/static/images/task_images/dig.jpg"",""time"":0.39000000106170774},{""stimulus"":""run_exp/static/images/task_images/land.jpg"",""time"":861.1050000181422},{""stimulus"":""run_exp/static/images/task_images/dig.jpg"",""time"":1717.9550000000745}]",[],6,,,,,,,,,,,,,,
harvest,127,518943,0.0-40.0-1.0,,null,run_exp/static/images/task_images/gems/84.jpg,null,,,,,,79,,,6,,,,,84,0.944889619,0.94047619,,,,,,,
decision,128,519168,0.0-40.0-2.0,,222.43,run_exp/static/images/task_images/land.jpg,65,,,,,,79,,,6,,,,,,,,149839,1,1,FALSE,,,
dig,129,521963,0.0-41.0-0.0,,,,,,,,,,,"[{""stimulus"":""run_exp/static/images/task_images/dig.jpg"",""time"":0.23999999393709004},{""stimulus"":""run_exp/static/images/task_images/land.jpg"",""time"":934.2699999979232},{""stimulus"":""run_exp/static/images/task_images/dig.jpg"",""time"":1872.5799999956507}]",[],6,,,,,,,,,,,,,,
harvest,130,522986,0.0-41.0-1.0,,null,run_exp/static/images/task_images/gems/79.jpg,null,,,,,,66,,,6,,,,,79,0.837466859,0.835443038,,,,,,,
decision,131,523823,0.0-41.0-2.0,,834.94,run_exp/static/images/task_images/land.jpg,65,,,,,,66,,,6,,,,,,,,154494,1,2,FALSE,,,
dig,132,525994,0.0-42.0-0.0,,,,,,,,,,,"[{""stimulus"":""run_exp/static/images/task_images/dig.jpg"",""time"":0.6599999906029552},{""stimulus"":""run_exp/static/images/task_images/land.jpg"",""time"":737.8299999982119},{""stimulus"":""run_exp/static/images/task_images/dig.jpg"",""time"":1452.4150000070222}]",[],6,,,,,,,,,,,,,,
harvest,133,527008,0.0-42.0-1.0,,null,run_exp/static/images/task_images/gems/66.jpg,null,,,,,,51,,,6,,,,,66,0.774328538,0.772727273,,,,,,,
decision,134,528493,0.0-42.0-2.0,,1482.12,run_exp/static/images/task_images/land.jpg,65,,,,,,51,,,6,,,,,,,,159164,1,3,FALSE,,,
dig,135,530026,0.0-43.0-0.0,,,,,,,,,,,"[{""stimulus"":""run_exp/static/images/task_images/dig.jpg"",""time"":0.2300000051036477},{""stimulus"":""run_exp/static/images/task_images/land.jpg"",""time"":527.0400000154041},{""stimulus"":""run_exp/static/images/task_images/dig.jpg"",""time"":1020.7400000072084}]",[],6,,,,,,,,,,,,,,
harvest,136,531050,0.0-43.0-1.0,,null,run_exp/static/images/task_images/gems/51.jpg,null,,,,,,39,,,6,,,,,51,0.757377113,0.764705882,,,,,,,
decision,137,531445,0.0-43.0-2.0,,392.475,run_exp/static/images/task_images/land.jpg,65,,,,,,39,,,6,,,,,,,,162116,1,4,FALSE,,,
dig,138,534058,0.0-44.0-0.0,,,,,,,,,,,"[{""stimulus"":""run_exp/static/images/task_images/dig.jpg"",""time"":0.23499998496845365},{""stimulus"":""run_exp/static/images/task_images/land.jpg"",""time"":881.439999997383},{""stimulus"":""run_exp/static/images/task_images/dig.jpg"",""time"":1745.0899999821559}]",[],6,,,,,,,,,,,,,,
harvest,139,535063,0.0-44.0-1.0,,null,run_exp/static/images/task_images/gems/39.jpg,null,,,,,,28,,,6,,,,,39,0.705793464,0.717948718,,,,,,,
decision,140,535980,0.0-44.0-2.0,,914.385,run_exp/static/images/task_images/land.jpg,65,,,,,,28,,,6,,,,,,,,166651,1,5,FALSE,,,
dig,141,538090,0.0-45.0-0.0,,,,,,,,,,,"[{""stimulus"":""run_exp/static/images/task_images/dig.jpg"",""time"":0.22499999613501132},{""stimulus"":""run_exp/static/images/task_images/land.jpg"",""time"":698.5350000031758},{""stimulus"":""run_exp/static/images/task_images/dig.jpg"",""time"":1406.9799999997485}]",[],6,,,,,,,,,,,,,,
harvest,142,539100,0.0-45.0-1.0,,null,run_exp/static/images/task_images/gems/28.jpg,null,,,,,,25,,,6,,,,,28,0.890569186,0.892857143,,,,,,,
decision,143,539661,0.0-45.0-2.0,,557.03,run_exp/static/images/task_images/land.jpg,65,,,,,,25,,,6,,,,,,,,170332,1,6,FALSE,,,
dig,144,542123,0.0-46.0-0.0,,,,,,,,,,,"[{""stimulus"":""run_exp/static/images/task_images/dig.jpg"",""time"":0.3150000120513141},{""stimulus"":""run_exp/static/images/task_images/land.jpg"",""time"":824.6799999906216},{""stimulus"":""run_exp/static/images/task_images/dig.jpg"",""time"":1646.2499999906868}]",[],6,,,,,,,,,,,,,,
harvest,145,543126,0.0-46.0-1.0,,null,run_exp/static/images/task_images/gems/25.jpg,null,,,,,,20,,,6,,,,,25,0.796012833,0.8,,,,,,,
decision,146,543432,0.0-46.0-2.0,,304.35,run_exp/static/images/task_images/land.jpg,65,,,,,,20,,,6,,,,,,,,174103,1,7,FALSE,,,
dig,147,546133,0.0-47.0-0.0,,,,,,,,,,,"[{""stimulus"":""run_exp/static/images/task_images/dig.jpg"",""time"":0.23499998496845365},{""stimulus"":""run_exp/static/images/task_images/land.jpg"",""time"":904.484999977285},{""stimulus"":""run_exp/static/images/task_images/dig.jpg"",""time"":1800.3699999826495}]",[],6,,,,,,,,,,,,,,
harvest,148,547163,0.0-47.0-1.0,,null,run_exp/static/images/task_images/gems/20.jpg,null,,,,,,18,,,6,,,,,20,0.906487924,0.9,,,,,,,
decision,149,547289,0.0-47.0-2.0,,122.18,run_exp/static/images/task_images/land.jpg,65,,,,,,18,,,6,,,,,,,,177960,1,8,FALSE,,,
dig,150,550187,0.0-48.0-0.0,,,,,,,,,,,"[{""stimulus"":""run_exp/static/images/task_images/dig.jpg"",""time"":0.3000000142492354},{""stimulus"":""run_exp/static/images/task_images/land.jpg"",""time"":962.8100000263657},{""stimulus"":""run_exp/static/images/task_images/dig.jpg"",""time"":1933.3650000044145}]",[],6,,,,,,,,,,,,,,
harvest,151,551190,0.0-48.0-1.0,,null,run_exp/static/images/task_images/gems/18.jpg,null,,,,,,16,,,6,,,,,18,0.904423605,0.888888889,,,,,,,
decision,152,552600,0.0-48.0-2.0,,1406.3,run_exp/static/images/task_images/land.jpg,76,,,,,,16,,,6,,,,,,,,183271,1,9,TRUE,,,
travel,153,561198,0.0-49.0-0.0,,,,,,,,,,,"[{""stimulus"":""run_exp/static/images/task_images/rocket-01.jpg"",""time"":0.33000000985339284},{""stimulus"":""run_exp/static/images/task_images/rocket-02.jpg"",""time"":958.6150000104681},{""stimulus"":""run_exp/static/images/task_images/rocket-03.jpg"",""time"":1911.790000012843},{""stimulus"":""run_exp/static/images/task_images/rocket-04.jpg"",""time"":2867.6350000023376},{""stimulus"":""run_exp/static/images/task_images/rocket-05.jpg"",""time"":3843.1949999940116},{""stimulus"":""run_exp/static/images/task_images/rocket-06.jpg"",""time"":4774.704999988899},{""stimulus"":""run_exp/static/images/task_images/rocket-07.jpg"",""time"":5726.820000010775},{""stimulus"":""run_exp/static/images/task_images/rocket-08.jpg"",""time"":6687.654999986989},{""stimulus"":""run_exp/static/images/task_images/rocket-09.jpg"",""time"":7640.885000000708}]",[],6,,,,,,,,,,,,,,
alien_welcome,154,566202,0.0-49.0-1.0,,null,run_exp/static/images/task_images/aliens/old_aliens/planet/alien_planet-68.jpg,null,,,,,,,,,,,,68,"43,41,53,25,28,17,68,64,16,66,23,21,57,59,11,42,27,63,36,6,9,26,45,69,37,77,18,22,46,3,24,34,33,31,54,7,19,60,49,12",,,,,,,,,,
land,155,566708,0.0-49.0-2.0,,null,run_exp/static/images/task_images/land.jpg,null,,,,,,97,,,7,,,,,,,,,,,,,,
dig,156,568714,0.0-49.0-3.0,,,,,,,,,,,"[{""stimulus"":""run_exp/static/images/task_images/dig.jpg"",""time"":0.3649999853223562},{""stimulus"":""run_exp/static/images/task_images/land.jpg"",""time"":670.7599999790546},{""stimulus"":""run_exp/static/images/task_images/dig.jpg"",""time"":1337.1150000020862}]",[],7,,,,,,,,,,,,,,
harvest,157,569719,0.0-49.0-4.0,,null,run_exp/static/images/task_images/gems/97.jpg,null,,,,,,80,,,7,,,,,97,0.82875114,0.824742268,,,,,,,
decision,158,570026,0.0-49.0-5.0,,304.5,run_exp/static/images/task_images/land.jpg,65,,,,,,80,,,7,,,,,,,,200697,1,0,FALSE,,,
dig,159,572739,0.0-50.0-0.0,,,,,,,,,,,"[{""stimulus"":""run_exp/static/images/task_images/dig.jpg"",""time"":0.2350000140722841},{""stimulus"":""run_exp/static/images/task_images/land.jpg"",""time"":912.5899999926332},{""stimulus"":""run_exp/static/images/task_images/dig.jpg"",""time"":1819.8149999952875}]",[],7,,,,,,,,,,,,,,
harvest,160,573741,0.0-50.0-1.0,,null,run_exp/static/images/task_images/gems/80.jpg,null,,,,,,69,,,7,,,,,80,0.861475483,0.8625,,,,,,,
decision,161,573913,0.0-50.0-2.0,,170.09,run_exp/static/images/task_images/land.jpg,65,,,,,,69,,,7,,,,,,,,204585,1,1,FALSE,,,
dig,162,576752,0.0-51.0-0.0,,,,,,,,,,,"[{""stimulus"":""run_exp/static/images/task_images/dig.jpg"",""time"":0.2300000051036477},{""stimulus"":""run_exp/static/images/task_images/land.jpg"",""time"":956.945000012638},{""stimulus"":""run_exp/static/images/task_images/dig.jpg"",""time"":1893.0850000178907}]",[],7,,,,,,,,,,,,,,
harvest,163,577755,0.0-51.0-1.0,,null,run_exp/static/images/task_images/gems/69.jpg,null,,,,,,55,,,7,,,,,69,0.800746835,0.797101449,,,,,,,
decision,164,578491,0.0-51.0-2.0,,733.66,run_exp/static/images/task_images/land.jpg,65,,,,,,55,,,7,,,,,,,,209162,1,2,FALSE,,,
dig,165,580784,0.0-52.0-0.0,,,,,,,,,,,"[{""stimulus"":""run_exp/static/images/task_images/dig.jpg"",""time"":0.37499997415579855},{""stimulus"":""run_exp/static/images/task_images/land.jpg"",""time"":762.8699999768287},{""stimulus"":""run_exp/static/images/task_images/dig.jpg"",""time"":1515.2200000011362}]",[],7,,,,,,,,,,,,,,
harvest,166,581788,0.0-52.0-1.0,,null,run_exp/static/images/task_images/gems/55.jpg,null,,,,,,45,,,7,,,,,55,0.822813543,0.818181818,,,,,,,
decision,167,582685,0.0-52.0-2.0,,895.085,run_exp/static/images/task_images/land.jpg,65,,,,,,45,,,7,,,,,,,,213356,1,3,FALSE,,,
dig,168,584795,0.0-53.0-0.0,,,,,,,,,,,"[{""stimulus"":""run_exp/static/images/task_images/dig.jpg"",""time"":0.22499999613501132},{""stimulus"":""run_exp/static/images/task_images/land.jpg"",""time"":719.3050000059884},{""stimulus"":""run_exp/static/images/task_images/dig.jpg"",""time"":1412.6549999928102}]",[],7,,,,,,,,,,,,,,
harvest,169,585819,0.0-53.0-1.0,,null,run_exp/static/images/task_images/gems/45.jpg,null,,,,,,35,,,7,,,,,45,0.783316585,0.777777778,,,,,,,
decision,170,585936,0.0-53.0-2.0,,113.765,run_exp/static/images/task_images/land.jpg,65,,,,,,35,,,7,,,,,,,,216607,1,4,FALSE,,,
dig,171,588828,0.0-54.0-0.0,,,,,,,,,,,"[{""stimulus"":""run_exp/static/images/task_images/dig.jpg"",""time"":0.23999999393709004},{""stimulus"":""run_exp/static/images/task_images/land.jpg"",""time"":971.0649999906309},{""stimulus"":""run_exp/static/images/task_images/dig.jpg"",""time"":1943.9199999906123}]",[],7,,,,,,,,,,,,,,
harvest,172,589851,0.0-54.0-1.0,,null,run_exp/static/images/task_images/gems/35.jpg,null,,,,,,28,,,7,,,,,35,0.80034575,0.8,,,,,,,
decision,173,589997,0.0-54.0-2.0,,142.995,run_exp/static/images/task_images/land.jpg,65,,,,,,28,,,7,,,,,,,,220669,1,5,FALSE,,,
dig,174,592862,0.0-55.0-0.0,,,,,,,,,,,"[{""stimulus"":""run_exp/static/images/task_images/dig.jpg"",""time"":0.2350000140722841},{""stimulus"":""run_exp/static/images/task_images/land.jpg"",""time"":970.0850000081118},{""stimulus"":""run_exp/static/images/task_images/dig.jpg"",""time"":1918.5050000087358}]",[],7,,,,,,,,,,,,,,
harvest,175,593872,0.0-55.0-1.0,,null,run_exp/static/images/task_images/gems/28.jpg,null,,,,,,22,,,7,,,,,28,0.780645504,0.785714286,,,,,,,
decision,176,594761,0.0-55.0-2.0,,887.7,run_exp/static/images/task_images/land.jpg,76,,,,,,22,,,7,,,,,,,,225433,1,6,TRUE,,,
travel,177,603888,0.0-56.0-0.0,,,,,,,,,,,"[{""stimulus"":""run_exp/static/images/task_images/rocket-01.jpg"",""time"":0.22999997599981725},{""stimulus"":""run_exp/static/images/task_images/rocket-02.jpg"",""time"":1016.5599999891128},{""stimulus"":""run_exp/static/images/task_images/rocket-03.jpg"",""time"":2029.3349999992643},{""stimulus"":""run_exp/static/images/task_images/rocket-04.jpg"",""time"":3042.8199999732897},{""stimulus"":""run_exp/static/images/task_images/rocket-05.jpg"",""time"":4066.514999984065},{""stimulus"":""run_exp/static/images/task_images/rocket-06.jpg"",""time"":5069.609999976819},{""stimulus"":""run_exp/static/images/task_images/rocket-07.jpg"",""time"":6094.029999978375},{""stimulus"":""run_exp/static/images/task_images/rocket-08.jpg"",""time"":7085.914999974193},{""stimulus"":""run_exp/static/images/task_images/rocket-09.jpg"",""time"":8097.824999975273}]",[],7,,,,,,,,,,,,,,
alien_welcome,178,608895,0.0-56.0-1.0,,null,run_exp/static/images/task_images/aliens/old_aliens/planet/alien_planet-64.jpg,null,,,,,,,,,,,,64,"43,41,53,25,28,17,68,64,16,66,23,21,57,59,11,42,27,63,36,6,9,26,45,69,37,77,18,22,46,3,24,34,33,31,54,7,19,60,49,12",,,,,,,,,,
land,179,609398,0.0-56.0-2.0,,null,run_exp/static/images/task_images/land.jpg,null,,,,,,97,,,8,,,,,,,,,,,,,,
dig,180,611419,0.0-56.0-3.0,,,,,,,,,,,"[{""stimulus"":""run_exp/static/images/task_images/dig.jpg"",""time"":0.375000003259629},{""stimulus"":""run_exp/static/images/task_images/land.jpg"",""time"":672.6900000066962},{""stimulus"":""run_exp/static/images/task_images/dig.jpg"",""time"":1339.0350000117905}]",[],8,,,,,,,,,,,,,,
harvest,181,612428,0.0-56.0-4.0,,null,run_exp/static/images/task_images/gems/97.jpg,null,,,,,,77,,,8,,,,,97,0.78868751,0.793814433,,,,,,,
decision,182,612575,0.0-56.0-5.0,,144.805,run_exp/static/images/task_images/land.jpg,65,,,,,,77,,,8,,,,,,,,243246,1,0,FALSE,,,
dig,183,615452,0.0-57.0-0.0,,,,,,,,,,,"[{""stimulus"":""run_exp/static/images/task_images/dig.jpg"",""time"":0.30499999411404133},{""stimulus"":""run_exp/static/images/task_images/land.jpg"",""time"":962.2699999890756},{""stimulus"":""run_exp/static/images/task_images/dig.jpg"",""time"":1912.209999980405}]",[],8,,,,,,,,,,,,,,
harvest,184,616462,0.0-57.0-1.0,,null,run_exp/static/images/task_images/gems/77.jpg,null,,,,,,60,,,8,,,,,77,0.784337304,0.779220779,,,,,,,
decision,185,617451,0.0-57.0-2.0,,986.425,run_exp/static/images/task_images/land.jpg,65,,,,,,60,,,8,,,,,,,,248122,1,1,FALSE,,,
dig,186,619471,0.0-58.0-0.0,,,,,,,,,,,"[{""stimulus"":""run_exp/static/images/task_images/dig.jpg"",""time"":0.3549999964889139},{""stimulus"":""run_exp/static/images/task_images/land.jpg"",""time"":684.0999999840278},{""stimulus"":""run_exp/static/images/task_images/dig.jpg"",""time"":1355.905000003986}]",[],8,,,,,,,,,,,,,,
harvest,187,620486,0.0-58.0-1.0,,null,run_exp/static/images/task_images/gems/60.jpg,null,,,,,,49,,,8,,,,,60,0.815980365,0.816666667,,,,,,,
decision,188,621187,0.0-58.0-2.0,,697.72,run_exp/static/images/task_images/land.jpg,65,,,,,,49,,,8,,,,,,,,251858,1,2,FALSE,,,
dig,189,623517,0.0-59.0-0.0,,,,,,,,,,,"[{""stimulus"":""run_exp/static/images/task_images/dig.jpg"",""time"":0.48499999684281647},{""stimulus"":""run_exp/static/images/task_images/land.jpg"",""time"":786.614999989979},{""stimulus"":""run_exp/static/images/task_images/dig.jpg"",""time"":1553.5049999889452}]",[],8,,,,,,,,,,,,,,
harvest,190,624528,0.0-59.0-1.0,,null,run_exp/static/images/task_images/gems/49.jpg,null,,,,,,39,,,8,,,,,49,0.794512212,0.795918367,,,,,,,
decision,191,624607,0.0-59.0-2.0,,76.18500001,run_exp/static/images/task_images/land.jpg,65,,,,,,39,,,8,,,,,,,,255278,1,3,FALSE,,,
dig,192,627547,0.0-60.0-0.0,,,,,,,,,,,"[{""stimulus"":""run_exp/static/images/task_images/dig.jpg"",""time"":0.25499999173916876},{""stimulus"":""run_exp/static/images/task_images/land.jpg"",""time"":994.4250000116881},{""stimulus"":""run_exp/static/images/task_images/dig.jpg"",""time"":1964.9199999985285}]",[],8,,,,,,,,,,,,,,
harvest,193,628550,0.0-60.0-1.0,,null,run_exp/static/images/task_images/gems/39.jpg,null,,,,,,32,,,8,,,,,39,0.808252122,0.820512821,,,,,,,
decision,194,629634,0.0-60.0-2.0,,1081.935,run_exp/static/images/task_images/land.jpg,65,,,,,,32,,,8,,,,,,,,260305,1,4,FALSE,,,
dig,195,631557,0.0-61.0-0.0,,,,,,,,,,,"[{""stimulus"":""run_exp/static/images/task_images/dig.jpg"",""time"":0.23999999393709004},{""stimulus"":""run_exp/static/images/task_images/land.jpg"",""time"":650.6649999937508},{""stimulus"":""run_exp/static/images/task_images/dig.jpg"",""time"":1289.0849999967031}]",[],8,,,,,,,,,,,,,,
harvest,196,632581,0.0-61.0-1.0,,null,run_exp/static/images/task_images/gems/32.jpg,null,,,,,,25,,,8,,,,,32,0.777230105,0.78125,,,,,,,
decision,197,633851,0.0-61.0-2.0,,1267.705,run_exp/static/images/task_images/land.jpg,76,,,,,,25,,,8,,,,,,,,264522,1,5,TRUE,,,
travel,198,642598,0.0-62.0-0.0,,,,,,,,,,,"[{""stimulus"":""run_exp/static/images/task_images/rocket-01.jpg"",""time"":0.29999998514540493},{""stimulus"":""run_exp/static/images/task_images/rocket-02.jpg"",""time"":977.5649999792222},{""stimulus"":""run_exp/static/images/task_images/rocket-03.jpg"",""time"":1946.8749999941792},{""stimulus"":""run_exp/static/images/task_images/rocket-04.jpg"",""time"":2922.904999984894},{""stimulus"":""run_exp/static/images/task_images/rocket-05.jpg"",""time"":3889.434999990044},{""stimulus"":""run_exp/static/images/task_images/rocket-06.jpg"",""time"":4860.075000004144},{""stimulus"":""run_exp/static/images/task_images/rocket-07.jpg"",""time"":5830.264999996871},{""stimulus"":""run_exp/static/images/task_images/rocket-08.jpg"",""time"":6801.355000003241},{""stimulus"":""run_exp/static/images/task_images/rocket-09.jpg"",""time"":7772.519999998622}]",[],8,,,,,,,,,,,,,,
alien_welcome,199,647621,0.0-62.0-1.0,,null,run_exp/static/images/task_images/aliens/old_aliens/planet/alien_planet-16.jpg,null,,,,,,,,,,,,16,"43,41,53,25,28,17,68,64,16,66,23,21,57,59,11,42,27,63,36,6,9,26,45,69,37,77,18,22,46,3,24,34,33,31,54,7,19,60,49,12",,,,,,,,,,
land,200,648133,0.0-62.0-2.0,,null,run_exp/static/images/task_images/land.jpg,null,,,,,,103,,,9,,,,,,,,,,,,,,
dig,201,650139,0.0-62.0-3.0,,,,,,,,,,,"[{""stimulus"":""run_exp/static/images/task_images/dig.jpg"",""time"":0.37999998312443495},{""stimulus"":""run_exp/static/images/task_images/land.jpg"",""time"":681.8550000025425},{""stimulus"":""run_exp/static/images/task_images/dig.jpg"",""time"":1341.9599999906495}]",[],9,,,,,,,,,,,,,,
harvest,202,651160,0.0-62.0-4.0,,null,run_exp/static/images/task_images/gems/103.jpg,null,,,,,,18,,,9,,,,,103,0.172990614,0.174757282,,,,,,,
decision,203,651249,0.0-62.0-5.0,,85.59500001,run_exp/static/images/task_images/land.jpg,65,,,,,,18,,,9,,,,,,,,281920,1,0,FALSE,,,
dig,204,654171,0.0-63.0-0.0,,,,,,,,,,,"[{""stimulus"":""run_exp/static/images/task_images/dig.jpg"",""time"":0.21999998716637492},{""stimulus"":""run_exp/static/images/task_images/land.jpg"",""time"":975.8450000081211},{""stimulus"":""run_exp/static/images/task_images/dig.jpg"",""time"":1947.1250000060536}]",[],9,,,,,,,,,,,,,,
harvest,205,655194,0.0-63.0-1.0,,null,run_exp/static/images/task_images/gems/18.jpg,null,,,,,,4,,,9,,,,,18,0.236588465,0.222222222,,,,,,,
decision,206,656350,0.0-63.0-2.0,,1153.225,run_exp/static/images/task_images/land.jpg,76,,,,,,4,,,9,,,,,,,,287021,1,1,TRUE,,,
travel,207,665201,0.0-64.0-0.0,,,,,,,,,,,"[{""stimulus"":""run_exp/static/images/task_images/rocket-01.jpg"",""time"":0.23999999393709004},{""stimulus"":""run_exp/static/images/task_images/rocket-02.jpg"",""time"":984.7999999765307},{""stimulus"":""run_exp/static/images/task_images/rocket-03.jpg"",""time"":1982.8749999869615},{""stimulus"":""run_exp/static/images/task_images/rocket-04.jpg"",""time"":2958.6449999769684},{""stimulus"":""run_exp/static/images/task_images/rocket-05.jpg"",""time"":3939.6399999968708},{""stimulus"":""run_exp/static/images/task_images/rocket-06.jpg"",""time"":4920.3749999869615},{""stimulus"":""run_exp/static/images/task_images/rocket-07.jpg"",""time"":5912.574999994831},{""stimulus"":""run_exp/static/images/task_images/rocket-08.jpg"",""time"":6883.464999991702},{""stimulus"":""run_exp/static/images/task_images/rocket-09.jpg"",""time"":7864.639999985229}]",[],9,,,,,,,,,,,,,,
alien_welcome,208,670228,0.0-64.0-1.0,,null,run_exp/static/images/task_images/aliens/old_aliens/planet/alien_planet-66.jpg,null,,,,,,,,,,,,66,"43,41,53,25,28,17,68,64,16,66,23,21,57,59,11,42,27,63,36,6,9,26,45,69,37,77,18,22,46,3,24,34,33,31,54,7,19,60,49,12",,,,,,,,,,
land,209,670748,0.0-64.0-2.0,,null,run_exp/static/images/task_images/land.jpg,null,,,,,,104,,,10,,,,,,,,,,,,,,
dig,210,672774,0.0-64.0-3.0,,,,,,,,,,,"[{""stimulus"":""run_exp/static/images/task_images/dig.jpg"",""time"":0.39999998989515007},{""stimulus"":""run_exp/static/images/task_images/land.jpg"",""time"":679.7300000034738},{""stimulus"":""run_exp/static/images/task_images/dig.jpg"",""time"":1351.6799999924842}]",[],10,,,,,,,,,,,,,,
harvest,211,673777,0.0-64.0-4.0,,null,run_exp/static/images/task_images/gems/104.jpg,null,,,,,,23,,,10,,,,,104,0.218237821,0.221153846,,,,,,,
decision,212,674278,0.0-64.0-5.0,,496.885,run_exp/static/images/task_images/land.jpg,65,,,,,,23,,,10,,,,,,,,304950,1,0,TRUE,,,
end_of_block_continue,213,683143,0.0-65.0-0.0,,null,run_exp/static/audio/clip_32_block_end.m4a,,,,,,null,,,,,,,,,,,,,,,,,,
alien_welcome,214,688160,0.0-66.0-0.0,,null,run_exp/static/images/task_images/aliens/old_aliens/planet/alien_planet-23.jpg,null,,,,,,,,,,,,23,"43,41,53,25,28,17,68,64,16,66,23,21,57,59,11,42,27,63,36,6,9,26,45,69,37,77,18,22,46,3,24,34,33,31,54,7,19,60,49,12",,,,,,,,,,
land,215,688670,0.0-66.0-1.0,,null,run_exp/static/images/task_images/land.jpg,null,,,,,,106,,,11,,,,,,,,,,,,,,
dig,216,690684,0.0-66.0-2.0,,,,,,,,,,,"[{""stimulus"":""run_exp/static/images/task_images/dig.jpg"",""time"":0.39500001003034413},{""stimulus"":""run_exp/static/images/task_images/land.jpg"",""time"":676.210000005085},{""stimulus"":""run_exp/static/images/task_images/dig.jpg"",""time"":1336.4350000047125}]",[],11,,,,,,,,,,,,,,
harvest,217,691697,0.0-66.0-3.0,,null,run_exp/static/images/task_images/gems/106.jpg,null,,,,,,19,,,11,,,,,106,0.183239475,0.179245283,,,,,,,
decision,218,692108,0.0-66.0-4.0,,408.465,run_exp/static/images/task_images/land.jpg,65,,,,,,19,,,11,,,,,,,,8961,2,0,FALSE,,,
dig,219,694714,0.0-67.0-0.0,,,,,,,,,,,"[{""stimulus"":""run_exp/static/images/task_images/dig.jpg"",""time"":0.26000000070780516},{""stimulus"":""run_exp/static/images/task_images/land.jpg"",""time"":874.9100000131875},{""stimulus"":""run_exp/static/images/task_images/dig.jpg"",""time"":1744.074999995064}]",[],11,,,,,,,,,,,,,,
harvest,220,695727,0.0-67.0-1.0,,null,run_exp/static/images/task_images/gems/19.jpg,null,,,,,,3,,,11,,,,,19,0.167486095,0.157894737,,,,,,,
decision,221,696588,0.0-67.0-2.0,,858.435,run_exp/static/images/task_images/land.jpg,76,,,,,,3,,,11,,,,,,,,13441,2,1,TRUE,,,
travel,222,705739,0.0-68.0-0.0,,,,,,,,,,,"[{""stimulus"":""run_exp/static/images/task_images/rocket-01.jpg"",""time"":0.23999999393709004},{""stimulus"":""run_exp/static/images/task_images/rocket-02.jpg"",""time"":1022.915000008652},{""stimulus"":""run_exp/static/images/task_images/rocket-03.jpg"",""time"":2035.7350000122096},{""stimulus"":""run_exp/static/images/task_images/rocket-04.jpg"",""time"":3051.60999999498},{""stimulus"":""run_exp/static/images/task_images/rocket-05.jpg"",""time"":4062.9699999990407},{""stimulus"":""run_exp/static/images/task_images/rocket-06.jpg"",""time"":5086.505000013858},{""stimulus"":""run_exp/static/images/task_images/rocket-07.jpg"",""time"":6111.074999993434},{""stimulus"":""run_exp/static/images/task_images/rocket-08.jpg"",""time"":7119.249999988824},{""stimulus"":""run_exp/static/images/task_images/rocket-09.jpg"",""time"":8128.029999992577}]",[],11,,,,,,,,,,,,,,
alien_welcome,223,710759,0.0-68.0-1.0,,null,run_exp/static/images/task_images/aliens/old_aliens/planet/alien_planet-21.jpg,null,,,,,,,,,,,,21,"43,41,53,25,28,17,68,64,16,66,23,21,57,59,11,42,27,63,36,6,9,26,45,69,37,77,18,22,46,3,24,34,33,31,54,7,19,60,49,12",,,,,,,,,,
land,224,711262,0.0-68.0-2.0,,null,run_exp/static/images/task_images/land.jpg,null,,,,,,98,,,12,,,,,,,,,,,,,,
dig,225,713269,0.0-68.0-3.0,,,,,,,,,,,"[{""stimulus"":""run_exp/static/images/task_images/dig.jpg"",""time"":0.2749999985098839},{""stimulus"":""run_exp/static/images/task_images/land.jpg"",""time"":671.8000000109896},{""stimulus"":""run_exp/static/images/task_images/dig.jpg"",""time"":1338.9350000070408}]",[],12,,,,,,,,,,,,,,
harvest,226,714279,0.0-68.0-4.0,,null,run_exp/static/images/task_images/gems/98.jpg,null,,,,,,18,,,12,,,,,98,0.184308599,0.183673469,,,,,,,
decision,227,714848,0.0-68.0-5.0,,564.84,run_exp/static/images/task_images/land.jpg,65,,,,,,18,,,12,,,,,,,,31701,2,0,FALSE,,,
dig,228,717306,0.0-69.0-0.0,,,,,,,,,,,"[{""stimulus"":""run_exp/static/images/task_images/dig.jpg"",""time"":0.3699999942909926},{""stimulus"":""run_exp/static/images/task_images/land.jpg"",""time"":831.0599999967963},{""stimulus"":""run_exp/static/images/task_images/dig.jpg"",""time"":1631.4000000129454}]",[],12,,,,,,,,,,,,,,
harvest,229,718322,0.0-69.0-1.0,,null,run_exp/static/images/task_images/gems/18.jpg,null,,,,,,4,,,12,,,,,18,0.196452927,0.222222222,,,,,,,
decision,230,718991,0.0-69.0-2.0,,666.755,run_exp/static/images/task_images/land.jpg,76,,,,,,4,,,12,,,,,,,,35844,2,1,TRUE,,,
travel,231,728344,0.0-70.0-0.0,,,,,,,,,,,"[{""stimulus"":""run_exp/static/images/task_images/rocket-01.jpg"",""time"":0.26000000070780516},{""stimulus"":""run_exp/static/images/task_images/rocket-02.jpg"",""time"":1040.9099999815226},{""stimulus"":""run_exp/static/images/task_images/rocket-03.jpg"",""time"":2086.8400000035763},{""stimulus"":""run_exp/static/images/task_images/rocket-04.jpg"",""time"":3122.6949999982025},{""stimulus"":""run_exp/static/images/task_images/rocket-05.jpg"",""time"":4166.074999986449},{""stimulus"":""run_exp/static/images/task_images/rocket-06.jpg"",""time"":5189.494999998715},{""stimulus"":""run_exp/static/images/task_images/rocket-07.jpg"",""time"":6225.169999990612},{""stimulus"":""run_exp/static/images/task_images/rocket-08.jpg"",""time"":7280.574999982491},{""stimulus"":""run_exp/static/images/task_images/rocket-09.jpg"",""time"":8299.14999997709}]",[],12,,,,,,,,,,,,,,
alien_welcome,232,733360,0.0-70.0-1.0,,null,run_exp/static/images/task_images/aliens/old_aliens/planet/alien_planet-57.jpg,null,,,,,,,,,,,,57,"43,41,53,25,28,17,68,64,16,66,23,21,57,59,11,42,27,63,36,6,9,26,45,69,37,77,18,22,46,3,24,34,33,31,54,7,19,60,49,12",,,,,,,,,,
land,233,733885,0.0-70.0-2.0,,null,run_exp/static/images/task_images/land.jpg,null,,,,,,101,,,13,,,,,,,,,,,,,,
dig,234,735908,0.0-70.0-3.0,,,,,,,,,,,"[{""stimulus"":""run_exp/static/images/task_images/dig.jpg"",""time"":0.41000000783242285},{""stimulus"":""run_exp/static/images/task_images/land.jpg"",""time"":682.4049999995623},{""stimulus"":""run_exp/static/images/task_images/dig.jpg"",""time"":1338.5700000217184}]",[],13,,,,,,,,,,,,,,
harvest,235,736912,0.0-70.0-4.0,,null,run_exp/static/images/task_images/gems/101.jpg,null,,,,,,17,,,13,,,,,101,0.167966745,0.168316832,,,,,,,
decision,236,737211,0.0-70.0-5.0,,296.725,run_exp/static/images/task_images/land.jpg,65,,,,,,17,,,13,,,,,,,,54064,2,0,FALSE,,,
dig,237,739935,0.0-71.0-0.0,,,,,,,,,,,"[{""stimulus"":""run_exp/static/images/task_images/dig.jpg"",""time"":0.2799999783746898},{""stimulus"":""run_exp/static/images/task_images/land.jpg"",""time"":921.3499999896158},{""stimulus"":""run_exp/static/images/task_images/dig.jpg"",""time"":1818.3049999934155}]",[],13,,,,,,,,,,,,,,
harvest,238,740940,0.0-71.0-1.0,,null,run_exp/static/images/task_images/gems/17.jpg,null,,,,,,3,,,13,,,,,17,0.171119034,0.176470588,,,,,,,
decision,239,741631,0.0-71.0-2.0,,687.995,run_exp/static/images/task_images/land.jpg,76,,,,,,3,,,13,,,,,,,,58485,2,1,TRUE,,,
travel,240,750948,0.0-72.0-0.0,,,,,,,,,,,"[{""stimulus"":""run_exp/static/images/task_images/rocket-01.jpg"",""time"":0.26500000967644155},{""stimulus"":""run_exp/static/images/task_images/rocket-02.jpg"",""time"":1045.2400000067428},{""stimulus"":""run_exp/static/images/task_images/rocket-03.jpg"",""time"":2090.7050000096206},{""stimulus"":""run_exp/static/images/task_images/rocket-04.jpg"",""time"":3125.6700000085402},{""stimulus"":""run_exp/static/images/task_images/rocket-05.jpg"",""time"":4138.57999999891},{""stimulus"":""run_exp/static/images/task_images/rocket-06.jpg"",""time"":5172.69999999553},{""stimulus"":""run_exp/static/images/task_images/rocket-07.jpg"",""time"":6205.370000010589},{""stimulus"":""run_exp/static/images/task_images/rocket-08.jpg"",""time"":7253.244999999879},{""stimulus"":""run_exp/static/images/task_images/rocket-09.jpg"",""time"":8276.975000015227}]",[],13,,,,,,,,,,,,,,
alien_welcome,241,755995,0.0-72.0-1.0,,null,run_exp/static/images/task_images/aliens/old_aliens/planet/alien_planet-59.jpg,null,,,,,,,,,,,,59,"43,41,53,25,28,17,68,64,16,66,23,21,57,59,11,42,27,63,36,6,9,26,45,69,37,77,18,22,46,3,24,34,33,31,54,7,19,60,49,12",,,,,,,,,,
land,242,756521,0.0-72.0-2.0,,null,run_exp/static/images/task_images/land.jpg,null,,,,,,106,,,14,,,,,,,,,,,,,,
dig,243,758541,0.0-72.0-3.0,,,,,,,,,,,"[{""stimulus"":""run_exp/static/images/task_images/dig.jpg"",""time"":0.40499999886378646},{""stimulus"":""run_exp/static/images/task_images/land.jpg"",""time"":683.0000000190921},{""stimulus"":""run_exp/static/images/task_images/dig.jpg"",""time"":1353.785000013886}]",[],14,,,,,,,,,,,,,,
harvest,244,759561,0.0-72.0-4.0,,null,run_exp/static/images/task_images/gems/106.jpg,null,,,,,,82,,,14,,,,,106,0.775710681,0.773584906,,,,,,,
decision,245,760045,0.0-72.0-5.0,,480.045,run_exp/static/images/task_images/land.jpg,65,,,,,,82,,,14,,,,,,,,76898,2,0,FALSE,,,
dig,246,762578,0.0-73.0-0.0,,,,,,,,,,,"[{""stimulus"":""run_exp/static/images/task_images/dig.jpg"",""time"":0.25499999173916876},{""stimulus"":""run_exp/static/images/task_images/land.jpg"",""time"":847.8250000043772},{""stimulus"":""run_exp/static/images/task_images/dig.jpg"",""time"":1692.2250000061467}]",[],14,,,,,,,,,,,,,,
harvest,247,763586,0.0-73.0-1.0,,null,run_exp/static/images/task_images/gems/82.jpg,null,,,,,,69,,,14,,,,,82,0.846586608,0.841463415,,,,,,,
decision,248,763767,0.0-73.0-2.0,,177.965,run_exp/static/images/task_images/land.jpg,65,,,,,,69,,,14,,,,,,,,80620,2,1,FALSE,,,
dig,249,766594,0.0-74.0-0.0,,,,,,,,,,,"[{""stimulus"":""run_exp/static/images/task_images/dig.jpg"",""time"":0.2350000140722841},{""stimulus"":""run_exp/static/images/task_images/land.jpg"",""time"":945.3950000170153},{""stimulus"":""run_exp/static/images/task_images/dig.jpg"",""time"":1883.7300000013784}]",[],14,,,,,,,,,,,,,,
harvest,250,767607,0.0-74.0-1.0,,null,run_exp/static/images/task_images/gems/69.jpg,null,,,,,,56,,,14,,,,,69,0.806828331,0.811594203,,,,,,,
decision,251,767788,0.0-74.0-2.0,,177.14,run_exp/static/images/task_images/land.jpg,65,,,,,,56,,,14,,,,,,,,84641,2,2,FALSE,,,
dig,252,770627,0.0-75.0-0.0,,,,,,,,,,,"[{""stimulus"":""run_exp/static/images/task_images/dig.jpg"",""time"":0.23999999393709004},{""stimulus"":""run_exp/static/images/task_images/land.jpg"",""time"":958.2400000072084},{""stimulus"":""run_exp/static/images/task_images/dig.jpg"",""time"":1892.8100000193808}]",[],14,,,,,,,,,,,,,,
harvest,253,771650,0.0-75.0-1.0,,null,run_exp/static/images/task_images/gems/56.jpg,null,,,,,,44,,,14,,,,,56,0.784425076,0.785714286,,,,,,,
decision,254,771700,0.0-75.0-2.0,,47.51999999,run_exp/static/images/task_images/land.jpg,65,,,,,,44,,,14,,,,,,,,88553,2,3,FALSE,,,
dig,255,774675,0.0-76.0-0.0,,,,,,,,,,,"[{""stimulus"":""run_exp/static/images/task_images/dig.jpg"",""time"":0.2400000230409205},{""stimulus"":""run_exp/static/images/task_images/land.jpg"",""time"":990.0250000064261},{""stimulus"":""run_exp/static/images/task_images/dig.jpg"",""time"":1983.8000000163447}]",[],14,,,,,,,,,,,,,,
harvest,256,775683,0.0-76.0-1.0,,null,run_exp/static/images/task_images/gems/44.jpg,null,,,,,,36,,,14,,,,,44,0.81618677,0.818181818,,,,,,,
decision,257,776190,0.0-76.0-2.0,,503.345,run_exp/static/images/task_images/land.jpg,65,,,,,,36,,,14,,,,,,,,93043,2,4,FALSE,,,
dig,258,778699,0.0-77.0-0.0,,,,,,,,,,,"[{""stimulus"":""run_exp/static/images/task_images/dig.jpg"",""time"":0.2749999985098839},{""stimulus"":""run_exp/static/images/task_images/land.jpg"",""time"":852.1400000026915},{""stimulus"":""run_exp/static/images/task_images/dig.jpg"",""time"":1684.3349999981}]",[],14,,,,,,,,,,,,,,
harvest,259,779701,0.0-77.0-1.0,,null,run_exp/static/images/task_images/gems/36.jpg,null,,,,,,28,,,14,,,,,36,0.764549373,0.777777778,,,,,,,
decision,260,780548,0.0-77.0-2.0,,843.79,run_exp/static/images/task_images/land.jpg,76,,,,,,28,,,14,,,,,,,,97401,2,5,TRUE,,,
travel,261,789720,0.0-78.0-0.0,,,,,,,,,,,"[{""stimulus"":""run_exp/static/images/task_images/rocket-01.jpg"",""time"":0.24500000290572643},{""stimulus"":""run_exp/static/images/task_images/rocket-02.jpg"",""time"":1037.544999999227},{""stimulus"":""run_exp/static/images/task_images/rocket-03.jpg"",""time"":2039.6450000116602},{""stimulus"":""run_exp/static/images/task_images/rocket-04.jpg"",""time"":3058.6550000007264},{""stimulus"":""run_exp/static/images/task_images/rocket-05.jpg"",""time"":4077.705000003334},{""stimulus"":""run_exp/static/images/task_images/rocket-06.jpg"",""time"":5103.159999998752},{""stimulus"":""run_exp/static/images/task_images/rocket-07.jpg"",""time"":6114.889999997104},{""stimulus"":""run_exp/static/images/task_images/rocket-08.jpg"",""time"":7138.500000000931},{""stimulus"":""run_exp/static/images/task_images/rocket-09.jpg"",""time"":8141.785000014352}]",[],14,,,,,,,,,,,,,,
alien_welcome,262,794732,0.0-78.0-1.0,,null,run_exp/static/images/task_images/aliens/old_aliens/planet/alien_planet-11.jpg,null,,,,,,,,,,,,11,"43,41,53,25,28,17,68,64,16,66,23,21,57,59,11,42,27,63,36,6,9,26,45,69,37,77,18,22,46,3,24,34,33,31,54,7,19,60,49,12",,,,,,,,,,
land,263,795255,0.0-78.0-2.0,,null,run_exp/static/images/task_images/land.jpg,null,,,,,,104,,,15,,,,,,,,,,,,,,
dig,264,797272,0.0-78.0-3.0,,,,,,,,,,,"[{""stimulus"":""run_exp/static/images/task_images/dig.jpg"",""time"":0.39000000106170774},{""stimulus"":""run_exp/static/images/task_images/land.jpg"",""time"":669.0499999967869},{""stimulus"":""run_exp/static/images/task_images/dig.jpg"",""time"":1341.3699999800883}]",[],15,,,,,,,,,,,,,,
harvest,265,798285,0.0-78.0-4.0,,null,run_exp/static/images/task_images/gems/104.jpg,null,,,,,,85,,,15,,,,,104,0.821342964,0.817307692,,,,,,,
decision,266,798552,0.0-78.0-5.0,,264.315,run_exp/static/images/task_images/land.jpg,65,,,,,,85,,,15,,,,,,,,115405,2,0,FALSE,,,
dig,267,801297,0.0-79.0-0.0,,,,,,,,,,,"[{""stimulus"":""run_exp/static/images/task_images/dig.jpg"",""time"":0.26000000070780516},{""stimulus"":""run_exp/static/images/task_images/land.jpg"",""time"":933.0400000035297},{""stimulus"":""run_exp/static/images/task_images/dig.jpg"",""time"":1829.425000003539}]",[],15,,,,,,,,,,,,,,
harvest,268,802316,0.0-79.0-1.0,,null,run_exp/static/images/task_images/gems/85.jpg,null,,,,,,67,,,15,,,,,85,0.784692053,0.788235294,,,,,,,
decision,269,804381,0.0-79.0-2.0,,2062.625,run_exp/static/images/task_images/land.jpg,65,,,,,,67,,,15,,,,,,,,121234,2,1,FALSE,,,
dig,270,805335,0.0-80.0-0.0,,,,,,,,,,,"[{""stimulus"":""run_exp/static/images/task_images/dig.jpg"",""time"":0.2749999985098839},{""stimulus"":""run_exp/static/images/task_images/land.jpg"",""time"":325.41499999933876},{""stimulus"":""run_exp/static/images/task_images/dig.jpg"",""time"":635.8949999848846}]",[],15,,,,,,,,,,,,,,
harvest,271,806338,0.0-80.0-1.0,,null,run_exp/static/images/task_images/gems/67.jpg,null,,,,,,51,,,15,,,,,67,0.756737846,0.76119403,,,,,,,
decision,272,806662,0.0-80.0-2.0,,320.875,run_exp/static/images/task_images/land.jpg,65,,,,,,51,,,15,,,,,,,,123515,2,2,FALSE,,,
dig,273,809367,0.0-81.0-0.0,,,,,,,,,,,"[{""stimulus"":""run_exp/static/images/task_images/dig.jpg"",""time"":0.33999999868683517},{""stimulus"":""run_exp/static/images/task_images/land.jpg"",""time"":908.6400000087451},{""stimulus"":""run_exp/static/images/task_images/dig.jpg"",""time"":1802.9200000164565}]",[],15,,,,,,,,,,,,,,
harvest,274,810382,0.0-81.0-1.0,,null,run_exp/static/images/task_images/gems/51.jpg,null,,,,,,41,,,15,,,,,51,0.795972694,0.803921569,,,,,,,
decision,275,811192,0.0-81.0-2.0,,806.305,run_exp/static/images/task_images/land.jpg,65,,,,,,41,,,15,,,,,,,,128045,2,3,FALSE,,,
dig,276,813410,0.0-82.0-0.0,,,,,,,,,,,"[{""stimulus"":""run_exp/static/images/task_images/dig.jpg"",""time"":0.2500000118743628},{""stimulus"":""run_exp/static/images/task_images/land.jpg"",""time"":752.1549999946728},{""stimulus"":""run_exp/static/images/task_images/dig.jpg"",""time"":1466.8999999994412}]",[],15,,,,,,,,,,,,,,
harvest,277,814423,0.0-82.0-1.0,,null,run_exp/static/images/task_images/gems/41.jpg,null,,,,,,35,,,15,,,,,41,0.858899875,0.853658537,,,,,,,
decision,278,815312,0.0-82.0-2.0,,886.555,run_exp/static/images/task_images/land.jpg,76,,,,,,35,,,15,,,,,,,,132165,2,4,TRUE,,,
travel,279,824430,0.0-83.0-0.0,,,,,,,,,,,"[{""stimulus"":""run_exp/static/images/task_images/rocket-01.jpg"",""time"":0.3699999942909926},{""stimulus"":""run_exp/static/images/task_images/rocket-02.jpg"",""time"":1034.1149999876507},{""stimulus"":""run_exp/static/images/task_images/rocket-03.jpg"",""time"":2025.9699999878649},{""stimulus"":""run_exp/static/images/task_images/rocket-04.jpg"",""time"":3041.224999993574},{""stimulus"":""run_exp/static/images/task_images/rocket-05.jpg"",""time"":4065.4900000081398},{""stimulus"":""run_exp/static/images/task_images/rocket-06.jpg"",""time"":5068.744999996852},{""stimulus"":""run_exp/static/images/task_images/rocket-07.jpg"",""time"":6092.615000001388},{""stimulus"":""run_exp/static/images/task_images/rocket-08.jpg"",""time"":7095.375000004424},{""stimulus"":""run_exp/static/images/task_images/rocket-09.jpg"",""time"":8108.234999992419}]",[],15,,,,,,,,,,,,,,
alien_welcome,280,829442,0.0-83.0-1.0,,null,run_exp/static/images/task_images/aliens/old_aliens/planet/alien_planet-42.jpg,null,,,,,,,,,,,,42,"43,41,53,25,28,17,68,64,16,66,23,21,57,59,11,42,27,63,36,6,9,26,45,69,37,77,18,22,46,3,24,34,33,31,54,7,19,60,49,12",,,,,,,,,,
land,281,829959,0.0-83.0-2.0,,null,run_exp/static/images/task_images/land.jpg,null,,,,,,117,,,16,,,,,,,,,,,,,,
dig,282,831973,0.0-83.0-3.0,,,,,,,,,,,"[{""stimulus"":""run_exp/static/images/task_images/dig.jpg"",""time"":0.39500001003034413},{""stimulus"":""run_exp/static/images/task_images/land.jpg"",""time"":677.3899999971036},{""stimulus"":""run_exp/static/images/task_images/dig.jpg"",""time"":1338.1850000005215}]",[],16,,,,,,,,,,,,,,
harvest,283,832993,0.0-83.0-4.0,,null,run_exp/static/images/task_images/gems/117.jpg,null,,,,,,99,,,16,,,,,117,0.846652557,0.846153846,,,,,,,
decision,284,833290,0.0-83.0-5.0,,292.79,run_exp/static/images/task_images/land.jpg,65,,,,,,99,,,16,,,,,,,,150143,2,0,FALSE,,,
dig,285,836016,0.0-84.0-0.0,,,,,,,,,,,"[{""stimulus"":""run_exp/static/images/task_images/dig.jpg"",""time"":0.35000001662410796},{""stimulus"":""run_exp/static/images/task_images/land.jpg"",""time"":906.3500000047497},{""stimulus"":""run_exp/static/images/task_images/dig.jpg"",""time"":1822.7550000010524}]",[],16,,,,,,,,,,,,,,
harvest,286,837018,0.0-84.0-1.0,,null,run_exp/static/images/task_images/gems/99.jpg,null,,,,,,77,,,16,,,,,99,0.782109884,0.777777778,,,,,,,
decision,287,837243,0.0-84.0-2.0,,222.985,run_exp/static/images/task_images/land.jpg,65,,,,,,77,,,16,,,,,,,,154096,2,1,FALSE,,,
dig,288,840026,0.0-85.0-0.0,,,,,,,,,,,"[{""stimulus"":""run_exp/static/images/task_images/dig.jpg"",""time"":0.2699999895412475},{""stimulus"":""run_exp/static/images/task_images/land.jpg"",""time"":943.794999999227},{""stimulus"":""run_exp/static/images/task_images/dig.jpg"",""time"":1861.2199999915902}]",[],16,,,,,,,,,,,,,,
harvest,289,841030,0.0-85.0-1.0,,null,run_exp/static/images/task_images/gems/77.jpg,null,,,,,,56,,,16,,,,,77,0.732534716,0.727272727,,,,,,,
decision,290,841679,0.0-85.0-2.0,,646.82,run_exp/static/images/task_images/land.jpg,65,,,,,,56,,,16,,,,,,,,158532,2,2,FALSE,,,
dig,291,844042,0.0-86.0-0.0,,,,,,,,,,,"[{""stimulus"":""run_exp/static/images/task_images/dig.jpg"",""time"":0.2300000051036477},{""stimulus"":""run_exp/static/images/task_images/land.jpg"",""time"":795.2400000067428},{""stimulus"":""run_exp/static/images/task_images/dig.jpg"",""time"":1582.2950000001583}]",[],16,,,,,,,,,,,,,,
harvest,292,845064,0.0-86.0-1.0,,null,run_exp/static/images/task_images/gems/56.jpg,null,,,,,,38,,,16,,,,,56,0.673494135,0.678571429,,,,,,,
decision,293,845403,0.0-86.0-2.0,,335.88,run_exp/static/images/task_images/land.jpg,65,,,,,,38,,,16,,,,,,,,162256,2,3,FALSE,,,
dig,294,848080,0.0-87.0-0.0,,,,,,,,,,,"[{""stimulus"":""run_exp/static/images/task_images/dig.jpg"",""time"":0.23499998496845365},{""stimulus"":""run_exp/static/images/task_images/land.jpg"",""time"":891.52499998454},{""stimulus"":""run_exp/static/images/task_images/dig.jpg"",""time"":1786.179999995511}]",[],16,,,,,,,,,,,,,,
harvest,295,849104,0.0-87.0-1.0,,null,run_exp/static/images/task_images/gems/38.jpg,null,,,,,,31,,,16,,,,,38,0.806819328,0.815789474,,,,,,,
decision,296,849425,0.0-87.0-2.0,,319.025,run_exp/static/images/task_images/land.jpg,65,,,,,,31,,,16,,,,,,,,166278,2,4,FALSE,,,
dig,297,852123,0.0-88.0-0.0,,,,,,,,,,,"[{""stimulus"":""run_exp/static/images/task_images/dig.jpg"",""time"":0.26000000070780516},{""stimulus"":""run_exp/static/images/task_images/land.jpg"",""time"":903.664999990724},{""stimulus"":""run_exp/static/images/task_images/dig.jpg"",""time"":1794.4100000022445}]",[],16,,,,,,,,,,,,,,
harvest,298,853146,0.0-88.0-1.0,,null,run_exp/static/images/task_images/gems/31.jpg,null,,,,,,26,,,16,,,,,31,0.839083175,0.838709677,,,,,,,
decision,299,853161,0.0-88.0-2.0,,11.7,run_exp/static/images/task_images/land.jpg,76,,,,,,26,,,16,,,,,,,,170014,2,5,TRUE,,,
travel,300,863152,0.0-89.0-0.0,,,,,,,,,,,"[{""stimulus"":""run_exp/static/images/task_images/rocket-01.jpg"",""time"":0.2350000140722841},{""stimulus"":""run_exp/static/images/task_images/rocket-02.jpg"",""time"":1131.5800000156742},{""stimulus"":""run_exp/static/images/task_images/rocket-03.jpg"",""time"":2220.675000018673},{""stimulus"":""run_exp/static/images/task_images/rocket-04.jpg"",""time"":3329.505000001518},{""stimulus"":""run_exp/static/images/task_images/rocket-05.jpg"",""time"":4439.0650000132155},{""stimulus"":""run_exp/static/images/task_images/rocket-06.jpg"",""time"":5558.705000003101},{""stimulus"":""run_exp/static/images/task_images/rocket-07.jpg"",""time"":6657.175000000279},{""stimulus"":""run_exp/static/images/task_images/rocket-08.jpg"",""time"":7766.850000014529},{""stimulus"":""run_exp/static/images/task_images/rocket-09.jpg"",""time"":8877.875000005588}]",[],16,,,,,,,,,,,,,,
alien_welcome,301,868165,0.0-89.0-1.0,,null,run_exp/static/images/task_images/aliens/old_aliens/planet/alien_planet-27.jpg,null,,,,,,,,,,,,27,"43,41,53,25,28,17,68,64,16,66,23,21,57,59,11,42,27,63,36,6,9,26,45,69,37,77,18,22,46,3,24,34,33,31,54,7,19,60,49,12",,,,,,,,,,
land,302,868681,0.0-89.0-2.0,,null,run_exp/static/images/task_images/land.jpg,null,,,,,,109,,,17,,,,,,,,,,,,,,
dig,303,870703,0.0-89.0-3.0,,,,,,,,,,,"[{""stimulus"":""run_exp/static/images/task_images/dig.jpg"",""time"":0.39000000106170774},{""stimulus"":""run_exp/static/images/task_images/land.jpg"",""time"":675.6900000036694},{""stimulus"":""run_exp/static/images/task_images/dig.jpg"",""time"":1347.8900000045542}]",[],17,,,,,,,,,,,,,,
harvest,304,871708,0.0-89.0-4.0,,null,run_exp/static/images/task_images/gems/109.jpg,null,,,,,,88,,,17,,,,,109,0.804483547,0.80733945,,,,,,,
decision,305,871832,0.0-89.0-5.0,,119.95,run_exp/static/images/task_images/land.jpg,65,,,,,,88,,,17,,,,,,,,188685,2,0,FALSE,,,
dig,306,874736,0.0-90.0-0.0,,,,,,,,,,,"[{""stimulus"":""run_exp/static/images/task_images/dig.jpg"",""time"":0.26000000070780516},{""stimulus"":""run_exp/static/images/task_images/land.jpg"",""time"":977.340000012191},{""stimulus"":""run_exp/static/images/task_images/dig.jpg"",""time"":1938.2099999929778}]",[],17,,,,,,,,,,,,,,
harvest,307,875761,0.0-90.0-1.0,,null,run_exp/static/images/task_images/gems/88.jpg,null,,,,,,66,,,17,,,,,88,0.747381387,0.75,,,,,,,
decision,308,876478,0.0-90.0-2.0,,712.87,run_exp/static/images/task_images/land.jpg,65,,,,,,66,,,17,,,,,,,,193331,2,1,FALSE,,,
dig,309,878791,0.0-91.0-0.0,,,,,,,,,,,"[{""stimulus"":""run_exp/static/images/task_images/dig.jpg"",""time"":0.23499998496845365},{""stimulus"":""run_exp/static/images/task_images/land.jpg"",""time"":771.9499999948312},{""stimulus"":""run_exp/static/images/task_images/dig.jpg"",""time"":1538.990000000922}]",[],17,,,,,,,,,,,,,,
harvest,310,879798,0.0-91.0-1.0,,null,run_exp/static/images/task_images/gems/66.jpg,null,,,,,,58,,,17,,,,,66,0.880476518,0.878787879,,,,,,,
decision,311,880847,0.0-91.0-2.0,,1046.415,run_exp/static/images/task_images/land.jpg,65,,,,,,58,,,17,,,,,,,,197700,2,2,FALSE,,,
dig,312,882824,0.0-92.0-0.0,,,,,,,,,,,"[{""stimulus"":""run_exp/static/images/task_images/dig.jpg"",""time"":0.22999997599981725},{""stimulus"":""run_exp/static/images/task_images/land.jpg"",""time"":668.8799999828916},{""stimulus"":""run_exp/static/images/task_images/dig.jpg"",""time"":1319.0449999819975}]",[],17,,,,,,,,,,,,,,
harvest,313,883835,0.0-92.0-1.0,,null,run_exp/static/images/task_images/gems/58.jpg,null,,,,,,50,,,17,,,,,58,0.87034222,0.862068966,,,,,,,
decision,314,884273,0.0-92.0-2.0,,435.68,run_exp/static/images/task_images/land.jpg,65,,,,,,50,,,17,,,,,,,,201126,2,3,FALSE,,,
dig,315,886843,0.0-93.0-0.0,,,,,,,,,,,"[{""stimulus"":""run_exp/static/images/task_images/dig.jpg"",""time"":0.2749999985098839},{""stimulus"":""run_exp/static/images/task_images/land.jpg"",""time"":858.2549999991897},{""stimulus"":""run_exp/static/images/task_images/dig.jpg"",""time"":1723.4300000127405}]",[],17,,,,,,,,,,,,,,
harvest,316,887856,0.0-93.0-1.0,,null,run_exp/static/images/task_images/gems/50.jpg,null,,,,,,43,,,17,,,,,50,0.868696104,0.86,,,,,,,
decision,317,889729,0.0-93.0-2.0,,1869.75,run_exp/static/images/task_images/land.jpg,65,,,,,,43,,,17,,,,,,,,206582,2,4,FALSE,,,
dig,318,890865,0.0-94.0-0.0,,,,,,,,,,,"[{""stimulus"":""run_exp/static/images/task_images/dig.jpg"",""time"":0.2300000051036477},{""stimulus"":""run_exp/static/images/task_images/land.jpg"",""time"":394.1750000230968},{""stimulus"":""run_exp/static/images/task_images/dig.jpg"",""time"":767.2200000088196}]",[],17,,,,,,,,,,,,,,
harvest,319,891868,0.0-94.0-1.0,,null,run_exp/static/images/task_images/gems/43.jpg,null,,,,,,32,,,17,,,,,43,0.735590785,0.744186047,,,,,,,
decision,320,892157,0.0-94.0-2.0,,286.94,run_exp/static/images/task_images/land.jpg,76,,,,,,32,,,17,,,,,,,,209010,2,5,TRUE,,,
travel,321,901884,0.0-95.0-0.0,,,,,,,,,,,"[{""stimulus"":""run_exp/static/images/task_images/rocket-01.jpg"",""time"":0.2849999873433262},{""stimulus"":""run_exp/static/images/task_images/rocket-02.jpg"",""time"":1102.1199999959208},{""stimulus"":""run_exp/static/images/task_images/rocket-03.jpg"",""time"":2164.6849999960978},{""stimulus"":""run_exp/static/images/task_images/rocket-04.jpg"",""time"":3246.034999989206},{""stimulus"":""run_exp/static/images/task_images/rocket-05.jpg"",""time"":4333.179999986896},{""stimulus"":""run_exp/static/images/task_images/rocket-06.jpg"",""time"":5411.059999983991},{""stimulus"":""run_exp/static/images/task_images/rocket-07.jpg"",""time"":6488.049999985378},{""stimulus"":""run_exp/static/images/task_images/rocket-08.jpg"",""time"":7575.704999995651},{""stimulus"":""run_exp/static/images/task_images/rocket-09.jpg"",""time"":8642.77000000584}]",[],17,,,,,,,,,,,,,,
alien_welcome,322,906907,0.0-95.0-1.0,,null,run_exp/static/images/task_images/aliens/old_aliens/planet/alien_planet-63.jpg,null,,,,,,,,,,,,63,"43,41,53,25,28,17,68,64,16,66,23,21,57,59,11,42,27,63,36,6,9,26,45,69,37,77,18,22,46,3,24,34,33,31,54,7,19,60,49,12",,,,,,,,,,
land,323,907419,0.0-95.0-2.0,,null,run_exp/static/images/task_images/land.jpg,null,,,,,,92,,,18,,,,,,,,,,,,,,
dig,324,909425,0.0-95.0-3.0,,,,,,,,,,,"[{""stimulus"":""run_exp/static/images/task_images/dig.jpg"",""time"":0.38499999209307134},{""stimulus"":""run_exp/static/images/task_images/land.jpg"",""time"":682.7700000139885},{""stimulus"":""run_exp/static/images/task_images/dig.jpg"",""time"":1352.5950000039302}]",[],18,,,,,,,,,,,,,,
harvest,325,910434,0.0-95.0-4.0,,null,run_exp/static/images/task_images/gems/92.jpg,null,,,,,,73,,,18,,,,,92,0.794588047,0.793478261,,,,,,,
decision,326,910623,0.0-95.0-5.0,,184.64,run_exp/static/images/task_images/land.jpg,65,,,,,,73,,,18,,,,,,,,227476,2,0,FALSE,,,
dig,327,913462,0.0-96.0-0.0,,,,,,,,,,,"[{""stimulus"":""run_exp/static/images/task_images/dig.jpg"",""time"":0.25499999173916876},{""stimulus"":""run_exp/static/images/task_images/land.jpg"",""time"":956.5249999868684},{""stimulus"":""run_exp/static/images/task_images/dig.jpg"",""time"":1882.8400000056718}]",[],18,,,,,,,,,,,,,,
harvest,328,914481,0.0-96.0-1.0,,null,run_exp/static/images/task_images/gems/73.jpg,null,,,,,,62,,,18,,,,,73,0.8431068,0.849315068,,,,,,,
decision,329,914964,0.0-96.0-2.0,,480.77,run_exp/static/images/task_images/land.jpg,65,,,,,,62,,,18,,,,,,,,231817,2,1,FALSE,,,
dig,330,917489,0.0-97.0-0.0,,,,,,,,,,,"[{""stimulus"":""run_exp/static/images/task_images/dig.jpg"",""time"":0.2300000051036477},{""stimulus"":""run_exp/static/images/task_images/land.jpg"",""time"":845.3600000066217},{""stimulus"":""run_exp/static/images/task_images/dig.jpg"",""time"":1687.3499999928754}]",[],18,,,,,,,,,,,,,,
harvest,331,918502,0.0-97.0-1.0,,null,run_exp/static/images/task_images/gems/62.jpg,null,,,,,,53,,,18,,,,,62,0.861967654,0.85483871,,,,,,,
decision,332,918786,0.0-97.0-2.0,,281.255,run_exp/static/images/task_images/land.jpg,65,,,,,,53,,,18,,,,,,,,235639,2,2,FALSE,,,
dig,333,921520,0.0-98.0-0.0,,,,,,,,,,,"[{""stimulus"":""run_exp/static/images/task_images/dig.jpg"",""time"":0.4400000034365803},{""stimulus"":""run_exp/static/images/task_images/land.jpg"",""time"":914.0199999965262},{""stimulus"":""run_exp/static/images/task_images/dig.jpg"",""time"":1831.8600000056904}]",[],18,,,,,,,,,,,,,,
harvest,334,922524,0.0-98.0-1.0,,null,run_exp/static/images/task_images/gems/53.jpg,null,,,,,,45,,,18,,,,,53,0.856243564,0.849056604,,,,,,,
decision,335,922964,0.0-98.0-2.0,,438.21,run_exp/static/images/task_images/land.jpg,65,,,,,,45,,,18,,,,,,,,239818,2,3,FALSE,,,
dig,336,925531,0.0-99.0-0.0,,,,,,,,,,,"[{""stimulus"":""run_exp/static/images/task_images/dig.jpg"",""time"":0.23999999393709004},{""stimulus"":""run_exp/static/images/task_images/land.jpg"",""time"":861.5349999745376},{""stimulus"":""run_exp/static/images/task_images/dig.jpg"",""time"":1708.8249999796972}]",[],18,,,,,,,,,,,,,,
harvest,337,926534,0.0-99.0-1.0,,null,run_exp/static/images/task_images/gems/45.jpg,null,,,,,,32,,,18,,,,,45,0.710769453,0.711111111,,,,,,,
decision,338,927474,0.0-99.0-2.0,,937.43,run_exp/static/images/task_images/land.jpg,76,,,,,,32,,,18,,,,,,,,244328,2,4,TRUE,,,
travel,339,936539,0.0-100.0-0.0,,,,,,,,,,,"[{""stimulus"":""run_exp/static/images/task_images/rocket-01.jpg"",""time"":0.26500000967644155},{""stimulus"":""run_exp/static/images/task_images/rocket-02.jpg"",""time"":1018.4650000010151},{""stimulus"":""run_exp/static/images/task_images/rocket-03.jpg"",""time"":2018.3750000142027},{""stimulus"":""run_exp/static/images/task_images/rocket-04.jpg"",""time"":3021.2350000219885},{""stimulus"":""run_exp/static/images/task_images/rocket-05.jpg"",""time"":4039.2200000060257},{""stimulus"":""run_exp/static/images/task_images/rocket-06.jpg"",""time"":5047.800000000279},{""stimulus"":""run_exp/static/images/task_images/rocket-07.jpg"",""time"":6044.820000010077},{""stimulus"":""run_exp/static/images/task_images/rocket-08.jpg"",""time"":7047.1550000074785},{""stimulus"":""run_exp/static/images/task_images/rocket-09.jpg"",""time"":8049.900000012713}]",[],18,,,,,,,,,,,,,,
alien_welcome,340,941595,0.0-100.0-1.0,,null,run_exp/static/images/task_images/aliens/old_aliens/planet/alien_planet-36.jpg,null,,,,,,,,,,,,36,"43,41,53,25,28,17,68,64,16,66,23,21,57,59,11,42,27,63,36,6,9,26,45,69,37,77,18,22,46,3,24,34,33,31,54,7,19,60,49,12",,,,,,,,,,
land,341,942107,0.0-100.0-2.0,,null,run_exp/static/images/task_images/land.jpg,null,,,,,,103,,,19,,,,,,,,,,,,,,
dig,342,944134,0.0-100.0-3.0,,,,,,,,,,,"[{""stimulus"":""run_exp/static/images/task_images/dig.jpg"",""time"":0.3800000122282654},{""stimulus"":""run_exp/static/images/task_images/land.jpg"",""time"":680.54500001017},{""stimulus"":""run_exp/static/images/task_images/dig.jpg"",""time"":1341.8299999902956}]",[],19,,,,,,,,,,,,,,
harvest,343,945157,0.0-100.0-4.0,,null,run_exp/static/images/task_images/gems/103.jpg,null,,,,,,42,,,19,,,,,103,0.403479613,0.40776699,,,,,,,
decision,344,945800,0.0-100.0-5.0,,639.78,run_exp/static/images/task_images/land.jpg,65,,,,,,42,,,19,,,,,,,,262653,2,0,FALSE,,,
dig,345,948187,0.0-101.0-0.0,,,,,,,,,,,"[{""stimulus"":""run_exp/static/images/task_images/dig.jpg"",""time"":0.6649999995715916},{""stimulus"":""run_exp/static/images/task_images/land.jpg"",""time"":801.5449999948032},{""stimulus"":""run_exp/static/images/task_images/dig.jpg"",""time"":1586.3250000111293}]",[],19,,,,,,,,,,,,,,
harvest,346,949192,0.0-101.0-1.0,,null,run_exp/static/images/task_images/gems/42.jpg,null,,,,,,20,,,19,,,,,42,0.477325872,0.476190476,,,,,,,
decision,347,949265,0.0-101.0-2.0,,70.73500002,run_exp/static/images/task_images/land.jpg,65,,,,,,20,,,19,,,,,,,,266118,2,1,FALSE,,,
dig,348,952219,0.0-102.0-0.0,,,,,,,,,,,"[{""stimulus"":""run_exp/static/images/task_images/dig.jpg"",""time"":0.375000003259629},{""stimulus"":""run_exp/static/images/task_images/land.jpg"",""time"":994.2299999820534},{""stimulus"":""run_exp/static/images/task_images/dig.jpg"",""time"":1966.2349999998696}]",[],19,,,,,,,,,,,,,,
harvest,349,953246,0.0-102.0-1.0,,null,run_exp/static/images/task_images/gems/20.jpg,null,,,,,,11,,,19,,,,,20,0.550932893,0.55,,,,,,,
decision,350,953336,0.0-102.0-2.0,,86.55500002,run_exp/static/images/task_images/land.jpg,65,,,,,,11,,,19,,,,,,,,270189,2,2,FALSE,,,
dig,351,956273,0.0-103.0-0.0,,,,,,,,,,,"[{""stimulus"":""run_exp/static/images/task_images/dig.jpg"",""time"":0.26000000070780516},{""stimulus"":""run_exp/static/images/task_images/land.jpg"",""time"":988.325000012992},{""stimulus"":""run_exp/static/images/task_images/dig.jpg"",""time"":1959.260000003269}]",[],19,,,,,,,,,,,,,,
harvest,352,957297,0.0-103.0-1.0,,null,run_exp/static/images/task_images/gems/11.jpg,null,,,,,,6,,,19,,,,,11,0.515651433,0.545454545,,,,,,,
decision,353,957417,0.0-103.0-2.0,,117.57,run_exp/static/images/task_images/land.jpg,76,,,,,,6,,,19,,,,,,,,274270,2,3,TRUE,,,
travel,354,967324,0.0-104.0-0.0,,,,,,,,,,,"[{""stimulus"":""run_exp/static/images/task_images/rocket-01.jpg"",""time"":0.3449999785516411},{""stimulus"":""run_exp/static/images/task_images/rocket-02.jpg"",""time"":1110.564999980852},{""stimulus"":""run_exp/static/images/task_images/rocket-03.jpg"",""time"":2208.9149999956135},{""stimulus"":""run_exp/static/images/task_images/rocket-04.jpg"",""time"":3307.314999983646},{""stimulus"":""run_exp/static/images/task_images/rocket-05.jpg"",""time"":4395.584999991115},{""stimulus"":""run_exp/static/images/task_images/rocket-06.jpg"",""time"":5504.699999990407},{""stimulus"":""run_exp/static/images/task_images/rocket-07.jpg"",""time"":6592.48499997193},{""stimulus"":""run_exp/static/images/task_images/rocket-08.jpg"",""time"":7698.654999985592},{""stimulus"":""run_exp/static/images/task_images/rocket-09.jpg"",""time"":8789.539999997942}]",[],19,,,,,,,,,,,,,,
alien_welcome,355,972337,0.0-104.0-1.0,,null,run_exp/static/images/task_images/aliens/old_aliens/planet/alien_planet-6.jpg,null,,,,,,,,,,,,6,"43,41,53,25,28,17,68,64,16,66,23,21,57,59,11,42,27,63,36,6,9,26,45,69,37,77,18,22,46,3,24,34,33,31,54,7,19,60,49,12",,,,,,,,,,
land,356,972867,0.0-104.0-2.0,,null,run_exp/static/images/task_images/land.jpg,null,,,,,,99,,,20,,,,,,,,,,,,,,
dig,357,974886,0.0-104.0-3.0,,,,,,,,,,,"[{""stimulus"":""run_exp/static/images/task_images/dig.jpg"",""time"":0.6350000039674342},{""stimulus"":""run_exp/static/images/task_images/land.jpg"",""time"":675.9900000179186},{""stimulus"":""run_exp/static/images/task_images/dig.jpg"",""time"":1354.090000008}]",[],20,,,,,,,,,,,,,,
harvest,358,975907,0.0-104.0-4.0,,null,run_exp/static/images/task_images/gems/99.jpg,null,,,,,,69,,,20,,,,,99,0.700019836,0.696969697,,,,,,,
decision,359,976054,0.0-104.0-5.0,,144.275,run_exp/static/images/task_images/land.jpg,65,,,,,,69,,,20,,,,,,,,292908,2,0,FALSE,,,
dig,360,978929,0.0-105.0-0.0,,,,,,,,,,,"[{""stimulus"":""run_exp/static/images/task_images/dig.jpg"",""time"":0.24500000290572643},{""stimulus"":""run_exp/static/images/task_images/land.jpg"",""time"":967.8450000064913},{""stimulus"":""run_exp/static/images/task_images/dig.jpg"",""time"":1912.7199999929871}]",[],20,,,,,,,,,,,,,,
harvest,361,979942,0.0-105.0-1.0,,null,run_exp/static/images/task_images/gems/69.jpg,null,,,,,,50,,,20,,,,,69,0.718314024,0.724637681,,,,,,,
decision,362,980959,0.0-105.0-2.0,,1013.815,run_exp/static/images/task_images/land.jpg,65,,,,,,50,,,20,,,,,,,,297812,2,1,FALSE,,,
dig,363,982957,0.0-106.0-0.0,,,,,,,,,,,"[{""stimulus"":""run_exp/static/images/task_images/dig.jpg"",""time"":0.3499999875202775},{""stimulus"":""run_exp/static/images/task_images/land.jpg"",""time"":672.9800000030082},{""stimulus"":""run_exp/static/images/task_images/dig.jpg"",""time"":1333.359999989625}]",[],20,,,,,,,,,,,,,,
harvest,364,983967,0.0-106.0-1.0,,null,run_exp/static/images/task_images/gems/50.jpg,null,,,,,,42,,,20,,,,,50,0.848856352,0.84,,,,,,,
decision,365,984781,0.0-106.0-2.0,,811.17,run_exp/static/images/task_images/land.jpg,65,,,,,,42,,,20,,,,,,,,301634,2,2,TRUE,,,
end_of_block_continue,366,993660,0.0-107.0-0.0,,null,run_exp/static/audio/clip_32_block_end.m4a,,,,,,null,,,,,,,,,,,,,,,,,,
alien_welcome,367,998689,0.0-108.0-0.0,,null,run_exp/static/images/task_images/aliens/old_aliens/planet/alien_planet-9.jpg,null,,,,,,,,,,,,9,"43,41,53,25,28,17,68,64,16,66,23,21,57,59,11,42,27,63,36,6,9,26,45,69,37,77,18,22,46,3,24,34,33,31,54,7,19,60,49,12",,,,,,,,,,
land,368,999201,0.0-108.0-1.0,,null,run_exp/static/images/task_images/land.jpg,null,,,,,,104,,,21,,,,,,,,,,,,,,
dig,369,1001218,0.0-108.0-2.0,,,,,,,,,,,"[{""stimulus"":""run_exp/static/images/task_images/dig.jpg"",""time"":0.4000000189989805},{""stimulus"":""run_exp/static/images/task_images/land.jpg"",""time"":681.5700000151992},{""stimulus"":""run_exp/static/images/task_images/dig.jpg"",""time"":1352.3600000189617}]",[],21,,,,,,,,,,,,,,
harvest,370,1002241,0.0-108.0-3.0,,null,run_exp/static/images/task_images/gems/104.jpg,null,,,,,,61,,,21,,,,,104,0.588886432,0.586538462,,,,,,,
decision,371,1002351,0.0-108.0-4.0,,107.28,run_exp/static/images/task_images/land.jpg,65,,,,,,61,,,21,,,,,,,,8687,3,0,FALSE,,,
dig,372,1005271,0.0-109.0-0.0,,,,,,,,,,,"[{""stimulus"":""run_exp/static/images/task_images/dig.jpg"",""time"":0.3349999897181988},{""stimulus"":""run_exp/static/images/task_images/land.jpg"",""time"":982.5349999882746},{""stimulus"":""run_exp/static/images/task_images/dig.jpg"",""time"":1937.3049999994691}]",[],21,,,,,,,,,,,,,,
harvest,373,1006283,0.0-109.0-1.0,,null,run_exp/static/images/task_images/gems/61.jpg,null,,,,,,26,,,21,,,,,61,0.428489059,0.426229508,,,,,,,
decision,374,1006308,0.0-109.0-2.0,,23.08000001,run_exp/static/images/task_images/land.jpg,65,,,,,,26,,,21,,,,,,,,12645,3,1,FALSE,,,
dig,375,1009314,0.0-110.0-0.0,,,,,,,,,,,"[{""stimulus"":""run_exp/static/images/task_images/dig.jpg"",""time"":0.3499999875202775},{""stimulus"":""run_exp/static/images/task_images/land.jpg"",""time"":1002.8400000010151},{""stimulus"":""run_exp/static/images/task_images/dig.jpg"",""time"":1996.1049999983516}]",[],21,,,,,,,,,,,,,,
harvest,376,1010337,0.0-110.0-1.0,,null,run_exp/static/images/task_images/gems/26.jpg,null,,,,,,13,,,21,,,,,26,0.51583859,0.5,,,,,,,
decision,377,1012095,0.0-110.0-2.0,,1754.66,run_exp/static/images/task_images/land.jpg,76,,,,,,13,,,21,,,,,,,,18431,3,2,TRUE,,,
travel,378,1020353,0.0-111.0-0.0,,,,,,,,,,,"[{""stimulus"":""run_exp/static/images/task_images/rocket-01.jpg"",""time"":0.2550000208429992},{""stimulus"":""run_exp/static/images/task_images/rocket-02.jpg"",""time"":922.7050000044983},{""stimulus"":""run_exp/static/images/task_images/rocket-03.jpg"",""time"":1839.735000015935},{""stimulus"":""run_exp/static/images/task_images/rocket-04.jpg"",""time"":2757.3100000154227},{""stimulus"":""run_exp/static/images/task_images/rocket-05.jpg"",""time"":3674.910000001546},{""stimulus"":""run_exp/static/images/task_images/rocket-06.jpg"",""time"":4592.18000000692},{""stimulus"":""run_exp/static/images/task_images/rocket-07.jpg"",""time"":5509.460000001127},{""stimulus"":""run_exp/static/images/task_images/rocket-08.jpg"",""time"":6427.185000007739},{""stimulus"":""run_exp/static/images/task_images/rocket-09.jpg"",""time"":7343.5800000152085}]",[],21,,,,,,,,,,,,,,
alien_welcome,379,1025378,0.0-111.0-1.0,,null,run_exp/static/images/task_images/aliens/old_aliens/planet/alien_planet-26.jpg,null,,,,,,,,,,,,26,"43,41,53,25,28,17,68,64,16,66,23,21,57,59,11,42,27,63,36,6,9,26,45,69,37,77,18,22,46,3,24,34,33,31,54,7,19,60,49,12",,,,,,,,,,
land,380,1025889,0.0-111.0-2.0,,null,run_exp/static/images/task_images/land.jpg,null,,,,,,93,,,22,,,,,,,,,,,,,,
dig,381,1027895,0.0-111.0-3.0,,,,,,,,,,,"[{""stimulus"":""run_exp/static/images/task_images/dig.jpg"",""time"":0.3549999964889139},{""stimulus"":""run_exp/static/images/task_images/land.jpg"",""time"":668.8000000140164},{""stimulus"":""run_exp/static/images/task_images/dig.jpg"",""time"":1340.2850000129547}]",[],22,,,,,,,,,,,,,,
harvest,382,1028917,0.0-111.0-4.0,,null,run_exp/static/images/task_images/gems/93.jpg,null,,,,,,78,,,22,,,,,93,0.841820406,0.838709677,,,,,,,
decision,383,1028923,0.0-111.0-5.0,,0.629999995,run_exp/static/images/task_images/land.jpg,65,,,,,,78,,,22,,,,,,,,35260,3,0,FALSE,,,
dig,384,1031949,0.0-112.0-0.0,,,,,,,,,,,"[{""stimulus"":""run_exp/static/images/task_images/dig.jpg"",""time"":0.21500000730156898},{""stimulus"":""run_exp/static/images/task_images/land.jpg"",""time"":1010.9600000141654},{""stimulus"":""run_exp/static/images/task_images/dig.jpg"",""time"":2004.2750000138767}]",[],22,,,,,,,,,,,,,,
harvest,385,1032975,0.0-112.0-1.0,,null,run_exp/static/images/task_images/gems/78.jpg,null,,,,,,62,,,22,,,,,78,0.789530365,0.794871795,,,,,,,
decision,386,1033737,0.0-112.0-2.0,,758.35,run_exp/static/images/task_images/land.jpg,65,,,,,,62,,,22,,,,,,,,40073,3,1,FALSE,,,
dig,387,1036002,0.0-113.0-0.0,,,,,,,,,,,"[{""stimulus"":""run_exp/static/images/task_images/dig.jpg"",""time"":0.2350000140722841},{""stimulus"":""run_exp/static/images/task_images/land.jpg"",""time"":763.4149999939837},{""stimulus"":""run_exp/static/images/task_images/dig.jpg"",""time"":1499.0000000107102}]",[],22,,,,,,,,,,,,,,
harvest,388,1037028,0.0-113.0-1.0,,null,run_exp/static/images/task_images/gems/62.jpg,null,,,,,,50,,,22,,,,,62,0.809215414,0.806451613,,,,,,,
decision,389,1039151,0.0-113.0-2.0,,2120.19,run_exp/static/images/task_images/land.jpg,65,,,,,,50,,,22,,,,,,,,45488,3,2,FALSE,,,
dig,390,1040050,0.0-114.0-0.0,,,,,,,,,,,"[{""stimulus"":""run_exp/static/images/task_images/dig.jpg"",""time"":0.30999997397884727},{""stimulus"":""run_exp/static/images/task_images/land.jpg"",""time"":299.5449999871198},{""stimulus"":""run_exp/static/images/task_images/dig.jpg"",""time"":608.9700000011362}]",[],22,,,,,,,,,,,,,,
harvest,391,1041074,0.0-114.0-1.0,,null,run_exp/static/images/task_images/gems/50.jpg,null,,,,,,42,,,22,,,,,50,0.839963862,0.84,,,,,,,
decision,392,1041536,0.0-114.0-2.0,,449.04,run_exp/static/images/task_images/land.jpg,65,,,,,,42,,,22,,,,,,,,47872,3,3,FALSE,,,
dig,393,1044098,0.0-115.0-0.0,,,,,,,,,,,"[{""stimulus"":""run_exp/static/images/task_images/dig.jpg"",""time"":0.2300000051036477},{""stimulus"":""run_exp/static/images/task_images/land.jpg"",""time"":858.2150000147521},{""stimulus"":""run_exp/static/images/task_images/dig.jpg"",""time"":1711.845000012545}]",[],22,,,,,,,,,,,,,,
harvest,394,1045110,0.0-115.0-1.0,,null,run_exp/static/images/task_images/gems/42.jpg,null,,,,,,37,,,22,,,,,42,0.876102322,0.880952381,,,,,,,
decision,395,1045394,0.0-115.0-2.0,,281.54,run_exp/static/images/task_images/land.jpg,65,,,,,,37,,,22,,,,,,,,51731,3,4,FALSE,,,
