trial_type,trial_index,time_elapsed,internal_node_id,interactions,blur_events,focus_events,fullscreenenter_events,fullscreenexit_events,success,rt,stimulus,key_press,prompt,subject_id,participant_id,age,gender,button_pressed,next_reward,animation_sequence,responses,planet,curr_prac_trial,n_prac_rounds,alien,aliens,reward_received,decay_rate_actual,decay_rate_exp,time_in_block,block_num,prt,last_trial_on_planet,button_html,bonus,num_failures
pavlovia,0,2,0.0-0.0,"""event"",""trial"",""time""
""fullscreenenter"",""1"",""3591""
","
","
","""event"",""trial"",""time""
""fullscreenenter"",""1"",""3591""
","
",,,,,,,,,,,,,,,,,,,,,,,,,,,,
fullscreen,1,4588,0.0-1.0,"""event"",""trial"",""time""
""fullscreenenter"",""1"",""3591""
","
","
","""event"",""trial"",""time""
""fullscreenenter"",""1"",""3591""
","
",TRUE,,,,,,,,,,,,,,,,,,,,,,,,,,,
instruc_welcome,2,14374,0.0-2.0,"""event"",""trial"",""time""
""fullscreenenter"",""1"",""3591""
","
","
","""event"",""trial"",""time""
""fullscreenenter"",""1"",""3591""
","
",,null,run_exp/static/audio/clip_1_welcome.m4a,null,"<p>Howdy! In this experiment, you’ll be an explorer traveling through space to collect space treasure.</p><p>Your mission is to collect as much treasure as possible.</p><br><br><p><img src='run_exp/static/images/task_images/opening_img-01.jpg' height='300' width='auto'></p>",9332,1461,13.55,Female,,,,,,,,,,,,,,,,,,,
audio-keyboard-response,3,30992,0.0-3.0,"""event"",""trial"",""time""
""fullscreenenter"",""1"",""3591""
","
","
","""event"",""trial"",""time""
""fullscreenenter"",""1"",""3591""
","
",,null,run_exp/static/audio/clip_2_move.m4a,null,,,,,,,,,,,,,,,,,,,,,,,,
welcome_dec,4,32134,0.0-4.0,"""event"",""trial"",""time""
""fullscreenenter"",""1"",""3591""
","
","
","""event"",""trial"",""time""
""fullscreenenter"",""1"",""3591""
","
",,1139.8,"<p>Howdy! In this experiment, you’ll be an explorer traveling through space to collect space treasure.</p><p>Your mission is to collect as much treasure as possible.</p><br><br><p><img src='run_exp/static/images/task_images/opening_img-01.jpg' height='300' width='auto'></p>",,,,,,,1,,,,,,,,,,,,,,,,,,
html-keyboard-response,5,32967,0.0-5.0,"""event"",""trial"",""time""
""fullscreenenter"",""1"",""3591""
","
","
","""event"",""trial"",""time""
""fullscreenenter"",""1"",""3591""
","
",,832.2,"<p>Howdy! In this experiment, you’ll be an explorer traveling through space to collect space treasure.</p><p>Your mission is to collect as much treasure as possible.</p><br><br><p><img src='run_exp/static/images/task_images/opening_img-01.jpg' height='300' width='auto'></p><button class=""jspsych-html-btn-unchosen""><img src=""run_exp/static/images/task_images/planet-01.jpg"" height=""50""></button><button class=""jspsych-html-btn-chosen""><img src=""run_exp/static/images/task_images/planet-02.jpg"" height=""50""></button><p><b>[press the space bar to lock in your answer]<b><br></p>",32,,,,,,,,,,,,,,,,,,,,,,,,
instruc_goal,6,43073,0.0-6.0-0.0,"""event"",""trial"",""time""
""fullscreenenter"",""1"",""3591""
","
","
","""event"",""trial"",""time""
""fullscreenenter"",""1"",""3591""
","
",,null,run_exp/static/audio/clip_3_goal.m4a,null,"<p> As a space explorer, you’ll visit different planets to dig for space treasure, these pink gems.</p> <p> The more treasure you dig up, the more bonus money you’ll win! </p><br><br><p><img src='run_exp/static/images/task_images/pink_gem.jpg' height='300' width='auto'></p>",,,,,,,,,,,,,,,,,,,,,,,
instruc_goal,7,47013,0.0-6.0-1.0,"""event"",""trial"",""time""
""fullscreenenter"",""1"",""3591""
","
","
","""event"",""trial"",""time""
""fullscreenenter"",""1"",""3591""
","
",,3936.5,"<p> As a space explorer, you’ll visit different planets to dig for space treasure, these pink gems.</p> <p> The more treasure you dig up, the more bonus money you’ll win! </p><br><br><p><img src='run_exp/static/images/task_images/pink_gem.jpg' height='300' width='auto'></p>",,,,,,,1,,,,,,,,,,,,,,,,,,
html-keyboard-response,8,47871,0.0-6.0-2.0,"""event"",""trial"",""time""
""fullscreenenter"",""1"",""3591""
","
","
","""event"",""trial"",""time""
""fullscreenenter"",""1"",""3591""
","
",,855.9,"<p> As a space explorer, you’ll visit different planets to dig for space treasure, these pink gems.</p> <p> The more treasure you dig up, the more bonus money you’ll win! </p><br><br><p><img src='run_exp/static/images/task_images/pink_gem.jpg' height='300' width='auto'></p><button class=""jspsych-html-btn-unchosen""><img src=""run_exp/static/images/task_images/planet-01.jpg"" height=""50""></button><button class=""jspsych-html-btn-chosen""><img src=""run_exp/static/images/task_images/planet-02.jpg"" height=""50""></button><p><b>[press the space bar to lock in your answer]<b><br></p>",32,,,,,,,,,,,,,,,,,,,,,,,,
instruc_dig,9,63914,0.0-7.0-0.0,"""event"",""trial"",""time""
""fullscreenenter"",""1"",""3591""
","
","
","""event"",""trial"",""time""
""fullscreenenter"",""1"",""3591""
","
",,null,run_exp/static/audio/clip_4_dig.m4a,null,,,,,,,100,,,,,,,,,,,,,,,,,
instruc_dig_try,10,69703,0.0-7.0-1.0,"""event"",""trial"",""time""
""fullscreenenter"",""1"",""3591""
","
","
","""event"",""trial"",""time""
""fullscreenenter"",""1"",""3591""
","
",,5786.1,"<p> When you’ve arrived at a new planet, you will dig once. </p> <p>Then, you get to decide if you want to stay on the planet and dig again or travel to a new planet and dig there.</p> <p> To stay and dig, press the letter <strong>‘A’</strong> on your keyboard. Try pressing it now! </p><p><img src='run_exp/static/images/task_images/land.jpg'  height='700' width='auto'></p>",65,"<p> When you’ve arrived at a new planet, you will dig once. </p> <p>Then, you get to decide if you want to stay on the planet and dig again or travel to a new planet and dig there.</p> <p> To stay and dig, press the letter <strong>‘A’</strong> on your keyboard. Try pressing it now! </p><p><img src='run_exp/static/images/task_images/land.jpg'  height='700' width='auto'></p>",,,,,,100,,,,,,,,,,,,,,,,,
dig_prac,11,71715,0.0-7.0-2.0,"""event"",""trial"",""time""
""fullscreenenter"",""1"",""3591""
","
","
","""event"",""trial"",""time""
""fullscreenenter"",""1"",""3591""
","
",,,,,,,,,,,,"[{""stimulus"":""run_exp/static/images/task_images/dig.jpg"",""time"":0.4000000059604645},{""stimulus"":""run_exp/static/images/task_images/land.jpg"",""time"":668.7999999970198},{""stimulus"":""run_exp/static/images/task_images/dig.jpg"",""time"":1336}]",[],,,,,,,,,,,,,,,
instruc_travel,12,107992,0.0-7.0-3.0,"""event"",""trial"",""time""
""fullscreenenter"",""1"",""3591""
","
","
","""event"",""trial"",""time""
""fullscreenenter"",""1"",""3591""
","
",,null,run_exp/static/audio/clip_5_travel.m4a,null,"<p>Every time you dig up gems, there are less gems on the planet, so the more you dig on a planet the fewer gems you’ll get with each dig.</p><p>When gems are running low, you may want to travel to a new planet. </p> <p>  Planets are very far apart in this galaxy, so it will take some time to travel between them. </p> <br><p>There are lots and lots of planets for you to visit, so you won’t be able to return to any planets you’ve seen before. </p><br><p>To leave this planet and travel to a new one, press the letter <strong>‘L’</strong> on your keyboard. Try pressing it now! </p><p><img src='run_exp/static/images/task_images/rocket-01.jpg'  height='600' width='auto'></p>",,,,,,,,,,,,,,,,,,,,,,,
instruc_travel_try,13,108454,0.0-7.0-4.0,"""event"",""trial"",""time""
""fullscreenenter"",""1"",""3591""
","
","
","""event"",""trial"",""time""
""fullscreenenter"",""1"",""3591""
","
",,460.1,"<p>Every time you dig up gems, there are less gems on the planet, so the more you dig on a planet the fewer gems you’ll get with each dig.</p><p>When gems are running low, you may want to travel to a new planet. </p> <p>  Planets are very far apart in this galaxy, so it will take some time to travel between them. </p> <br><p>There are lots and lots of planets for you to visit, so you won’t be able to return to any planets you’ve seen before. </p><br><p>To leave this planet and travel to a new one, press the letter <strong>‘L’</strong> on your keyboard. Try pressing it now! </p><p><img src='run_exp/static/images/task_images/rocket-01.jpg'  height='600' width='auto'></p>",76,"<p>Every time you dig up gems, there are less gems on the planet, so the more you dig on a planet the fewer gems you’ll get with each dig.</p><p>When gems are running low, you may want to travel to a new planet. </p> <p>  Planets are very far apart in this galaxy, so it will take some time to travel between them. </p> <br><p>There are lots and lots of planets for you to visit, so you won’t be able to return to any planets you’ve seen before. </p><br><p>To leave this planet and travel to a new one, press the letter <strong>‘L’</strong> on your keyboard. Try pressing it now! </p><p><img src='run_exp/static/images/task_images/rocket-01.jpg'  height='600' width='auto'></p>",,,,,,,,,,,,,,,,,,,,,,,
travel_prac,14,118458,0.0-7.0-5.0,"""event"",""trial"",""time""
""fullscreenenter"",""1"",""3591""
","
","
","""event"",""trial"",""time""
""fullscreenenter"",""1"",""3591""
","
",,,,,,,,,,,,"[{""stimulus"":""run_exp/static/images/task_images/rocket-01.jpg"",""time"":0.30000001192092896},{""stimulus"":""run_exp/static/images/task_images/rocket-02.jpg"",""time"":1112.800000011921},{""stimulus"":""run_exp/static/images/task_images/rocket-03.jpg"",""time"":2224.300000011921},{""stimulus"":""run_exp/static/images/task_images/rocket-04.jpg"",""time"":3335.6000000089407},{""stimulus"":""run_exp/static/images/task_images/rocket-05.jpg"",""time"":4445.9000000059605},{""stimulus"":""run_exp/static/images/task_images/rocket-06.jpg"",""time"":5556.800000011921},{""stimulus"":""run_exp/static/images/task_images/rocket-07.jpg"",""time"":6668.4000000059605},{""stimulus"":""run_exp/static/images/task_images/rocket-08.jpg"",""time"":7779.70000000298},{""stimulus"":""run_exp/static/images/task_images/rocket-09.jpg"",""time"":8889.40000000596}]",[],0,,,,,,,,,,,,,,
instruc_alien_greet,15,145664,0.0-7.0-6.0,"""event"",""trial"",""time""
""fullscreenenter"",""1"",""3591""
","
","
","""event"",""trial"",""time""
""fullscreenenter"",""1"",""3591""
","
",,null,run_exp/static/audio/clip_6_alien.m4a,null,"<p>When you arrive at a new planet, the alien who owns the treasure mine on that planet will greet you!</p><p>The better an alien takes care of their mine the easier it is to dig for gems. Some aliens take better care of their mine than others. So, you won’t get exactly the same amount of gems on each planet.</p><p>What the alien looks like does not tell you anything about how many gems there are on the planet.</p><br><p><img src=""run_exp/static/images/task_images/aliens/instructions_aliens/planet/alien_planet-1.jpg""  height=""600"" width=""auto""></p>",,,,,,,,,,,,,,,,,,,,,,,
instruc_alien_greet,16,148374,0.0-7.0-7.0,"""event"",""trial"",""time""
""fullscreenenter"",""1"",""3591""
","
","
","""event"",""trial"",""time""
""fullscreenenter"",""1"",""3591""
","
",,2707.5,"<p>When you arrive at a new planet, the alien who owns the treasure mine on that planet will greet you!</p><p>The better an alien takes care of their mine the easier it is to dig for gems. Some aliens take better care of their mine than others. So, you won’t get exactly the same amount of gems on each planet.</p><p>What the alien looks like does not tell you anything about how many gems there are on the planet.</p><br><p><img src=""run_exp/static/images/task_images/aliens/instructions_aliens/planet/alien_planet-1.jpg""  height=""600"" width=""auto""></p>",,,,,,,1,,,,,,,,,,,,,,,,,,
html-keyboard-response,17,149103,0.0-7.0-8.0,"""event"",""trial"",""time""
""fullscreenenter"",""1"",""3591""
","
","
","""event"",""trial"",""time""
""fullscreenenter"",""1"",""3591""
","
",,728.2,"<p>When you arrive at a new planet, the alien who owns the treasure mine on that planet will greet you!</p><p>The better an alien takes care of their mine the easier it is to dig for gems. Some aliens take better care of their mine than others. So, you won’t get exactly the same amount of gems on each planet.</p><p>What the alien looks like does not tell you anything about how many gems there are on the planet.</p><br><p><img src=""run_exp/static/images/task_images/aliens/instructions_aliens/planet/alien_planet-1.jpg""  height=""600"" width=""auto""></p><button class=""jspsych-html-btn-unchosen""><img src=""run_exp/static/images/task_images/planet-01.jpg"" height=""50""></button><button class=""jspsych-html-btn-chosen""><img src=""run_exp/static/images/task_images/planet-02.jpg"" height=""50""></button><p><b>[press the space bar to lock in your answer]<b><br></p>",32,,,,,,,,,,,,,,,,,,,,,,,,
time_out,18,160224,0.0-8.0-0.0,"""event"",""trial"",""time""
""fullscreenenter"",""1"",""3591""
","
","
","""event"",""trial"",""time""
""fullscreenenter"",""1"",""3591""
","
",,null,run_exp/static/audio/clip_7_timeout.m4a,null,"<p>If you don't make your choice fast enough, you’ll have to wait a few seconds before you can make another one.</p><p>You can’t dig for more gems or travel to new planets. You just have to sit and wait.</p><br><p><img src='run_exp/static/images/task_images/time_out.jpg'  height='600' width='auto'></p>",,,,,,,,,,,,,,,,,,,,,,,
time_out,19,162334,0.0-8.0-1.0,"""event"",""trial"",""time""
""fullscreenenter"",""1"",""3591""
","
","
","""event"",""trial"",""time""
""fullscreenenter"",""1"",""3591""
","
",,2106.9,"<p>If you don't make your choice fast enough, you’ll have to wait a few seconds before you can make another one.</p><p>You can’t dig for more gems or travel to new planets. You just have to sit and wait.</p><br><p><img src='run_exp/static/images/task_images/time_out.jpg'  height='600' width='auto'></p>",,,,,,,1,,,,,,,,,,,,,,,,,,
html-keyboard-response,20,163046,0.0-8.0-2.0,"""event"",""trial"",""time""
""fullscreenenter"",""1"",""3591""
","
","
","""event"",""trial"",""time""
""fullscreenenter"",""1"",""3591""
","
",,711.3,"<p>If you don't make your choice fast enough, you’ll have to wait a few seconds before you can make another one.</p><p>You can’t dig for more gems or travel to new planets. You just have to sit and wait.</p><br><p><img src='run_exp/static/images/task_images/time_out.jpg'  height='600' width='auto'></p><button class=""jspsych-html-btn-unchosen""><img src=""run_exp/static/images/task_images/planet-01.jpg"" height=""50""></button><button class=""jspsych-html-btn-chosen""><img src=""run_exp/static/images/task_images/planet-02.jpg"" height=""50""></button><p><b>[press the space bar to lock in your answer]<b><br></p>",32,,,,,,,,,,,,,,,,,,,,,,,,
instruc_break,21,178744,0.0-9.0-0.0,"""event"",""trial"",""time""
""fullscreenenter"",""1"",""3591""
","
","
","""event"",""trial"",""time""
""fullscreenenter"",""1"",""3591""
","
",,null,run_exp/static/audio/clip_8_break.m4a,null,"<p> After digging and traveling for a while, you’ll be able to take a break at home base. </p><p>The game will last 20 minutes no matter what.</p><p>You will visit home base every 5 minutes, so, you will visit home base three times during the game.</p><br><p><img src='run_exp/static/images/task_images/home_base.jpg' height='600' width='auto'></p>",,,,,,,,,,,,,,,,,,,,,,,
instruc_break,22,182102,0.0-9.0-1.0,"""event"",""trial"",""time""
""fullscreenenter"",""1"",""3591""
","
","
","""event"",""trial"",""time""
""fullscreenenter"",""1"",""3591""
","
",,3354.8,"<p> After digging and traveling for a while, you’ll be able to take a break at home base. </p><p>The game will last 20 minutes no matter what.</p><p>You will visit home base every 5 minutes, so, you will visit home base three times during the game.</p><br><p><img src='run_exp/static/images/task_images/home_base.jpg' height='600' width='auto'></p>",,,,,,,1,,,,,,,,,,,,,,,,,,
html-keyboard-response,23,183191,0.0-9.0-2.0,"""event"",""trial"",""time""
""fullscreenenter"",""1"",""3591""
","
","
","""event"",""trial"",""time""
""fullscreenenter"",""1"",""3591""
","
",,1088,"<p> After digging and traveling for a while, you’ll be able to take a break at home base. </p><p>The game will last 20 minutes no matter what.</p><p>You will visit home base every 5 minutes, so, you will visit home base three times during the game.</p><br><p><img src='run_exp/static/images/task_images/home_base.jpg' height='600' width='auto'></p><button class=""jspsych-html-btn-unchosen""><img src=""run_exp/static/images/task_images/planet-01.jpg"" height=""50""></button><button class=""jspsych-html-btn-chosen""><img src=""run_exp/static/images/task_images/planet-02.jpg"" height=""50""></button><p><b>[press the space bar to lock in your answer]<b><br></p>",32,,,,,,,,,,,,,,,,,,,,,,,,
instruc_prac_game,24,193324,0.0-10.0-0.0,"""event"",""trial"",""time""
""fullscreenenter"",""1"",""3591""
","
","
","""event"",""trial"",""time""
""fullscreenenter"",""1"",""3591""
","
",,null,run_exp/static/audio/clip_9_practice.m4a,null,"<p> Are you ready to play a practice game? </p> <p>In this practice game, you'll be digging up barrels of gems. But, in the real game, you'll be digging up the gems themselves. </p>",,,,,,,,,,,,,,,,,,,,,,,
html-button-response,25,194638,0.0-10.0-1.0,"""event"",""trial"",""time""
""fullscreenenter"",""1"",""3591""
","
","
","""event"",""trial"",""time""
""fullscreenenter"",""1"",""3591""
","
",,1310.9,"<p> Are you ready to play a practice game? </p> <p>In this practice game, you'll be digging up barrels of gems. But, in the real game, you'll be digging up the gems themselves. </p>",,,,,,,0,,,,,,,,,,,,,,,,,,
alien_welcome_prac,26,199641,0.0-11.0-0.0,"""event"",""trial"",""time""
""fullscreenenter"",""1"",""3591""
","
","
","""event"",""trial"",""time""
""fullscreenenter"",""1"",""3591""
","
",,null,run_exp/static/images/task_images/aliens/practice_aliens/planet/alien_planet-5.jpg,null,,,,,,,,,,,,,,,,,,,,,,,,
land_prac,27,200144,0.0-11.0-1.0,"""event"",""trial"",""time""
""fullscreenenter"",""1"",""3591""
","
","
","""event"",""trial"",""time""
""fullscreenenter"",""1"",""3591""
","
",,null,run_exp/static/images/task_images/land.jpg,null,,,,,,,92,,,0,,,,,,,,,,,,,,
dig_prac,28,202150,0.0-11.0-2.0,"""event"",""trial"",""time""
""fullscreenenter"",""1"",""3591""
","
","
","""event"",""trial"",""time""
""fullscreenenter"",""1"",""3591""
","
",,,,,,,,,,,,"[{""stimulus"":""run_exp/static/images/task_images/dig.jpg"",""time"":0.5},{""stimulus"":""run_exp/static/images/task_images/land.jpg"",""time"":668.7999999970198},{""stimulus"":""run_exp/static/images/task_images/dig.jpg"",""time"":1336.3999999910593}]",[],,,,,,,,,,,,,,,
harvest_prac,29,203152,0.0-11.0-3.0,"""event"",""trial"",""time""
""fullscreenenter"",""1"",""3591""
","
","
","""event"",""trial"",""time""
""fullscreenenter"",""1"",""3591""
","
",,null,run_exp/static/images/task_images/barrel_text.jpg,null,,,,,,,,,,,,,,,,,,,,,,,,
decision_prac,30,203558,0.0-11.0-4.0,"""event"",""trial"",""time""
""fullscreenenter"",""1"",""3591""
","
","
","""event"",""trial"",""time""
""fullscreenenter"",""1"",""3591""
","
",,405.3,run_exp/static/images/task_images/land.jpg,65,,,,,,,,,,,1,,,,,,,,,,,,,
dig_prac,31,205566,0.0-12.0-0.0,"""event"",""trial"",""time""
""fullscreenenter"",""1"",""3591""
","
","
","""event"",""trial"",""time""
""fullscreenenter"",""1"",""3591""
","
",,,,,,,,,,,,"[{""stimulus"":""run_exp/static/images/task_images/dig.jpg"",""time"":0.29999999701976776},{""stimulus"":""run_exp/static/images/task_images/land.jpg"",""time"":668.7999999970198},{""stimulus"":""run_exp/static/images/task_images/dig.jpg"",""time"":1335.2999999970198}]",[],,,,,,,,,,,,,,,
harvest_prac,32,206567,0.0-12.0-1.0,"""event"",""trial"",""time""
""fullscreenenter"",""1"",""3591""
","
","
","""event"",""trial"",""time""
""fullscreenenter"",""1"",""3591""
","
",,null,run_exp/static/images/task_images/barrel_text.jpg,null,,,,,,,,,,,,,,,,,,,,,,,,
decision_prac,33,206766,0.0-12.0-2.0,"""event"",""trial"",""time""
""fullscreenenter"",""1"",""3591""
","
","
","""event"",""trial"",""time""
""fullscreenenter"",""1"",""3591""
","
",,197.5,run_exp/static/images/task_images/land.jpg,65,,,,,,,,,,,2,,,,,,,,,,,,,
dig_prac,34,208772,0.0-13.0-0.0,"""event"",""trial"",""time""
""fullscreenenter"",""1"",""3591""
","
","
","""event"",""trial"",""time""
""fullscreenenter"",""1"",""3591""
","
",,,,,,,,,,,,"[{""stimulus"":""run_exp/static/images/task_images/dig.jpg"",""time"":0.29999999701976776},{""stimulus"":""run_exp/static/images/task_images/land.jpg"",""time"":668.9000000059605},{""stimulus"":""run_exp/static/images/task_images/dig.jpg"",""time"":1336.2000000029802}]",[],,,,,,,,,,,,,,,
harvest_prac,35,209773,0.0-13.0-1.0,"""event"",""trial"",""time""
""fullscreenenter"",""1"",""3591""
","
","
","""event"",""trial"",""time""
""fullscreenenter"",""1"",""3591""
","
",,null,run_exp/static/images/task_images/barrel_text.jpg,null,,,,,,,,,,,,,,,,,,,,,,,,
decision_prac,36,210919,0.0-13.0-2.0,"""event"",""trial"",""time""
""fullscreenenter"",""1"",""3591""
","
","
","""event"",""trial"",""time""
""fullscreenenter"",""1"",""3591""
","
",,1144.8,run_exp/static/images/task_images/land.jpg,65,,,,,,,,,,,3,,,,,,,,,,,,,
dig_prac,37,212927,0.0-14.0-0.0,"""event"",""trial"",""time""
""fullscreenenter"",""1"",""3591""
","
","
","""event"",""trial"",""time""
""fullscreenenter"",""1"",""3591""
","
",,,,,,,,,,,,"[{""stimulus"":""run_exp/static/images/task_images/dig.jpg"",""time"":0.30000001192092896},{""stimulus"":""run_exp/static/images/task_images/land.jpg"",""time"":669.3000000119209},{""stimulus"":""run_exp/static/images/task_images/dig.jpg"",""time"":1335.800000011921}]",[],,,,,,,,,,,,,,,
harvest_prac,38,213930,0.0-14.0-1.0,"""event"",""trial"",""time""
""fullscreenenter"",""1"",""3591""
","
","
","""event"",""trial"",""time""
""fullscreenenter"",""1"",""3591""
","
",,null,run_exp/static/images/task_images/barrel_text.jpg,null,,,,,,,,,,,,,,,,,,,,,,,,
decision_prac,39,214623,0.0-14.0-2.0,"""event"",""trial"",""time""
""fullscreenenter"",""1"",""3591""
","
","
","""event"",""trial"",""time""
""fullscreenenter"",""1"",""3591""
","
",,692.5,run_exp/static/images/task_images/land.jpg,65,,,,,,,,,,,4,,,,,,,,,,,,,
dig_prac,40,216631,0.0-15.0-0.0,"""event"",""trial"",""time""
""fullscreenenter"",""1"",""3591""
","
","
","""event"",""trial"",""time""
""fullscreenenter"",""1"",""3591""
","
",,,,,,,,,,,,"[{""stimulus"":""run_exp/static/images/task_images/dig.jpg"",""time"":0.29999999701976776},{""stimulus"":""run_exp/static/images/task_images/land.jpg"",""time"":669.7000000029802},{""stimulus"":""run_exp/static/images/task_images/dig.jpg"",""time"":1350.5}]",[],,,,,,,,,,,,,,,
harvest_prac,41,217633,0.0-15.0-1.0,"""event"",""trial"",""time""
""fullscreenenter"",""1"",""3591""
","
","
","""event"",""trial"",""time""
""fullscreenenter"",""1"",""3591""
","
",,null,run_exp/static/images/task_images/barrel_text.jpg,null,,,,,,,,,,,,,,,,,,,,,,,,
decision_prac,42,219759,0.0-15.0-2.0,"""event"",""trial"",""time""
""fullscreenenter"",""1"",""3591""
","
","
","""event"",""trial"",""time""
""fullscreenenter"",""1"",""3591""
","
",,2124.2,run_exp/static/images/task_images/land.jpg,65,,,,,,,,,,,,1,,,,,,,,,,,,
quiz_instruc,43,222774,0.0-16.0-0.0,"""event"",""trial"",""time""
""fullscreenenter"",""1"",""3591""
","
","
","""event"",""trial"",""time""
""fullscreenenter"",""1"",""3591""
","
",,3008.6,run_exp/static/audio/clip_10_quiz.m4a,,,,,,,0,,,,,,,,,,,,,,,,,,
instruc_repeat,44,265533,0.0-16.0-1.0,"""event"",""trial"",""time""
""fullscreenenter"",""1"",""3591""
","
","
","""event"",""trial"",""time""
""fullscreenenter"",""1"",""3591""
","
",,null,"<p> Are you ready to play a practice game? </p> <p>In this practice game, you'll be digging up barrels of gems. But, in the real game, you'll be digging up the gems themselves. </p>",null,"<p>In this game, your goal is to collect as many gems as you can. That’s how you will win bonus money. </p> <p>The entire game will last 20 minutes no matter how many gems you collect or how many planets you visit. </p><p>To stay on a planet and dig again, press the letter A on your keyboard. To leave for a new planet, press the letter L.</p><p>The more you dig on a planet, the fewer gems you’ll get with each dig which is why you might consider leaving for a new planet. </p><p>When you arrive at a new planet, you’ll be greeted by an alien. What the alien looks like does not tell you anything about how much treasure is on the planet. </p>",,,,,,,,,,,,,,,,,,,,,,,
instruc_repeat_continue,45,274085,0.0-16.0-2.0,"""event"",""trial"",""time""
""fullscreenenter"",""1"",""3591""
","
","
","""event"",""trial"",""time""
""fullscreenenter"",""1"",""3591""
","
",,8550.9,"<p> Are you ready to play a practice game? </p> <p>In this practice game, you'll be digging up barrels of gems. But, in the real game, you'll be digging up the gems themselves. </p>",,,,,,,0,,,,,,,,,,,,,,,,,,
quiz_q_1_ask,46,276062,0.0-16.0-3.0,"""event"",""trial"",""time""
""fullscreenenter"",""1"",""3591""
","
","
","""event"",""trial"",""time""
""fullscreenenter"",""1"",""3591""
","
",,1975.2,run_exp/static/audio/clip_11_q1_ask.m4a,,,,,,,2,,,,,,,,,,,,,,,,,,
quiz_q_1_fb_correct,47,279913,0.0-17.0-0.0,"""event"",""trial"",""time""
""fullscreenenter"",""1"",""3591""
","
","
","""event"",""trial"",""time""
""fullscreenenter"",""1"",""3591""
","
",,null,run_exp/static/audio/clip_12_q1_correct.m4a,null,<p>That’s correct. You win extra money by collecting more gems.</p>,,,,,,,,,,,,,,,,,,,,,,,
quiz_q_2_ask,48,282142,0.0-17.0-1.0,"""event"",""trial"",""time""
""fullscreenenter"",""1"",""3591""
","
","
","""event"",""trial"",""time""
""fullscreenenter"",""1"",""3591""
","
",,2225.5,run_exp/static/audio/clip_14_q2_ask.m4a,,,,,,,1,,,,,,,,,,,,,,,,,,
quiz_q_2_fb_correct,49,286152,0.0-18.0-0.0,"""event"",""trial"",""time""
""fullscreenenter"",""1"",""3591""
","
","
","""event"",""trial"",""time""
""fullscreenenter"",""1"",""3591""
","
",,null,run_exp/static/audio/clip_15_q2_correct.m4a,null,<p>That’s correct. The experiment is 20 minutes no matter what.</p>,,,,,,,,,,,,,,,,,,,,,,,
quiz_q_3_ask,50,292501,0.0-18.0-1.0,"""event"",""trial"",""time""
""fullscreenenter"",""1"",""3591""
","
","
","""event"",""trial"",""time""
""fullscreenenter"",""1"",""3591""
","
",,6348.2,run_exp/static/audio/clip_17_q3_ask.m4a,,,,,,,1,,,,,,,,,,,,,,,,,,
quiz_q_3_fb_correct,51,296493,0.0-19.0-0.0,"""event"",""trial"",""time""
""fullscreenenter"",""1"",""3591""
","
","
","""event"",""trial"",""time""
""fullscreenenter"",""1"",""3591""
","
",,null,run_exp/static/audio/clip_18_q3_correct.m4a,null,<p> That’s correct. You press the letter L to travel to a new planet.</p>,,,,,,,,,,,,,,,,,,,,,,,
quiz_q_4_ask,52,301038,0.0-19.0-1.0,"""event"",""trial"",""time""
""fullscreenenter"",""1"",""3591""
","
","
","""event"",""trial"",""time""
""fullscreenenter"",""1"",""3591""
","
",,4542.4,run_exp/static/audio/clip_20_q4_ask.m4a,,,,,,,0,,,,,,,,,,,,,,,,,,
quiz_q_4_fb_correct,53,306373,0.0-20.0-0.0,"""event"",""trial"",""time""
""fullscreenenter"",""1"",""3591""
","
","
","""event"",""trial"",""time""
""fullscreenenter"",""1"",""3591""
","
",,null,run_exp/static/audio/clip_21_q4_correct.m4a,null,<p> That’s correct. The more you dig on a planet the fewer gems you’ll get with each dig. </p>,,,,,,,,,,,,,,,,,,,,,,,
quiz_q_5_ask,54,316358,0.0-20.0-1.0,"""event"",""trial"",""time""
""fullscreenenter"",""1"",""3591""
","
","
","""event"",""trial"",""time""
""fullscreenenter"",""1"",""3591""
","
",,9982.6,run_exp/static/audio/clip_23_q5_ask.m4a,,,,,,,1,,,,,,,,,,,,,,,,,,
quiz_q_5_fb_correct,55,321373,0.0-21.0-0.0,"""event"",""trial"",""time""
""fullscreenenter"",""1"",""3591""
","
","
","""event"",""trial"",""time""
""fullscreenenter"",""1"",""3591""
","
",,null,run_exp/static/audio/clip_24_q5_correct.m4a,null,<p> That’s correct. The alien tells you nothing about how much treasure is on the planet.</p>,,,,,,,,,,,,,,,,,,,,,,,
quiz_correct,56,324873,0.0-22.0-0.0,"""event"",""trial"",""time""
""fullscreenenter"",""1"",""3591""
","
","
","""event"",""trial"",""time""
""fullscreenenter"",""1"",""3591""
","
",,null,run_exp/static/audio/clip_26_correct_quiz.m4a,null,,,,,,,,,,,,,,,,,,,,,,,,
quiz_correct_continue,57,328814,0.0-22.0-1.0,"""event"",""trial"",""time""
""fullscreenenter"",""1"",""3591""
","
","
","""event"",""trial"",""time""
""fullscreenenter"",""1"",""3591""
","
",,3939.2,<p>Good job! You're now ready to move on to the real game!</p>,,,,,,,0,,,,,,,,,,,,,,,,,,
audio-keyboard-response,58,338934,0.0-22.0-2.0,"""event"",""trial"",""time""
""fullscreenenter"",""1"",""3591""
","
","
","""event"",""trial"",""time""
""fullscreenenter"",""1"",""3591""
","
",,null,run_exp/static/audio/clip_28_real_game.m4a,null,,,,,,,,,,,,,,,,,,,,,,,,
instruc_begin_exp_contine,59,339734,0.0-22.0-3.0,"""event"",""trial"",""time""
""fullscreenenter"",""1"",""3591""
","
","
","""event"",""trial"",""time""
""fullscreenenter"",""1"",""3591""
","
",,798.5,"<p>Now that you know how  to dig for space treasure and travel to new planets,you can start exploring! </p><p>Do you want to go over the instructions again or get started with the real game?</p>",,,,,,,1,,,,,,1,,,,,,,,,,,,
alien_welcome,60,344737,0.0-23.0-0.0,"""event"",""trial"",""time""
""fullscreenenter"",""1"",""3591""
","
","
","""event"",""trial"",""time""
""fullscreenenter"",""1"",""3591""
","
",,null,run_exp/static/images/task_images/aliens/old_aliens/planet/alien_planet-50.jpg,null,,,,,,,,,,,,,50,"50,53,18,51,59,57,7,12,13,17,72,67,22,46,10,38,2,69,40,29,75,24,21,68,43,64,33,6,41,60,30,71,36,55,61,73,49,66,3,28,70,31,45,19,20,56,14,15,8,1,76,32,63,37",,,,,,,,,,
land,61,345240,0.0-23.0-1.0,"""event"",""trial"",""time""
""fullscreenenter"",""1"",""3591""
","
","
","""event"",""trial"",""time""
""fullscreenenter"",""1"",""3591""
","
",,null,run_exp/static/images/task_images/land.jpg,null,,,,,,,97,,,1,,,,,,,,,,,,,,
dig,62,347246,0.0-23.0-2.0,"""event"",""trial"",""time""
""fullscreenenter"",""1"",""3591""
","
","
","""event"",""trial"",""time""
""fullscreenenter"",""1"",""3591""
","
",,,,,,,,,,,,"[{""stimulus"":""run_exp/static/images/task_images/dig.jpg"",""time"":0.5},{""stimulus"":""run_exp/static/images/task_images/land.jpg"",""time"":669.2999999970198},{""stimulus"":""run_exp/static/images/task_images/dig.jpg"",""time"":1337.199999988079}]",[],1,,,,,,,,,,,,,,
harvest,63,348248,0.0-23.0-3.0,"""event"",""trial"",""time""
""fullscreenenter"",""1"",""3591""
","
","
","""event"",""trial"",""time""
""fullscreenenter"",""1"",""3591""
","
",,null,run_exp/static/images/task_images/gems/97.jpg,null,,,,,,,30,,,1,,,,,97,0.310137362,0.309278351,,,,,,,
decision,64,349407,0.0-23.0-4.0,"""event"",""trial"",""time""
""fullscreenenter"",""1"",""3591""
","
","
","""event"",""trial"",""time""
""fullscreenenter"",""1"",""3591""
","
",,1157.5,run_exp/static/images/task_images/land.jpg,76,,,,,,,30,,,1,,,,,,,,9673,1,0,TRUE,,,
travel,65,358253,0.0-24.0-0.0,"""event"",""trial"",""time""
""fullscreenenter"",""1"",""3591""
","
","
","""event"",""trial"",""time""
""fullscreenenter"",""1"",""3591""
","
",,,,,,,,,,,,"[{""stimulus"":""run_exp/static/images/task_images/rocket-01.jpg"",""time"":0.3999999910593033},{""stimulus"":""run_exp/static/images/task_images/rocket-02.jpg"",""time"":984.5999999940395},{""stimulus"":""run_exp/static/images/task_images/rocket-03.jpg"",""time"":1965.7999999970198},{""stimulus"":""run_exp/static/images/task_images/rocket-04.jpg"",""time"":2948.3999999910593},{""stimulus"":""run_exp/static/images/task_images/rocket-05.jpg"",""time"":3930.7999999970198},{""stimulus"":""run_exp/static/images/task_images/rocket-06.jpg"",""time"":4912.20000000298},{""stimulus"":""run_exp/static/images/task_images/rocket-07.jpg"",""time"":5894.20000000298},{""stimulus"":""run_exp/static/images/task_images/rocket-08.jpg"",""time"":6877.0999999940395},{""stimulus"":""run_exp/static/images/task_images/rocket-09.jpg"",""time"":7857.29999999702}]",[],1,,,,,,,,,,,,,,
alien_welcome,66,363255,0.0-24.0-1.0,"""event"",""trial"",""time""
""fullscreenenter"",""1"",""3591""
","
","
","""event"",""trial"",""time""
""fullscreenenter"",""1"",""3591""
","
",,null,run_exp/static/images/task_images/aliens/old_aliens/planet/alien_planet-53.jpg,null,,,,,,,,,,,,,53,"50,53,18,51,59,57,7,12,13,17,72,67,22,46,10,38,2,69,40,29,75,24,21,68,43,64,33,6,41,60,30,71,36,55,61,73,49,66,3,28,70,31,45,19,20,56,14,15,8,1,76,32,63,37",,,,,,,,,,
land,67,363759,0.0-24.0-2.0,"""event"",""trial"",""time""
""fullscreenenter"",""1"",""3591""
","
","
","""event"",""trial"",""time""
""fullscreenenter"",""1"",""3591""
","
",,null,run_exp/static/images/task_images/land.jpg,null,,,,,,,101,,,2,,,,,,,,,,,,,,
dig,68,365764,0.0-24.0-3.0,"""event"",""trial"",""time""
""fullscreenenter"",""1"",""3591""
","
","
","""event"",""trial"",""time""
""fullscreenenter"",""1"",""3591""
","
",,,,,,,,,,,,"[{""stimulus"":""run_exp/static/images/task_images/dig.jpg"",""time"":0.5},{""stimulus"":""run_exp/static/images/task_images/land.jpg"",""time"":669.8999999910593},{""stimulus"":""run_exp/static/images/task_images/dig.jpg"",""time"":1337.5}]",[],2,,,,,,,,,,,,,,
harvest,69,366766,0.0-24.0-4.0,"""event"",""trial"",""time""
""fullscreenenter"",""1"",""3591""
","
","
","""event"",""trial"",""time""
""fullscreenenter"",""1"",""3591""
","
",,null,run_exp/static/images/task_images/gems/101.jpg,null,,,,,,,26,,,2,,,,,101,0.257563038,0.257425743,,,,,,,
decision,70,367929,0.0-24.0-5.0,"""event"",""trial"",""time""
""fullscreenenter"",""1"",""3591""
","
","
","""event"",""trial"",""time""
""fullscreenenter"",""1"",""3591""
","
",,1162.1,run_exp/static/images/task_images/land.jpg,76,,,,,,,26,,,2,,,,,,,,28194,1,0,TRUE,,,
travel,71,376766,0.0-25.0-0.0,"""event"",""trial"",""time""
""fullscreenenter"",""1"",""3591""
","
","
","""event"",""trial"",""time""
""fullscreenenter"",""1"",""3591""
","
",,,,,,,,,,,,"[{""stimulus"":""run_exp/static/images/task_images/rocket-01.jpg"",""time"":0.5},{""stimulus"":""run_exp/static/images/task_images/rocket-02.jpg"",""time"":982.6000000089407},{""stimulus"":""run_exp/static/images/task_images/rocket-03.jpg"",""time"":1964.1000000089407},{""stimulus"":""run_exp/static/images/task_images/rocket-04.jpg"",""time"":2945.2999999970198},{""stimulus"":""run_exp/static/images/task_images/rocket-05.jpg"",""time"":3926.2000000029802},{""stimulus"":""run_exp/static/images/task_images/rocket-06.jpg"",""time"":4906.79999999702},{""stimulus"":""run_exp/static/images/task_images/rocket-07.jpg"",""time"":5888.5},{""stimulus"":""run_exp/static/images/task_images/rocket-08.jpg"",""time"":6868.79999999702},{""stimulus"":""run_exp/static/images/task_images/rocket-09.jpg"",""time"":7849.9000000059605}]",[],2,,,,,,,,,,,,,,
alien_welcome,72,381769,0.0-25.0-1.0,"""event"",""trial"",""time""
""fullscreenenter"",""1"",""3591""
","
","
","""event"",""trial"",""time""
""fullscreenenter"",""1"",""3591""
","
",,null,run_exp/static/images/task_images/aliens/old_aliens/planet/alien_planet-18.jpg,null,,,,,,,,,,,,,18,"50,53,18,51,59,57,7,12,13,17,72,67,22,46,10,38,2,69,40,29,75,24,21,68,43,64,33,6,41,60,30,71,36,55,61,73,49,66,3,28,70,31,45,19,20,56,14,15,8,1,76,32,63,37",,,,,,,,,,
land,73,382272,0.0-25.0-2.0,"""event"",""trial"",""time""
""fullscreenenter"",""1"",""3591""
","
","
","""event"",""trial"",""time""
""fullscreenenter"",""1"",""3591""
","
",,null,run_exp/static/images/task_images/land.jpg,null,,,,,,,97,,,3,,,,,,,,,,,,,,
dig,74,384277,0.0-25.0-3.0,"""event"",""trial"",""time""
""fullscreenenter"",""1"",""3591""
","
","
","""event"",""trial"",""time""
""fullscreenenter"",""1"",""3591""
","
",,,,,,,,,,,,"[{""stimulus"":""run_exp/static/images/task_images/dig.jpg"",""time"":0.3999999910593033},{""stimulus"":""run_exp/static/images/task_images/land.jpg"",""time"":669.0999999940395},{""stimulus"":""run_exp/static/images/task_images/dig.jpg"",""time"":1336.5}]",[],3,,,,,,,,,,,,,,
harvest,75,385280,0.0-25.0-4.0,"""event"",""trial"",""time""
""fullscreenenter"",""1"",""3591""
","
","
","""event"",""trial"",""time""
""fullscreenenter"",""1"",""3591""
","
",,null,run_exp/static/images/task_images/gems/97.jpg,null,,,,,,,56,,,3,,,,,97,0.572996491,0.577319588,,,,,,,
decision,76,386432,0.0-25.0-5.0,"""event"",""trial"",""time""
""fullscreenenter"",""1"",""3591""
","
","
","""event"",""trial"",""time""
""fullscreenenter"",""1"",""3591""
","
",,1150.1,run_exp/static/images/task_images/land.jpg,65,,,,,,,56,,,3,,,,,,,,46697,1,0,FALSE,,,
dig,77,388288,0.0-26.0-0.0,"""event"",""trial"",""time""
""fullscreenenter"",""1"",""3591""
","
","
","""event"",""trial"",""time""
""fullscreenenter"",""1"",""3591""
","
",,,,,,,,,,,,"[{""stimulus"":""run_exp/static/images/task_images/dig.jpg"",""time"":0.4000000059604645},{""stimulus"":""run_exp/static/images/task_images/land.jpg"",""time"":618},{""stimulus"":""run_exp/static/images/task_images/dig.jpg"",""time"":1233.6000000089407}]",[],3,,,,,,,,,,,,,,
harvest,78,389290,0.0-26.0-1.0,"""event"",""trial"",""time""
""fullscreenenter"",""1"",""3591""
","
","
","""event"",""trial"",""time""
""fullscreenenter"",""1"",""3591""
","
",,null,run_exp/static/images/task_images/gems/56.jpg,null,,,,,,,29,,,3,,,,,56,0.50972278,0.517857143,,,,,,,
decision,79,389511,0.0-26.0-2.0,"""event"",""trial"",""time""
""fullscreenenter"",""1"",""3591""
","
","
","""event"",""trial"",""time""
""fullscreenenter"",""1"",""3591""
","
",,219.3,run_exp/static/images/task_images/land.jpg,76,,,,,,,29,,,3,,,,,,,,49776,1,1,TRUE,,,
travel,80,399292,0.0-27.0-0.0,"""event"",""trial"",""time""
""fullscreenenter"",""1"",""3591""
","
","
","""event"",""trial"",""time""
""fullscreenenter"",""1"",""3591""
","
",,,,,,,,,,,,"[{""stimulus"":""run_exp/static/images/task_images/rocket-01.jpg"",""time"":0.4000000059604645},{""stimulus"":""run_exp/static/images/task_images/rocket-02.jpg"",""time"":1088.7000000029802},{""stimulus"":""run_exp/static/images/task_images/rocket-03.jpg"",""time"":2174.6000000089407},{""stimulus"":""run_exp/static/images/task_images/rocket-04.jpg"",""time"":3267.6000000089407},{""stimulus"":""run_exp/static/images/task_images/rocket-05.jpg"",""time"":4346.100000008941},{""stimulus"":""run_exp/static/images/task_images/rocket-06.jpg"",""time"":5431.5},{""stimulus"":""run_exp/static/images/task_images/rocket-07.jpg"",""time"":6517.800000011921},{""stimulus"":""run_exp/static/images/task_images/rocket-08.jpg"",""time"":7611.5},{""stimulus"":""run_exp/static/images/task_images/rocket-09.jpg"",""time"":8690}]",[],3,,,,,,,,,,,,,,
alien_welcome,81,404295,0.0-27.0-1.0,"""event"",""trial"",""time""
""fullscreenenter"",""1"",""3591""
","
","
","""event"",""trial"",""time""
""fullscreenenter"",""1"",""3591""
","
",,null,run_exp/static/images/task_images/aliens/old_aliens/planet/alien_planet-51.jpg,null,,,,,,,,,,,,,51,"50,53,18,51,59,57,7,12,13,17,72,67,22,46,10,38,2,69,40,29,75,24,21,68,43,64,33,6,41,60,30,71,36,55,61,73,49,66,3,28,70,31,45,19,20,56,14,15,8,1,76,32,63,37",,,,,,,,,,
land,82,404797,0.0-27.0-2.0,"""event"",""trial"",""time""
""fullscreenenter"",""1"",""3591""
","
","
","""event"",""trial"",""time""
""fullscreenenter"",""1"",""3591""
","
",,null,run_exp/static/images/task_images/land.jpg,null,,,,,,,97,,,4,,,,,,,,,,,,,,
dig,83,406802,0.0-27.0-3.0,"""event"",""trial"",""time""
""fullscreenenter"",""1"",""3591""
","
","
","""event"",""trial"",""time""
""fullscreenenter"",""1"",""3591""
","
",,,,,,,,,,,,"[{""stimulus"":""run_exp/static/images/task_images/dig.jpg"",""time"":0.5},{""stimulus"":""run_exp/static/images/task_images/land.jpg"",""time"":679.7000000029802},{""stimulus"":""run_exp/static/images/task_images/dig.jpg"",""time"":1336}]",[],4,,,,,,,,,,,,,,
harvest,84,407805,0.0-27.0-4.0,"""event"",""trial"",""time""
""fullscreenenter"",""1"",""3591""
","
","
","""event"",""trial"",""time""
""fullscreenenter"",""1"",""3591""
","
",,null,run_exp/static/images/task_images/gems/97.jpg,null,,,,,,,40,,,4,,,,,97,0.417093198,0.412371134,,,,,,,
decision,85,408216,0.0-27.0-5.0,"""event"",""trial"",""time""
""fullscreenenter"",""1"",""3591""
","
","
","""event"",""trial"",""time""
""fullscreenenter"",""1"",""3591""
","
",,408.4,run_exp/static/images/task_images/land.jpg,65,,,,,,,40,,,4,,,,,,,,68481,1,0,FALSE,,,
dig,86,410812,0.0-28.0-0.0,"""event"",""trial"",""time""
""fullscreenenter"",""1"",""3591""
","
","
","""event"",""trial"",""time""
""fullscreenenter"",""1"",""3591""
","
",,,,,,,,,,,,"[{""stimulus"":""run_exp/static/images/task_images/dig.jpg"",""time"":0.4000000059604645},{""stimulus"":""run_exp/static/images/task_images/land.jpg"",""time"":864.7999999970198},{""stimulus"":""run_exp/static/images/task_images/dig.jpg"",""time"":1727.7999999970198}]",[],4,,,,,,,,,,,,,,
harvest,87,411815,0.0-28.0-1.0,"""event"",""trial"",""time""
""fullscreenenter"",""1"",""3591""
","
","
","""event"",""trial"",""time""
""fullscreenenter"",""1"",""3591""
","
",,null,run_exp/static/images/task_images/gems/40.jpg,null,,,,,,,20,,,4,,,,,40,0.500150081,0.5,,,,,,,
decision,88,411855,0.0-28.0-2.0,"""event"",""trial"",""time""
""fullscreenenter"",""1"",""3591""
","
","
","""event"",""trial"",""time""
""fullscreenenter"",""1"",""3591""
","
",,37.90000001,run_exp/static/images/task_images/land.jpg,76,,,,,,,20,,,4,,,,,,,,72120,1,1,TRUE,,,
travel,89,421820,0.0-29.0-0.0,"""event"",""trial"",""time""
""fullscreenenter"",""1"",""3591""
","
","
","""event"",""trial"",""time""
""fullscreenenter"",""1"",""3591""
","
",,,,,,,,,,,,"[{""stimulus"":""run_exp/static/images/task_images/rocket-01.jpg"",""time"":0.4000000059604645},{""stimulus"":""run_exp/static/images/task_images/rocket-02.jpg"",""time"":1108.7000000029802},{""stimulus"":""run_exp/static/images/task_images/rocket-03.jpg"",""time"":2214.2000000029802},{""stimulus"":""run_exp/static/images/task_images/rocket-04.jpg"",""time"":3320.7000000029802},{""stimulus"":""run_exp/static/images/task_images/rocket-05.jpg"",""time"":4426.79999999702},{""stimulus"":""run_exp/static/images/task_images/rocket-06.jpg"",""time"":5532.79999999702},{""stimulus"":""run_exp/static/images/task_images/rocket-07.jpg"",""time"":6638.9000000059605},{""stimulus"":""run_exp/static/images/task_images/rocket-08.jpg"",""time"":7744.9000000059605},{""stimulus"":""run_exp/static/images/task_images/rocket-09.jpg"",""time"":8849.90000000596}]",[],4,,,,,,,,,,,,,,
alien_welcome,90,426823,0.0-29.0-1.0,"""event"",""trial"",""time""
""fullscreenenter"",""1"",""3591""
","
","
","""event"",""trial"",""time""
""fullscreenenter"",""1"",""3591""
","
",,null,run_exp/static/images/task_images/aliens/old_aliens/planet/alien_planet-59.jpg,null,,,,,,,,,,,,,59,"50,53,18,51,59,57,7,12,13,17,72,67,22,46,10,38,2,69,40,29,75,24,21,68,43,64,33,6,41,60,30,71,36,55,61,73,49,66,3,28,70,31,45,19,20,56,14,15,8,1,76,32,63,37",,,,,,,,,,
land,91,427325,0.0-29.0-2.0,"""event"",""trial"",""time""
""fullscreenenter"",""1"",""3591""
","
","
","""event"",""trial"",""time""
""fullscreenenter"",""1"",""3591""
","
",,null,run_exp/static/images/task_images/land.jpg,null,,,,,,,99,,,5,,,,,,,,,,,,,,
dig,92,429330,0.0-29.0-3.0,"""event"",""trial"",""time""
""fullscreenenter"",""1"",""3591""
","
","
","""event"",""trial"",""time""
""fullscreenenter"",""1"",""3591""
","
",,,,,,,,,,,,"[{""stimulus"":""run_exp/static/images/task_images/dig.jpg"",""time"":0.5},{""stimulus"":""run_exp/static/images/task_images/land.jpg"",""time"":669.7000000029802},{""stimulus"":""run_exp/static/images/task_images/dig.jpg"",""time"":1336.7999999970198}]",[],5,,,,,,,,,,,,,,
harvest,93,430331,0.0-29.0-4.0,"""event"",""trial"",""time""
""fullscreenenter"",""1"",""3591""
","
","
","""event"",""trial"",""time""
""fullscreenenter"",""1"",""3591""
","
",,null,run_exp/static/images/task_images/gems/99.jpg,null,,,,,,,45,,,5,,,,,99,0.454526045,0.454545455,,,,,,,
decision,94,430936,0.0-29.0-5.0,"""event"",""trial"",""time""
""fullscreenenter"",""1"",""3591""
","
","
","""event"",""trial"",""time""
""fullscreenenter"",""1"",""3591""
","
",,602.3,run_exp/static/images/task_images/land.jpg,65,,,,,,,45,,,5,,,,,,,,91201,1,0,FALSE,,,
dig,95,433338,0.0-30.0-0.0,"""event"",""trial"",""time""
""fullscreenenter"",""1"",""3591""
","
","
","""event"",""trial"",""time""
""fullscreenenter"",""1"",""3591""
","
",,,,,,,,,,,,"[{""stimulus"":""run_exp/static/images/task_images/dig.jpg"",""time"":0.19999998807907104},{""stimulus"":""run_exp/static/images/task_images/land.jpg"",""time"":801.5999999940395},{""stimulus"":""run_exp/static/images/task_images/dig.jpg"",""time"":1600}]",[],5,,,,,,,,,,,,,,
harvest,96,434341,0.0-30.0-1.0,"""event"",""trial"",""time""
""fullscreenenter"",""1"",""3591""
","
","
","""event"",""trial"",""time""
""fullscreenenter"",""1"",""3591""
","
",,null,run_exp/static/images/task_images/gems/45.jpg,null,,,,,,,28,,,5,,,,,45,0.623173302,0.622222222,,,,,,,
decision,97,434654,0.0-30.0-2.0,"""event"",""trial"",""time""
""fullscreenenter"",""1"",""3591""
","
","
","""event"",""trial"",""time""
""fullscreenenter"",""1"",""3591""
","
",,311.1,run_exp/static/images/task_images/land.jpg,76,,,,,,,28,,,5,,,,,,,,94919,1,1,TRUE,,,
travel,98,444343,0.0-31.0-0.0,"""event"",""trial"",""time""
""fullscreenenter"",""1"",""3591""
","
","
","""event"",""trial"",""time""
""fullscreenenter"",""1"",""3591""
","
",,,,,,,,,,,,"[{""stimulus"":""run_exp/static/images/task_images/rocket-01.jpg"",""time"":0.20000000298023224},{""stimulus"":""run_exp/static/images/task_images/rocket-02.jpg"",""time"":1077.2000000029802},{""stimulus"":""run_exp/static/images/task_images/rocket-03.jpg"",""time"":2153.7000000029802},{""stimulus"":""run_exp/static/images/task_images/rocket-04.jpg"",""time"":3229.3999999910593},{""stimulus"":""run_exp/static/images/task_images/rocket-05.jpg"",""time"":4305.5},{""stimulus"":""run_exp/static/images/task_images/rocket-06.jpg"",""time"":5381.5999999940395},{""stimulus"":""run_exp/static/images/task_images/rocket-07.jpg"",""time"":6457.0999999940395},{""stimulus"":""run_exp/static/images/task_images/rocket-08.jpg"",""time"":7533.399999991059},{""stimulus"":""run_exp/static/images/task_images/rocket-09.jpg"",""time"":8609.79999999702}]",[],5,,,,,,,,,,,,,,
alien_welcome,99,449346,0.0-31.0-1.0,"""event"",""trial"",""time""
""fullscreenenter"",""1"",""3591""
","
","
","""event"",""trial"",""time""
""fullscreenenter"",""1"",""3591""
","
",,null,run_exp/static/images/task_images/aliens/old_aliens/planet/alien_planet-57.jpg,null,,,,,,,,,,,,,57,"50,53,18,51,59,57,7,12,13,17,72,67,22,46,10,38,2,69,40,29,75,24,21,68,43,64,33,6,41,60,30,71,36,55,61,73,49,66,3,28,70,31,45,19,20,56,14,15,8,1,76,32,63,37",,,,,,,,,,
land,100,449849,0.0-31.0-2.0,"""event"",""trial"",""time""
""fullscreenenter"",""1"",""3591""
","
","
","""event"",""trial"",""time""
""fullscreenenter"",""1"",""3591""
","
",,null,run_exp/static/images/task_images/land.jpg,null,,,,,,,98,,,6,,,,,,,,,,,,,,
dig,101,451855,0.0-31.0-3.0,"""event"",""trial"",""time""
""fullscreenenter"",""1"",""3591""
","
","
","""event"",""trial"",""time""
""fullscreenenter"",""1"",""3591""
","
",,,,,,,,,,,,"[{""stimulus"":""run_exp/static/images/task_images/dig.jpg"",""time"":0.5999999940395355},{""stimulus"":""run_exp/static/images/task_images/land.jpg"",""time"":669.5},{""stimulus"":""run_exp/static/images/task_images/dig.jpg"",""time"":1337.3999999910593}]",[],6,,,,,,,,,,,,,,
harvest,102,452858,0.0-31.0-4.0,"""event"",""trial"",""time""
""fullscreenenter"",""1"",""3591""
","
","
","""event"",""trial"",""time""
""fullscreenenter"",""1"",""3591""
","
",,null,run_exp/static/images/task_images/gems/98.jpg,null,,,,,,,79,,,6,,,,,98,0.802134342,0.806122449,,,,,,,
decision,103,453255,0.0-31.0-5.0,"""event"",""trial"",""time""
""fullscreenenter"",""1"",""3591""
","
","
","""event"",""trial"",""time""
""fullscreenenter"",""1"",""3591""
","
",,394.7,run_exp/static/images/task_images/land.jpg,65,,,,,,,79,,,6,,,,,,,,113520,1,0,FALSE,,,
dig,104,455868,0.0-32.0-0.0,"""event"",""trial"",""time""
""fullscreenenter"",""1"",""3591""
","
","
","""event"",""trial"",""time""
""fullscreenenter"",""1"",""3591""
","
",,,,,,,,,,,,"[{""stimulus"":""run_exp/static/images/task_images/dig.jpg"",""time"":0.4000000059604645},{""stimulus"":""run_exp/static/images/task_images/land.jpg"",""time"":870.4000000059605},{""stimulus"":""run_exp/static/images/task_images/dig.jpg"",""time"":1737.7000000029802}]",[],6,,,,,,,,,,,,,,
harvest,105,456870,0.0-32.0-1.0,"""event"",""trial"",""time""
""fullscreenenter"",""1"",""3591""
","
","
","""event"",""trial"",""time""
""fullscreenenter"",""1"",""3591""
","
",,null,run_exp/static/images/task_images/gems/79.jpg,null,,,,,,,59,,,6,,,,,79,0.751835743,0.746835443,,,,,,,
decision,106,457176,0.0-32.0-2.0,"""event"",""trial"",""time""
""fullscreenenter"",""1"",""3591""
","
","
","""event"",""trial"",""time""
""fullscreenenter"",""1"",""3591""
","
",,304.3,run_exp/static/images/task_images/land.jpg,76,,,,,,,59,,,6,,,,,,,,117441,1,1,TRUE,,,
travel,107,466877,0.0-33.0-0.0,"""event"",""trial"",""time""
""fullscreenenter"",""1"",""3591""
","
","
","""event"",""trial"",""time""
""fullscreenenter"",""1"",""3591""
","
",,,,,,,,,,,,"[{""stimulus"":""run_exp/static/images/task_images/rocket-01.jpg"",""time"":0.3999999910593033},{""stimulus"":""run_exp/static/images/task_images/rocket-02.jpg"",""time"":1078.5999999940395},{""stimulus"":""run_exp/static/images/task_images/rocket-03.jpg"",""time"":2155.7000000029802},{""stimulus"":""run_exp/static/images/task_images/rocket-04.jpg"",""time"":3233.3999999910593},{""stimulus"":""run_exp/static/images/task_images/rocket-05.jpg"",""time"":4310.0999999940395},{""stimulus"":""run_exp/static/images/task_images/rocket-06.jpg"",""time"":5386.5999999940395},{""stimulus"":""run_exp/static/images/task_images/rocket-07.jpg"",""time"":6464.5},{""stimulus"":""run_exp/static/images/task_images/rocket-08.jpg"",""time"":7541.399999991059},{""stimulus"":""run_exp/static/images/task_images/rocket-09.jpg"",""time"":8618}]",[],6,,,,,,,,,,,,,,
alien_welcome,108,471879,0.0-33.0-1.0,"""event"",""trial"",""time""
""fullscreenenter"",""1"",""3591""
","
","
","""event"",""trial"",""time""
""fullscreenenter"",""1"",""3591""
","
",,null,run_exp/static/images/task_images/aliens/old_aliens/planet/alien_planet-7.jpg,null,,,,,,,,,,,,,7,"50,53,18,51,59,57,7,12,13,17,72,67,22,46,10,38,2,69,40,29,75,24,21,68,43,64,33,6,41,60,30,71,36,55,61,73,49,66,3,28,70,31,45,19,20,56,14,15,8,1,76,32,63,37",,,,,,,,,,
land,109,472382,0.0-33.0-2.0,"""event"",""trial"",""time""
""fullscreenenter"",""1"",""3591""
","
","
","""event"",""trial"",""time""
""fullscreenenter"",""1"",""3591""
","
",,null,run_exp/static/images/task_images/land.jpg,null,,,,,,,91,,,7,,,,,,,,,,,,,,
dig,110,474386,0.0-33.0-3.0,"""event"",""trial"",""time""
""fullscreenenter"",""1"",""3591""
","
","
","""event"",""trial"",""time""
""fullscreenenter"",""1"",""3591""
","
",,,,,,,,,,,,"[{""stimulus"":""run_exp/static/images/task_images/dig.jpg"",""time"":0.29999999701976776},{""stimulus"":""run_exp/static/images/task_images/land.jpg"",""time"":669.2000000029802},{""stimulus"":""run_exp/static/images/task_images/dig.jpg"",""time"":1336.2999999970198}]",[],7,,,,,,,,,,,,,,
harvest,111,475388,0.0-33.0-4.0,"""event"",""trial"",""time""
""fullscreenenter"",""1"",""3591""
","
","
","""event"",""trial"",""time""
""fullscreenenter"",""1"",""3591""
","
",,null,run_exp/static/images/task_images/gems/91.jpg,null,,,,,,,51,,,7,,,,,91,0.555645,0.56043956,,,,,,,
decision,112,475998,0.0-33.0-5.0,"""event"",""trial"",""time""
""fullscreenenter"",""1"",""3591""
","
","
","""event"",""trial"",""time""
""fullscreenenter"",""1"",""3591""
","
",,608.8,run_exp/static/images/task_images/land.jpg,65,,,,,,,51,,,7,,,,,,,,136264,1,0,FALSE,,,
dig,113,478396,0.0-34.0-0.0,"""event"",""trial"",""time""
""fullscreenenter"",""1"",""3591""
","
","
","""event"",""trial"",""time""
""fullscreenenter"",""1"",""3591""
","
",,,,,,,,,,,,"[{""stimulus"":""run_exp/static/images/task_images/dig.jpg"",""time"":0.09999999403953552},{""stimulus"":""run_exp/static/images/task_images/land.jpg"",""time"":798.5},{""stimulus"":""run_exp/static/images/task_images/dig.jpg"",""time"":1595.0999999940395}]",[],7,,,,,,,,,,,,,,
harvest,114,479398,0.0-34.0-1.0,"""event"",""trial"",""time""
""fullscreenenter"",""1"",""3591""
","
","
","""event"",""trial"",""time""
""fullscreenenter"",""1"",""3591""
","
",,null,run_exp/static/images/task_images/gems/51.jpg,null,,,,,,,39,,,7,,,,,51,0.761149362,0.764705882,,,,,,,
decision,115,479599,0.0-34.0-2.0,"""event"",""trial"",""time""
""fullscreenenter"",""1"",""3591""
","
","
","""event"",""trial"",""time""
""fullscreenenter"",""1"",""3591""
","
",,198.7,run_exp/static/images/task_images/land.jpg,76,,,,,,,39,,,7,,,,,,,,139864,1,1,TRUE,,,
travel,116,489409,0.0-35.0-0.0,"""event"",""trial"",""time""
""fullscreenenter"",""1"",""3591""
","
","
","""event"",""trial"",""time""
""fullscreenenter"",""1"",""3591""
","
",,,,,,,,,,,,"[{""stimulus"":""run_exp/static/images/task_images/rocket-01.jpg"",""time"":0.5},{""stimulus"":""run_exp/static/images/task_images/rocket-02.jpg"",""time"":1090.7999999970198},{""stimulus"":""run_exp/static/images/task_images/rocket-03.jpg"",""time"":2180.7999999970198},{""stimulus"":""run_exp/static/images/task_images/rocket-04.jpg"",""time"":3269.2000000029802},{""stimulus"":""run_exp/static/images/task_images/rocket-05.jpg"",""time"":4358.399999991059},{""stimulus"":""run_exp/static/images/task_images/rocket-06.jpg"",""time"":5446.399999991059},{""stimulus"":""run_exp/static/images/task_images/rocket-07.jpg"",""time"":6536.70000000298},{""stimulus"":""run_exp/static/images/task_images/rocket-08.jpg"",""time"":7625.899999991059},{""stimulus"":""run_exp/static/images/task_images/rocket-09.jpg"",""time"":8713.79999999702}]",[],7,,,,,,,,,,,,,,
alien_welcome,117,494412,0.0-35.0-1.0,"""event"",""trial"",""time""
""fullscreenenter"",""1"",""3591""
","
","
","""event"",""trial"",""time""
""fullscreenenter"",""1"",""3591""
","
",,null,run_exp/static/images/task_images/aliens/old_aliens/planet/alien_planet-12.jpg,null,,,,,,,,,,,,,12,"50,53,18,51,59,57,7,12,13,17,72,67,22,46,10,38,2,69,40,29,75,24,21,68,43,64,33,6,41,60,30,71,36,55,61,73,49,66,3,28,70,31,45,19,20,56,14,15,8,1,76,32,63,37",,,,,,,,,,
land,118,494915,0.0-35.0-2.0,"""event"",""trial"",""time""
""fullscreenenter"",""1"",""3591""
","
","
","""event"",""trial"",""time""
""fullscreenenter"",""1"",""3591""
","
",,null,run_exp/static/images/task_images/land.jpg,null,,,,,,,97,,,8,,,,,,,,,,,,,,
dig,119,496919,0.0-35.0-3.0,"""event"",""trial"",""time""
""fullscreenenter"",""1"",""3591""
","
","
","""event"",""trial"",""time""
""fullscreenenter"",""1"",""3591""
","
",,,,,,,,,,,,"[{""stimulus"":""run_exp/static/images/task_images/dig.jpg"",""time"":0.5},{""stimulus"":""run_exp/static/images/task_images/land.jpg"",""time"":669.8999999910593},{""stimulus"":""run_exp/static/images/task_images/dig.jpg"",""time"":1336.3999999910593}]",[],8,,,,,,,,,,,,,,
harvest,120,497921,0.0-35.0-4.0,"""event"",""trial"",""time""
""fullscreenenter"",""1"",""3591""
","
","
","""event"",""trial"",""time""
""fullscreenenter"",""1"",""3591""
","
",,null,run_exp/static/images/task_images/gems/97.jpg,null,,,,,,,82,,,8,,,,,97,0.848008641,0.845360825,,,,,,,
decision,121,498271,0.0-35.0-5.0,"""event"",""trial"",""time""
""fullscreenenter"",""1"",""3591""
","
","
","""event"",""trial"",""time""
""fullscreenenter"",""1"",""3591""
","
",,347.8,run_exp/static/images/task_images/land.jpg,65,,,,,,,82,,,8,,,,,,,,158536,1,0,FALSE,,,
dig,122,500932,0.0-36.0-0.0,"""event"",""trial"",""time""
""fullscreenenter"",""1"",""3591""
","
","
","""event"",""trial"",""time""
""fullscreenenter"",""1"",""3591""
","
",,,,,,,,,,,,"[{""stimulus"":""run_exp/static/images/task_images/dig.jpg"",""time"":0.4000000059604645},{""stimulus"":""run_exp/static/images/task_images/land.jpg"",""time"":894.7000000029802},{""stimulus"":""run_exp/static/images/task_images/dig.jpg"",""time"":1778.1000000089407}]",[],8,,,,,,,,,,,,,,
harvest,123,501935,0.0-36.0-1.0,"""event"",""trial"",""time""
""fullscreenenter"",""1"",""3591""
","
","
","""event"",""trial"",""time""
""fullscreenenter"",""1"",""3591""
","
",,null,run_exp/static/images/task_images/gems/82.jpg,null,,,,,,,67,,,8,,,,,82,0.813356029,0.817073171,,,,,,,
decision,124,503271,0.0-36.0-2.0,"""event"",""trial"",""time""
""fullscreenenter"",""1"",""3591""
","
","
","""event"",""trial"",""time""
""fullscreenenter"",""1"",""3591""
","
",,1334.1,run_exp/static/images/task_images/land.jpg,65,,,,,,,67,,,8,,,,,,,,163536,1,1,FALSE,,,
dig,125,504956,0.0-37.0-0.0,"""event"",""trial"",""time""
""fullscreenenter"",""1"",""3591""
","
","
","""event"",""trial"",""time""
""fullscreenenter"",""1"",""3591""
","
",,,,,,,,,,,,"[{""stimulus"":""run_exp/static/images/task_images/dig.jpg"",""time"":0.5},{""stimulus"":""run_exp/static/images/task_images/land.jpg"",""time"":556.6999999880791},{""stimulus"":""run_exp/static/images/task_images/dig.jpg"",""time"":1112.5}]",[],8,,,,,,,,,,,,,,
harvest,126,505958,0.0-37.0-1.0,"""event"",""trial"",""time""
""fullscreenenter"",""1"",""3591""
","
","
","""event"",""trial"",""time""
""fullscreenenter"",""1"",""3591""
","
",,null,run_exp/static/images/task_images/gems/67.jpg,null,,,,,,,52,,,8,,,,,67,0.771638266,0.776119403,,,,,,,
decision,127,506183,0.0-37.0-2.0,"""event"",""trial"",""time""
""fullscreenenter"",""1"",""3591""
","
","
","""event"",""trial"",""time""
""fullscreenenter"",""1"",""3591""
","
",,223,run_exp/static/images/task_images/land.jpg,76,,,,,,,52,,,8,,,,,,,,166449,1,2,TRUE,,,
travel,128,515967,0.0-38.0-0.0,"""event"",""trial"",""time""
""fullscreenenter"",""1"",""3591""
","
","
","""event"",""trial"",""time""
""fullscreenenter"",""1"",""3591""
","
",,,,,,,,,,,,"[{""stimulus"":""run_exp/static/images/task_images/rocket-01.jpg"",""time"":0.5},{""stimulus"":""run_exp/static/images/task_images/rocket-02.jpg"",""time"":1087.7000000029802},{""stimulus"":""run_exp/static/images/task_images/rocket-03.jpg"",""time"":2176.9000000059605},{""stimulus"":""run_exp/static/images/task_images/rocket-04.jpg"",""time"":3261.2000000029802},{""stimulus"":""run_exp/static/images/task_images/rocket-05.jpg"",""time"":4346.5999999940395},{""stimulus"":""run_exp/static/images/task_images/rocket-06.jpg"",""time"":5432.29999999702},{""stimulus"":""run_exp/static/images/task_images/rocket-07.jpg"",""time"":6526.5},{""stimulus"":""run_exp/static/images/task_images/rocket-08.jpg"",""time"":7604.4000000059605},{""stimulus"":""run_exp/static/images/task_images/rocket-09.jpg"",""time"":8690.09999999404}]",[],8,,,,,,,,,,,,,,
alien_welcome,129,520970,0.0-38.0-1.0,"""event"",""trial"",""time""
""fullscreenenter"",""1"",""3591""
","
","
","""event"",""trial"",""time""
""fullscreenenter"",""1"",""3591""
","
",,null,run_exp/static/images/task_images/aliens/old_aliens/planet/alien_planet-13.jpg,null,,,,,,,,,,,,,13,"50,53,18,51,59,57,7,12,13,17,72,67,22,46,10,38,2,69,40,29,75,24,21,68,43,64,33,6,41,60,30,71,36,55,61,73,49,66,3,28,70,31,45,19,20,56,14,15,8,1,76,32,63,37",,,,,,,,,,
land,130,521473,0.0-38.0-2.0,"""event"",""trial"",""time""
""fullscreenenter"",""1"",""3591""
","
","
","""event"",""trial"",""time""
""fullscreenenter"",""1"",""3591""
","
",,null,run_exp/static/images/task_images/land.jpg,null,,,,,,,103,,,9,,,,,,,,,,,,,,
dig,131,523479,0.0-38.0-3.0,"""event"",""trial"",""time""
""fullscreenenter"",""1"",""3591""
","
","
","""event"",""trial"",""time""
""fullscreenenter"",""1"",""3591""
","
",,,,,,,,,,,,"[{""stimulus"":""run_exp/static/images/task_images/dig.jpg"",""time"":0.5999999940395355},{""stimulus"":""run_exp/static/images/task_images/land.jpg"",""time"":669.0999999940395},{""stimulus"":""run_exp/static/images/task_images/dig.jpg"",""time"":1336}]",[],9,,,,,,,,,,,,,,
harvest,132,524481,0.0-38.0-4.0,"""event"",""trial"",""time""
""fullscreenenter"",""1"",""3591""
","
","
","""event"",""trial"",""time""
""fullscreenenter"",""1"",""3591""
","
",,null,run_exp/static/images/task_images/gems/103.jpg,null,,,,,,,26,,,9,,,,,103,0.250280894,0.252427184,,,,,,,
decision,133,524542,0.0-38.0-5.0,"""event"",""trial"",""time""
""fullscreenenter"",""1"",""3591""
","
","
","""event"",""trial"",""time""
""fullscreenenter"",""1"",""3591""
","
",,57.8,run_exp/static/images/task_images/land.jpg,65,,,,,,,26,,,9,,,,,,,,184807,1,0,FALSE,,,
dig,134,527497,0.0-39.0-0.0,"""event"",""trial"",""time""
""fullscreenenter"",""1"",""3591""
","
","
","""event"",""trial"",""time""
""fullscreenenter"",""1"",""3591""
","
",,,,,,,,,,,,"[{""stimulus"":""run_exp/static/images/task_images/dig.jpg"",""time"":0.20000000298023224},{""stimulus"":""run_exp/static/images/task_images/land.jpg"",""time"":981.7000000029802},{""stimulus"":""run_exp/static/images/task_images/dig.jpg"",""time"":1961.5}]",[],9,,,,,,,,,,,,,,
harvest,135,528500,0.0-39.0-1.0,"""event"",""trial"",""time""
""fullscreenenter"",""1"",""3591""
","
","
","""event"",""trial"",""time""
""fullscreenenter"",""1"",""3591""
","
",,null,run_exp/static/images/task_images/gems/26.jpg,null,,,,,,,6,,,9,,,,,26,0.220070428,0.230769231,,,,,,,
decision,136,528790,0.0-39.0-2.0,"""event"",""trial"",""time""
""fullscreenenter"",""1"",""3591""
","
","
","""event"",""trial"",""time""
""fullscreenenter"",""1"",""3591""
","
",,288.2,run_exp/static/images/task_images/land.jpg,76,,,,,,,6,,,9,,,,,,,,189055,1,1,TRUE,,,
travel,137,538520,0.0-40.0-0.0,"""event"",""trial"",""time""
""fullscreenenter"",""1"",""3591""
","
","
","""event"",""trial"",""time""
""fullscreenenter"",""1"",""3591""
","
",,,,,,,,,,,,"[{""stimulus"":""run_exp/static/images/task_images/rocket-01.jpg"",""time"":0.20000000298023224},{""stimulus"":""run_exp/static/images/task_images/rocket-02.jpg"",""time"":1082},{""stimulus"":""run_exp/static/images/task_images/rocket-03.jpg"",""time"":2160.9000000059605},{""stimulus"":""run_exp/static/images/task_images/rocket-04.jpg"",""time"":3237.7999999970198},{""stimulus"":""run_exp/static/images/task_images/rocket-05.jpg"",""time"":4318},{""stimulus"":""run_exp/static/images/task_images/rocket-06.jpg"",""time"":5396.20000000298},{""stimulus"":""run_exp/static/images/task_images/rocket-07.jpg"",""time"":6475.9000000059605},{""stimulus"":""run_exp/static/images/task_images/rocket-08.jpg"",""time"":7554.5},{""stimulus"":""run_exp/static/images/task_images/rocket-09.jpg"",""time"":8634.40000000596}]",[],9,,,,,,,,,,,,,,
alien_welcome,138,543523,0.0-40.0-1.0,"""event"",""trial"",""time""
""fullscreenenter"",""1"",""3591""
","
","
","""event"",""trial"",""time""
""fullscreenenter"",""1"",""3591""
","
",,null,run_exp/static/images/task_images/aliens/old_aliens/planet/alien_planet-17.jpg,null,,,,,,,,,,,,,17,"50,53,18,51,59,57,7,12,13,17,72,67,22,46,10,38,2,69,40,29,75,24,21,68,43,64,33,6,41,60,30,71,36,55,61,73,49,66,3,28,70,31,45,19,20,56,14,15,8,1,76,32,63,37",,,,,,,,,,
land,139,544026,0.0-40.0-2.0,"""event"",""trial"",""time""
""fullscreenenter"",""1"",""3591""
","
","
","""event"",""trial"",""time""
""fullscreenenter"",""1"",""3591""
","
",,null,run_exp/static/images/task_images/land.jpg,null,,,,,,,90,,,10,,,,,,,,,,,,,,
dig,140,546032,0.0-40.0-3.0,"""event"",""trial"",""time""
""fullscreenenter"",""1"",""3591""
","
","
","""event"",""trial"",""time""
""fullscreenenter"",""1"",""3591""
","
",,,,,,,,,,,,"[{""stimulus"":""run_exp/static/images/task_images/dig.jpg"",""time"":0.4000000059604645},{""stimulus"":""run_exp/static/images/task_images/land.jpg"",""time"":668.5},{""stimulus"":""run_exp/static/images/task_images/dig.jpg"",""time"":1336.4000000059605}]",[],10,,,,,,,,,,,,,,
harvest,141,547034,0.0-40.0-4.0,"""event"",""trial"",""time""
""fullscreenenter"",""1"",""3591""
","
","
","""event"",""trial"",""time""
""fullscreenenter"",""1"",""3591""
","
",,null,run_exp/static/images/task_images/gems/90.jpg,null,,,,,,,30,,,10,,,,,90,0.337912784,0.333333333,,,,,,,
decision,142,547415,0.0-40.0-5.0,"""event"",""trial"",""time""
""fullscreenenter"",""1"",""3591""
","
","
","""event"",""trial"",""time""
""fullscreenenter"",""1"",""3591""
","
",,379.1,run_exp/static/images/task_images/land.jpg,65,,,,,,,30,,,10,,,,,,,,207680,1,0,FALSE,,,
dig,143,550043,0.0-41.0-0.0,"""event"",""trial"",""time""
""fullscreenenter"",""1"",""3591""
","
","
","""event"",""trial"",""time""
""fullscreenenter"",""1"",""3591""
","
",,,,,,,,,,,,"[{""stimulus"":""run_exp/static/images/task_images/dig.jpg"",""time"":0.4000000059604645},{""stimulus"":""run_exp/static/images/task_images/land.jpg"",""time"":874.7000000029802},{""stimulus"":""run_exp/static/images/task_images/dig.jpg"",""time"":1747.5}]",[],10,,,,,,,,,,,,,,
harvest,144,551044,0.0-41.0-1.0,"""event"",""trial"",""time""
""fullscreenenter"",""1"",""3591""
","
","
","""event"",""trial"",""time""
""fullscreenenter"",""1"",""3591""
","
",,null,run_exp/static/images/task_images/gems/30.jpg,null,,,,,,,7,,,10,,,,,30,0.244527847,0.233333333,,,,,,,
decision,145,551166,0.0-41.0-2.0,"""event"",""trial"",""time""
""fullscreenenter"",""1"",""3591""
","
","
","""event"",""trial"",""time""
""fullscreenenter"",""1"",""3591""
","
",,120.9,run_exp/static/images/task_images/land.jpg,76,,,,,,,7,,,10,,,,,,,,211431,1,1,TRUE,,,
travel,146,561045,0.0-42.0-0.0,"""event"",""trial"",""time""
""fullscreenenter"",""1"",""3591""
","
","
","""event"",""trial"",""time""
""fullscreenenter"",""1"",""3591""
","
",,,,,,,,,,,,"[{""stimulus"":""run_exp/static/images/task_images/rocket-01.jpg"",""time"":0.30000001192092896},{""stimulus"":""run_exp/static/images/task_images/rocket-02.jpg"",""time"":1098.800000011921},{""stimulus"":""run_exp/static/images/task_images/rocket-03.jpg"",""time"":2195.800000011921},{""stimulus"":""run_exp/static/images/task_images/rocket-04.jpg"",""time"":3293.800000011921},{""stimulus"":""run_exp/static/images/task_images/rocket-05.jpg"",""time"":4390.100000008941},{""stimulus"":""run_exp/static/images/task_images/rocket-06.jpg"",""time"":5496.5},{""stimulus"":""run_exp/static/images/task_images/rocket-07.jpg"",""time"":6594.20000000298},{""stimulus"":""run_exp/static/images/task_images/rocket-08.jpg"",""time"":7680.600000008941},{""stimulus"":""run_exp/static/images/task_images/rocket-09.jpg"",""time"":8777.5}]",[],10,,,,,,,,,,,,,,
alien_welcome,147,566047,0.0-42.0-1.0,"""event"",""trial"",""time""
""fullscreenenter"",""1"",""3591""
","
","
","""event"",""trial"",""time""
""fullscreenenter"",""1"",""3591""
","
",,null,run_exp/static/images/task_images/aliens/old_aliens/planet/alien_planet-72.jpg,null,,,,,,,,,,,,,72,"50,53,18,51,59,57,7,12,13,17,72,67,22,46,10,38,2,69,40,29,75,24,21,68,43,64,33,6,41,60,30,71,36,55,61,73,49,66,3,28,70,31,45,19,20,56,14,15,8,1,76,32,63,37",,,,,,,,,,
land,148,566550,0.0-42.0-2.0,"""event"",""trial"",""time""
""fullscreenenter"",""1"",""3591""
","
","
","""event"",""trial"",""time""
""fullscreenenter"",""1"",""3591""
","
",,null,run_exp/static/images/task_images/land.jpg,null,,,,,,,112,,,11,,,,,,,,,,,,,,
dig,149,568555,0.0-42.0-3.0,"""event"",""trial"",""time""
""fullscreenenter"",""1"",""3591""
","
","
","""event"",""trial"",""time""
""fullscreenenter"",""1"",""3591""
","
",,,,,,,,,,,,"[{""stimulus"":""run_exp/static/images/task_images/dig.jpg"",""time"":0.30000001192092896},{""stimulus"":""run_exp/static/images/task_images/land.jpg"",""time"":668.8000000119209},{""stimulus"":""run_exp/static/images/task_images/dig.jpg"",""time"":1335.800000011921}]",[],11,,,,,,,,,,,,,,
harvest,150,569558,0.0-42.0-4.0,"""event"",""trial"",""time""
""fullscreenenter"",""1"",""3591""
","
","
","""event"",""trial"",""time""
""fullscreenenter"",""1"",""3591""
","
",,null,run_exp/static/images/task_images/gems/112.jpg,null,,,,,,,24,,,11,,,,,112,0.217191482,0.214285714,,,,,,,
decision,151,570535,0.0-42.0-5.0,"""event"",""trial"",""time""
""fullscreenenter"",""1"",""3591""
","
","
","""event"",""trial"",""time""
""fullscreenenter"",""1"",""3591""
","
",,975.1,run_exp/static/images/task_images/land.jpg,65,,,,,,,24,,,11,,,,,,,,230800,1,0,FALSE,,,
dig,152,572564,0.0-43.0-0.0,"""event"",""trial"",""time""
""fullscreenenter"",""1"",""3591""
","
","
","""event"",""trial"",""time""
""fullscreenenter"",""1"",""3591""
","
",,,,,,,,,,,,"[{""stimulus"":""run_exp/static/images/task_images/dig.jpg"",""time"":0.29999999701976776},{""stimulus"":""run_exp/static/images/task_images/land.jpg"",""time"":677.2000000029802},{""stimulus"":""run_exp/static/images/task_images/dig.jpg"",""time"":1350.4000000059605}]",[],11,,,,,,,,,,,,,,
harvest,153,573567,0.0-43.0-1.0,"""event"",""trial"",""time""
""fullscreenenter"",""1"",""3591""
","
","
","""event"",""trial"",""time""
""fullscreenenter"",""1"",""3591""
","
",,null,run_exp/static/images/task_images/gems/24.jpg,null,,,,,,,5,,,11,,,,,24,0.219766724,0.208333333,,,,,,,
decision,154,573839,0.0-43.0-2.0,"""event"",""trial"",""time""
""fullscreenenter"",""1"",""3591""
","
","
","""event"",""trial"",""time""
""fullscreenenter"",""1"",""3591""
","
",,270.3,run_exp/static/images/task_images/land.jpg,76,,,,,,,5,,,11,,,,,,,,234104,1,1,TRUE,,,
travel,155,583576,0.0-44.0-0.0,"""event"",""trial"",""time""
""fullscreenenter"",""1"",""3591""
","
","
","""event"",""trial"",""time""
""fullscreenenter"",""1"",""3591""
","
",,,,,,,,,,,,"[{""stimulus"":""run_exp/static/images/task_images/rocket-01.jpg"",""time"":0.5},{""stimulus"":""run_exp/static/images/task_images/rocket-02.jpg"",""time"":1082.5999999940395},{""stimulus"":""run_exp/static/images/task_images/rocket-03.jpg"",""time"":2164.2999999970198},{""stimulus"":""run_exp/static/images/task_images/rocket-04.jpg"",""time"":3245.199999988079},{""stimulus"":""run_exp/static/images/task_images/rocket-05.jpg"",""time"":4326.5999999940395},{""stimulus"":""run_exp/static/images/task_images/rocket-06.jpg"",""time"":5407},{""stimulus"":""run_exp/static/images/task_images/rocket-07.jpg"",""time"":6488.199999988079},{""stimulus"":""run_exp/static/images/task_images/rocket-08.jpg"",""time"":7569.5999999940395},{""stimulus"":""run_exp/static/images/task_images/rocket-09.jpg"",""time"":8649.59999999404}]",[],11,,,,,,,,,,,,,,
alien_welcome,156,588578,0.0-44.0-1.0,"""event"",""trial"",""time""
""fullscreenenter"",""1"",""3591""
","
","
","""event"",""trial"",""time""
""fullscreenenter"",""1"",""3591""
","
",,null,run_exp/static/images/task_images/aliens/old_aliens/planet/alien_planet-67.jpg,null,,,,,,,,,,,,,67,"50,53,18,51,59,57,7,12,13,17,72,67,22,46,10,38,2,69,40,29,75,24,21,68,43,64,33,6,41,60,30,71,36,55,61,73,49,66,3,28,70,31,45,19,20,56,14,15,8,1,76,32,63,37",,,,,,,,,,
land,157,589081,0.0-44.0-2.0,"""event"",""trial"",""time""
""fullscreenenter"",""1"",""3591""
","
","
","""event"",""trial"",""time""
""fullscreenenter"",""1"",""3591""
","
",,null,run_exp/static/images/task_images/land.jpg,null,,,,,,,103,,,12,,,,,,,,,,,,,,
dig,158,591087,0.0-44.0-3.0,"""event"",""trial"",""time""
""fullscreenenter"",""1"",""3591""
","
","
","""event"",""trial"",""time""
""fullscreenenter"",""1"",""3591""
","
",,,,,,,,,,,,"[{""stimulus"":""run_exp/static/images/task_images/dig.jpg"",""time"":0.5},{""stimulus"":""run_exp/static/images/task_images/land.jpg"",""time"":669.0999999940395},{""stimulus"":""run_exp/static/images/task_images/dig.jpg"",""time"":1335.5999999940395}]",[],12,,,,,,,,,,,,,,
harvest,159,592088,0.0-44.0-4.0,"""event"",""trial"",""time""
""fullscreenenter"",""1"",""3591""
","
","
","""event"",""trial"",""time""
""fullscreenenter"",""1"",""3591""
","
",,null,run_exp/static/images/task_images/gems/103.jpg,null,,,,,,,16,,,12,,,,,103,0.157949593,0.155339806,,,,,,,
decision,160,592495,0.0-44.0-5.0,"""event"",""trial"",""time""
""fullscreenenter"",""1"",""3591""
","
","
","""event"",""trial"",""time""
""fullscreenenter"",""1"",""3591""
","
",,404.8,run_exp/static/images/task_images/land.jpg,65,,,,,,,16,,,12,,,,,,,,252760,1,0,FALSE,,,
dig,161,595099,0.0-45.0-0.0,"""event"",""trial"",""time""
""fullscreenenter"",""1"",""3591""
","
","
","""event"",""trial"",""time""
""fullscreenenter"",""1"",""3591""
","
",,,,,,,,,,,,"[{""stimulus"":""run_exp/static/images/task_images/dig.jpg"",""time"":0.3999999910593033},{""stimulus"":""run_exp/static/images/task_images/land.jpg"",""time"":866.3999999910593},{""stimulus"":""run_exp/static/images/task_images/dig.jpg"",""time"":1732.7000000029802}]",[],12,,,,,,,,,,,,,,
harvest,162,596102,0.0-45.0-1.0,"""event"",""trial"",""time""
""fullscreenenter"",""1"",""3591""
","
","
","""event"",""trial"",""time""
""fullscreenenter"",""1"",""3591""
","
",,null,run_exp/static/images/task_images/gems/16.jpg,null,,,,,,,4,,,12,,,,,16,0.252757197,0.25,,,,,,,
decision,163,596319,0.0-45.0-2.0,"""event"",""trial"",""time""
""fullscreenenter"",""1"",""3591""
","
","
","""event"",""trial"",""time""
""fullscreenenter"",""1"",""3591""
","
",,215.2,run_exp/static/images/task_images/land.jpg,76,,,,,,,4,,,12,,,,,,,,256584,1,1,TRUE,,,
travel,164,606113,0.0-46.0-0.0,"""event"",""trial"",""time""
""fullscreenenter"",""1"",""3591""
","
","
","""event"",""trial"",""time""
""fullscreenenter"",""1"",""3591""
","
",,,,,,,,,,,,"[{""stimulus"":""run_exp/static/images/task_images/rocket-01.jpg"",""time"":0.6000000089406967},{""stimulus"":""run_exp/static/images/task_images/rocket-02.jpg"",""time"":1090},{""stimulus"":""run_exp/static/images/task_images/rocket-03.jpg"",""time"":2176.9000000059605},{""stimulus"":""run_exp/static/images/task_images/rocket-04.jpg"",""time"":3263.4000000059605},{""stimulus"":""run_exp/static/images/task_images/rocket-05.jpg"",""time"":4350.800000011921},{""stimulus"":""run_exp/static/images/task_images/rocket-06.jpg"",""time"":5438},{""stimulus"":""run_exp/static/images/task_images/rocket-07.jpg"",""time"":6524.800000011921},{""stimulus"":""run_exp/static/images/task_images/rocket-08.jpg"",""time"":7611.70000000298},{""stimulus"":""run_exp/static/images/task_images/rocket-09.jpg"",""time"":8698.40000000596}]",[],12,,,,,,,,,,,,,,
alien_welcome,165,611116,0.0-46.0-1.0,"""event"",""trial"",""time""
""fullscreenenter"",""1"",""3591""
","
","
","""event"",""trial"",""time""
""fullscreenenter"",""1"",""3591""
","
",,null,run_exp/static/images/task_images/aliens/old_aliens/planet/alien_planet-22.jpg,null,,,,,,,,,,,,,22,"50,53,18,51,59,57,7,12,13,17,72,67,22,46,10,38,2,69,40,29,75,24,21,68,43,64,33,6,41,60,30,71,36,55,61,73,49,66,3,28,70,31,45,19,20,56,14,15,8,1,76,32,63,37",,,,,,,,,,
land,166,611619,0.0-46.0-2.0,"""event"",""trial"",""time""
""fullscreenenter"",""1"",""3591""
","
","
","""event"",""trial"",""time""
""fullscreenenter"",""1"",""3591""
","
",,null,run_exp/static/images/task_images/land.jpg,null,,,,,,,100,,,13,,,,,,,,,,,,,,
dig,167,613623,0.0-46.0-3.0,"""event"",""trial"",""time""
""fullscreenenter"",""1"",""3591""
","
","
","""event"",""trial"",""time""
""fullscreenenter"",""1"",""3591""
","
",,,,,,,,,,,,"[{""stimulus"":""run_exp/static/images/task_images/dig.jpg"",""time"":0.29999999701976776},{""stimulus"":""run_exp/static/images/task_images/land.jpg"",""time"":668.2000000029802},{""stimulus"":""run_exp/static/images/task_images/dig.jpg"",""time"":1335.6000000089407}]",[],13,,,,,,,,,,,,,,
harvest,168,614626,0.0-46.0-4.0,"""event"",""trial"",""time""
""fullscreenenter"",""1"",""3591""
","
","
","""event"",""trial"",""time""
""fullscreenenter"",""1"",""3591""
","
",,null,run_exp/static/images/task_images/gems/100.jpg,null,,,,,,,14,,,13,,,,,100,0.141018136,0.14,,,,,,,
decision,169,614976,0.0-46.0-5.0,"""event"",""trial"",""time""
""fullscreenenter"",""1"",""3591""
","
","
","""event"",""trial"",""time""
""fullscreenenter"",""1"",""3591""
","
",,347.9,run_exp/static/images/task_images/land.jpg,65,,,,,,,14,,,13,,,,,,,,275241,1,0,FALSE,,,
dig,170,617636,0.0-47.0-0.0,"""event"",""trial"",""time""
""fullscreenenter"",""1"",""3591""
","
","
","""event"",""trial"",""time""
""fullscreenenter"",""1"",""3591""
","
",,,,,,,,,,,,"[{""stimulus"":""run_exp/static/images/task_images/dig.jpg"",""time"":0.3999999910593033},{""stimulus"":""run_exp/static/images/task_images/land.jpg"",""time"":886.0999999940395},{""stimulus"":""run_exp/static/images/task_images/dig.jpg"",""time"":1769.5}]",[],13,,,,,,,,,,,,,,
harvest,171,618639,0.0-47.0-1.0,"""event"",""trial"",""time""
""fullscreenenter"",""1"",""3591""
","
","
","""event"",""trial"",""time""
""fullscreenenter"",""1"",""3591""
","
",,null,run_exp/static/images/task_images/gems/14.jpg,null,,,,,,,3,,,13,,,,,14,0.231863889,0.214285714,,,,,,,
decision,172,618855,0.0-47.0-2.0,"""event"",""trial"",""time""
""fullscreenenter"",""1"",""3591""
","
","
","""event"",""trial"",""time""
""fullscreenenter"",""1"",""3591""
","
",,213.9,run_exp/static/images/task_images/land.jpg,76,,,,,,,3,,,13,,,,,,,,279120,1,1,TRUE,,,
travel,173,628648,0.0-48.0-0.0,"""event"",""trial"",""time""
""fullscreenenter"",""1"",""3591""
","
","
","""event"",""trial"",""time""
""fullscreenenter"",""1"",""3591""
","
",,,,,,,,,,,,"[{""stimulus"":""run_exp/static/images/task_images/rocket-01.jpg"",""time"":0.4000000059604645},{""stimulus"":""run_exp/static/images/task_images/rocket-02.jpg"",""time"":1090.1000000089407},{""stimulus"":""run_exp/static/images/task_images/rocket-03.jpg"",""time"":2175.7000000029802},{""stimulus"":""run_exp/static/images/task_images/rocket-04.jpg"",""time"":3264.2000000029802},{""stimulus"":""run_exp/static/images/task_images/rocket-05.jpg"",""time"":4350},{""stimulus"":""run_exp/static/images/task_images/rocket-06.jpg"",""time"":5437.800000011921},{""stimulus"":""run_exp/static/images/task_images/rocket-07.jpg"",""time"":6524.5},{""stimulus"":""run_exp/static/images/task_images/rocket-08.jpg"",""time"":7611.20000000298},{""stimulus"":""run_exp/static/images/task_images/rocket-09.jpg"",""time"":8698.40000000596}]",[],13,,,,,,,,,,,,,,
alien_welcome,174,633652,0.0-48.0-1.0,"""event"",""trial"",""time""
""fullscreenenter"",""1"",""3591""
","
","
","""event"",""trial"",""time""
""fullscreenenter"",""1"",""3591""
","
",,null,run_exp/static/images/task_images/aliens/old_aliens/planet/alien_planet-46.jpg,null,,,,,,,,,,,,,46,"50,53,18,51,59,57,7,12,13,17,72,67,22,46,10,38,2,69,40,29,75,24,21,68,43,64,33,6,41,60,30,71,36,55,61,73,49,66,3,28,70,31,45,19,20,56,14,15,8,1,76,32,63,37",,,,,,,,,,
land,175,634155,0.0-48.0-2.0,"""event"",""trial"",""time""
""fullscreenenter"",""1"",""3591""
","
","
","""event"",""trial"",""time""
""fullscreenenter"",""1"",""3591""
","
",,null,run_exp/static/images/task_images/land.jpg,null,,,,,,,99,,,14,,,,,,,,,,,,,,
dig,176,636160,0.0-48.0-3.0,"""event"",""trial"",""time""
""fullscreenenter"",""1"",""3591""
","
","
","""event"",""trial"",""time""
""fullscreenenter"",""1"",""3591""
","
",,,,,,,,,,,,"[{""stimulus"":""run_exp/static/images/task_images/dig.jpg"",""time"":0.5},{""stimulus"":""run_exp/static/images/task_images/land.jpg"",""time"":669.7000000029802},{""stimulus"":""run_exp/static/images/task_images/dig.jpg"",""time"":1336.7999999970198}]",[],14,,,,,,,,,,,,,,
harvest,177,637164,0.0-48.0-4.0,"""event"",""trial"",""time""
""fullscreenenter"",""1"",""3591""
","
","
","""event"",""trial"",""time""
""fullscreenenter"",""1"",""3591""
","
",,null,run_exp/static/images/task_images/gems/99.jpg,null,,,,,,,75,,,14,,,,,99,0.75371196,0.757575758,,,,,,,
decision,178,637519,0.0-48.0-5.0,"""event"",""trial"",""time""
""fullscreenenter"",""1"",""3591""
","
","
","""event"",""trial"",""time""
""fullscreenenter"",""1"",""3591""
","
",,353.3,run_exp/static/images/task_images/land.jpg,65,,,,,,,75,,,14,,,,,,,,297784,1,0,FALSE,,,
dig,179,640174,0.0-49.0-0.0,"""event"",""trial"",""time""
""fullscreenenter"",""1"",""3591""
","
","
","""event"",""trial"",""time""
""fullscreenenter"",""1"",""3591""
","
",,,,,,,,,,,,"[{""stimulus"":""run_exp/static/images/task_images/dig.jpg"",""time"":0.4000000059604645},{""stimulus"":""run_exp/static/images/task_images/land.jpg"",""time"":894.0999999940395},{""stimulus"":""run_exp/static/images/task_images/dig.jpg"",""time"":1766.7999999970198}]",[],14,,,,,,,,,,,,,,
harvest,180,641176,0.0-49.0-1.0,"""event"",""trial"",""time""
""fullscreenenter"",""1"",""3591""
","
","
","""event"",""trial"",""time""
""fullscreenenter"",""1"",""3591""
","
",,null,run_exp/static/images/task_images/gems/75.jpg,null,,,,,,,55,,,14,,,,,75,0.735782082,0.733333333,,,,,,,
decision,181,641631,0.0-49.0-2.0,"""event"",""trial"",""time""
""fullscreenenter"",""1"",""3591""
","
","
","""event"",""trial"",""time""
""fullscreenenter"",""1"",""3591""
","
",,453.9,run_exp/static/images/task_images/land.jpg,76,,,,,,,55,,,14,,,,,,,,301896,1,1,TRUE,,,
end_of_block_continue,182,646134,0.0-50.0-0.0,"""event"",""trial"",""time""
""fullscreenenter"",""1"",""3591""
","
","
","""event"",""trial"",""time""
""fullscreenenter"",""1"",""3591""
","
",,4497.5,run_exp/static/audio/clip_32_block_end.m4a,,,,,,,0,,,,,,,,,,,,,,,,,,
alien_welcome,183,651137,0.0-51.0-0.0,"""event"",""trial"",""time""
""fullscreenenter"",""1"",""3591""
","
","
","""event"",""trial"",""time""
""fullscreenenter"",""1"",""3591""
","
",,null,run_exp/static/images/task_images/aliens/old_aliens/planet/alien_planet-10.jpg,null,,,,,,,,,,,,,10,"50,53,18,51,59,57,7,12,13,17,72,67,22,46,10,38,2,69,40,29,75,24,21,68,43,64,33,6,41,60,30,71,36,55,61,73,49,66,3,28,70,31,45,19,20,56,14,15,8,1,76,32,63,37",,,,,,,,,,
land,184,651640,0.0-51.0-1.0,"""event"",""trial"",""time""
""fullscreenenter"",""1"",""3591""
","
","
","""event"",""trial"",""time""
""fullscreenenter"",""1"",""3591""
","
",,null,run_exp/static/images/task_images/land.jpg,null,,,,,,,105,,,15,,,,,,,,,,,,,,
dig,185,653646,0.0-51.0-2.0,"""event"",""trial"",""time""
""fullscreenenter"",""1"",""3591""
","
","
","""event"",""trial"",""time""
""fullscreenenter"",""1"",""3591""
","
",,,,,,,,,,,,"[{""stimulus"":""run_exp/static/images/task_images/dig.jpg"",""time"":0.5},{""stimulus"":""run_exp/static/images/task_images/land.jpg"",""time"":669.5},{""stimulus"":""run_exp/static/images/task_images/dig.jpg"",""time"":1336.800000011921}]",[],15,,,,,,,,,,,,,,
harvest,186,654648,0.0-51.0-3.0,"""event"",""trial"",""time""
""fullscreenenter"",""1"",""3591""
","
","
","""event"",""trial"",""time""
""fullscreenenter"",""1"",""3591""
","
",,null,run_exp/static/images/task_images/gems/105.jpg,null,,,,,,,23,,,15,,,,,105,0.216016334,0.219047619,,,,,,,
decision,187,655215,0.0-51.0-4.0,"""event"",""trial"",""time""
""fullscreenenter"",""1"",""3591""
","
","
","""event"",""trial"",""time""
""fullscreenenter"",""1"",""3591""
","
",,565.1,run_exp/static/images/task_images/land.jpg,65,,,,,,,23,,,15,,,,,,,,9079,2,0,FALSE,,,
dig,188,657658,0.0-52.0-0.0,"""event"",""trial"",""time""
""fullscreenenter"",""1"",""3591""
","
","
","""event"",""trial"",""time""
""fullscreenenter"",""1"",""3591""
","
",,,,,,,,,,,,"[{""stimulus"":""run_exp/static/images/task_images/dig.jpg"",""time"":0.4000000059604645},{""stimulus"":""run_exp/static/images/task_images/land.jpg"",""time"":813.3000000119209},{""stimulus"":""run_exp/static/images/task_images/dig.jpg"",""time"":1623.6000000089407}]",[],15,,,,,,,,,,,,,,
harvest,189,658660,0.0-52.0-1.0,"""event"",""trial"",""time""
""fullscreenenter"",""1"",""3591""
","
","
","""event"",""trial"",""time""
""fullscreenenter"",""1"",""3591""
","
",,null,run_exp/static/images/task_images/gems/23.jpg,null,,,,,,,6,,,15,,,,,23,0.250094049,0.260869565,,,,,,,
decision,190,658839,0.0-52.0-2.0,"""event"",""trial"",""time""
""fullscreenenter"",""1"",""3591""
","
","
","""event"",""trial"",""time""
""fullscreenenter"",""1"",""3591""
","
",,177.9,run_exp/static/images/task_images/land.jpg,76,,,,,,,6,,,15,,,,,,,,12703,2,1,TRUE,,,
travel,191,668664,0.0-53.0-0.0,"""event"",""trial"",""time""
""fullscreenenter"",""1"",""3591""
","
","
","""event"",""trial"",""time""
""fullscreenenter"",""1"",""3591""
","
",,,,,,,,,,,,"[{""stimulus"":""run_exp/static/images/task_images/rocket-01.jpg"",""time"":0.30000001192092896},{""stimulus"":""run_exp/static/images/task_images/rocket-02.jpg"",""time"":1093},{""stimulus"":""run_exp/static/images/task_images/rocket-03.jpg"",""time"":2183.4000000059605},{""stimulus"":""run_exp/static/images/task_images/rocket-04.jpg"",""time"":3274.6000000089407},{""stimulus"":""run_exp/static/images/task_images/rocket-05.jpg"",""time"":4366.100000008941},{""stimulus"":""run_exp/static/images/task_images/rocket-06.jpg"",""time"":5456.800000011921},{""stimulus"":""run_exp/static/images/task_images/rocket-07.jpg"",""time"":6547.9000000059605},{""stimulus"":""run_exp/static/images/task_images/rocket-08.jpg"",""time"":7638.70000000298},{""stimulus"":""run_exp/static/images/task_images/rocket-09.jpg"",""time"":8729.800000011921}]",[],15,,,,,,,,,,,,,,
alien_welcome,192,673669,0.0-53.0-1.0,"""event"",""trial"",""time""
""fullscreenenter"",""1"",""3591""
","
","
","""event"",""trial"",""time""
""fullscreenenter"",""1"",""3591""
","
",,null,run_exp/static/images/task_images/aliens/old_aliens/planet/alien_planet-38.jpg,null,,,,,,,,,,,,,38,"50,53,18,51,59,57,7,12,13,17,72,67,22,46,10,38,2,69,40,29,75,24,21,68,43,64,33,6,41,60,30,71,36,55,61,73,49,66,3,28,70,31,45,19,20,56,14,15,8,1,76,32,63,37",,,,,,,,,,
land,193,674172,0.0-53.0-2.0,"""event"",""trial"",""time""
""fullscreenenter"",""1"",""3591""
","
","
","""event"",""trial"",""time""
""fullscreenenter"",""1"",""3591""
","
",,null,run_exp/static/images/task_images/land.jpg,null,,,,,,,102,,,16,,,,,,,,,,,,,,
dig,194,676176,0.0-53.0-3.0,"""event"",""trial"",""time""
""fullscreenenter"",""1"",""3591""
","
","
","""event"",""trial"",""time""
""fullscreenenter"",""1"",""3591""
","
",,,,,,,,,,,,"[{""stimulus"":""run_exp/static/images/task_images/dig.jpg"",""time"":0.30000001192092896},{""stimulus"":""run_exp/static/images/task_images/land.jpg"",""time"":668.9000000059605},{""stimulus"":""run_exp/static/images/task_images/dig.jpg"",""time"":1335.300000011921}]",[],16,,,,,,,,,,,,,,
harvest,195,677179,0.0-53.0-4.0,"""event"",""trial"",""time""
""fullscreenenter"",""1"",""3591""
","
","
","""event"",""trial"",""time""
""fullscreenenter"",""1"",""3591""
","
",,null,run_exp/static/images/task_images/gems/102.jpg,null,,,,,,,26,,,16,,,,,102,0.251862159,0.254901961,,,,,,,
decision,196,680063,0.0-53.0-5.0,"""event"",""trial"",""time""
""fullscreenenter"",""1"",""3591""
","
","
","""event"",""trial"",""time""
""fullscreenenter"",""1"",""3591""
","
",,2882.4,run_exp/static/images/task_images/land.jpg,65,,,,,,,26,,,16,,,,,,,,33928,2,0,FALSE,,,
dig,197,680190,0.0-54.0-0.0,"""event"",""trial"",""time""
""fullscreenenter"",""1"",""3591""
","
","
","""event"",""trial"",""time""
""fullscreenenter"",""1"",""3591""
","
",,,,,,,,,,,,"[{""stimulus"":""run_exp/static/images/task_images/dig.jpg"",""time"":0.29999999701976776},{""stimulus"":""run_exp/static/images/task_images/land.jpg"",""time"":41.70000000298023},{""stimulus"":""run_exp/static/images/task_images/dig.jpg"",""time"":80.3999999910593}]",[],16,,,,,,,,,,,,,,
harvest,198,681193,0.0-54.0-1.0,"""event"",""trial"",""time""
""fullscreenenter"",""1"",""3591""
","
","
","""event"",""trial"",""time""
""fullscreenenter"",""1"",""3591""
","
",,null,run_exp/static/images/task_images/gems/26.jpg,null,,,,,,,5,,,16,,,,,26,0.178039311,0.192307692,,,,,,,
decision,199,681526,0.0-54.0-2.0,"""event"",""trial"",""time""
""fullscreenenter"",""1"",""3591""
","
","
","""event"",""trial"",""time""
""fullscreenenter"",""1"",""3591""
","
",,331.4,run_exp/static/images/task_images/land.jpg,76,,,,,,,5,,,16,,,,,,,,35390,2,1,TRUE,,,
travel,200,691197,0.0-55.0-0.0,"""event"",""trial"",""time""
""fullscreenenter"",""1"",""3591""
","
","
","""event"",""trial"",""time""
""fullscreenenter"",""1"",""3591""
","
",,,,,,,,,,,,"[{""stimulus"":""run_exp/static/images/task_images/rocket-01.jpg"",""time"":0.20000000298023224},{""stimulus"":""run_exp/static/images/task_images/rocket-02.jpg"",""time"":1076},{""stimulus"":""run_exp/static/images/task_images/rocket-03.jpg"",""time"":2149.5999999940395},{""stimulus"":""run_exp/static/images/task_images/rocket-04.jpg"",""time"":3223.9000000059605},{""stimulus"":""run_exp/static/images/task_images/rocket-05.jpg"",""time"":4297.70000000298},{""stimulus"":""run_exp/static/images/task_images/rocket-06.jpg"",""time"":5371.20000000298},{""stimulus"":""run_exp/static/images/task_images/rocket-07.jpg"",""time"":6446.29999999702},{""stimulus"":""run_exp/static/images/task_images/rocket-08.jpg"",""time"":7519.9000000059605},{""stimulus"":""run_exp/static/images/task_images/rocket-09.jpg"",""time"":8594.40000000596}]",[],16,,,,,,,,,,,,,,
alien_welcome,201,696201,0.0-55.0-1.0,"""event"",""trial"",""time""
""fullscreenenter"",""1"",""3591""
","
","
","""event"",""trial"",""time""
""fullscreenenter"",""1"",""3591""
","
",,null,run_exp/static/images/task_images/aliens/old_aliens/planet/alien_planet-2.jpg,null,,,,,,,,,,,,,2,"50,53,18,51,59,57,7,12,13,17,72,67,22,46,10,38,2,69,40,29,75,24,21,68,43,64,33,6,41,60,30,71,36,55,61,73,49,66,3,28,70,31,45,19,20,56,14,15,8,1,76,32,63,37",,,,,,,,,,
land,202,696704,0.0-55.0-2.0,"""event"",""trial"",""time""
""fullscreenenter"",""1"",""3591""
","
","
","""event"",""trial"",""time""
""fullscreenenter"",""1"",""3591""
","
",,null,run_exp/static/images/task_images/land.jpg,null,,,,,,,91,,,17,,,,,,,,,,,,,,
dig,203,698709,0.0-55.0-3.0,"""event"",""trial"",""time""
""fullscreenenter"",""1"",""3591""
","
","
","""event"",""trial"",""time""
""fullscreenenter"",""1"",""3591""
","
",,,,,,,,,,,,"[{""stimulus"":""run_exp/static/images/task_images/dig.jpg"",""time"":0.5},{""stimulus"":""run_exp/static/images/task_images/land.jpg"",""time"":668.6000000089407},{""stimulus"":""run_exp/static/images/task_images/dig.jpg"",""time"":1335.9000000059605}]",[],17,,,,,,,,,,,,,,
harvest,204,699712,0.0-55.0-4.0,"""event"",""trial"",""time""
""fullscreenenter"",""1"",""3591""
","
","
","""event"",""trial"",""time""
""fullscreenenter"",""1"",""3591""
","
",,null,run_exp/static/images/task_images/gems/91.jpg,null,,,,,,,27,,,17,,,,,91,0.298212922,0.296703297,,,,,,,
decision,205,700694,0.0-55.0-5.0,"""event"",""trial"",""time""
""fullscreenenter"",""1"",""3591""
","
","
","""event"",""trial"",""time""
""fullscreenenter"",""1"",""3591""
","
",,979.9,run_exp/static/images/task_images/land.jpg,65,,,,,,,27,,,17,,,,,,,,54558,2,0,FALSE,,,
dig,206,702717,0.0-56.0-0.0,"""event"",""trial"",""time""
""fullscreenenter"",""1"",""3591""
","
","
","""event"",""trial"",""time""
""fullscreenenter"",""1"",""3591""
","
",,,,,,,,,,,,"[{""stimulus"":""run_exp/static/images/task_images/dig.jpg"",""time"":0},{""stimulus"":""run_exp/static/images/task_images/land.jpg"",""time"":673.7999999970198},{""stimulus"":""run_exp/static/images/task_images/dig.jpg"",""time"":1347.8999999910593}]",[],17,,,,,,,,,,,,,,
harvest,207,703719,0.0-56.0-1.0,"""event"",""trial"",""time""
""fullscreenenter"",""1"",""3591""
","
","
","""event"",""trial"",""time""
""fullscreenenter"",""1"",""3591""
","
",,null,run_exp/static/images/task_images/gems/27.jpg,null,,,,,,,6,,,17,,,,,27,0.207361477,0.222222222,,,,,,,
decision,208,703983,0.0-56.0-2.0,"""event"",""trial"",""time""
""fullscreenenter"",""1"",""3591""
","
","
","""event"",""trial"",""time""
""fullscreenenter"",""1"",""3591""
","
",,261.9,run_exp/static/images/task_images/land.jpg,76,,,,,,,6,,,17,,,,,,,,57847,2,1,TRUE,,,
travel,209,713730,0.0-57.0-0.0,"""event"",""trial"",""time""
""fullscreenenter"",""1"",""3591""
","
","
","""event"",""trial"",""time""
""fullscreenenter"",""1"",""3591""
","
",,,,,,,,,,,,"[{""stimulus"":""run_exp/static/images/task_images/rocket-01.jpg"",""time"":0.5},{""stimulus"":""run_exp/static/images/task_images/rocket-02.jpg"",""time"":1084.4000000059605},{""stimulus"":""run_exp/static/images/task_images/rocket-03.jpg"",""time"":2166},{""stimulus"":""run_exp/static/images/task_images/rocket-04.jpg"",""time"":3247.6000000089407},{""stimulus"":""run_exp/static/images/task_images/rocket-05.jpg"",""time"":4330.100000008941},{""stimulus"":""run_exp/static/images/task_images/rocket-06.jpg"",""time"":5412.600000008941},{""stimulus"":""run_exp/static/images/task_images/rocket-07.jpg"",""time"":6493.79999999702},{""stimulus"":""run_exp/static/images/task_images/rocket-08.jpg"",""time"":7575.70000000298},{""stimulus"":""run_exp/static/images/task_images/rocket-09.jpg"",""time"":8657.70000000298}]",[],17,,,,,,,,,,,,,,
alien_welcome,210,718734,0.0-57.0-1.0,"""event"",""trial"",""time""
""fullscreenenter"",""1"",""3591""
","
","
","""event"",""trial"",""time""
""fullscreenenter"",""1"",""3591""
","
",,null,run_exp/static/images/task_images/aliens/old_aliens/planet/alien_planet-69.jpg,null,,,,,,,,,,,,,69,"50,53,18,51,59,57,7,12,13,17,72,67,22,46,10,38,2,69,40,29,75,24,21,68,43,64,33,6,41,60,30,71,36,55,61,73,49,66,3,28,70,31,45,19,20,56,14,15,8,1,76,32,63,37",,,,,,,,,,
land,211,719236,0.0-57.0-2.0,"""event"",""trial"",""time""
""fullscreenenter"",""1"",""3591""
","
","
","""event"",""trial"",""time""
""fullscreenenter"",""1"",""3591""
","
",,null,run_exp/static/images/task_images/land.jpg,null,,,,,,,106,,,18,,,,,,,,,,,,,,
dig,212,721242,0.0-57.0-3.0,"""event"",""trial"",""time""
""fullscreenenter"",""1"",""3591""
","
","
","""event"",""trial"",""time""
""fullscreenenter"",""1"",""3591""
","
",,,,,,,,,,,,"[{""stimulus"":""run_exp/static/images/task_images/dig.jpg"",""time"":0.5},{""stimulus"":""run_exp/static/images/task_images/land.jpg"",""time"":669.5},{""stimulus"":""run_exp/static/images/task_images/dig.jpg"",""time"":1336.8999999910593}]",[],18,,,,,,,,,,,,,,
harvest,213,722245,0.0-57.0-4.0,"""event"",""trial"",""time""
""fullscreenenter"",""1"",""3591""
","
","
","""event"",""trial"",""time""
""fullscreenenter"",""1"",""3591""
","
",,null,run_exp/static/images/task_images/gems/106.jpg,null,,,,,,,81,,,18,,,,,106,0.760273633,0.764150943,,,,,,,
decision,214,723462,0.0-57.0-5.0,"""event"",""trial"",""time""
""fullscreenenter"",""1"",""3591""
","
","
","""event"",""trial"",""time""
""fullscreenenter"",""1"",""3591""
","
",,1215.5,run_exp/static/images/task_images/land.jpg,65,,,,,,,81,,,18,,,,,,,,77326,2,0,FALSE,,,
dig,215,725251,0.0-58.0-0.0,"""event"",""trial"",""time""
""fullscreenenter"",""1"",""3591""
","
","
","""event"",""trial"",""time""
""fullscreenenter"",""1"",""3591""
","
",,,,,,,,,,,,"[{""stimulus"":""run_exp/static/images/task_images/dig.jpg"",""time"":0.20000000298023224},{""stimulus"":""run_exp/static/images/task_images/land.jpg"",""time"":596.5999999940395},{""stimulus"":""run_exp/static/images/task_images/dig.jpg"",""time"":1189.4000000059605}]",[],18,,,,,,,,,,,,,,
harvest,216,726253,0.0-58.0-1.0,"""event"",""trial"",""time""
""fullscreenenter"",""1"",""3591""
","
","
","""event"",""trial"",""time""
""fullscreenenter"",""1"",""3591""
","
",,null,run_exp/static/images/task_images/gems/81.jpg,null,,,,,,,59,,,18,,,,,81,0.723060628,0.728395062,,,,,,,
decision,217,726887,0.0-58.0-2.0,"""event"",""trial"",""time""
""fullscreenenter"",""1"",""3591""
","
","
","""event"",""trial"",""time""
""fullscreenenter"",""1"",""3591""
","
",,632.4,run_exp/static/images/task_images/land.jpg,76,,,,,,,59,,,18,,,,,,,,80751,2,1,TRUE,,,
travel,218,736256,0.0-59.0-0.0,"""event"",""trial"",""time""
""fullscreenenter"",""1"",""3591""
","
","
","""event"",""trial"",""time""
""fullscreenenter"",""1"",""3591""
","
",,,,,,,,,,,,"[{""stimulus"":""run_exp/static/images/task_images/rocket-01.jpg"",""time"":0.4000000059604645},{""stimulus"":""run_exp/static/images/task_images/rocket-02.jpg"",""time"":1042.1000000089407},{""stimulus"":""run_exp/static/images/task_images/rocket-03.jpg"",""time"":2081.5},{""stimulus"":""run_exp/static/images/task_images/rocket-04.jpg"",""time"":3132.7999999970198},{""stimulus"":""run_exp/static/images/task_images/rocket-05.jpg"",""time"":4163.100000008941},{""stimulus"":""run_exp/static/images/task_images/rocket-06.jpg"",""time"":5201.9000000059605},{""stimulus"":""run_exp/static/images/task_images/rocket-07.jpg"",""time"":6242},{""stimulus"":""run_exp/static/images/task_images/rocket-08.jpg"",""time"":7281.70000000298},{""stimulus"":""run_exp/static/images/task_images/rocket-09.jpg"",""time"":8321.90000000596}]",[],18,,,,,,,,,,,,,,
alien_welcome,219,741259,0.0-59.0-1.0,"""event"",""trial"",""time""
""fullscreenenter"",""1"",""3591""
","
","
","""event"",""trial"",""time""
""fullscreenenter"",""1"",""3591""
","
",,null,run_exp/static/images/task_images/aliens/old_aliens/planet/alien_planet-40.jpg,null,,,,,,,,,,,,,40,"50,53,18,51,59,57,7,12,13,17,72,67,22,46,10,38,2,69,40,29,75,24,21,68,43,64,33,6,41,60,30,71,36,55,61,73,49,66,3,28,70,31,45,19,20,56,14,15,8,1,76,32,63,37",,,,,,,,,,
land,220,741762,0.0-59.0-2.0,"""event"",""trial"",""time""
""fullscreenenter"",""1"",""3591""
","
","
","""event"",""trial"",""time""
""fullscreenenter"",""1"",""3591""
","
",,null,run_exp/static/images/task_images/land.jpg,null,,,,,,,94,,,19,,,,,,,,,,,,,,
dig,221,743766,0.0-59.0-3.0,"""event"",""trial"",""time""
""fullscreenenter"",""1"",""3591""
","
","
","""event"",""trial"",""time""
""fullscreenenter"",""1"",""3591""
","
",,,,,,,,,,,,"[{""stimulus"":""run_exp/static/images/task_images/dig.jpg"",""time"":0.29999999701976776},{""stimulus"":""run_exp/static/images/task_images/land.jpg"",""time"":669.0999999940395},{""stimulus"":""run_exp/static/images/task_images/dig.jpg"",""time"":1335.199999988079}]",[],19,,,,,,,,,,,,,,
harvest,222,744768,0.0-59.0-4.0,"""event"",""trial"",""time""
""fullscreenenter"",""1"",""3591""
","
","
","""event"",""trial"",""time""
""fullscreenenter"",""1"",""3591""
","
",,null,run_exp/static/images/task_images/gems/94.jpg,null,,,,,,,76,,,19,,,,,94,0.807582882,0.808510638,,,,,,,
decision,223,745375,0.0-59.0-5.0,"""event"",""trial"",""time""
""fullscreenenter"",""1"",""3591""
","
","
","""event"",""trial"",""time""
""fullscreenenter"",""1"",""3591""
","
",,604.8,run_exp/static/images/task_images/land.jpg,65,,,,,,,76,,,19,,,,,,,,99239,2,0,FALSE,,,
dig,224,747779,0.0-60.0-0.0,"""event"",""trial"",""time""
""fullscreenenter"",""1"",""3591""
","
","
","""event"",""trial"",""time""
""fullscreenenter"",""1"",""3591""
","
",,,,,,,,,,,,"[{""stimulus"":""run_exp/static/images/task_images/dig.jpg"",""time"":0.4000000059604645},{""stimulus"":""run_exp/static/images/task_images/land.jpg"",""time"":801},{""stimulus"":""run_exp/static/images/task_images/dig.jpg"",""time"":1598.800000011921}]",[],19,,,,,,,,,,,,,,
harvest,225,748782,0.0-60.0-1.0,"""event"",""trial"",""time""
""fullscreenenter"",""1"",""3591""
","
","
","""event"",""trial"",""time""
""fullscreenenter"",""1"",""3591""
","
",,null,run_exp/static/images/task_images/gems/76.jpg,null,,,,,,,57,,,19,,,,,76,0.753355162,0.75,,,,,,,
decision,226,748951,0.0-60.0-2.0,"""event"",""trial"",""time""
""fullscreenenter"",""1"",""3591""
","
","
","""event"",""trial"",""time""
""fullscreenenter"",""1"",""3591""
","
",,167.4,run_exp/static/images/task_images/land.jpg,76,,,,,,,57,,,19,,,,,,,,102816,2,1,TRUE,,,
travel,227,758790,0.0-61.0-0.0,"""event"",""trial"",""time""
""fullscreenenter"",""1"",""3591""
","
","
","""event"",""trial"",""time""
""fullscreenenter"",""1"",""3591""
","
",,,,,,,,,,,,"[{""stimulus"":""run_exp/static/images/task_images/rocket-01.jpg"",""time"":0.4000000059604645},{""stimulus"":""run_exp/static/images/task_images/rocket-02.jpg"",""time"":1094.7000000029802},{""stimulus"":""run_exp/static/images/task_images/rocket-03.jpg"",""time"":2185.4000000059605},{""stimulus"":""run_exp/static/images/task_images/rocket-04.jpg"",""time"":3277.7999999970198},{""stimulus"":""run_exp/static/images/task_images/rocket-05.jpg"",""time"":4369.5},{""stimulus"":""run_exp/static/images/task_images/rocket-06.jpg"",""time"":5462},{""stimulus"":""run_exp/static/images/task_images/rocket-07.jpg"",""time"":6553.9000000059605},{""stimulus"":""run_exp/static/images/task_images/rocket-08.jpg"",""time"":7646.0999999940395},{""stimulus"":""run_exp/static/images/task_images/rocket-09.jpg"",""time"":8738.40000000596}]",[],19,,,,,,,,,,,,,,
alien_welcome,228,763793,0.0-61.0-1.0,"""event"",""trial"",""time""
""fullscreenenter"",""1"",""3591""
","
","
","""event"",""trial"",""time""
""fullscreenenter"",""1"",""3591""
","
",,null,run_exp/static/images/task_images/aliens/old_aliens/planet/alien_planet-29.jpg,null,,,,,,,,,,,,,29,"50,53,18,51,59,57,7,12,13,17,72,67,22,46,10,38,2,69,40,29,75,24,21,68,43,64,33,6,41,60,30,71,36,55,61,73,49,66,3,28,70,31,45,19,20,56,14,15,8,1,76,32,63,37",,,,,,,,,,
land,229,764296,0.0-61.0-2.0,"""event"",""trial"",""time""
