trial_type,trial_index,time_elapsed,internal_node_id,interactions,blur_events,focus_events,fullscreenenter_events,fullscreenexit_events,success,rt,stimulus,key_press,prompt,subject_id,participant_id,age,gender,button_pressed,next_reward,animation_sequence,responses,planet,curr_prac_trial,n_prac_rounds,alien,aliens,reward_received,decay_rate_actual,decay_rate_exp,time_in_block,block_num,prt,last_trial_on_planet,button_html,bonus,num_failures
pavlovia,0,2,0.0-0.0,"""event"",""trial"",""time""
""blur"",""0"",""0""
""focus"",""0"",""0""
""blur"",""0"",""0""
""focus"",""0"",""0""
""blur"",""1"",""631212""
""focus"",""1"",""654686""
""fullscreenenter"",""1"",""655130""
","""event"",""trial"",""time""
""blur"",""0"",""0""
""blur"",""0"",""0""
""blur"",""1"",""631212""
","""event"",""trial"",""time""
""focus"",""0"",""0""
""focus"",""0"",""0""
""focus"",""1"",""654686""
","""event"",""trial"",""time""
""fullscreenenter"",""1"",""655130""
","
",,,,,,,,,,,,,,,,,,,,,,,,,,,,
fullscreen,1,656136,0.0-1.0,"""event"",""trial"",""time""
""blur"",""0"",""0""
""focus"",""0"",""0""
""blur"",""0"",""0""
""focus"",""0"",""0""
""blur"",""1"",""631212""
""focus"",""1"",""654686""
""fullscreenenter"",""1"",""655130""
","""event"",""trial"",""time""
""blur"",""0"",""0""
""blur"",""0"",""0""
""blur"",""1"",""631212""
","""event"",""trial"",""time""
""focus"",""0"",""0""
""focus"",""0"",""0""
""focus"",""1"",""654686""
","""event"",""trial"",""time""
""fullscreenenter"",""1"",""655130""
","
",TRUE,,,,,,,,,,,,,,,,,,,,,,,,,,,
instruc_welcome,2,665931,0.0-2.0,"""event"",""trial"",""time""
""blur"",""0"",""0""
""focus"",""0"",""0""
""blur"",""0"",""0""
""focus"",""0"",""0""
""blur"",""1"",""631212""
""focus"",""1"",""654686""
""fullscreenenter"",""1"",""655130""
","""event"",""trial"",""time""
""blur"",""0"",""0""
""blur"",""0"",""0""
""blur"",""1"",""631212""
","""event"",""trial"",""time""
""focus"",""0"",""0""
""focus"",""0"",""0""
""focus"",""1"",""654686""
","""event"",""trial"",""time""
""fullscreenenter"",""1"",""655130""
","
",,null,run_exp/static/audio/clip_1_welcome.m4a,null,"<p>Howdy! In this experiment, you’ll be an explorer traveling through space to collect space treasure.</p><p>Your mission is to collect as much treasure as possible.</p><br><br><p><img src='run_exp/static/images/task_images/opening_img-01.jpg' height='300' width='auto'></p>",9568,2148,20.4,Male,,,,,,,,,,,,,,,,,,,
audio-keyboard-response,3,682548,0.0-3.0,"""event"",""trial"",""time""
""blur"",""0"",""0""
""focus"",""0"",""0""
""blur"",""0"",""0""
""focus"",""0"",""0""
""blur"",""1"",""631212""
""focus"",""1"",""654686""
""fullscreenenter"",""1"",""655130""
","""event"",""trial"",""time""
""blur"",""0"",""0""
""blur"",""0"",""0""
""blur"",""1"",""631212""
","""event"",""trial"",""time""
""focus"",""0"",""0""
""focus"",""0"",""0""
""focus"",""1"",""654686""
","""event"",""trial"",""time""
""fullscreenenter"",""1"",""655130""
","
",,null,run_exp/static/audio/clip_2_move.m4a,null,,,,,,,,,,,,,,,,,,,,,,,,
welcome_dec,4,683373,0.0-4.0,"""event"",""trial"",""time""
""blur"",""0"",""0""
""focus"",""0"",""0""
""blur"",""0"",""0""
""focus"",""0"",""0""
""blur"",""1"",""631212""
""focus"",""1"",""654686""
""fullscreenenter"",""1"",""655130""
","""event"",""trial"",""time""
""blur"",""0"",""0""
""blur"",""0"",""0""
""blur"",""1"",""631212""
","""event"",""trial"",""time""
""focus"",""0"",""0""
""focus"",""0"",""0""
""focus"",""1"",""654686""
","""event"",""trial"",""time""
""fullscreenenter"",""1"",""655130""
","
",,813.1,"<p>Howdy! In this experiment, you’ll be an explorer traveling through space to collect space treasure.</p><p>Your mission is to collect as much treasure as possible.</p><br><br><p><img src='run_exp/static/images/task_images/opening_img-01.jpg' height='300' width='auto'></p>",,,,,,,1,,,,,,,,,,,,,,,,,,
html-keyboard-response,5,684526,0.0-5.0,"""event"",""trial"",""time""
""blur"",""0"",""0""
""focus"",""0"",""0""
""blur"",""0"",""0""
""focus"",""0"",""0""
""blur"",""1"",""631212""
""focus"",""1"",""654686""
""fullscreenenter"",""1"",""655130""
","""event"",""trial"",""time""
""blur"",""0"",""0""
""blur"",""0"",""0""
""blur"",""1"",""631212""
","""event"",""trial"",""time""
""focus"",""0"",""0""
""focus"",""0"",""0""
""focus"",""1"",""654686""
","""event"",""trial"",""time""
""fullscreenenter"",""1"",""655130""
","
",,1149.9,"<p>Howdy! In this experiment, you’ll be an explorer traveling through space to collect space treasure.</p><p>Your mission is to collect as much treasure as possible.</p><br><br><p><img src='run_exp/static/images/task_images/opening_img-01.jpg' height='300' width='auto'></p><button class=""jspsych-html-btn-unchosen""><img src=""run_exp/static/images/task_images/planet-01.jpg"" height=""50""></button><button class=""jspsych-html-btn-chosen""><img src=""run_exp/static/images/task_images/planet-02.jpg"" height=""50""></button><p><b>[press the space bar to lock in your answer]<b><br></p>",32,,,,,,,,,,,,,,,,,,,,,,,,
instruc_goal,6,694623,0.0-6.0-0.0,"""event"",""trial"",""time""
""blur"",""0"",""0""
""focus"",""0"",""0""
""blur"",""0"",""0""
""focus"",""0"",""0""
""blur"",""1"",""631212""
""focus"",""1"",""654686""
""fullscreenenter"",""1"",""655130""
","""event"",""trial"",""time""
""blur"",""0"",""0""
""blur"",""0"",""0""
""blur"",""1"",""631212""
","""event"",""trial"",""time""
""focus"",""0"",""0""
""focus"",""0"",""0""
""focus"",""1"",""654686""
","""event"",""trial"",""time""
""fullscreenenter"",""1"",""655130""
","
",,null,run_exp/static/audio/clip_3_goal.m4a,null,"<p> As a space explorer, you’ll visit different planets to dig for space treasure, these pink gems.</p> <p> The more treasure you dig up, the more bonus money you’ll win! </p><br><br><p><img src='run_exp/static/images/task_images/pink_gem.jpg' height='300' width='auto'></p>",,,,,,,,,,,,,,,,,,,,,,,
instruc_goal,7,696444,0.0-6.0-1.0,"""event"",""trial"",""time""
""blur"",""0"",""0""
""focus"",""0"",""0""
""blur"",""0"",""0""
""focus"",""0"",""0""
""blur"",""1"",""631212""
""focus"",""1"",""654686""
""fullscreenenter"",""1"",""655130""
","""event"",""trial"",""time""
""blur"",""0"",""0""
""blur"",""0"",""0""
""blur"",""1"",""631212""
","""event"",""trial"",""time""
""focus"",""0"",""0""
""focus"",""0"",""0""
""focus"",""1"",""654686""
","""event"",""trial"",""time""
""fullscreenenter"",""1"",""655130""
","
",,1818.8,"<p> As a space explorer, you’ll visit different planets to dig for space treasure, these pink gems.</p> <p> The more treasure you dig up, the more bonus money you’ll win! </p><br><br><p><img src='run_exp/static/images/task_images/pink_gem.jpg' height='300' width='auto'></p>",,,,,,,1,,,,,,,,,,,,,,,,,,
html-keyboard-response,8,696771,0.0-6.0-2.0,"""event"",""trial"",""time""
""blur"",""0"",""0""
""focus"",""0"",""0""
""blur"",""0"",""0""
""focus"",""0"",""0""
""blur"",""1"",""631212""
""focus"",""1"",""654686""
""fullscreenenter"",""1"",""655130""
","""event"",""trial"",""time""
""blur"",""0"",""0""
""blur"",""0"",""0""
""blur"",""1"",""631212""
","""event"",""trial"",""time""
""focus"",""0"",""0""
""focus"",""0"",""0""
""focus"",""1"",""654686""
","""event"",""trial"",""time""
""fullscreenenter"",""1"",""655130""
","
",,325.4,"<p> As a space explorer, you’ll visit different planets to dig for space treasure, these pink gems.</p> <p> The more treasure you dig up, the more bonus money you’ll win! </p><br><br><p><img src='run_exp/static/images/task_images/pink_gem.jpg' height='300' width='auto'></p><button class=""jspsych-html-btn-unchosen""><img src=""run_exp/static/images/task_images/planet-01.jpg"" height=""50""></button><button class=""jspsych-html-btn-chosen""><img src=""run_exp/static/images/task_images/planet-02.jpg"" height=""50""></button><p><b>[press the space bar to lock in your answer]<b><br></p>",32,,,,,,,,,,,,,,,,,,,,,,,,
instruc_dig,9,712820,0.0-7.0-0.0,"""event"",""trial"",""time""
""blur"",""0"",""0""
""focus"",""0"",""0""
""blur"",""0"",""0""
""focus"",""0"",""0""
""blur"",""1"",""631212""
""focus"",""1"",""654686""
""fullscreenenter"",""1"",""655130""
","""event"",""trial"",""time""
""blur"",""0"",""0""
""blur"",""0"",""0""
""blur"",""1"",""631212""
","""event"",""trial"",""time""
""focus"",""0"",""0""
""focus"",""0"",""0""
""focus"",""1"",""654686""
","""event"",""trial"",""time""
""fullscreenenter"",""1"",""655130""
","
",,null,run_exp/static/audio/clip_4_dig.m4a,null,,,,,,,100,,,,,,,,,,,,,,,,,
instruc_dig_try,10,713923,0.0-7.0-1.0,"""event"",""trial"",""time""
""blur"",""0"",""0""
""focus"",""0"",""0""
""blur"",""0"",""0""
""focus"",""0"",""0""
""blur"",""1"",""631212""
""focus"",""1"",""654686""
""fullscreenenter"",""1"",""655130""
","""event"",""trial"",""time""
""blur"",""0"",""0""
""blur"",""0"",""0""
""blur"",""1"",""631212""
","""event"",""trial"",""time""
""focus"",""0"",""0""
""focus"",""0"",""0""
""focus"",""1"",""654686""
","""event"",""trial"",""time""
""fullscreenenter"",""1"",""655130""
","
",,1100.5,"<p> When you’ve arrived at a new planet, you will dig once. </p> <p>Then, you get to decide if you want to stay on the planet and dig again or travel to a new planet and dig there.</p> <p> To stay and dig, press the letter <strong>‘A’</strong> on your keyboard. Try pressing it now! </p><p><img src='run_exp/static/images/task_images/land.jpg'  height='700' width='auto'></p>",65,"<p> When you’ve arrived at a new planet, you will dig once. </p> <p>Then, you get to decide if you want to stay on the planet and dig again or travel to a new planet and dig there.</p> <p> To stay and dig, press the letter <strong>‘A’</strong> on your keyboard. Try pressing it now! </p><p><img src='run_exp/static/images/task_images/land.jpg'  height='700' width='auto'></p>",,,,,,100,,,,,,,,,,,,,,,,,
dig_prac,11,715941,0.0-7.0-2.0,"""event"",""trial"",""time""
""blur"",""0"",""0""
""focus"",""0"",""0""
""blur"",""0"",""0""
""focus"",""0"",""0""
""blur"",""1"",""631212""
""focus"",""1"",""654686""
""fullscreenenter"",""1"",""655130""
","""event"",""trial"",""time""
""blur"",""0"",""0""
""blur"",""0"",""0""
""blur"",""1"",""631212""
","""event"",""trial"",""time""
""focus"",""0"",""0""
""focus"",""0"",""0""
""focus"",""1"",""654686""
","""event"",""trial"",""time""
""fullscreenenter"",""1"",""655130""
","
",,,,,,,,,,,,"[{""stimulus"":""run_exp/static/images/task_images/dig.jpg"",""time"":0.40000003576278687},{""stimulus"":""run_exp/static/images/task_images/land.jpg"",""time"":673},{""stimulus"":""run_exp/static/images/task_images/dig.jpg"",""time"":1347}]",[],,,,,,,,,,,,,,,
instruc_travel,12,752223,0.0-7.0-3.0,"""event"",""trial"",""time""
""blur"",""0"",""0""
""focus"",""0"",""0""
""blur"",""0"",""0""
""focus"",""0"",""0""
""blur"",""1"",""631212""
""focus"",""1"",""654686""
""fullscreenenter"",""1"",""655130""
","""event"",""trial"",""time""
""blur"",""0"",""0""
""blur"",""0"",""0""
""blur"",""1"",""631212""
","""event"",""trial"",""time""
""focus"",""0"",""0""
""focus"",""0"",""0""
""focus"",""1"",""654686""
","""event"",""trial"",""time""
""fullscreenenter"",""1"",""655130""
","
",,null,run_exp/static/audio/clip_5_travel.m4a,null,"<p>Every time you dig up gems, there are less gems on the planet, so the more you dig on a planet the fewer gems you’ll get with each dig.</p><p>When gems are running low, you may want to travel to a new planet. </p> <p>  Planets are very far apart in this galaxy, so it will take some time to travel between them. </p> <br><p>There are lots and lots of planets for you to visit, so you won’t be able to return to any planets you’ve seen before. </p><br><p>To leave this planet and travel to a new one, press the letter <strong>‘L’</strong> on your keyboard. Try pressing it now! </p><p><img src='run_exp/static/images/task_images/rocket-01.jpg'  height='600' width='auto'></p>",,,,,,,,,,,,,,,,,,,,,,,
instruc_travel_try,13,752414,0.0-7.0-4.0,"""event"",""trial"",""time""
""blur"",""0"",""0""
""focus"",""0"",""0""
""blur"",""0"",""0""
""focus"",""0"",""0""
""blur"",""1"",""631212""
""focus"",""1"",""654686""
""fullscreenenter"",""1"",""655130""
","""event"",""trial"",""time""
""blur"",""0"",""0""
""blur"",""0"",""0""
""blur"",""1"",""631212""
","""event"",""trial"",""time""
""focus"",""0"",""0""
""focus"",""0"",""0""
""focus"",""1"",""654686""
","""event"",""trial"",""time""
""fullscreenenter"",""1"",""655130""
","
",,188.2,"<p>Every time you dig up gems, there are less gems on the planet, so the more you dig on a planet the fewer gems you’ll get with each dig.</p><p>When gems are running low, you may want to travel to a new planet. </p> <p>  Planets are very far apart in this galaxy, so it will take some time to travel between them. </p> <br><p>There are lots and lots of planets for you to visit, so you won’t be able to return to any planets you’ve seen before. </p><br><p>To leave this planet and travel to a new one, press the letter <strong>‘L’</strong> on your keyboard. Try pressing it now! </p><p><img src='run_exp/static/images/task_images/rocket-01.jpg'  height='600' width='auto'></p>",76,"<p>Every time you dig up gems, there are less gems on the planet, so the more you dig on a planet the fewer gems you’ll get with each dig.</p><p>When gems are running low, you may want to travel to a new planet. </p> <p>  Planets are very far apart in this galaxy, so it will take some time to travel between them. </p> <br><p>There are lots and lots of planets for you to visit, so you won’t be able to return to any planets you’ve seen before. </p><br><p>To leave this planet and travel to a new one, press the letter <strong>‘L’</strong> on your keyboard. Try pressing it now! </p><p><img src='run_exp/static/images/task_images/rocket-01.jpg'  height='600' width='auto'></p>",,,,,,,,,,,,,,,,,,,,,,,
travel_prac,14,762425,0.0-7.0-5.0,"""event"",""trial"",""time""
""blur"",""0"",""0""
""focus"",""0"",""0""
""blur"",""0"",""0""
""focus"",""0"",""0""
""blur"",""1"",""631212""
""focus"",""1"",""654686""
""fullscreenenter"",""1"",""655130""
","""event"",""trial"",""time""
""blur"",""0"",""0""
""blur"",""0"",""0""
""blur"",""1"",""631212""
","""event"",""trial"",""time""
""focus"",""0"",""0""
""focus"",""0"",""0""
""focus"",""1"",""654686""
","""event"",""trial"",""time""
""fullscreenenter"",""1"",""655130""
","
",,,,,,,,,,,,"[{""stimulus"":""run_exp/static/images/task_images/rocket-01.jpg"",""time"":0.5},{""stimulus"":""run_exp/static/images/task_images/rocket-02.jpg"",""time"":1120.9000000357628},{""stimulus"":""run_exp/static/images/task_images/rocket-03.jpg"",""time"":2230.5},{""stimulus"":""run_exp/static/images/task_images/rocket-04.jpg"",""time"":3341.2000000476837},{""stimulus"":""run_exp/static/images/task_images/rocket-05.jpg"",""time"":4457.100000023842},{""stimulus"":""run_exp/static/images/task_images/rocket-06.jpg"",""time"":5568.600000023842},{""stimulus"":""run_exp/static/images/task_images/rocket-07.jpg"",""time"":6671.600000023842},{""stimulus"":""run_exp/static/images/task_images/rocket-08.jpg"",""time"":7783.100000023842},{""stimulus"":""run_exp/static/images/task_images/rocket-09.jpg"",""time"":8892.600000023842}]",[],0,,,,,,,,,,,,,,
instruc_alien_greet,15,789641,0.0-7.0-6.0,"""event"",""trial"",""time""
""blur"",""0"",""0""
""focus"",""0"",""0""
""blur"",""0"",""0""
""focus"",""0"",""0""
""blur"",""1"",""631212""
""focus"",""1"",""654686""
""fullscreenenter"",""1"",""655130""
","""event"",""trial"",""time""
""blur"",""0"",""0""
""blur"",""0"",""0""
""blur"",""1"",""631212""
","""event"",""trial"",""time""
""focus"",""0"",""0""
""focus"",""0"",""0""
""focus"",""1"",""654686""
","""event"",""trial"",""time""
""fullscreenenter"",""1"",""655130""
","
",,null,run_exp/static/audio/clip_6_alien.m4a,null,"<p>When you arrive at a new planet, the alien who owns the treasure mine on that planet will greet you!</p><p>The better an alien takes care of their mine the easier it is to dig for gems. Some aliens take better care of their mine than others. So, you won’t get exactly the same amount of gems on each planet.</p><p>What the alien looks like does not tell you anything about how many gems there are on the planet.</p><br><p><img src=""run_exp/static/images/task_images/aliens/instructions_aliens/planet/alien_planet-1.jpg""  height=""600"" width=""auto""></p>",,,,,,,,,,,,,,,,,,,,,,,
instruc_alien_greet,16,791758,0.0-7.0-7.0,"""event"",""trial"",""time""
""blur"",""0"",""0""
""focus"",""0"",""0""
""blur"",""0"",""0""
""focus"",""0"",""0""
""blur"",""1"",""631212""
""focus"",""1"",""654686""
""fullscreenenter"",""1"",""655130""
","""event"",""trial"",""time""
""blur"",""0"",""0""
""blur"",""0"",""0""
""blur"",""1"",""631212""
","""event"",""trial"",""time""
""focus"",""0"",""0""
""focus"",""0"",""0""
""focus"",""1"",""654686""
","""event"",""trial"",""time""
""fullscreenenter"",""1"",""655130""
","
",,2113.7,"<p>When you arrive at a new planet, the alien who owns the treasure mine on that planet will greet you!</p><p>The better an alien takes care of their mine the easier it is to dig for gems. Some aliens take better care of their mine than others. So, you won’t get exactly the same amount of gems on each planet.</p><p>What the alien looks like does not tell you anything about how many gems there are on the planet.</p><br><p><img src=""run_exp/static/images/task_images/aliens/instructions_aliens/planet/alien_planet-1.jpg""  height=""600"" width=""auto""></p>",,,,,,,1,,,,,,,,,,,,,,,,,,
html-keyboard-response,17,792192,0.0-7.0-8.0,"""event"",""trial"",""time""
""blur"",""0"",""0""
""focus"",""0"",""0""
""blur"",""0"",""0""
""focus"",""0"",""0""
""blur"",""1"",""631212""
""focus"",""1"",""654686""
""fullscreenenter"",""1"",""655130""
","""event"",""trial"",""time""
""blur"",""0"",""0""
""blur"",""0"",""0""
""blur"",""1"",""631212""
","""event"",""trial"",""time""
""focus"",""0"",""0""
""focus"",""0"",""0""
""focus"",""1"",""654686""
","""event"",""trial"",""time""
""fullscreenenter"",""1"",""655130""
","
",,431.9,"<p>When you arrive at a new planet, the alien who owns the treasure mine on that planet will greet you!</p><p>The better an alien takes care of their mine the easier it is to dig for gems. Some aliens take better care of their mine than others. So, you won’t get exactly the same amount of gems on each planet.</p><p>What the alien looks like does not tell you anything about how many gems there are on the planet.</p><br><p><img src=""run_exp/static/images/task_images/aliens/instructions_aliens/planet/alien_planet-1.jpg""  height=""600"" width=""auto""></p><button class=""jspsych-html-btn-unchosen""><img src=""run_exp/static/images/task_images/planet-01.jpg"" height=""50""></button><button class=""jspsych-html-btn-chosen""><img src=""run_exp/static/images/task_images/planet-02.jpg"" height=""50""></button><p><b>[press the space bar to lock in your answer]<b><br></p>",32,,,,,,,,,,,,,,,,,,,,,,,,
time_out,18,803316,0.0-8.0-0.0,"""event"",""trial"",""time""
""blur"",""0"",""0""
""focus"",""0"",""0""
""blur"",""0"",""0""
""focus"",""0"",""0""
""blur"",""1"",""631212""
""focus"",""1"",""654686""
""fullscreenenter"",""1"",""655130""
","""event"",""trial"",""time""
""blur"",""0"",""0""
""blur"",""0"",""0""
""blur"",""1"",""631212""
","""event"",""trial"",""time""
""focus"",""0"",""0""
""focus"",""0"",""0""
""focus"",""1"",""654686""
","""event"",""trial"",""time""
""fullscreenenter"",""1"",""655130""
","
",,null,run_exp/static/audio/clip_7_timeout.m4a,null,"<p>If you don't make your choice fast enough, you’ll have to wait a few seconds before you can make another one.</p><p>You can’t dig for more gems or travel to new planets. You just have to sit and wait.</p><br><p><img src='run_exp/static/images/task_images/time_out.jpg'  height='600' width='auto'></p>",,,,,,,,,,,,,,,,,,,,,,,
time_out,19,804216,0.0-8.0-1.0,"""event"",""trial"",""time""
""blur"",""0"",""0""
""focus"",""0"",""0""
""blur"",""0"",""0""
""focus"",""0"",""0""
""blur"",""1"",""631212""
""focus"",""1"",""654686""
""fullscreenenter"",""1"",""655130""
","""event"",""trial"",""time""
""blur"",""0"",""0""
""blur"",""0"",""0""
""blur"",""1"",""631212""
","""event"",""trial"",""time""
""focus"",""0"",""0""
""focus"",""0"",""0""
""focus"",""1"",""654686""
","""event"",""trial"",""time""
""fullscreenenter"",""1"",""655130""
","
",,897.2,"<p>If you don't make your choice fast enough, you’ll have to wait a few seconds before you can make another one.</p><p>You can’t dig for more gems or travel to new planets. You just have to sit and wait.</p><br><p><img src='run_exp/static/images/task_images/time_out.jpg'  height='600' width='auto'></p>",,,,,,,1,,,,,,,,,,,,,,,,,,
html-keyboard-response,20,804639,0.0-8.0-2.0,"""event"",""trial"",""time""
""blur"",""0"",""0""
""focus"",""0"",""0""
""blur"",""0"",""0""
""focus"",""0"",""0""
""blur"",""1"",""631212""
""focus"",""1"",""654686""
""fullscreenenter"",""1"",""655130""
","""event"",""trial"",""time""
""blur"",""0"",""0""
""blur"",""0"",""0""
""blur"",""1"",""631212""
","""event"",""trial"",""time""
""focus"",""0"",""0""
""focus"",""0"",""0""
""focus"",""1"",""654686""
","""event"",""trial"",""time""
""fullscreenenter"",""1"",""655130""
","
",,421,"<p>If you don't make your choice fast enough, you’ll have to wait a few seconds before you can make another one.</p><p>You can’t dig for more gems or travel to new planets. You just have to sit and wait.</p><br><p><img src='run_exp/static/images/task_images/time_out.jpg'  height='600' width='auto'></p><button class=""jspsych-html-btn-unchosen""><img src=""run_exp/static/images/task_images/planet-01.jpg"" height=""50""></button><button class=""jspsych-html-btn-chosen""><img src=""run_exp/static/images/task_images/planet-02.jpg"" height=""50""></button><p><b>[press the space bar to lock in your answer]<b><br></p>",32,,,,,,,,,,,,,,,,,,,,,,,,
instruc_break,21,820319,0.0-9.0-0.0,"""event"",""trial"",""time""
""blur"",""0"",""0""
""focus"",""0"",""0""
""blur"",""0"",""0""
""focus"",""0"",""0""
""blur"",""1"",""631212""
""focus"",""1"",""654686""
""fullscreenenter"",""1"",""655130""
","""event"",""trial"",""time""
""blur"",""0"",""0""
""blur"",""0"",""0""
""blur"",""1"",""631212""
","""event"",""trial"",""time""
""focus"",""0"",""0""
""focus"",""0"",""0""
""focus"",""1"",""654686""
","""event"",""trial"",""time""
""fullscreenenter"",""1"",""655130""
","
",,null,run_exp/static/audio/clip_8_break.m4a,null,"<p> After digging and traveling for a while, you’ll be able to take a break at home base. </p><p>The game will last 20 minutes no matter what.</p><p>You will visit home base every 5 minutes, so, you will visit home base three times during the game.</p><br><p><img src='run_exp/static/images/task_images/home_base.jpg' height='600' width='auto'></p>",,,,,,,,,,,,,,,,,,,,,,,
instruc_break,22,820799,0.0-9.0-1.0,"""event"",""trial"",""time""
""blur"",""0"",""0""
""focus"",""0"",""0""
""blur"",""0"",""0""
""focus"",""0"",""0""
""blur"",""1"",""631212""
""focus"",""1"",""654686""
""fullscreenenter"",""1"",""655130""
","""event"",""trial"",""time""
""blur"",""0"",""0""
""blur"",""0"",""0""
""blur"",""1"",""631212""
","""event"",""trial"",""time""
""focus"",""0"",""0""
""focus"",""0"",""0""
""focus"",""1"",""654686""
","""event"",""trial"",""time""
""fullscreenenter"",""1"",""655130""
","
",,477.4,"<p> After digging and traveling for a while, you’ll be able to take a break at home base. </p><p>The game will last 20 minutes no matter what.</p><p>You will visit home base every 5 minutes, so, you will visit home base three times during the game.</p><br><p><img src='run_exp/static/images/task_images/home_base.jpg' height='600' width='auto'></p>",,,,,,,1,,,,,,,,,,,,,,,,,,
html-keyboard-response,23,821008,0.0-9.0-2.0,"""event"",""trial"",""time""
""blur"",""0"",""0""
""focus"",""0"",""0""
""blur"",""0"",""0""
""focus"",""0"",""0""
""blur"",""1"",""631212""
""focus"",""1"",""654686""
""fullscreenenter"",""1"",""655130""
","""event"",""trial"",""time""
""blur"",""0"",""0""
""blur"",""0"",""0""
""blur"",""1"",""631212""
","""event"",""trial"",""time""
""focus"",""0"",""0""
""focus"",""0"",""0""
""focus"",""1"",""654686""
","""event"",""trial"",""time""
""fullscreenenter"",""1"",""655130""
","
",,206.9,"<p> After digging and traveling for a while, you’ll be able to take a break at home base. </p><p>The game will last 20 minutes no matter what.</p><p>You will visit home base every 5 minutes, so, you will visit home base three times during the game.</p><br><p><img src='run_exp/static/images/task_images/home_base.jpg' height='600' width='auto'></p><button class=""jspsych-html-btn-unchosen""><img src=""run_exp/static/images/task_images/planet-01.jpg"" height=""50""></button><button class=""jspsych-html-btn-chosen""><img src=""run_exp/static/images/task_images/planet-02.jpg"" height=""50""></button><p><b>[press the space bar to lock in your answer]<b><br></p>",32,,,,,,,,,,,,,,,,,,,,,,,,
instruc_prac_game,24,831156,0.0-10.0-0.0,"""event"",""trial"",""time""
""blur"",""0"",""0""
""focus"",""0"",""0""
""blur"",""0"",""0""
""focus"",""0"",""0""
""blur"",""1"",""631212""
""focus"",""1"",""654686""
""fullscreenenter"",""1"",""655130""
","""event"",""trial"",""time""
""blur"",""0"",""0""
""blur"",""0"",""0""
""blur"",""1"",""631212""
","""event"",""trial"",""time""
""focus"",""0"",""0""
""focus"",""0"",""0""
""focus"",""1"",""654686""
","""event"",""trial"",""time""
""fullscreenenter"",""1"",""655130""
","
",,null,run_exp/static/audio/clip_9_practice.m4a,null,"<p> Are you ready to play a practice game? </p> <p>In this practice game, you'll be digging up barrels of gems. But, in the real game, you'll be digging up the gems themselves. </p>",,,,,,,,,,,,,,,,,,,,,,,
html-button-response,25,832096,0.0-10.0-1.0,"""event"",""trial"",""time""
""blur"",""0"",""0""
""focus"",""0"",""0""
""blur"",""0"",""0""
""focus"",""0"",""0""
""blur"",""1"",""631212""
""focus"",""1"",""654686""
""fullscreenenter"",""1"",""655130""
","""event"",""trial"",""time""
""blur"",""0"",""0""
""blur"",""0"",""0""
""blur"",""1"",""631212""
","""event"",""trial"",""time""
""focus"",""0"",""0""
""focus"",""0"",""0""
""focus"",""1"",""654686""
","""event"",""trial"",""time""
""fullscreenenter"",""1"",""655130""
","
",,937.7,"<p> Are you ready to play a practice game? </p> <p>In this practice game, you'll be digging up barrels of gems. But, in the real game, you'll be digging up the gems themselves. </p>",,,,,,,0,,,,,,,,,,,,,,,,,,
alien_welcome_prac,26,837105,0.0-11.0-0.0,"""event"",""trial"",""time""
""blur"",""0"",""0""
""focus"",""0"",""0""
""blur"",""0"",""0""
""focus"",""0"",""0""
""blur"",""1"",""631212""
""focus"",""1"",""654686""
""fullscreenenter"",""1"",""655130""
","""event"",""trial"",""time""
""blur"",""0"",""0""
""blur"",""0"",""0""
""blur"",""1"",""631212""
","""event"",""trial"",""time""
""focus"",""0"",""0""
""focus"",""0"",""0""
""focus"",""1"",""654686""
","""event"",""trial"",""time""
""fullscreenenter"",""1"",""655130""
","
",,null,run_exp/static/images/task_images/aliens/practice_aliens/planet/alien_planet-5.jpg,null,,,,,,,,,,,,,,,,,,,,,,,,
land_prac,27,837613,0.0-11.0-1.0,"""event"",""trial"",""time""
""blur"",""0"",""0""
""focus"",""0"",""0""
""blur"",""0"",""0""
""focus"",""0"",""0""
""blur"",""1"",""631212""
""focus"",""1"",""654686""
""fullscreenenter"",""1"",""655130""
","""event"",""trial"",""time""
""blur"",""0"",""0""
""blur"",""0"",""0""
""blur"",""1"",""631212""
","""event"",""trial"",""time""
""focus"",""0"",""0""
""focus"",""0"",""0""
""focus"",""1"",""654686""
","""event"",""trial"",""time""
""fullscreenenter"",""1"",""655130""
","
",,null,run_exp/static/images/task_images/land.jpg,null,,,,,,,99,,,0,,,,,,,,,,,,,,
dig_prac,28,839625,0.0-11.0-2.0,"""event"",""trial"",""time""
""blur"",""0"",""0""
""focus"",""0"",""0""
""blur"",""0"",""0""
""focus"",""0"",""0""
""blur"",""1"",""631212""
""focus"",""1"",""654686""
""fullscreenenter"",""1"",""655130""
","""event"",""trial"",""time""
""blur"",""0"",""0""
""blur"",""0"",""0""
""blur"",""1"",""631212""
","""event"",""trial"",""time""
""focus"",""0"",""0""
""focus"",""0"",""0""
""focus"",""1"",""654686""
","""event"",""trial"",""time""
""fullscreenenter"",""1"",""655130""
","
",,,,,,,,,,,,"[{""stimulus"":""run_exp/static/images/task_images/dig.jpg"",""time"":0.5},{""stimulus"":""run_exp/static/images/task_images/land.jpg"",""time"":672.3000000119209},{""stimulus"":""run_exp/static/images/task_images/dig.jpg"",""time"":1336.9000000357628}]",[],,,,,,,,,,,,,,,
harvest_prac,29,840631,0.0-11.0-3.0,"""event"",""trial"",""time""
""blur"",""0"",""0""
""focus"",""0"",""0""
""blur"",""0"",""0""
""focus"",""0"",""0""
""blur"",""1"",""631212""
""focus"",""1"",""654686""
""fullscreenenter"",""1"",""655130""
","""event"",""trial"",""time""
""blur"",""0"",""0""
""blur"",""0"",""0""
""blur"",""1"",""631212""
","""event"",""trial"",""time""
""focus"",""0"",""0""
""focus"",""0"",""0""
""focus"",""1"",""654686""
","""event"",""trial"",""time""
""fullscreenenter"",""1"",""655130""
","
",,null,run_exp/static/images/task_images/barrel_text.jpg,null,,,,,,,,,,,,,,,,,,,,,,,,
decision_prac,30,842332,0.0-11.0-4.0,"""event"",""trial"",""time""
""blur"",""0"",""0""
""focus"",""0"",""0""
""blur"",""0"",""0""
""focus"",""0"",""0""
""blur"",""1"",""631212""
""focus"",""1"",""654686""
""fullscreenenter"",""1"",""655130""
","""event"",""trial"",""time""
""blur"",""0"",""0""
""blur"",""0"",""0""
""blur"",""1"",""631212""
","""event"",""trial"",""time""
""focus"",""0"",""0""
""focus"",""0"",""0""
""focus"",""1"",""654686""
","""event"",""trial"",""time""
""fullscreenenter"",""1"",""655130""
","
",,1697.6,run_exp/static/images/task_images/land.jpg,65,,,,,,,,,,,1,,,,,,,,,,,,,
dig_prac,31,844345,0.0-12.0-0.0,"""event"",""trial"",""time""
""blur"",""0"",""0""
""focus"",""0"",""0""
""blur"",""0"",""0""
""focus"",""0"",""0""
""blur"",""1"",""631212""
""focus"",""1"",""654686""
""fullscreenenter"",""1"",""655130""
","""event"",""trial"",""time""
""blur"",""0"",""0""
""blur"",""0"",""0""
""blur"",""1"",""631212""
","""event"",""trial"",""time""
""focus"",""0"",""0""
""focus"",""0"",""0""
""focus"",""1"",""654686""
","""event"",""trial"",""time""
""fullscreenenter"",""1"",""655130""
","
",,,,,,,,,,,,"[{""stimulus"":""run_exp/static/images/task_images/dig.jpg"",""time"":0.30000001192092896},{""stimulus"":""run_exp/static/images/task_images/land.jpg"",""time"":681.3999999761581},{""stimulus"":""run_exp/static/images/task_images/dig.jpg"",""time"":1341.699999988079}]",[],,,,,,,,,,,,,,,
harvest_prac,32,845353,0.0-12.0-1.0,"""event"",""trial"",""time""
""blur"",""0"",""0""
""focus"",""0"",""0""
""blur"",""0"",""0""
""focus"",""0"",""0""
""blur"",""1"",""631212""
""focus"",""1"",""654686""
""fullscreenenter"",""1"",""655130""
","""event"",""trial"",""time""
""blur"",""0"",""0""
""blur"",""0"",""0""
""blur"",""1"",""631212""
","""event"",""trial"",""time""
""focus"",""0"",""0""
""focus"",""0"",""0""
""focus"",""1"",""654686""
","""event"",""trial"",""time""
""fullscreenenter"",""1"",""655130""
","
",,null,run_exp/static/images/task_images/barrel_text.jpg,null,,,,,,,,,,,,,,,,,,,,,,,,
decision_prac,33,845812,0.0-12.0-2.0,"""event"",""trial"",""time""
""blur"",""0"",""0""
""focus"",""0"",""0""
""blur"",""0"",""0""
""focus"",""0"",""0""
""blur"",""1"",""631212""
""focus"",""1"",""654686""
""fullscreenenter"",""1"",""655130""
","""event"",""trial"",""time""
""blur"",""0"",""0""
""blur"",""0"",""0""
""blur"",""1"",""631212""
","""event"",""trial"",""time""
""focus"",""0"",""0""
""focus"",""0"",""0""
""focus"",""1"",""654686""
","""event"",""trial"",""time""
""fullscreenenter"",""1"",""655130""
","
",,457,run_exp/static/images/task_images/land.jpg,65,,,,,,,,,,,2,,,,,,,,,,,,,
dig_prac,34,847820,0.0-13.0-0.0,"""event"",""trial"",""time""
""blur"",""0"",""0""
""focus"",""0"",""0""
""blur"",""0"",""0""
""focus"",""0"",""0""
""blur"",""1"",""631212""
""focus"",""1"",""654686""
""fullscreenenter"",""1"",""655130""
","""event"",""trial"",""time""
""blur"",""0"",""0""
""blur"",""0"",""0""
""blur"",""1"",""631212""
","""event"",""trial"",""time""
""focus"",""0"",""0""
""focus"",""0"",""0""
""focus"",""1"",""654686""
","""event"",""trial"",""time""
""fullscreenenter"",""1"",""655130""
","
",,,,,,,,,,,,"[{""stimulus"":""run_exp/static/images/task_images/dig.jpg"",""time"":0},{""stimulus"":""run_exp/static/images/task_images/land.jpg"",""time"":679.6999999880791},{""stimulus"":""run_exp/static/images/task_images/dig.jpg"",""time"":1339.5999999642372}]",[],,,,,,,,,,,,,,,
harvest_prac,35,848833,0.0-13.0-1.0,"""event"",""trial"",""time""
""blur"",""0"",""0""
""focus"",""0"",""0""
""blur"",""0"",""0""
""focus"",""0"",""0""
""blur"",""1"",""631212""
""focus"",""1"",""654686""
""fullscreenenter"",""1"",""655130""
","""event"",""trial"",""time""
""blur"",""0"",""0""
""blur"",""0"",""0""
""blur"",""1"",""631212""
","""event"",""trial"",""time""
""focus"",""0"",""0""
""focus"",""0"",""0""
""focus"",""1"",""654686""
","""event"",""trial"",""time""
""fullscreenenter"",""1"",""655130""
","
",,null,run_exp/static/images/task_images/barrel_text.jpg,null,,,,,,,,,,,,,,,,,,,,,,,,
decision_prac,36,849233,0.0-13.0-2.0,"""event"",""trial"",""time""
""blur"",""0"",""0""
""focus"",""0"",""0""
""blur"",""0"",""0""
""focus"",""0"",""0""
""blur"",""1"",""631212""
""focus"",""1"",""654686""
""fullscreenenter"",""1"",""655130""
","""event"",""trial"",""time""
""blur"",""0"",""0""
""blur"",""0"",""0""
""blur"",""1"",""631212""
","""event"",""trial"",""time""
""focus"",""0"",""0""
""focus"",""0"",""0""
""focus"",""1"",""654686""
","""event"",""trial"",""time""
""fullscreenenter"",""1"",""655130""
","
",,397.9,run_exp/static/images/task_images/land.jpg,65,,,,,,,,,,,3,,,,,,,,,,,,,
dig_prac,37,851245,0.0-14.0-0.0,"""event"",""trial"",""time""
""blur"",""0"",""0""
""focus"",""0"",""0""
""blur"",""0"",""0""
""focus"",""0"",""0""
""blur"",""1"",""631212""
""focus"",""1"",""654686""
""fullscreenenter"",""1"",""655130""
","""event"",""trial"",""time""
""blur"",""0"",""0""
""blur"",""0"",""0""
""blur"",""1"",""631212""
","""event"",""trial"",""time""
""focus"",""0"",""0""
""focus"",""0"",""0""
""focus"",""1"",""654686""
","""event"",""trial"",""time""
""fullscreenenter"",""1"",""655130""
","
",,,,,,,,,,,,"[{""stimulus"":""run_exp/static/images/task_images/dig.jpg"",""time"":0.10000002384185791},{""stimulus"":""run_exp/static/images/task_images/land.jpg"",""time"":676.6000000238419},{""stimulus"":""run_exp/static/images/task_images/dig.jpg"",""time"":1340.4000000357628}]",[],,,,,,,,,,,,,,,
harvest_prac,38,852254,0.0-14.0-1.0,"""event"",""trial"",""time""
""blur"",""0"",""0""
""focus"",""0"",""0""
""blur"",""0"",""0""
""focus"",""0"",""0""
""blur"",""1"",""631212""
""focus"",""1"",""654686""
""fullscreenenter"",""1"",""655130""
","""event"",""trial"",""time""
""blur"",""0"",""0""
""blur"",""0"",""0""
""blur"",""1"",""631212""
","""event"",""trial"",""time""
""focus"",""0"",""0""
""focus"",""0"",""0""
""focus"",""1"",""654686""
","""event"",""trial"",""time""
""fullscreenenter"",""1"",""655130""
","
",,null,run_exp/static/images/task_images/barrel_text.jpg,null,,,,,,,,,,,,,,,,,,,,,,,,
decision_prac,39,852677,0.0-14.0-2.0,"""event"",""trial"",""time""
""blur"",""0"",""0""
""focus"",""0"",""0""
""blur"",""0"",""0""
""focus"",""0"",""0""
""blur"",""1"",""631212""
""focus"",""1"",""654686""
""fullscreenenter"",""1"",""655130""
","""event"",""trial"",""time""
""blur"",""0"",""0""
""blur"",""0"",""0""
""blur"",""1"",""631212""
","""event"",""trial"",""time""
""focus"",""0"",""0""
""focus"",""0"",""0""
""focus"",""1"",""654686""
","""event"",""trial"",""time""
""fullscreenenter"",""1"",""655130""
","
",,420.9,run_exp/static/images/task_images/land.jpg,65,,,,,,,,,,,4,,,,,,,,,,,,,
dig_prac,40,854687,0.0-15.0-0.0,"""event"",""trial"",""time""
""blur"",""0"",""0""
""focus"",""0"",""0""
""blur"",""0"",""0""
""focus"",""0"",""0""
""blur"",""1"",""631212""
""focus"",""1"",""654686""
""fullscreenenter"",""1"",""655130""
","""event"",""trial"",""time""
""blur"",""0"",""0""
""blur"",""0"",""0""
""blur"",""1"",""631212""
","""event"",""trial"",""time""
""focus"",""0"",""0""
""focus"",""0"",""0""
""focus"",""1"",""654686""
","""event"",""trial"",""time""
""fullscreenenter"",""1"",""655130""
","
",,,,,,,,,,,,"[{""stimulus"":""run_exp/static/images/task_images/dig.jpg"",""time"":0.19999998807907104},{""stimulus"":""run_exp/static/images/task_images/land.jpg"",""time"":678.1999999880791},{""stimulus"":""run_exp/static/images/task_images/dig.jpg"",""time"":1342.699999988079}]",[],,,,,,,,,,,,,,,
harvest_prac,41,855693,0.0-15.0-1.0,"""event"",""trial"",""time""
""blur"",""0"",""0""
""focus"",""0"",""0""
""blur"",""0"",""0""
""focus"",""0"",""0""
""blur"",""1"",""631212""
""focus"",""1"",""654686""
""fullscreenenter"",""1"",""655130""
","""event"",""trial"",""time""
""blur"",""0"",""0""
""blur"",""0"",""0""
""blur"",""1"",""631212""
","""event"",""trial"",""time""
""focus"",""0"",""0""
""focus"",""0"",""0""
""focus"",""1"",""654686""
","""event"",""trial"",""time""
""fullscreenenter"",""1"",""655130""
","
",,null,run_exp/static/images/task_images/barrel_text.jpg,null,,,,,,,,,,,,,,,,,,,,,,,,
decision_prac,42,856195,0.0-15.0-2.0,"""event"",""trial"",""time""
""blur"",""0"",""0""
""focus"",""0"",""0""
""blur"",""0"",""0""
""focus"",""0"",""0""
""blur"",""1"",""631212""
""focus"",""1"",""654686""
""fullscreenenter"",""1"",""655130""
","""event"",""trial"",""time""
""blur"",""0"",""0""
""blur"",""0"",""0""
""blur"",""1"",""631212""
","""event"",""trial"",""time""
""focus"",""0"",""0""
""focus"",""0"",""0""
""focus"",""1"",""654686""
","""event"",""trial"",""time""
""fullscreenenter"",""1"",""655130""
","
",,501.5,run_exp/static/images/task_images/land.jpg,65,,,,,,,,,,,,1,,,,,,,,,,,,
quiz_instruc,43,859249,0.0-16.0-0.0,"""event"",""trial"",""time""
""blur"",""0"",""0""
""focus"",""0"",""0""
""blur"",""0"",""0""
""focus"",""0"",""0""
""blur"",""1"",""631212""
""focus"",""1"",""654686""
""fullscreenenter"",""1"",""655130""
","""event"",""trial"",""time""
""blur"",""0"",""0""
""blur"",""0"",""0""
""blur"",""1"",""631212""
","""event"",""trial"",""time""
""focus"",""0"",""0""
""focus"",""0"",""0""
""focus"",""1"",""654686""
","""event"",""trial"",""time""
""fullscreenenter"",""1"",""655130""
","
",,3056,run_exp/static/audio/clip_10_quiz.m4a,,,,,,,0,,,,,,,,,,,,,,,,,,
instruc_repeat,44,902005,0.0-16.0-1.0,"""event"",""trial"",""time""
""blur"",""0"",""0""
""focus"",""0"",""0""
""blur"",""0"",""0""
""focus"",""0"",""0""
""blur"",""1"",""631212""
""focus"",""1"",""654686""
""fullscreenenter"",""1"",""655130""
","""event"",""trial"",""time""
""blur"",""0"",""0""
""blur"",""0"",""0""
""blur"",""1"",""631212""
","""event"",""trial"",""time""
""focus"",""0"",""0""
""focus"",""0"",""0""
""focus"",""1"",""654686""
","""event"",""trial"",""time""
""fullscreenenter"",""1"",""655130""
","
",,null,"<p> Are you ready to play a practice game? </p> <p>In this practice game, you'll be digging up barrels of gems. But, in the real game, you'll be digging up the gems themselves. </p>",null,"<p>In this game, your goal is to collect as many gems as you can. That’s how you will win bonus money. </p> <p>The entire game will last 20 minutes no matter how many gems you collect or how many planets you visit. </p><p>To stay on a planet and dig again, press the letter A on your keyboard. To leave for a new planet, press the letter L.</p><p>The more you dig on a planet, the fewer gems you’ll get with each dig which is why you might consider leaving for a new planet. </p><p>When you arrive at a new planet, you’ll be greeted by an alien. What the alien looks like does not tell you anything about how much treasure is on the planet. </p>",,,,,,,,,,,,,,,,,,,,,,,
instruc_repeat_continue,45,902881,0.0-16.0-2.0,"""event"",""trial"",""time""
""blur"",""0"",""0""
""focus"",""0"",""0""
""blur"",""0"",""0""
""focus"",""0"",""0""
""blur"",""1"",""631212""
""focus"",""1"",""654686""
""fullscreenenter"",""1"",""655130""
","""event"",""trial"",""time""
""blur"",""0"",""0""
""blur"",""0"",""0""
""blur"",""1"",""631212""
","""event"",""trial"",""time""
""focus"",""0"",""0""
""focus"",""0"",""0""
""focus"",""1"",""654686""
","""event"",""trial"",""time""
""fullscreenenter"",""1"",""655130""
","
",,873.2,"<p> Are you ready to play a practice game? </p> <p>In this practice game, you'll be digging up barrels of gems. But, in the real game, you'll be digging up the gems themselves. </p>",,,,,,,0,,,,,,,,,,,,,,,,,,
quiz_q_1_ask,46,908119,0.0-16.0-3.0,"""event"",""trial"",""time""
""blur"",""0"",""0""
""focus"",""0"",""0""
""blur"",""0"",""0""
""focus"",""0"",""0""
""blur"",""1"",""631212""
""focus"",""1"",""654686""
""fullscreenenter"",""1"",""655130""
","""event"",""trial"",""time""
""blur"",""0"",""0""
""blur"",""0"",""0""
""blur"",""1"",""631212""
","""event"",""trial"",""time""
""focus"",""0"",""0""
""focus"",""0"",""0""
""focus"",""1"",""654686""
","""event"",""trial"",""time""
""fullscreenenter"",""1"",""655130""
","
",,5237.1,run_exp/static/audio/clip_11_q1_ask.m4a,,,,,,,2,,,,,,,,,,,,,,,,,,
quiz_q_1_fb_correct,47,911966,0.0-17.0-0.0,"""event"",""trial"",""time""
""blur"",""0"",""0""
""focus"",""0"",""0""
""blur"",""0"",""0""
""focus"",""0"",""0""
""blur"",""1"",""631212""
""focus"",""1"",""654686""
""fullscreenenter"",""1"",""655130""
","""event"",""trial"",""time""
""blur"",""0"",""0""
""blur"",""0"",""0""
""blur"",""1"",""631212""
","""event"",""trial"",""time""
""focus"",""0"",""0""
""focus"",""0"",""0""
""focus"",""1"",""654686""
","""event"",""trial"",""time""
""fullscreenenter"",""1"",""655130""
","
",,null,run_exp/static/audio/clip_12_q1_correct.m4a,null,<p>That’s correct. You win extra money by collecting more gems.</p>,,,,,,,,,,,,,,,,,,,,,,,
quiz_q_2_ask,48,915206,0.0-17.0-1.0,"""event"",""trial"",""time""
""blur"",""0"",""0""
""focus"",""0"",""0""
""blur"",""0"",""0""
""focus"",""0"",""0""
""blur"",""1"",""631212""
""focus"",""1"",""654686""
""fullscreenenter"",""1"",""655130""
","""event"",""trial"",""time""
""blur"",""0"",""0""
""blur"",""0"",""0""
""blur"",""1"",""631212""
","""event"",""trial"",""time""
""focus"",""0"",""0""
""focus"",""0"",""0""
""focus"",""1"",""654686""
","""event"",""trial"",""time""
""fullscreenenter"",""1"",""655130""
","
",,3236.6,run_exp/static/audio/clip_14_q2_ask.m4a,,,,,,,1,,,,,,,,,,,,,,,,,,
quiz_q_2_fb_correct,49,919219,0.0-18.0-0.0,"""event"",""trial"",""time""
""blur"",""0"",""0""
""focus"",""0"",""0""
""blur"",""0"",""0""
""focus"",""0"",""0""
""blur"",""1"",""631212""
""focus"",""1"",""654686""
""fullscreenenter"",""1"",""655130""
","""event"",""trial"",""time""
""blur"",""0"",""0""
""blur"",""0"",""0""
""blur"",""1"",""631212""
","""event"",""trial"",""time""
""focus"",""0"",""0""
""focus"",""0"",""0""
""focus"",""1"",""654686""
","""event"",""trial"",""time""
""fullscreenenter"",""1"",""655130""
","
",,null,run_exp/static/audio/clip_15_q2_correct.m4a,null,<p>That’s correct. The experiment is 20 minutes no matter what.</p>,,,,,,,,,,,,,,,,,,,,,,,
quiz_q_3_ask,50,921330,0.0-18.0-1.0,"""event"",""trial"",""time""
""blur"",""0"",""0""
""focus"",""0"",""0""
""blur"",""0"",""0""
""focus"",""0"",""0""
""blur"",""1"",""631212""
""focus"",""1"",""654686""
""fullscreenenter"",""1"",""655130""
","""event"",""trial"",""time""
""blur"",""0"",""0""
""blur"",""0"",""0""
""blur"",""1"",""631212""
","""event"",""trial"",""time""
""focus"",""0"",""0""
""focus"",""0"",""0""
""focus"",""1"",""654686""
","""event"",""trial"",""time""
""fullscreenenter"",""1"",""655130""
","
",,2108.7,run_exp/static/audio/clip_17_q3_ask.m4a,,,,,,,1,,,,,,,,,,,,,,,,,,
quiz_q_3_fb_correct,51,925299,0.0-19.0-0.0,"""event"",""trial"",""time""
""blur"",""0"",""0""
""focus"",""0"",""0""
""blur"",""0"",""0""
""focus"",""0"",""0""
""blur"",""1"",""631212""
""focus"",""1"",""654686""
""fullscreenenter"",""1"",""655130""
","""event"",""trial"",""time""
""blur"",""0"",""0""
""blur"",""0"",""0""
""blur"",""1"",""631212""
","""event"",""trial"",""time""
""focus"",""0"",""0""
""focus"",""0"",""0""
""focus"",""1"",""654686""
","""event"",""trial"",""time""
""fullscreenenter"",""1"",""655130""
","
",,null,run_exp/static/audio/clip_18_q3_correct.m4a,null,<p> That’s correct. You press the letter L to travel to a new planet.</p>,,,,,,,,,,,,,,,,,,,,,,,
quiz_q_4_ask,52,929568,0.0-19.0-1.0,"""event"",""trial"",""time""
""blur"",""0"",""0""
""focus"",""0"",""0""
""blur"",""0"",""0""
""focus"",""0"",""0""
""blur"",""1"",""631212""
""focus"",""1"",""654686""
""fullscreenenter"",""1"",""655130""
","""event"",""trial"",""time""
""blur"",""0"",""0""
""blur"",""0"",""0""
""blur"",""1"",""631212""
","""event"",""trial"",""time""
""focus"",""0"",""0""
""focus"",""0"",""0""
""focus"",""1"",""654686""
","""event"",""trial"",""time""
""fullscreenenter"",""1"",""655130""
","
",,4266.5,run_exp/static/audio/clip_20_q4_ask.m4a,,,,,,,0,,,,,,,,,,,,,,,,,,
quiz_q_4_fb_correct,53,934877,0.0-20.0-0.0,"""event"",""trial"",""time""
""blur"",""0"",""0""
""focus"",""0"",""0""
""blur"",""0"",""0""
""focus"",""0"",""0""
""blur"",""1"",""631212""
""focus"",""1"",""654686""
""fullscreenenter"",""1"",""655130""
","""event"",""trial"",""time""
""blur"",""0"",""0""
""blur"",""0"",""0""
""blur"",""1"",""631212""
","""event"",""trial"",""time""
""focus"",""0"",""0""
""focus"",""0"",""0""
""focus"",""1"",""654686""
","""event"",""trial"",""time""
""fullscreenenter"",""1"",""655130""
","
",,null,run_exp/static/audio/clip_21_q4_correct.m4a,null,<p> That’s correct. The more you dig on a planet the fewer gems you’ll get with each dig. </p>,,,,,,,,,,,,,,,,,,,,,,,
quiz_q_5_ask,54,936938,0.0-20.0-1.0,"""event"",""trial"",""time""
""blur"",""0"",""0""
""focus"",""0"",""0""
""blur"",""0"",""0""
""focus"",""0"",""0""
""blur"",""1"",""631212""
""focus"",""1"",""654686""
""fullscreenenter"",""1"",""655130""
","""event"",""trial"",""time""
""blur"",""0"",""0""
""blur"",""0"",""0""
""blur"",""1"",""631212""
","""event"",""trial"",""time""
""focus"",""0"",""0""
""focus"",""0"",""0""
""focus"",""1"",""654686""
","""event"",""trial"",""time""
""fullscreenenter"",""1"",""655130""
","
",,2057.7,run_exp/static/audio/clip_23_q5_ask.m4a,,,,,,,1,,,,,,,,,,,,,,,,,,
quiz_q_5_fb_correct,55,941938,0.0-21.0-0.0,"""event"",""trial"",""time""
""blur"",""0"",""0""
""focus"",""0"",""0""
""blur"",""0"",""0""
""focus"",""0"",""0""
""blur"",""1"",""631212""
""focus"",""1"",""654686""
""fullscreenenter"",""1"",""655130""
","""event"",""trial"",""time""
""blur"",""0"",""0""
""blur"",""0"",""0""
""blur"",""1"",""631212""
","""event"",""trial"",""time""
""focus"",""0"",""0""
""focus"",""0"",""0""
""focus"",""1"",""654686""
","""event"",""trial"",""time""
""fullscreenenter"",""1"",""655130""
","
",,null,run_exp/static/audio/clip_24_q5_correct.m4a,null,<p> That’s correct. The alien tells you nothing about how much treasure is on the planet.</p>,,,,,,,,,,,,,,,,,,,,,,,
quiz_correct,56,945394,0.0-22.0-0.0,"""event"",""trial"",""time""
""blur"",""0"",""0""
""focus"",""0"",""0""
""blur"",""0"",""0""
""focus"",""0"",""0""
""blur"",""1"",""631212""
""focus"",""1"",""654686""
""fullscreenenter"",""1"",""655130""
","""event"",""trial"",""time""
""blur"",""0"",""0""
""blur"",""0"",""0""
""blur"",""1"",""631212""
","""event"",""trial"",""time""
""focus"",""0"",""0""
""focus"",""0"",""0""
""focus"",""1"",""654686""
","""event"",""trial"",""time""
""fullscreenenter"",""1"",""655130""
","
",,null,run_exp/static/audio/clip_26_correct_quiz.m4a,null,,,,,,,,,,,,,,,,,,,,,,,,
quiz_correct_continue,57,946515,0.0-22.0-1.0,"""event"",""trial"",""time""
""blur"",""0"",""0""
""focus"",""0"",""0""
""blur"",""0"",""0""
""focus"",""0"",""0""
""blur"",""1"",""631212""
""focus"",""1"",""654686""
""fullscreenenter"",""1"",""655130""
","""event"",""trial"",""time""
""blur"",""0"",""0""
""blur"",""0"",""0""
""blur"",""1"",""631212""
","""event"",""trial"",""time""
""focus"",""0"",""0""
""focus"",""0"",""0""
""focus"",""1"",""654686""
","""event"",""trial"",""time""
""fullscreenenter"",""1"",""655130""
","
",,1119.5,<p>Good job! You're now ready to move on to the real game!</p>,,,,,,,0,,,,,,,,,,,,,,,,,,
audio-keyboard-response,58,956637,0.0-22.0-2.0,"""event"",""trial"",""time""
""blur"",""0"",""0""
""focus"",""0"",""0""
""blur"",""0"",""0""
""focus"",""0"",""0""
""blur"",""1"",""631212""
""focus"",""1"",""654686""
""fullscreenenter"",""1"",""655130""
","""event"",""trial"",""time""
""blur"",""0"",""0""
""blur"",""0"",""0""
""blur"",""1"",""631212""
","""event"",""trial"",""time""
""focus"",""0"",""0""
""focus"",""0"",""0""
""focus"",""1"",""654686""
","""event"",""trial"",""time""
""fullscreenenter"",""1"",""655130""
","
",,null,run_exp/static/audio/clip_28_real_game.m4a,null,,,,,,,,,,,,,,,,,,,,,,,,
instruc_begin_exp_contine,59,957571,0.0-22.0-3.0,"""event"",""trial"",""time""
""blur"",""0"",""0""
""focus"",""0"",""0""
""blur"",""0"",""0""
""focus"",""0"",""0""
""blur"",""1"",""631212""
""focus"",""1"",""654686""
""fullscreenenter"",""1"",""655130""
","""event"",""trial"",""time""
""blur"",""0"",""0""
""blur"",""0"",""0""
""blur"",""1"",""631212""
","""event"",""trial"",""time""
""focus"",""0"",""0""
""focus"",""0"",""0""
""focus"",""1"",""654686""
","""event"",""trial"",""time""
""fullscreenenter"",""1"",""655130""
","
",,932.2,"<p>Now that you know how  to dig for space treasure and travel to new planets,you can start exploring! </p><p>Do you want to go over the instructions again or get started with the real game?</p>",,,,,,,1,,,,,,1,,,,,,,,,,,,
alien_welcome,60,962581,0.0-23.0-0.0,"""event"",""trial"",""time""
""blur"",""0"",""0""
""focus"",""0"",""0""
""blur"",""0"",""0""
""focus"",""0"",""0""
""blur"",""1"",""631212""
""focus"",""1"",""654686""
""fullscreenenter"",""1"",""655130""
","""event"",""trial"",""time""
""blur"",""0"",""0""
""blur"",""0"",""0""
""blur"",""1"",""631212""
","""event"",""trial"",""time""
""focus"",""0"",""0""
""focus"",""0"",""0""
""focus"",""1"",""654686""
","""event"",""trial"",""time""
""fullscreenenter"",""1"",""655130""
","
",,null,run_exp/static/images/task_images/aliens/old_aliens/planet/alien_planet-12.jpg,null,,,,,,,,,,,,,12,"12,73,10,34,58,8,66,9,29,43,1,13,38,44,7,51,57,76,60,18,71,4,42,5,31,47,24,26,75,6,30",,,,,,,,,,
land,61,963089,0.0-23.0-1.0,"""event"",""trial"",""time""
""blur"",""0"",""0""
""focus"",""0"",""0""
""blur"",""0"",""0""
""focus"",""0"",""0""
""blur"",""1"",""631212""
""focus"",""1"",""654686""
""fullscreenenter"",""1"",""655130""
","""event"",""trial"",""time""
""blur"",""0"",""0""
""blur"",""0"",""0""
""blur"",""1"",""631212""
","""event"",""trial"",""time""
""focus"",""0"",""0""
""focus"",""0"",""0""
""focus"",""1"",""654686""
","""event"",""trial"",""time""
""fullscreenenter"",""1"",""655130""
","
",,null,run_exp/static/images/task_images/land.jpg,null,,,,,,,102,,,1,,,,,,,,,,,,,,
dig,62,965098,0.0-23.0-2.0,"""event"",""trial"",""time""
""blur"",""0"",""0""
""focus"",""0"",""0""
""blur"",""0"",""0""
""focus"",""0"",""0""
""blur"",""1"",""631212""
""focus"",""1"",""654686""
""fullscreenenter"",""1"",""655130""
","""event"",""trial"",""time""
""blur"",""0"",""0""
""blur"",""0"",""0""
""blur"",""1"",""631212""
","""event"",""trial"",""time""
""focus"",""0"",""0""
""focus"",""0"",""0""
""focus"",""1"",""654686""
","""event"",""trial"",""time""
""fullscreenenter"",""1"",""655130""
","
",,,,,,,,,,,,"[{""stimulus"":""run_exp/static/images/task_images/dig.jpg"",""time"":0.2999999523162842},{""stimulus"":""run_exp/static/images/task_images/land.jpg"",""time"":669.6999999880791},{""stimulus"":""run_exp/static/images/task_images/dig.jpg"",""time"":1342.699999988079}]",[],1,,,,,,,,,,,,,,
harvest,63,966109,0.0-23.0-3.0,"""event"",""trial"",""time""
""blur"",""0"",""0""
""focus"",""0"",""0""
""blur"",""0"",""0""
""focus"",""0"",""0""
""blur"",""1"",""631212""
""focus"",""1"",""654686""
""fullscreenenter"",""1"",""655130""
","""event"",""trial"",""time""
""blur"",""0"",""0""
""blur"",""0"",""0""
""blur"",""1"",""631212""
","""event"",""trial"",""time""
""focus"",""0"",""0""
""focus"",""0"",""0""
""focus"",""1"",""654686""
","""event"",""trial"",""time""
""fullscreenenter"",""1"",""655130""
","
",,null,run_exp/static/images/task_images/gems/102.jpg,null,,,,,,,26,,,1,,,,,102,0.258955566,0.254901961,,,,,,,
decision,64,966597,0.0-23.0-4.0,"""event"",""trial"",""time""
""blur"",""0"",""0""
""focus"",""0"",""0""
""blur"",""0"",""0""
""focus"",""0"",""0""
""blur"",""1"",""631212""
""focus"",""1"",""654686""
""fullscreenenter"",""1"",""655130""
","""event"",""trial"",""time""
""blur"",""0"",""0""
""blur"",""0"",""0""
""blur"",""1"",""631212""
","""event"",""trial"",""time""
""focus"",""0"",""0""
""focus"",""0"",""0""
""focus"",""1"",""654686""
","""event"",""trial"",""time""
""fullscreenenter"",""1"",""655130""
","
",,485,run_exp/static/images/task_images/land.jpg,65,,,,,,,26,,,1,,,,,,,,9025,1,0,FALSE,,,
dig,65,969125,0.0-24.0-0.0,"""event"",""trial"",""time""
""blur"",""0"",""0""
""focus"",""0"",""0""
""blur"",""0"",""0""
""focus"",""0"",""0""
""blur"",""1"",""631212""
""focus"",""1"",""654686""
""fullscreenenter"",""1"",""655130""
","""event"",""trial"",""time""
""blur"",""0"",""0""
""blur"",""0"",""0""
""blur"",""1"",""631212""
","""event"",""trial"",""time""
""focus"",""0"",""0""
""focus"",""0"",""0""
""focus"",""1"",""654686""
","""event"",""trial"",""time""
""fullscreenenter"",""1"",""655130""
","
",,,,,,,,,,,,"[{""stimulus"":""run_exp/static/images/task_images/dig.jpg"",""time"":0.30000001192092896},{""stimulus"":""run_exp/static/images/task_images/land.jpg"",""time"":852},{""stimulus"":""run_exp/static/images/task_images/dig.jpg"",""time"":1684}]",[],1,,,,,,,,,,,,,,
harvest,66,970131,0.0-24.0-1.0,"""event"",""trial"",""time""
""blur"",""0"",""0""
""focus"",""0"",""0""
""blur"",""0"",""0""
""focus"",""0"",""0""
""blur"",""1"",""631212""
""focus"",""1"",""654686""
""fullscreenenter"",""1"",""655130""
","""event"",""trial"",""time""
""blur"",""0"",""0""
""blur"",""0"",""0""
""blur"",""1"",""631212""
","""event"",""trial"",""time""
""focus"",""0"",""0""
""focus"",""0"",""0""
""focus"",""1"",""654686""
","""event"",""trial"",""time""
""fullscreenenter"",""1"",""655130""
","
",,null,run_exp/static/images/task_images/gems/26.jpg,null,,,,,,,6,,,1,,,,,26,0.229082358,0.230769231,,,,,,,
decision,67,970674,0.0-24.0-2.0,"""event"",""trial"",""time""
""blur"",""0"",""0""
""focus"",""0"",""0""
""blur"",""0"",""0""
""focus"",""0"",""0""
""blur"",""1"",""631212""
""focus"",""1"",""654686""
""fullscreenenter"",""1"",""655130""
","""event"",""trial"",""time""
""blur"",""0"",""0""
""blur"",""0"",""0""
""blur"",""1"",""631212""
","""event"",""trial"",""time""
""focus"",""0"",""0""
""focus"",""0"",""0""
""focus"",""1"",""654686""
","""event"",""trial"",""time""
""fullscreenenter"",""1"",""655130""
","
",,540.2,run_exp/static/images/task_images/land.jpg,65,,,,,,,6,,,1,,,,,,,,13101,1,1,FALSE,,,
dig,68,973137,0.0-25.0-0.0,"""event"",""trial"",""time""
""blur"",""0"",""0""
""focus"",""0"",""0""
""blur"",""0"",""0""
""focus"",""0"",""0""
""blur"",""1"",""631212""
""focus"",""1"",""654686""
""fullscreenenter"",""1"",""655130""
","""event"",""trial"",""time""
""blur"",""0"",""0""
""blur"",""0"",""0""
""blur"",""1"",""631212""
","""event"",""trial"",""time""
""focus"",""0"",""0""
""focus"",""0"",""0""
""focus"",""1"",""654686""
","""event"",""trial"",""time""
""fullscreenenter"",""1"",""655130""
","
",,,,,,,,,,,,"[{""stimulus"":""run_exp/static/images/task_images/dig.jpg"",""time"":0.30000001192092896},{""stimulus"":""run_exp/static/images/task_images/land.jpg"",""time"":826.3000000119209},{""stimulus"":""run_exp/static/images/task_images/dig.jpg"",""time"":1647.3999999761581}]",[],1,,,,,,,,,,,,,,
harvest,69,974149,0.0-25.0-1.0,"""event"",""trial"",""time""
""blur"",""0"",""0""
""focus"",""0"",""0""
""blur"",""0"",""0""
""focus"",""0"",""0""
""blur"",""1"",""631212""
""focus"",""1"",""654686""
""fullscreenenter"",""1"",""655130""
","""event"",""trial"",""time""
""blur"",""0"",""0""
""blur"",""0"",""0""
""blur"",""1"",""631212""
","""event"",""trial"",""time""
""focus"",""0"",""0""
""focus"",""0"",""0""
""focus"",""1"",""654686""
","""event"",""trial"",""time""
""fullscreenenter"",""1"",""655130""
","
",,null,run_exp/static/images/task_images/gems/6.jpg,null,,,,,,,2,,,1,,,,,6,0.255210875,0.333333333,,,,,,,
decision,70,974583,0.0-25.0-2.0,"""event"",""trial"",""time""
""blur"",""0"",""0""
""focus"",""0"",""0""
""blur"",""0"",""0""
""focus"",""0"",""0""
""blur"",""1"",""631212""
""focus"",""1"",""654686""
""fullscreenenter"",""1"",""655130""
","""event"",""trial"",""time""
""blur"",""0"",""0""
""blur"",""0"",""0""
""blur"",""1"",""631212""
","""event"",""trial"",""time""
""focus"",""0"",""0""
""focus"",""0"",""0""
""focus"",""1"",""654686""
","""event"",""trial"",""time""
""fullscreenenter"",""1"",""655130""
","
",,431.8,run_exp/static/images/task_images/land.jpg,65,,,,,,,2,,,1,,,,,,,,17010,1,2,FALSE,,,
dig,71,977163,0.0-26.0-0.0,"""event"",""trial"",""time""
""blur"",""0"",""0""
""focus"",""0"",""0""
""blur"",""0"",""0""
""focus"",""0"",""0""
""blur"",""1"",""631212""
""focus"",""1"",""654686""
""fullscreenenter"",""1"",""655130""
","""event"",""trial"",""time""
""blur"",""0"",""0""
""blur"",""0"",""0""
""blur"",""1"",""631212""
","""event"",""trial"",""time""
""focus"",""0"",""0""
""focus"",""0"",""0""
""focus"",""1"",""654686""
","""event"",""trial"",""time""
""fullscreenenter"",""1"",""655130""
","
",,,,,,,,,,,,"[{""stimulus"":""run_exp/static/images/task_images/dig.jpg"",""time"":0.19999998807907104},{""stimulus"":""run_exp/static/images/task_images/land.jpg"",""time"":866},{""stimulus"":""run_exp/static/images/task_images/dig.jpg"",""time"":1719.300000011921}]",[],1,,,,,,,,,,,,,,
harvest,72,978173,0.0-26.0-1.0,"""event"",""trial"",""time""
""blur"",""0"",""0""
""focus"",""0"",""0""
""blur"",""0"",""0""
""focus"",""0"",""0""
""blur"",""1"",""631212""
""focus"",""1"",""654686""
""fullscreenenter"",""1"",""655130""
","""event"",""trial"",""time""
""blur"",""0"",""0""
""blur"",""0"",""0""
""blur"",""1"",""631212""
","""event"",""trial"",""time""
""focus"",""0"",""0""
""focus"",""0"",""0""
""focus"",""1"",""654686""
","""event"",""trial"",""time""
""fullscreenenter"",""1"",""655130""
","
",,null,run_exp/static/images/task_images/gems/2.jpg,null,,,,,,,0,,,1,,,,,2,0.112455333,0,,,,,,,
decision,73,978970,0.0-26.0-2.0,"""event"",""trial"",""time""
""blur"",""0"",""0""
""focus"",""0"",""0""
""blur"",""0"",""0""
""focus"",""0"",""0""
""blur"",""1"",""631212""
""focus"",""1"",""654686""
""fullscreenenter"",""1"",""655130""
","""event"",""trial"",""time""
""blur"",""0"",""0""
""blur"",""0"",""0""
""blur"",""1"",""631212""
","""event"",""trial"",""time""
""focus"",""0"",""0""
""focus"",""0"",""0""
""focus"",""1"",""654686""
","""event"",""trial"",""time""
""fullscreenenter"",""1"",""655130""
","
",,794.9,run_exp/static/images/task_images/land.jpg,65,,,,,,,0,,,1,,,,,,,,21397,1,3,FALSE,,,
dig,74,981185,0.0-27.0-0.0,"""event"",""trial"",""time""
""blur"",""0"",""0""
""focus"",""0"",""0""
""blur"",""0"",""0""
""focus"",""0"",""0""
""blur"",""1"",""631212""
""focus"",""1"",""654686""
""fullscreenenter"",""1"",""655130""
","""event"",""trial"",""time""
""blur"",""0"",""0""
""blur"",""0"",""0""
""blur"",""1"",""631212""
","""event"",""trial"",""time""
""focus"",""0"",""0""
""focus"",""0"",""0""
""focus"",""1"",""654686""
","""event"",""trial"",""time""
""fullscreenenter"",""1"",""655130""
","
",,,,,,,,,,,,"[{""stimulus"":""run_exp/static/images/task_images/dig.jpg"",""time"":0.10000002384185791},{""stimulus"":""run_exp/static/images/task_images/land.jpg"",""time"":738.9000000357628},{""stimulus"":""run_exp/static/images/task_images/dig.jpg"",""time"":1479.1000000238419}]",[],1,,,,,,,,,,,,,,
harvest,75,982193,0.0-27.0-1.0,"""event"",""trial"",""time""
""blur"",""0"",""0""
""focus"",""0"",""0""
""blur"",""0"",""0""
""focus"",""0"",""0""
""blur"",""1"",""631212""
""focus"",""1"",""654686""
""fullscreenenter"",""1"",""655130""
","""event"",""trial"",""time""
""blur"",""0"",""0""
""blur"",""0"",""0""
""blur"",""1"",""631212""
","""event"",""trial"",""time""
""focus"",""0"",""0""
""focus"",""0"",""0""
""focus"",""1"",""654686""
","""event"",""trial"",""time""
""fullscreenenter"",""1"",""655130""
","
",,null,run_exp/static/images/task_images/gems/0.jpg,null,,,,,,,0,,,1,,,,,0,0.148503811,NaN,,,,,,,
decision,76,983109,0.0-27.0-2.0,"""event"",""trial"",""time""
""blur"",""0"",""0""
""focus"",""0"",""0""
""blur"",""0"",""0""
""focus"",""0"",""0""
""blur"",""1"",""631212""
""focus"",""1"",""654686""
""fullscreenenter"",""1"",""655130""
","""event"",""trial"",""time""
""blur"",""0"",""0""
""blur"",""0"",""0""
""blur"",""1"",""631212""
","""event"",""trial"",""time""
""focus"",""0"",""0""
""focus"",""0"",""0""
""focus"",""1"",""654686""
","""event"",""trial"",""time""
""fullscreenenter"",""1"",""655130""
","
",,913.7,run_exp/static/images/task_images/land.jpg,65,,,,,,,0,,,1,,,,,,,,25536,1,4,FALSE,,,
dig,77,985200,0.0-28.0-0.0,"""event"",""trial"",""time""
""blur"",""0"",""0""
""focus"",""0"",""0""
""blur"",""0"",""0""
""focus"",""0"",""0""
""blur"",""1"",""631212""
""focus"",""1"",""654686""
""fullscreenenter"",""1"",""655130""
","""event"",""trial"",""time""
""blur"",""0"",""0""
""blur"",""0"",""0""
""blur"",""1"",""631212""
","""event"",""trial"",""time""
""focus"",""0"",""0""
""focus"",""0"",""0""
""focus"",""1"",""654686""
","""event"",""trial"",""time""
""fullscreenenter"",""1"",""655130""
","
",,,,,,,,,,,,"[{""stimulus"":""run_exp/static/images/task_images/dig.jpg"",""time"":0.19999998807907104},{""stimulus"":""run_exp/static/images/task_images/land.jpg"",""time"":708.1999999880791},{""stimulus"":""run_exp/static/images/task_images/dig.jpg"",""time"":1396.199999988079}]",[],1,,,,,,,,,,,,,,
harvest,78,986209,0.0-28.0-1.0,"""event"",""trial"",""time""
""blur"",""0"",""0""
""focus"",""0"",""0""
""blur"",""0"",""0""
""focus"",""0"",""0""
""blur"",""1"",""631212""
""focus"",""1"",""654686""
""fullscreenenter"",""1"",""655130""
","""event"",""trial"",""time""
""blur"",""0"",""0""
""blur"",""0"",""0""
""blur"",""1"",""631212""
","""event"",""trial"",""time""
""focus"",""0"",""0""
""focus"",""0"",""0""
""focus"",""1"",""654686""
","""event"",""trial"",""time""
""fullscreenenter"",""1"",""655130""
","
",,null,run_exp/static/images/task_images/gems/0.jpg,null,,,,,,,0,,,1,,,,,0,0.100729779,NaN,,,,,,,
decision,79,986797,0.0-28.0-2.0,"""event"",""trial"",""time""
""blur"",""0"",""0""
""focus"",""0"",""0""
""blur"",""0"",""0""
""focus"",""0"",""0""
""blur"",""1"",""631212""
""focus"",""1"",""654686""
""fullscreenenter"",""1"",""655130""
","""event"",""trial"",""time""
""blur"",""0"",""0""
""blur"",""0"",""0""
""blur"",""1"",""631212""
","""event"",""trial"",""time""
""focus"",""0"",""0""
""focus"",""0"",""0""
""focus"",""1"",""654686""
","""event"",""trial"",""time""
""fullscreenenter"",""1"",""655130""
","
",,585.9,run_exp/static/images/task_images/land.jpg,65,,,,,,,0,,,1,,,,,,,,29224,1,5,FALSE,,,
dig,80,989216,0.0-29.0-0.0,"""event"",""trial"",""time""
""blur"",""0"",""0""
""focus"",""0"",""0""
""blur"",""0"",""0""
""focus"",""0"",""0""
""blur"",""1"",""631212""
""focus"",""1"",""654686""
""fullscreenenter"",""1"",""655130""
","""event"",""trial"",""time""
""blur"",""0"",""0""
""blur"",""0"",""0""
""blur"",""1"",""631212""
","""event"",""trial"",""time""
""focus"",""0"",""0""
""focus"",""0"",""0""
""focus"",""1"",""654686""
","""event"",""trial"",""time""
""fullscreenenter"",""1"",""655130""
","
",,,,,,,,,,,,"[{""stimulus"":""run_exp/static/images/task_images/dig.jpg"",""time"":0.10000002384185791},{""stimulus"":""run_exp/static/images/task_images/land.jpg"",""time"":810.6000000238419},{""stimulus"":""run_exp/static/images/task_images/dig.jpg"",""time"":1614}]",[],1,,,,,,,,,,,,,,
harvest,81,990228,0.0-29.0-1.0,"""event"",""trial"",""time""
""blur"",""0"",""0""
""focus"",""0"",""0""
""blur"",""0"",""0""
""focus"",""0"",""0""
""blur"",""1"",""631212""
""focus"",""1"",""654686""
""fullscreenenter"",""1"",""655130""
","""event"",""trial"",""time""
""blur"",""0"",""0""
""blur"",""0"",""0""
""blur"",""1"",""631212""
","""event"",""trial"",""time""
""focus"",""0"",""0""
""focus"",""0"",""0""
""focus"",""1"",""654686""
","""event"",""trial"",""time""
""fullscreenenter"",""1"",""655130""
","
",,null,run_exp/static/images/task_images/gems/0.jpg,null,,,,,,,0,,,1,,,,,0,0.232075429,NaN,,,,,,,
decision,82,990604,0.0-29.0-2.0,"""event"",""trial"",""time""
""blur"",""0"",""0""
""focus"",""0"",""0""
""blur"",""0"",""0""
""focus"",""0"",""0""
""blur"",""1"",""631212""
""focus"",""1"",""654686""
""fullscreenenter"",""1"",""655130""
","""event"",""trial"",""time""
""blur"",""0"",""0""
""blur"",""0"",""0""
""blur"",""1"",""631212""
","""event"",""trial"",""time""
""focus"",""0"",""0""
""focus"",""0"",""0""
""focus"",""1"",""654686""
","""event"",""trial"",""time""
""fullscreenenter"",""1"",""655130""
","
",,373.2,run_exp/static/images/task_images/land.jpg,76,,,,,,,0,,,1,,,,,,,,33031,1,6,TRUE,,,
travel,83,1000236,0.0-30.0-0.0,"""event"",""trial"",""time""
""blur"",""0"",""0""
""focus"",""0"",""0""
""blur"",""0"",""0""
""focus"",""0"",""0""
""blur"",""1"",""631212""
""focus"",""1"",""654686""
""fullscreenenter"",""1"",""655130""
","""event"",""trial"",""time""
""blur"",""0"",""0""
""blur"",""0"",""0""
""blur"",""1"",""631212""
","""event"",""trial"",""time""
""focus"",""0"",""0""
""focus"",""0"",""0""
""focus"",""1"",""654686""
","""event"",""trial"",""time""
""fullscreenenter"",""1"",""655130""
","
",,,,,,,,,,,,"[{""stimulus"":""run_exp/static/images/task_images/rocket-01.jpg"",""time"":0.19999998807907104},{""stimulus"":""run_exp/static/images/task_images/rocket-02.jpg"",""time"":1077.5999999642372},{""stimulus"":""run_exp/static/images/task_images/rocket-03.jpg"",""time"":2141.599999964237},{""stimulus"":""run_exp/static/images/task_images/rocket-04.jpg"",""time"":3210.699999988079},{""stimulus"":""run_exp/static/images/task_images/rocket-05.jpg"",""time"":4283.800000011921},{""stimulus"":""run_exp/static/images/task_images/rocket-06.jpg"",""time"":5356},{""stimulus"":""run_exp/static/images/task_images/rocket-07.jpg"",""time"":6416.899999976158},{""stimulus"":""run_exp/static/images/task_images/rocket-08.jpg"",""time"":7492.099999964237},{""stimulus"":""run_exp/static/images/task_images/rocket-09.jpg"",""time"":8565.5}]",[],1,,,,,,,,,,,,,,
alien_welcome,84,1005245,0.0-30.0-1.0,"""event"",""trial"",""time""
""blur"",""0"",""0""
""focus"",""0"",""0""
""blur"",""0"",""0""
""focus"",""0"",""0""
""blur"",""1"",""631212""
""focus"",""1"",""654686""
""fullscreenenter"",""1"",""655130""
","""event"",""trial"",""time""
""blur"",""0"",""0""
""blur"",""0"",""0""
""blur"",""1"",""631212""
","""event"",""trial"",""time""
""focus"",""0"",""0""
""focus"",""0"",""0""
""focus"",""1"",""654686""
","""event"",""trial"",""time""
""fullscreenenter"",""1"",""655130""
","
",,null,run_exp/static/images/task_images/aliens/old_aliens/planet/alien_planet-73.jpg,null,,,,,,,,,,,,,73,"12,73,10,34,58,8,66,9,29,43,1,13,38,44,7,51,57,76,60,18,71,4,42,5,31,47,24,26,75,6,30",,,,,,,,,,
land,85,1005756,0.0-30.0-2.0,"""event"",""trial"",""time""
""blur"",""0"",""0""
""focus"",""0"",""0""
""blur"",""0"",""0""
""focus"",""0"",""0""
""blur"",""1"",""631212""
""focus"",""1"",""654686""
""fullscreenenter"",""1"",""655130""
","""event"",""trial"",""time""
""blur"",""0"",""0""
""blur"",""0"",""0""
""blur"",""1"",""631212""
","""event"",""trial"",""time""
""focus"",""0"",""0""
""focus"",""0"",""0""
""focus"",""1"",""654686""
","""event"",""trial"",""time""
""fullscreenenter"",""1"",""655130""
","
",,null,run_exp/static/images/task_images/land.jpg,null,,,,,,,95,,,2,,,,,,,,,,,,,,
dig,86,1007772,0.0-30.0-3.0,"""event"",""trial"",""time""
""blur"",""0"",""0""
""focus"",""0"",""0""
""blur"",""0"",""0""
""focus"",""0"",""0""
""blur"",""1"",""631212""
""focus"",""1"",""654686""
""fullscreenenter"",""1"",""655130""
","""event"",""trial"",""time""
""blur"",""0"",""0""
""blur"",""0"",""0""
""blur"",""1"",""631212""
","""event"",""trial"",""time""
""focus"",""0"",""0""
""focus"",""0"",""0""
""focus"",""1"",""654686""
","""event"",""trial"",""time""
""fullscreenenter"",""1"",""655130""
","
",,,,,,,,,,,,"[{""stimulus"":""run_exp/static/images/task_images/dig.jpg"",""time"":0.3999999761581421},{""stimulus"":""run_exp/static/images/task_images/land.jpg"",""time"":677.8000000119209},{""stimulus"":""run_exp/static/images/task_images/dig.jpg"",""time"":1337.8999999761581}]",[],2,,,,,,,,,,,,,,
harvest,87,1008778,0.0-30.0-4.0,"""event"",""trial"",""time""
""blur"",""0"",""0""
""focus"",""0"",""0""
""blur"",""0"",""0""
""focus"",""0"",""0""
""blur"",""1"",""631212""
""focus"",""1"",""654686""
""fullscreenenter"",""1"",""655130""
","""event"",""trial"",""time""
""blur"",""0"",""0""
""blur"",""0"",""0""
""blur"",""1"",""631212""
","""event"",""trial"",""time""
""focus"",""0"",""0""
""focus"",""0"",""0""
""focus"",""1"",""654686""
","""event"",""trial"",""time""
""fullscreenenter"",""1"",""655130""
","
",,null,run_exp/static/images/task_images/gems/95.jpg,null,,,,,,,18,,,2,,,,,95,0.189281304,0.189473684,,,,,,,
decision,88,1009295,0.0-30.0-5.0,"""event"",""trial"",""time""
""blur"",""0"",""0""
""focus"",""0"",""0""
""blur"",""0"",""0""
""focus"",""0"",""0""
""blur"",""1"",""631212""
""focus"",""1"",""654686""
""fullscreenenter"",""1"",""655130""
","""event"",""trial"",""time""
""blur"",""0"",""0""
""blur"",""0"",""0""
""blur"",""1"",""631212""
","""event"",""trial"",""time""
""focus"",""0"",""0""
""focus"",""0"",""0""
""focus"",""1"",""654686""
","""event"",""trial"",""time""
""fullscreenenter"",""1"",""655130""
","
",,513.7,run_exp/static/images/task_images/land.jpg,65,,,,,,,18,,,2,,,,,,,,51722,1,0,FALSE,,,
dig,89,1011784,0.0-31.0-0.0,"""event"",""trial"",""time""
""blur"",""0"",""0""
""focus"",""0"",""0""
""blur"",""0"",""0""
""focus"",""0"",""0""
""blur"",""1"",""631212""
""focus"",""1"",""654686""
""fullscreenenter"",""1"",""655130""
","""event"",""trial"",""time""
""blur"",""0"",""0""
""blur"",""0"",""0""
""blur"",""1"",""631212""
","""event"",""trial"",""time""
""focus"",""0"",""0""
""focus"",""0"",""0""
""focus"",""1"",""654686""
","""event"",""trial"",""time""
""fullscreenenter"",""1"",""655130""
","
",,,,,,,,,,,,"[{""stimulus"":""run_exp/static/images/task_images/dig.jpg"",""time"":0.19999998807907104},{""stimulus"":""run_exp/static/images/task_images/land.jpg"",""time"":830.2999999523163},{""stimulus"":""run_exp/static/images/task_images/dig.jpg"",""time"":1664.8999999761581}]",[],2,,,,,,,,,,,,,,
harvest,90,1012796,0.0-31.0-1.0,"""event"",""trial"",""time""
""blur"",""0"",""0""
""focus"",""0"",""0""
""blur"",""0"",""0""
""focus"",""0"",""0""
""blur"",""1"",""631212""
""focus"",""1"",""654686""
""fullscreenenter"",""1"",""655130""
","""event"",""trial"",""time""
""blur"",""0"",""0""
""blur"",""0"",""0""
""blur"",""1"",""631212""
","""event"",""trial"",""time""
""focus"",""0"",""0""
""focus"",""0"",""0""
""focus"",""1"",""654686""
","""event"",""trial"",""time""
""fullscreenenter"",""1"",""655130""
","
",,null,run_exp/static/images/task_images/gems/18.jpg,null,,,,,,,4,,,2,,,,,18,0.200442034,0.222222222,,,,,,,
decision,91,1014167,0.0-31.0-2.0,"""event"",""trial"",""time""
""blur"",""0"",""0""
""focus"",""0"",""0""
""blur"",""0"",""0""
""focus"",""0"",""0""
""blur"",""1"",""631212""
""focus"",""1"",""654686""
""fullscreenenter"",""1"",""655130""
","""event"",""trial"",""time""
""blur"",""0"",""0""
""blur"",""0"",""0""
""blur"",""1"",""631212""
","""event"",""trial"",""time""
""focus"",""0"",""0""
""focus"",""0"",""0""
""focus"",""1"",""654686""
","""event"",""trial"",""time""
""fullscreenenter"",""1"",""655130""
","
",,1368.7,run_exp/static/images/task_images/land.jpg,65,,,,,,,4,,,2,,,,,,,,56595,1,1,FALSE,,,
dig,92,1015808,0.0-32.0-0.0,"""event"",""trial"",""time""
""blur"",""0"",""0""
""focus"",""0"",""0""
""blur"",""0"",""0""
""focus"",""0"",""0""
""blur"",""1"",""631212""
""focus"",""1"",""654686""
""fullscreenenter"",""1"",""655130""
","""event"",""trial"",""time""
""blur"",""0"",""0""
""blur"",""0"",""0""
""blur"",""1"",""631212""
","""event"",""trial"",""time""
""focus"",""0"",""0""
""focus"",""0"",""0""
""focus"",""1"",""654686""
","""event"",""trial"",""time""
""fullscreenenter"",""1"",""655130""
","
",,,,,,,,,,,,"[{""stimulus"":""run_exp/static/images/task_images/dig.jpg"",""time"":0.19999998807907104},{""stimulus"":""run_exp/static/images/task_images/land.jpg"",""time"":550.5},{""stimulus"":""run_exp/static/images/task_images/dig.jpg"",""time"":1092.8999999761581}]",[],2,,,,,,,,,,,,,,
harvest,93,1016820,0.0-32.0-1.0,"""event"",""trial"",""time""
""blur"",""0"",""0""
""focus"",""0"",""0""
""blur"",""0"",""0""
""focus"",""0"",""0""
""blur"",""1"",""631212""
""focus"",""1"",""654686""
""fullscreenenter"",""1"",""655130""
","""event"",""trial"",""time""
""blur"",""0"",""0""
""blur"",""0"",""0""
""blur"",""1"",""631212""
","""event"",""trial"",""time""
""focus"",""0"",""0""
""focus"",""0"",""0""
""focus"",""1"",""654686""
","""event"",""trial"",""time""
""fullscreenenter"",""1"",""655130""
","
",,null,run_exp/static/images/task_images/gems/4.jpg,null,,,,,,,1,,,2,,,,,4,0.209613601,0.25,,,,,,,
decision,94,1017276,0.0-32.0-2.0,"""event"",""trial"",""time""
""blur"",""0"",""0""
""focus"",""0"",""0""
""blur"",""0"",""0""
""focus"",""0"",""0""
""blur"",""1"",""631212""
""focus"",""1"",""654686""
""fullscreenenter"",""1"",""655130""
","""event"",""trial"",""time""
""blur"",""0"",""0""
""blur"",""0"",""0""
""blur"",""1"",""631212""
","""event"",""trial"",""time""
""focus"",""0"",""0""
""focus"",""0"",""0""
""focus"",""1"",""654686""
","""event"",""trial"",""time""
""fullscreenenter"",""1"",""655130""
","
",,452.6,run_exp/static/images/task_images/land.jpg,65,,,,,,,1,,,2,,,,,,,,59703,1,2,FALSE,,,
dig,95,1019836,0.0-33.0-0.0,"""event"",""trial"",""time""
""blur"",""0"",""0""
""focus"",""0"",""0""
""blur"",""0"",""0""
""focus"",""0"",""0""
""blur"",""1"",""631212""
""focus"",""1"",""654686""
""fullscreenenter"",""1"",""655130""
","""event"",""trial"",""time""
""blur"",""0"",""0""
""blur"",""0"",""0""
""blur"",""1"",""631212""
","""event"",""trial"",""time""
""focus"",""0"",""0""
""focus"",""0"",""0""
""focus"",""1"",""654686""
","""event"",""trial"",""time""
""fullscreenenter"",""1"",""655130""
","
",,,,,,,,,,,,"[{""stimulus"":""run_exp/static/images/task_images/dig.jpg"",""time"":0.10000002384185791},{""stimulus"":""run_exp/static/images/task_images/land.jpg"",""time"":861.5},{""stimulus"":""run_exp/static/images/task_images/dig.jpg"",""time"":1705.699999988079}]",[],2,,,,,,,,,,,,,,
harvest,96,1020843,0.0-33.0-1.0,"""event"",""trial"",""time""
""blur"",""0"",""0""
""focus"",""0"",""0""
""blur"",""0"",""0""
""focus"",""0"",""0""
""blur"",""1"",""631212""
""focus"",""1"",""654686""
""fullscreenenter"",""1"",""655130""
","""event"",""trial"",""time""
""blur"",""0"",""0""
""blur"",""0"",""0""
""blur"",""1"",""631212""
","""event"",""trial"",""time""
""focus"",""0"",""0""
""focus"",""0"",""0""
""focus"",""1"",""654686""
","""event"",""trial"",""time""
""fullscreenenter"",""1"",""655130""
","
",,null,run_exp/static/images/task_images/gems/1.jpg,null,,,,,,,0,,,2,,,,,1,0.180647855,0,,,,,,,
decision,97,1021320,0.0-33.0-2.0,"""event"",""trial"",""time""
""blur"",""0"",""0""
""focus"",""0"",""0""
""blur"",""0"",""0""
""focus"",""0"",""0""
""blur"",""1"",""631212""
""focus"",""1"",""654686""
""fullscreenenter"",""1"",""655130""
","""event"",""trial"",""time""
""blur"",""0"",""0""
""blur"",""0"",""0""
""blur"",""1"",""631212""
","""event"",""trial"",""time""
""focus"",""0"",""0""
""focus"",""0"",""0""
""focus"",""1"",""654686""
","""event"",""trial"",""time""
""fullscreenenter"",""1"",""655130""
","
",,473.8,run_exp/static/images/task_images/land.jpg,76,,,,,,,0,,,2,,,,,,,,63747,1,3,TRUE,,,
travel,98,1030852,0.0-34.0-0.0,"""event"",""trial"",""time""
""blur"",""0"",""0""
""focus"",""0"",""0""
""blur"",""0"",""0""
""focus"",""0"",""0""
""blur"",""1"",""631212""
""focus"",""1"",""654686""
""fullscreenenter"",""1"",""655130""
","""event"",""trial"",""time""
""blur"",""0"",""0""
""blur"",""0"",""0""
""blur"",""1"",""631212""
","""event"",""trial"",""time""
""focus"",""0"",""0""
""focus"",""0"",""0""
""focus"",""1"",""654686""
","""event"",""trial"",""time""
""fullscreenenter"",""1"",""655130""
","
",,,,,,,,,,,,"[{""stimulus"":""run_exp/static/images/task_images/rocket-01.jpg"",""time"":0.09999996423721313},{""stimulus"":""run_exp/static/images/task_images/rocket-02.jpg"",""time"":1064.699999988079},{""stimulus"":""run_exp/static/images/task_images/rocket-03.jpg"",""time"":2124.5},{""stimulus"":""run_exp/static/images/task_images/rocket-04.jpg"",""time"":3180.099999964237},{""stimulus"":""run_exp/static/images/task_images/rocket-05.jpg"",""time"":4238},{""stimulus"":""run_exp/static/images/task_images/rocket-06.jpg"",""time"":5295},{""stimulus"":""run_exp/static/images/task_images/rocket-07.jpg"",""time"":6360.599999964237},{""stimulus"":""run_exp/static/images/task_images/rocket-08.jpg"",""time"":7412.099999964237},{""stimulus"":""run_exp/static/images/task_images/rocket-09.jpg"",""time"":8471.199999988079}]",[],2,,,,,,,,,,,,,,
alien_welcome,99,1035856,0.0-34.0-1.0,"""event"",""trial"",""time""
""blur"",""0"",""0""
""focus"",""0"",""0""
""blur"",""0"",""0""
""focus"",""0"",""0""
""blur"",""1"",""631212""
""focus"",""1"",""654686""
""fullscreenenter"",""1"",""655130""
","""event"",""trial"",""time""
""blur"",""0"",""0""
""blur"",""0"",""0""
""blur"",""1"",""631212""
","""event"",""trial"",""time""
""focus"",""0"",""0""
""focus"",""0"",""0""
""focus"",""1"",""654686""
","""event"",""trial"",""time""
""fullscreenenter"",""1"",""655130""
","
",,null,run_exp/static/images/task_images/aliens/old_aliens/planet/alien_planet-10.jpg,null,,,,,,,,,,,,,10,"12,73,10,34,58,8,66,9,29,43,1,13,38,44,7,51,57,76,60,18,71,4,42,5,31,47,24,26,75,6,30",,,,,,,,,,
land,100,1036364,0.0-34.0-2.0,"""event"",""trial"",""time""
""blur"",""0"",""0""
""focus"",""0"",""0""
""blur"",""0"",""0""
""focus"",""0"",""0""
""blur"",""1"",""631212""
""focus"",""1"",""654686""
""fullscreenenter"",""1"",""655130""
","""event"",""trial"",""time""
""blur"",""0"",""0""
""blur"",""0"",""0""
""blur"",""1"",""631212""
","""event"",""trial"",""time""
""focus"",""0"",""0""
""focus"",""0"",""0""
""focus"",""1"",""654686""
","""event"",""trial"",""time""
""fullscreenenter"",""1"",""655130""
","
",,null,run_exp/static/images/task_images/land.jpg,null,,,,,,,105,,,3,,,,,,,,,,,,,,
dig,101,1038380,0.0-34.0-3.0,"""event"",""trial"",""time""
""blur"",""0"",""0""
""focus"",""0"",""0""
""blur"",""0"",""0""
""focus"",""0"",""0""
""blur"",""1"",""631212""
""focus"",""1"",""654686""
""fullscreenenter"",""1"",""655130""
","""event"",""trial"",""time""
""blur"",""0"",""0""
""blur"",""0"",""0""
""blur"",""1"",""631212""
","""event"",""trial"",""time""
""focus"",""0"",""0""
""focus"",""0"",""0""
""focus"",""1"",""654686""
","""event"",""trial"",""time""
""fullscreenenter"",""1"",""655130""
","
",,,,,,,,,,,,"[{""stimulus"":""run_exp/static/images/task_images/dig.jpg"",""time"":0.5},{""stimulus"":""run_exp/static/images/task_images/land.jpg"",""time"":674},{""stimulus"":""run_exp/static/images/task_images/dig.jpg"",""time"":1337.6000000238419}]",[],3,,,,,,,,,,,,,,
harvest,102,1039387,0.0-34.0-4.0,"""event"",""trial"",""time""
""blur"",""0"",""0""
""focus"",""0"",""0""
""blur"",""0"",""0""
""focus"",""0"",""0""
""blur"",""1"",""631212""
""focus"",""1"",""654686""
""fullscreenenter"",""1"",""655130""
","""event"",""trial"",""time""
""blur"",""0"",""0""
""blur"",""0"",""0""
""blur"",""1"",""631212""
","""event"",""trial"",""time""
""focus"",""0"",""0""
""focus"",""0"",""0""
""focus"",""1"",""654686""
","""event"",""trial"",""time""
""fullscreenenter"",""1"",""655130""
","
",,null,run_exp/static/images/task_images/gems/105.jpg,null,,,,,,,49,,,3,,,,,105,0.469893631,0.466666667,,,,,,,
decision,103,1041053,0.0-34.0-5.0,"""event"",""trial"",""time""
""blur"",""0"",""0""
""focus"",""0"",""0""
""blur"",""0"",""0""
""focus"",""0"",""0""
""blur"",""1"",""631212""
""focus"",""1"",""654686""
""fullscreenenter"",""1"",""655130""
","""event"",""trial"",""time""
""blur"",""0"",""0""
""blur"",""0"",""0""
""blur"",""1"",""631212""
","""event"",""trial"",""time""
""focus"",""0"",""0""
""focus"",""0"",""0""
""focus"",""1"",""654686""
","""event"",""trial"",""time""
""fullscreenenter"",""1"",""655130""
","
",,1664.5,run_exp/static/images/task_images/land.jpg,65,,,,,,,49,,,3,,,,,,,,83481,1,0,FALSE,,,
dig,104,1042403,0.0-35.0-0.0,"""event"",""trial"",""time""
""blur"",""0"",""0""
""focus"",""0"",""0""
""blur"",""0"",""0""
""focus"",""0"",""0""
""blur"",""1"",""631212""
""focus"",""1"",""654686""
""fullscreenenter"",""1"",""655130""
","""event"",""trial"",""time""
""blur"",""0"",""0""
""blur"",""0"",""0""
""blur"",""1"",""631212""
","""event"",""trial"",""time""
""focus"",""0"",""0""
""focus"",""0"",""0""
""focus"",""1"",""654686""
","""event"",""trial"",""time""
""fullscreenenter"",""1"",""655130""
","
",,,,,,,,,,,,"[{""stimulus"":""run_exp/static/images/task_images/dig.jpg"",""time"":0.10000002384185791},{""stimulus"":""run_exp/static/images/task_images/land.jpg"",""time"":458.60000002384186},{""stimulus"":""run_exp/static/images/task_images/dig.jpg"",""time"":894.6000000238419}]",[],3,,,,,,,,,,,,,,
harvest,105,1043412,0.0-35.0-1.0,"""event"",""trial"",""time""
""blur"",""0"",""0""
""focus"",""0"",""0""
""blur"",""0"",""0""
""focus"",""0"",""0""
""blur"",""1"",""631212""
""focus"",""1"",""654686""
""fullscreenenter"",""1"",""655130""
","""event"",""trial"",""time""
""blur"",""0"",""0""
""blur"",""0"",""0""
""blur"",""1"",""631212""
","""event"",""trial"",""time""
""focus"",""0"",""0""
""focus"",""0"",""0""
""focus"",""1"",""654686""
","""event"",""trial"",""time""
""fullscreenenter"",""1"",""655130""
","
",,null,run_exp/static/images/task_images/gems/49.jpg,null,,,,,,,26,,,3,,,,,49,0.525964806,0.530612245,,,,,,,
decision,106,1044951,0.0-35.0-2.0,"""event"",""trial"",""time""
""blur"",""0"",""0""
""focus"",""0"",""0""
""blur"",""0"",""0""
""focus"",""0"",""0""
""blur"",""1"",""631212""
""focus"",""1"",""654686""
""fullscreenenter"",""1"",""655130""
","""event"",""trial"",""time""
""blur"",""0"",""0""
""blur"",""0"",""0""
""blur"",""1"",""631212""
","""event"",""trial"",""time""
""focus"",""0"",""0""
""focus"",""0"",""0""
""focus"",""1"",""654686""
","""event"",""trial"",""time""
""fullscreenenter"",""1"",""655130""
","
",,1536.3,run_exp/static/images/task_images/land.jpg,65,,,,,,,26,,,3,,,,,,,,87378,1,1,FALSE,,,
dig,107,1046428,0.0-36.0-0.0,"""event"",""trial"",""time""
""blur"",""0"",""0""
""focus"",""0"",""0""
""blur"",""0"",""0""
""focus"",""0"",""0""
""blur"",""1"",""631212""
""focus"",""1"",""654686""
""fullscreenenter"",""1"",""655130""
","""event"",""trial"",""time""
""blur"",""0"",""0""
""blur"",""0"",""0""
""blur"",""1"",""631212""
","""event"",""trial"",""time""
""focus"",""0"",""0""
""focus"",""0"",""0""
""focus"",""1"",""654686""
","""event"",""trial"",""time""
""fullscreenenter"",""1"",""655130""
","
",,,,,,,,,,,,"[{""stimulus"":""run_exp/static/images/task_images/dig.jpg"",""time"":0.30000001192092896},{""stimulus"":""run_exp/static/images/task_images/land.jpg"",""time"":497.60000002384186},{""stimulus"":""run_exp/static/images/task_images/dig.jpg"",""time"":981.6000000238419}]",[],3,,,,,,,,,,,,,,
harvest,108,1047433,0.0-36.0-1.0,"""event"",""trial"",""time""
""blur"",""0"",""0""
""focus"",""0"",""0""
""blur"",""0"",""0""
""focus"",""0"",""0""
""blur"",""1"",""631212""
""focus"",""1"",""654686""
""fullscreenenter"",""1"",""655130""
","""event"",""trial"",""time""
""blur"",""0"",""0""
""blur"",""0"",""0""
""blur"",""1"",""631212""
","""event"",""trial"",""time""
""focus"",""0"",""0""
""focus"",""0"",""0""
""focus"",""1"",""654686""
","""event"",""trial"",""time""
""fullscreenenter"",""1"",""655130""
","
",,null,run_exp/static/images/task_images/gems/26.jpg,null,,,,,,,11,,,3,,,,,26,0.434055737,0.423076923,,,,,,,
decision,109,1048623,0.0-36.0-2.0,"""event"",""trial"",""time""
""blur"",""0"",""0""
""focus"",""0"",""0""
""blur"",""0"",""0""
""focus"",""0"",""0""
""blur"",""1"",""631212""
""focus"",""1"",""654686""
""fullscreenenter"",""1"",""655130""
","""event"",""trial"",""time""
""blur"",""0"",""0""
""blur"",""0"",""0""
""blur"",""1"",""631212""
","""event"",""trial"",""time""
""focus"",""0"",""0""
""focus"",""0"",""0""
""focus"",""1"",""654686""
","""event"",""trial"",""time""
""fullscreenenter"",""1"",""655130""
","
",,1189,run_exp/static/images/task_images/land.jpg,65,,,,,,,11,,,3,,,,,,,,91050,1,2,FALSE,,,
dig,110,1050440,0.0-37.0-0.0,"""event"",""trial"",""time""
""blur"",""0"",""0""
""focus"",""0"",""0""
""blur"",""0"",""0""
""focus"",""0"",""0""
""blur"",""1"",""631212""
""focus"",""1"",""654686""
""fullscreenenter"",""1"",""655130""
","""event"",""trial"",""time""
""blur"",""0"",""0""
""blur"",""0"",""0""
""blur"",""1"",""631212""
","""event"",""trial"",""time""
""focus"",""0"",""0""
""focus"",""0"",""0""
""focus"",""1"",""654686""
","""event"",""trial"",""time""
""fullscreenenter"",""1"",""655130""
","
",,,,,,,,,,,,"[{""stimulus"":""run_exp/static/images/task_images/dig.jpg"",""time"":0.10000002384185791},{""stimulus"":""run_exp/static/images/task_images/land.jpg"",""time"":607.1999999880791},{""stimulus"":""run_exp/static/images/task_images/dig.jpg"",""time"":1215.5}]",[],3,,,,,,,,,,,,,,
harvest,111,1051452,0.0-37.0-1.0,"""event"",""trial"",""time""
""blur"",""0"",""0""
""focus"",""0"",""0""
""blur"",""0"",""0""
""focus"",""0"",""0""
""blur"",""1"",""631212""
""focus"",""1"",""654686""
""fullscreenenter"",""1"",""655130""
","""event"",""trial"",""time""
""blur"",""0"",""0""
""blur"",""0"",""0""
""blur"",""1"",""631212""
","""event"",""trial"",""time""
""focus"",""0"",""0""
""focus"",""0"",""0""
""focus"",""1"",""654686""
","""event"",""trial"",""time""
""fullscreenenter"",""1"",""655130""
","
",,null,run_exp/static/images/task_images/gems/11.jpg,null,,,,,,,5,,,3,,,,,11,0.480857656,0.454545455,,,,,,,
decision,112,1052065,0.0-37.0-2.0,"""event"",""trial"",""time""
""blur"",""0"",""0""
""focus"",""0"",""0""
""blur"",""0"",""0""
""focus"",""0"",""0""
""blur"",""1"",""631212""
""focus"",""1"",""654686""
""fullscreenenter"",""1"",""655130""
","""event"",""trial"",""time""
""blur"",""0"",""0""
""blur"",""0"",""0""
""blur"",""1"",""631212""
","""event"",""trial"",""time""
""focus"",""0"",""0""
""focus"",""0"",""0""
""focus"",""1"",""654686""
","""event"",""trial"",""time""
""fullscreenenter"",""1"",""655130""
","
",,609.8,run_exp/static/images/task_images/land.jpg,65,,,,,,,5,,,3,,,,,,,,94492,1,3,FALSE,,,
dig,113,1054468,0.0-38.0-0.0,"""event"",""trial"",""time""
""blur"",""0"",""0""
""focus"",""0"",""0""
""blur"",""0"",""0""
""focus"",""0"",""0""
""blur"",""1"",""631212""
""focus"",""1"",""654686""
""fullscreenenter"",""1"",""655130""
","""event"",""trial"",""time""
""blur"",""0"",""0""
""blur"",""0"",""0""
""blur"",""1"",""631212""
","""event"",""trial"",""time""
""focus"",""0"",""0""
""focus"",""0"",""0""
""focus"",""1"",""654686""
","""event"",""trial"",""time""
""fullscreenenter"",""1"",""655130""
","
",,,,,,,,,,,,"[{""stimulus"":""run_exp/static/images/task_images/dig.jpg"",""time"":0.19999998807907104},{""stimulus"":""run_exp/static/images/task_images/land.jpg"",""time"":807.7999999523163},{""stimulus"":""run_exp/static/images/task_images/dig.jpg"",""time"":1599.7999999523163}]",[],3,,,,,,,,,,,,,,
harvest,114,1055476,0.0-38.0-1.0,"""event"",""trial"",""time""
""blur"",""0"",""0""
""focus"",""0"",""0""
""blur"",""0"",""0""
""focus"",""0"",""0""
""blur"",""1"",""631212""
""focus"",""1"",""654686""
""fullscreenenter"",""1"",""655130""
","""event"",""trial"",""time""
""blur"",""0"",""0""
""blur"",""0"",""0""
""blur"",""1"",""631212""
","""event"",""trial"",""time""
""focus"",""0"",""0""
""focus"",""0"",""0""
""focus"",""1"",""654686""
","""event"",""trial"",""time""
""fullscreenenter"",""1"",""655130""
","
",,null,run_exp/static/images/task_images/gems/5.jpg,null,,,,,,,3,,,3,,,,,5,0.52298314,0.6,,,,,,,
decision,115,1055971,0.0-38.0-2.0,"""event"",""trial"",""time""
""blur"",""0"",""0""
""focus"",""0"",""0""
""blur"",""0"",""0""
""focus"",""0"",""0""
""blur"",""1"",""631212""
""focus"",""1"",""654686""
""fullscreenenter"",""1"",""655130""
","""event"",""trial"",""time""
""blur"",""0"",""0""
""blur"",""0"",""0""
""blur"",""1"",""631212""
","""event"",""trial"",""time""
""focus"",""0"",""0""
""focus"",""0"",""0""
""focus"",""1"",""654686""
","""event"",""trial"",""time""
""fullscreenenter"",""1"",""655130""
","
",,492.5,run_exp/static/images/task_images/land.jpg,65,,,,,,,3,,,3,,,,,,,,98398,1,4,FALSE,,,
dig,116,1058492,0.0-39.0-0.0,"""event"",""trial"",""time""
""blur"",""0"",""0""
""focus"",""0"",""0""
""blur"",""0"",""0""
""focus"",""0"",""0""
""blur"",""1"",""631212""
""focus"",""1"",""654686""
""fullscreenenter"",""1"",""655130""
","""event"",""trial"",""time""
""blur"",""0"",""0""
""blur"",""0"",""0""
""blur"",""1"",""631212""
","""event"",""trial"",""time""
""focus"",""0"",""0""
""focus"",""0"",""0""
""focus"",""1"",""654686""
","""event"",""trial"",""time""
""fullscreenenter"",""1"",""655130""
","
",,,,,,,,,,,,"[{""stimulus"":""run_exp/static/images/task_images/dig.jpg"",""time"":0.19999998807907104},{""stimulus"":""run_exp/static/images/task_images/land.jpg"",""time"":845.1999999880791},{""stimulus"":""run_exp/static/images/task_images/dig.jpg"",""time"":1673.3999999761581}]",[],3,,,,,,,,,,,,,,
harvest,117,1059496,0.0-39.0-1.0,"""event"",""trial"",""time""
""blur"",""0"",""0""
""focus"",""0"",""0""
""blur"",""0"",""0""
""focus"",""0"",""0""
""blur"",""1"",""631212""
""focus"",""1"",""654686""
""fullscreenenter"",""1"",""655130""
","""event"",""trial"",""time""
""blur"",""0"",""0""
""blur"",""0"",""0""
""blur"",""1"",""631212""
","""event"",""trial"",""time""
""focus"",""0"",""0""
""focus"",""0"",""0""
""focus"",""1"",""654686""
","""event"",""trial"",""time""
""fullscreenenter"",""1"",""655130""
","
",,null,run_exp/static/images/task_images/gems/3.jpg,null,,,,,,,2,,,3,,,,,3,0.577185155,0.666666667,,,,,,,
decision,118,1059718,0.0-39.0-2.0,"""event"",""trial"",""time""
""blur"",""0"",""0""
""focus"",""0"",""0""
""blur"",""0"",""0""
""focus"",""0"",""0""
""blur"",""1"",""631212""
""focus"",""1"",""654686""
""fullscreenenter"",""1"",""655130""
","""event"",""trial"",""time""
""blur"",""0"",""0""
""blur"",""0"",""0""
""blur"",""1"",""631212""
","""event"",""trial"",""time""
""focus"",""0"",""0""
""focus"",""0"",""0""
""focus"",""1"",""654686""
","""event"",""trial"",""time""
""fullscreenenter"",""1"",""655130""
","
",,220.2,run_exp/static/images/task_images/land.jpg,65,,,,,,,2,,,3,,,,,,,,102146,1,5,FALSE,,,
dig,119,1062506,0.0-40.0-0.0,"""event"",""trial"",""time""
""blur"",""0"",""0""
""focus"",""0"",""0""
""blur"",""0"",""0""
""focus"",""0"",""0""
""blur"",""1"",""631212""
""focus"",""1"",""654686""
""fullscreenenter"",""1"",""655130""
","""event"",""trial"",""time""
""blur"",""0"",""0""
""blur"",""0"",""0""
""blur"",""1"",""631212""
","""event"",""trial"",""time""
""focus"",""0"",""0""
""focus"",""0"",""0""
""focus"",""1"",""654686""
","""event"",""trial"",""time""
""fullscreenenter"",""1"",""655130""
","
",,,,,,,,,,,,"[{""stimulus"":""run_exp/static/images/task_images/dig.jpg"",""time"":0.09999996423721313},{""stimulus"":""run_exp/static/images/task_images/land.jpg"",""time"":933.6999999880791},{""stimulus"":""run_exp/static/images/task_images/dig.jpg"",""time"":1863.5}]",[],3,,,,,,,,,,,,,,
harvest,120,1063515,0.0-40.0-1.0,"""event"",""trial"",""time""
""blur"",""0"",""0""
""focus"",""0"",""0""
""blur"",""0"",""0""
""focus"",""0"",""0""
""blur"",""1"",""631212""
""focus"",""1"",""654686""
""fullscreenenter"",""1"",""655130""
","""event"",""trial"",""time""
""blur"",""0"",""0""
""blur"",""0"",""0""
""blur"",""1"",""631212""
","""event"",""trial"",""time""
""focus"",""0"",""0""
""focus"",""0"",""0""
""focus"",""1"",""654686""
","""event"",""trial"",""time""
""fullscreenenter"",""1"",""655130""
","
",,null,run_exp/static/images/task_images/gems/2.jpg,null,,,,,,,1,,,3,,,,,2,0.532674603,0.5,,,,,,,
decision,121,1063834,0.0-40.0-2.0,"""event"",""trial"",""time""
""blur"",""0"",""0""
""focus"",""0"",""0""
""blur"",""0"",""0""
""focus"",""0"",""0""
""blur"",""1"",""631212""
""focus"",""1"",""654686""
""fullscreenenter"",""1"",""655130""
","""event"",""trial"",""time""
""blur"",""0"",""0""
""blur"",""0"",""0""
""blur"",""1"",""631212""
","""event"",""trial"",""time""
""focus"",""0"",""0""
""focus"",""0"",""0""
""focus"",""1"",""654686""
","""event"",""trial"",""time""
""fullscreenenter"",""1"",""655130""
","
",,316.5,run_exp/static/images/task_images/land.jpg,76,,,,,,,1,,,3,,,,,,,,106261,1,6,TRUE,,,
travel,122,1073521,0.0-41.0-0.0,"""event"",""trial"",""time""
""blur"",""0"",""0""
""focus"",""0"",""0""
""blur"",""0"",""0""
""focus"",""0"",""0""
""blur"",""1"",""631212""
""focus"",""1"",""654686""
""fullscreenenter"",""1"",""655130""
","""event"",""trial"",""time""
""blur"",""0"",""0""
""blur"",""0"",""0""
""blur"",""1"",""631212""
","""event"",""trial"",""time""
""focus"",""0"",""0""
""focus"",""0"",""0""
""focus"",""1"",""654686""
","""event"",""trial"",""time""
""fullscreenenter"",""1"",""655130""
","
",,,,,,,,,,,,"[{""stimulus"":""run_exp/static/images/task_images/rocket-01.jpg"",""time"":0.19999998807907104},{""stimulus"":""run_exp/static/images/task_images/rocket-02.jpg"",""time"":1082.199999988079},{""stimulus"":""run_exp/static/images/task_images/rocket-03.jpg"",""time"":2157},{""stimulus"":""run_exp/static/images/task_images/rocket-04.jpg"",""time"":3234.399999976158},{""stimulus"":""run_exp/static/images/task_images/rocket-05.jpg"",""time"":4310.300000011921},{""stimulus"":""run_exp/static/images/task_images/rocket-06.jpg"",""time"":5381.399999976158},{""stimulus"":""run_exp/static/images/task_images/rocket-07.jpg"",""time"":6456.899999976158},{""stimulus"":""run_exp/static/images/task_images/rocket-08.jpg"",""time"":7534.399999976158},{""stimulus"":""run_exp/static/images/task_images/rocket-09.jpg"",""time"":8606.300000011921}]",[],3,,,,,,,,,,,,,,
alien_welcome,123,1078532,0.0-41.0-1.0,"""event"",""trial"",""time""
""blur"",""0"",""0""
""focus"",""0"",""0""
""blur"",""0"",""0""
""focus"",""0"",""0""
""blur"",""1"",""631212""
""focus"",""1"",""654686""
""fullscreenenter"",""1"",""655130""
","""event"",""trial"",""time""
""blur"",""0"",""0""
""blur"",""0"",""0""
""blur"",""1"",""631212""
","""event"",""trial"",""time""
""focus"",""0"",""0""
""focus"",""0"",""0""
""focus"",""1"",""654686""
","""event"",""trial"",""time""
""fullscreenenter"",""1"",""655130""
","
",,null,run_exp/static/images/task_images/aliens/old_aliens/planet/alien_planet-34.jpg,null,,,,,,,,,,,,,34,"12,73,10,34,58,8,66,9,29,43,1,13,38,44,7,51,57,76,60,18,71,4,42,5,31,47,24,26,75,6,30",,,,,,,,,,
land,124,1079043,0.0-41.0-2.0,"""event"",""trial"",""time""
""blur"",""0"",""0""
""focus"",""0"",""0""
""blur"",""0"",""0""
""focus"",""0"",""0""
""blur"",""1"",""631212""
""focus"",""1"",""654686""
""fullscreenenter"",""1"",""655130""
","""event"",""trial"",""time""
""blur"",""0"",""0""
""blur"",""0"",""0""
""blur"",""1"",""631212""
","""event"",""trial"",""time""
""focus"",""0"",""0""
""focus"",""0"",""0""
""focus"",""1"",""654686""
","""event"",""trial"",""time""
""fullscreenenter"",""1"",""655130""
","
",,null,run_exp/static/images/task_images/land.jpg,null,,,,,,,93,,,4,,,,,,,,,,,,,,
dig,125,1081060,0.0-41.0-3.0,"""event"",""trial"",""time""
""blur"",""0"",""0""
""focus"",""0"",""0""
""blur"",""0"",""0""
""focus"",""0"",""0""
""blur"",""1"",""631212""
""focus"",""1"",""654686""
""fullscreenenter"",""1"",""655130""
","""event"",""trial"",""time""
""blur"",""0"",""0""
""blur"",""0"",""0""
""blur"",""1"",""631212""
","""event"",""trial"",""time""
""focus"",""0"",""0""
""focus"",""0"",""0""
""focus"",""1"",""654686""
","""event"",""trial"",""time""
""fullscreenenter"",""1"",""655130""
","
",,,,,,,,,,,,"[{""stimulus"":""run_exp/static/images/task_images/dig.jpg"",""time"":0.40000003576278687},{""stimulus"":""run_exp/static/images/task_images/land.jpg"",""time"":679.5},{""stimulus"":""run_exp/static/images/task_images/dig.jpg"",""time"":1339.5}]",[],4,,,,,,,,,,,,,,
harvest,126,1082068,0.0-41.0-4.0,"""event"",""trial"",""time""
""blur"",""0"",""0""
""focus"",""0"",""0""
""blur"",""0"",""0""
""focus"",""0"",""0""
""blur"",""1"",""631212""
""focus"",""1"",""654686""
""fullscreenenter"",""1"",""655130""
","""event"",""trial"",""time""
""blur"",""0"",""0""
""blur"",""0"",""0""
""blur"",""1"",""631212""
","""event"",""trial"",""time""
""focus"",""0"",""0""
""focus"",""0"",""0""
""focus"",""1"",""654686""
","""event"",""trial"",""time""
""fullscreenenter"",""1"",""655130""
","
",,null,run_exp/static/images/task_images/gems/93.jpg,null,,,,,,,49,,,4,,,,,93,0.529571845,0.52688172,,,,,,,
decision,127,1083715,0.0-41.0-5.0,"""event"",""trial"",""time""
""blur"",""0"",""0""
""focus"",""0"",""0""
""blur"",""0"",""0""
""focus"",""0"",""0""
""blur"",""1"",""631212""
""focus"",""1"",""654686""
""fullscreenenter"",""1"",""655130""
","""event"",""trial"",""time""
""blur"",""0"",""0""
""blur"",""0"",""0""
""blur"",""1"",""631212""
","""event"",""trial"",""time""
""focus"",""0"",""0""
""focus"",""0"",""0""
""focus"",""1"",""654686""
","""event"",""trial"",""time""
""fullscreenenter"",""1"",""655130""
","
",,1643.9,run_exp/static/images/task_images/land.jpg,65,,,,,,,49,,,4,,,,,,,,126142,1,0,FALSE,,,
dig,128,1085083,0.0-42.0-0.0,"""event"",""trial"",""time""
""blur"",""0"",""0""
""focus"",""0"",""0""
""blur"",""0"",""0""
""focus"",""0"",""0""
""blur"",""1"",""631212""
""focus"",""1"",""654686""
""fullscreenenter"",""1"",""655130""
","""event"",""trial"",""time""
""blur"",""0"",""0""
""blur"",""0"",""0""
""blur"",""1"",""631212""
","""event"",""trial"",""time""
""focus"",""0"",""0""
""focus"",""0"",""0""
""focus"",""1"",""654686""
","""event"",""trial"",""time""
""fullscreenenter"",""1"",""655130""
","
",,,,,,,,,,,,"[{""stimulus"":""run_exp/static/images/task_images/dig.jpg"",""time"":0.19999998807907104},{""stimulus"":""run_exp/static/images/task_images/land.jpg"",""time"":461.69999998807907},{""stimulus"":""run_exp/static/images/task_images/dig.jpg"",""time"":917.5999999642372}]",[],4,,,,,,,,,,,,,,
harvest,129,1086089,0.0-42.0-1.0,"""event"",""trial"",""time""
""blur"",""0"",""0""
""focus"",""0"",""0""
""blur"",""0"",""0""
""focus"",""0"",""0""
""blur"",""1"",""631212""
""focus"",""1"",""654686""
""fullscreenenter"",""1"",""655130""
","""event"",""trial"",""time""
""blur"",""0"",""0""
""blur"",""0"",""0""
""blur"",""1"",""631212""
","""event"",""trial"",""time""
""focus"",""0"",""0""
""focus"",""0"",""0""
""focus"",""1"",""654686""
","""event"",""trial"",""time""
""fullscreenenter"",""1"",""655130""
","
",,null,run_exp/static/images/task_images/gems/49.jpg,null,,,,,,,23,,,4,,,,,49,0.465314015,0.469387755,,,,,,,
decision,130,1086690,0.0-42.0-2.0,"""event"",""trial"",""time""
""blur"",""0"",""0""
""focus"",""0"",""0""
""blur"",""0"",""0""
""focus"",""0"",""0""
""blur"",""1"",""631212""
""focus"",""1"",""654686""
""fullscreenenter"",""1"",""655130""
","""event"",""trial"",""time""
""blur"",""0"",""0""
""blur"",""0"",""0""
""blur"",""1"",""631212""
","""event"",""trial"",""time""
""focus"",""0"",""0""
""focus"",""0"",""0""
""focus"",""1"",""654686""
","""event"",""trial"",""time""
""fullscreenenter"",""1"",""655130""
","
",,598.5,run_exp/static/images/task_images/land.jpg,65,,,,,,,23,,,4,,,,,,,,129117,1,1,FALSE,,,
dig,131,1089098,0.0-43.0-0.0,"""event"",""trial"",""time""
""blur"",""0"",""0""
""focus"",""0"",""0""
""blur"",""0"",""0""
""focus"",""0"",""0""
""blur"",""1"",""631212""
""focus"",""1"",""654686""
""fullscreenenter"",""1"",""655130""
","""event"",""trial"",""time""
""blur"",""0"",""0""
""blur"",""0"",""0""
""blur"",""1"",""631212""
","""event"",""trial"",""time""
""focus"",""0"",""0""
""focus"",""0"",""0""
""focus"",""1"",""654686""
","""event"",""trial"",""time""
""fullscreenenter"",""1"",""655130""
","
