trial_type,trial_index,time_elapsed,internal_node_id,interactions,blur_events,focus_events,fullscreenenter_events,fullscreenexit_events,success,rt,stimulus,key_press,prompt,subject_id,participant_id,age,gender,button_pressed,next_reward,animation_sequence,responses,planet,curr_prac_trial,n_prac_rounds,alien,aliens,reward_received,decay_rate_actual,decay_rate_exp,time_in_block,block_num,prt,last_trial_on_planet,button_html,bonus,num_failures
pavlovia,0,3,0.0-0.0,"""event"",""trial"",""time""
""blur"",""0"",""0""
""focus"",""1"",""10381""
""fullscreenenter"",""1"",""10880""
","""event"",""trial"",""time""
""blur"",""0"",""0""
","""event"",""trial"",""time""
""focus"",""1"",""10381""
","""event"",""trial"",""time""
""fullscreenenter"",""1"",""10880""
","
",,,,,,,,,,,,,,,,,,,,,,,,,,,,
fullscreen,1,11868,0.0-1.0,"""event"",""trial"",""time""
""blur"",""0"",""0""
""focus"",""1"",""10381""
""fullscreenenter"",""1"",""10880""
""blur"",""2"",""13049""
","""event"",""trial"",""time""
""blur"",""0"",""0""
""blur"",""2"",""13049""
","""event"",""trial"",""time""
""focus"",""1"",""10381""
","""event"",""trial"",""time""
""fullscreenenter"",""1"",""10880""
","
",TRUE,,,,,,,,,,,,,,,,,,,,,,,,,,,
instruc_welcome,2,21610,0.0-2.0,"""event"",""trial"",""time""
""blur"",""0"",""0""
""focus"",""1"",""10381""
""fullscreenenter"",""1"",""10880""
""blur"",""2"",""13049""
","""event"",""trial"",""time""
""blur"",""0"",""0""
""blur"",""2"",""13049""
","""event"",""trial"",""time""
""focus"",""1"",""10381""
","""event"",""trial"",""time""
""fullscreenenter"",""1"",""10880""
","
",,null,run_exp/static/audio/clip_1_welcome.m4a,null,"<p>Howdy! In this experiment, you’ll be an explorer traveling through space to collect space treasure.</p><p>Your mission is to collect as much treasure as possible.</p><br><br><p><img src='run_exp/static/images/task_images/opening_img-01.jpg' height='300' width='auto'></p>",9249,2218,20.05,Male,,,,,,,,,,,,,,,,,,,
audio-keyboard-response,3,38189,0.0-3.0,"""event"",""trial"",""time""
""blur"",""0"",""0""
""focus"",""1"",""10381""
""fullscreenenter"",""1"",""10880""
""blur"",""2"",""13049""
""focus"",""4"",""45978""
","""event"",""trial"",""time""
""blur"",""0"",""0""
""blur"",""2"",""13049""
","""event"",""trial"",""time""
""focus"",""1"",""10381""
""focus"",""4"",""45978""
","""event"",""trial"",""time""
""fullscreenenter"",""1"",""10880""
","
",,null,run_exp/static/audio/clip_2_move.m4a,null,,,,,,,,,,,,,,,,,,,,,,,,
welcome_dec,4,46063,0.0-4.0,"""event"",""trial"",""time""
""blur"",""0"",""0""
""focus"",""1"",""10381""
""fullscreenenter"",""1"",""10880""
""blur"",""2"",""13049""
""focus"",""4"",""45978""
","""event"",""trial"",""time""
""blur"",""0"",""0""
""blur"",""2"",""13049""
","""event"",""trial"",""time""
""focus"",""1"",""10381""
""focus"",""4"",""45978""
","""event"",""trial"",""time""
""fullscreenenter"",""1"",""10880""
","
",,7872.1,"<p>Howdy! In this experiment, you’ll be an explorer traveling through space to collect space treasure.</p><p>Your mission is to collect as much treasure as possible.</p><br><br><p><img src='run_exp/static/images/task_images/opening_img-01.jpg' height='300' width='auto'></p>",,,,,,,1,,,,,,,,,,,,,,,,,,
html-keyboard-response,5,48881,0.0-5.0,"""event"",""trial"",""time""
""blur"",""0"",""0""
""focus"",""1"",""10381""
""fullscreenenter"",""1"",""10880""
""blur"",""2"",""13049""
""focus"",""4"",""45978""
""blur"",""6"",""52029""
","""event"",""trial"",""time""
""blur"",""0"",""0""
""blur"",""2"",""13049""
""blur"",""6"",""52029""
","""event"",""trial"",""time""
""focus"",""1"",""10381""
""focus"",""4"",""45978""
","""event"",""trial"",""time""
""fullscreenenter"",""1"",""10880""
","
",,2816.2,"<p>Howdy! In this experiment, you’ll be an explorer traveling through space to collect space treasure.</p><p>Your mission is to collect as much treasure as possible.</p><br><br><p><img src='run_exp/static/images/task_images/opening_img-01.jpg' height='300' width='auto'></p><button class=""jspsych-html-btn-unchosen""><img src=""run_exp/static/images/task_images/planet-01.jpg"" height=""50""></button><button class=""jspsych-html-btn-chosen""><img src=""run_exp/static/images/task_images/planet-02.jpg"" height=""50""></button><p><b>[press the space bar to lock in your answer]<b><br></p>",32,,,,,,,,,,,,,,,,,,,,,,,,
instruc_goal,6,58912,0.0-6.0-0.0,"""event"",""trial"",""time""
""blur"",""0"",""0""
""focus"",""1"",""10381""
""fullscreenenter"",""1"",""10880""
""blur"",""2"",""13049""
""focus"",""4"",""45978""
""blur"",""6"",""52029""
""focus"",""7"",""74741""
","""event"",""trial"",""time""
""blur"",""0"",""0""
""blur"",""2"",""13049""
""blur"",""6"",""52029""
","""event"",""trial"",""time""
""focus"",""1"",""10381""
""focus"",""4"",""45978""
""focus"",""7"",""74741""
","""event"",""trial"",""time""
""fullscreenenter"",""1"",""10880""
","
",,null,run_exp/static/audio/clip_3_goal.m4a,null,"<p> As a space explorer, you’ll visit different planets to dig for space treasure, these pink gems.</p> <p> The more treasure you dig up, the more bonus money you’ll win! </p><br><br><p><img src='run_exp/static/images/task_images/pink_gem.jpg' height='300' width='auto'></p>",,,,,,,,,,,,,,,,,,,,,,,
instruc_goal,7,74821,0.0-6.0-1.0,"""event"",""trial"",""time""
""blur"",""0"",""0""
""focus"",""1"",""10381""
""fullscreenenter"",""1"",""10880""
""blur"",""2"",""13049""
""focus"",""4"",""45978""
""blur"",""6"",""52029""
""focus"",""7"",""74741""
","""event"",""trial"",""time""
""blur"",""0"",""0""
""blur"",""2"",""13049""
""blur"",""6"",""52029""
","""event"",""trial"",""time""
""focus"",""1"",""10381""
""focus"",""4"",""45978""
""focus"",""7"",""74741""
","""event"",""trial"",""time""
""fullscreenenter"",""1"",""10880""
","
",,15907.4,"<p> As a space explorer, you’ll visit different planets to dig for space treasure, these pink gems.</p> <p> The more treasure you dig up, the more bonus money you’ll win! </p><br><br><p><img src='run_exp/static/images/task_images/pink_gem.jpg' height='300' width='auto'></p>",,,,,,,1,,,,,,,,,,,,,,,,,,
html-keyboard-response,8,76064,0.0-6.0-2.0,"""event"",""trial"",""time""
""blur"",""0"",""0""
""focus"",""1"",""10381""
""fullscreenenter"",""1"",""10880""
""blur"",""2"",""13049""
""focus"",""4"",""45978""
""blur"",""6"",""52029""
""focus"",""7"",""74741""
""blur"",""9"",""86800""
","""event"",""trial"",""time""
""blur"",""0"",""0""
""blur"",""2"",""13049""
""blur"",""6"",""52029""
""blur"",""9"",""86800""
","""event"",""trial"",""time""
""focus"",""1"",""10381""
""focus"",""4"",""45978""
""focus"",""7"",""74741""
","""event"",""trial"",""time""
""fullscreenenter"",""1"",""10880""
","
",,1241.9,"<p> As a space explorer, you’ll visit different planets to dig for space treasure, these pink gems.</p> <p> The more treasure you dig up, the more bonus money you’ll win! </p><br><br><p><img src='run_exp/static/images/task_images/pink_gem.jpg' height='300' width='auto'></p><button class=""jspsych-html-btn-unchosen""><img src=""run_exp/static/images/task_images/planet-01.jpg"" height=""50""></button><button class=""jspsych-html-btn-chosen""><img src=""run_exp/static/images/task_images/planet-02.jpg"" height=""50""></button><p><b>[press the space bar to lock in your answer]<b><br></p>",32,,,,,,,,,,,,,,,,,,,,,,,,
instruc_dig,9,92064,0.0-7.0-0.0,"""event"",""trial"",""time""
""blur"",""0"",""0""
""focus"",""1"",""10381""
""fullscreenenter"",""1"",""10880""
""blur"",""2"",""13049""
""focus"",""4"",""45978""
""blur"",""6"",""52029""
""focus"",""7"",""74741""
""blur"",""9"",""86800""
""focus"",""10"",""94603""
","""event"",""trial"",""time""
""blur"",""0"",""0""
""blur"",""2"",""13049""
""blur"",""6"",""52029""
""blur"",""9"",""86800""
","""event"",""trial"",""time""
""focus"",""1"",""10381""
""focus"",""4"",""45978""
""focus"",""7"",""74741""
""focus"",""10"",""94603""
","""event"",""trial"",""time""
""fullscreenenter"",""1"",""10880""
","
",,null,run_exp/static/audio/clip_4_dig.m4a,null,,,,,,,100,,,,,,,,,,,,,,,,,
instruc_dig_try,10,94736,0.0-7.0-1.0,"""event"",""trial"",""time""
""blur"",""0"",""0""
""focus"",""1"",""10381""
""fullscreenenter"",""1"",""10880""
""blur"",""2"",""13049""
""focus"",""4"",""45978""
""blur"",""6"",""52029""
""focus"",""7"",""74741""
""blur"",""9"",""86800""
""focus"",""10"",""94603""
","""event"",""trial"",""time""
""blur"",""0"",""0""
""blur"",""2"",""13049""
""blur"",""6"",""52029""
""blur"",""9"",""86800""
","""event"",""trial"",""time""
""focus"",""1"",""10381""
""focus"",""4"",""45978""
""focus"",""7"",""74741""
""focus"",""10"",""94603""
","""event"",""trial"",""time""
""fullscreenenter"",""1"",""10880""
","
",,2671.1,"<p> When you’ve arrived at a new planet, you will dig once. </p> <p>Then, you get to decide if you want to stay on the planet and dig again or travel to a new planet and dig there.</p> <p> To stay and dig, press the letter <strong>‘A’</strong> on your keyboard. Try pressing it now! </p><p><img src='run_exp/static/images/task_images/land.jpg'  height='700' width='auto'></p>",65,"<p> When you’ve arrived at a new planet, you will dig once. </p> <p>Then, you get to decide if you want to stay on the planet and dig again or travel to a new planet and dig there.</p> <p> To stay and dig, press the letter <strong>‘A’</strong> on your keyboard. Try pressing it now! </p><p><img src='run_exp/static/images/task_images/land.jpg'  height='700' width='auto'></p>",,,,,,100,,,,,,,,,,,,,,,,,
dig_prac,11,96741,0.0-7.0-2.0,"""event"",""trial"",""time""
""blur"",""0"",""0""
""focus"",""1"",""10381""
""fullscreenenter"",""1"",""10880""
""blur"",""2"",""13049""
""focus"",""4"",""45978""
""blur"",""6"",""52029""
""focus"",""7"",""74741""
""blur"",""9"",""86800""
""focus"",""10"",""94603""
""blur"",""12"",""98398""
""focus"",""12"",""132166""
","""event"",""trial"",""time""
""blur"",""0"",""0""
""blur"",""2"",""13049""
""blur"",""6"",""52029""
""blur"",""9"",""86800""
""blur"",""12"",""98398""
","""event"",""trial"",""time""
""focus"",""1"",""10381""
""focus"",""4"",""45978""
""focus"",""7"",""74741""
""focus"",""10"",""94603""
""focus"",""12"",""132166""
","""event"",""trial"",""time""
""fullscreenenter"",""1"",""10880""
","
",,,,,,,,,,,,"[{""stimulus"":""run_exp/static/images/task_images/dig.jpg"",""time"":0.10000002384185791},{""stimulus"":""run_exp/static/images/task_images/land.jpg"",""time"":668.2999999523163},{""stimulus"":""run_exp/static/images/task_images/dig.jpg"",""time"":1334.6000000238419}]",[],,,,,,,,,,,,,,,
instruc_travel,12,132984,0.0-7.0-3.0,"""event"",""trial"",""time""
""blur"",""0"",""0""
""focus"",""1"",""10381""
""fullscreenenter"",""1"",""10880""
""blur"",""2"",""13049""
""focus"",""4"",""45978""
""blur"",""6"",""52029""
""focus"",""7"",""74741""
""blur"",""9"",""86800""
""focus"",""10"",""94603""
""blur"",""12"",""98398""
""focus"",""12"",""132166""
","""event"",""trial"",""time""
""blur"",""0"",""0""
""blur"",""2"",""13049""
""blur"",""6"",""52029""
""blur"",""9"",""86800""
""blur"",""12"",""98398""
","""event"",""trial"",""time""
""focus"",""1"",""10381""
""focus"",""4"",""45978""
""focus"",""7"",""74741""
""focus"",""10"",""94603""
""focus"",""12"",""132166""
","""event"",""trial"",""time""
""fullscreenenter"",""1"",""10880""
","
",,null,run_exp/static/audio/clip_5_travel.m4a,null,"<p>Every time you dig up gems, there are less gems on the planet, so the more you dig on a planet the fewer gems you’ll get with each dig.</p><p>When gems are running low, you may want to travel to a new planet. </p> <p>  Planets are very far apart in this galaxy, so it will take some time to travel between them. </p> <br><p>There are lots and lots of planets for you to visit, so you won’t be able to return to any planets you’ve seen before. </p><br><p>To leave this planet and travel to a new one, press the letter <strong>‘L’</strong> on your keyboard. Try pressing it now! </p><p><img src='run_exp/static/images/task_images/rocket-01.jpg'  height='600' width='auto'></p>",,,,,,,,,,,,,,,,,,,,,,,
instruc_travel_try,13,134774,0.0-7.0-4.0,"""event"",""trial"",""time""
""blur"",""0"",""0""
""focus"",""1"",""10381""
""fullscreenenter"",""1"",""10880""
""blur"",""2"",""13049""
""focus"",""4"",""45978""
""blur"",""6"",""52029""
""focus"",""7"",""74741""
""blur"",""9"",""86800""
""focus"",""10"",""94603""
""blur"",""12"",""98398""
""focus"",""12"",""132166""
""blur"",""14"",""137954""
","""event"",""trial"",""time""
""blur"",""0"",""0""
""blur"",""2"",""13049""
""blur"",""6"",""52029""
""blur"",""9"",""86800""
""blur"",""12"",""98398""
""blur"",""14"",""137954""
","""event"",""trial"",""time""
""focus"",""1"",""10381""
""focus"",""4"",""45978""
""focus"",""7"",""74741""
""focus"",""10"",""94603""
""focus"",""12"",""132166""
","""event"",""trial"",""time""
""fullscreenenter"",""1"",""10880""
","
",,1789.6,"<p>Every time you dig up gems, there are less gems on the planet, so the more you dig on a planet the fewer gems you’ll get with each dig.</p><p>When gems are running low, you may want to travel to a new planet. </p> <p>  Planets are very far apart in this galaxy, so it will take some time to travel between them. </p> <br><p>There are lots and lots of planets for you to visit, so you won’t be able to return to any planets you’ve seen before. </p><br><p>To leave this planet and travel to a new one, press the letter <strong>‘L’</strong> on your keyboard. Try pressing it now! </p><p><img src='run_exp/static/images/task_images/rocket-01.jpg'  height='600' width='auto'></p>",76,"<p>Every time you dig up gems, there are less gems on the planet, so the more you dig on a planet the fewer gems you’ll get with each dig.</p><p>When gems are running low, you may want to travel to a new planet. </p> <p>  Planets are very far apart in this galaxy, so it will take some time to travel between them. </p> <br><p>There are lots and lots of planets for you to visit, so you won’t be able to return to any planets you’ve seen before. </p><br><p>To leave this planet and travel to a new one, press the letter <strong>‘L’</strong> on your keyboard. Try pressing it now! </p><p><img src='run_exp/static/images/task_images/rocket-01.jpg'  height='600' width='auto'></p>",,,,,,,,,,,,,,,,,,,,,,,
travel_prac,14,144789,0.0-7.0-5.0,"""event"",""trial"",""time""
""blur"",""0"",""0""
""focus"",""1"",""10381""
""fullscreenenter"",""1"",""10880""
""blur"",""2"",""13049""
""focus"",""4"",""45978""
""blur"",""6"",""52029""
""focus"",""7"",""74741""
""blur"",""9"",""86800""
""focus"",""10"",""94603""
""blur"",""12"",""98398""
""focus"",""12"",""132166""
""blur"",""14"",""137954""
""focus"",""15"",""150173""
""blur"",""15"",""152435""
","""event"",""trial"",""time""
""blur"",""0"",""0""
""blur"",""2"",""13049""
""blur"",""6"",""52029""
""blur"",""9"",""86800""
""blur"",""12"",""98398""
""blur"",""14"",""137954""
""blur"",""15"",""152435""
","""event"",""trial"",""time""
""focus"",""1"",""10381""
""focus"",""4"",""45978""
""focus"",""7"",""74741""
""focus"",""10"",""94603""
""focus"",""12"",""132166""
""focus"",""15"",""150173""
","""event"",""trial"",""time""
""fullscreenenter"",""1"",""10880""
","
",,,,,,,,,,,,"[{""stimulus"":""run_exp/static/images/task_images/rocket-01.jpg"",""time"":0.20000004768371582},{""stimulus"":""run_exp/static/images/task_images/rocket-02.jpg"",""time"":1111.8000000715256},{""stimulus"":""run_exp/static/images/task_images/rocket-03.jpg"",""time"":2237.4000000953674},{""stimulus"":""run_exp/static/images/task_images/rocket-04.jpg"",""time"":3345.3000000715256},{""stimulus"":""run_exp/static/images/task_images/rocket-05.jpg"",""time"":4455.400000095367},{""stimulus"":""run_exp/static/images/task_images/rocket-06.jpg"",""time"":5564.800000071526},{""stimulus"":""run_exp/static/images/task_images/rocket-07.jpg"",""time"":6673.700000047684},{""stimulus"":""run_exp/static/images/task_images/rocket-08.jpg"",""time"":7778.400000095367},{""stimulus"":""run_exp/static/images/task_images/rocket-09.jpg"",""time"":8889.200000047684}]",[],0,,,,,,,,,,,,,,
instruc_alien_greet,15,171963,0.0-7.0-6.0,"""event"",""trial"",""time""
""blur"",""0"",""0""
""focus"",""1"",""10381""
""fullscreenenter"",""1"",""10880""
""blur"",""2"",""13049""
""focus"",""4"",""45978""
""blur"",""6"",""52029""
""focus"",""7"",""74741""
""blur"",""9"",""86800""
""focus"",""10"",""94603""
""blur"",""12"",""98398""
""focus"",""12"",""132166""
""blur"",""14"",""137954""
""focus"",""15"",""150173""
""blur"",""15"",""152435""
""focus"",""16"",""189141""
","""event"",""trial"",""time""
""blur"",""0"",""0""
""blur"",""2"",""13049""
""blur"",""6"",""52029""
""blur"",""9"",""86800""
""blur"",""12"",""98398""
""blur"",""14"",""137954""
""blur"",""15"",""152435""
","""event"",""trial"",""time""
""focus"",""1"",""10381""
""focus"",""4"",""45978""
""focus"",""7"",""74741""
""focus"",""10"",""94603""
""focus"",""12"",""132166""
""focus"",""15"",""150173""
""focus"",""16"",""189141""
","""event"",""trial"",""time""
""fullscreenenter"",""1"",""10880""
","
",,null,run_exp/static/audio/clip_6_alien.m4a,null,"<p>When you arrive at a new planet, the alien who owns the treasure mine on that planet will greet you!</p><p>The better an alien takes care of their mine the easier it is to dig for gems. Some aliens take better care of their mine than others. So, you won’t get exactly the same amount of gems on each planet.</p><p>What the alien looks like does not tell you anything about how many gems there are on the planet.</p><br><p><img src=""run_exp/static/images/task_images/aliens/instructions_aliens/planet/alien_planet-1.jpg""  height=""600"" width=""auto""></p>",,,,,,,,,,,,,,,,,,,,,,,
instruc_alien_greet,16,189217,0.0-7.0-7.0,"""event"",""trial"",""time""
""blur"",""0"",""0""
""focus"",""1"",""10381""
""fullscreenenter"",""1"",""10880""
""blur"",""2"",""13049""
""focus"",""4"",""45978""
""blur"",""6"",""52029""
""focus"",""7"",""74741""
""blur"",""9"",""86800""
""focus"",""10"",""94603""
""blur"",""12"",""98398""
""focus"",""12"",""132166""
""blur"",""14"",""137954""
""focus"",""15"",""150173""
""blur"",""15"",""152435""
""focus"",""16"",""189141""
","""event"",""trial"",""time""
""blur"",""0"",""0""
""blur"",""2"",""13049""
""blur"",""6"",""52029""
""blur"",""9"",""86800""
""blur"",""12"",""98398""
""blur"",""14"",""137954""
""blur"",""15"",""152435""
","""event"",""trial"",""time""
""focus"",""1"",""10381""
""focus"",""4"",""45978""
""focus"",""7"",""74741""
""focus"",""10"",""94603""
""focus"",""12"",""132166""
""focus"",""15"",""150173""
""focus"",""16"",""189141""
","""event"",""trial"",""time""
""fullscreenenter"",""1"",""10880""
","
",,17251.8,"<p>When you arrive at a new planet, the alien who owns the treasure mine on that planet will greet you!</p><p>The better an alien takes care of their mine the easier it is to dig for gems. Some aliens take better care of their mine than others. So, you won’t get exactly the same amount of gems on each planet.</p><p>What the alien looks like does not tell you anything about how many gems there are on the planet.</p><br><p><img src=""run_exp/static/images/task_images/aliens/instructions_aliens/planet/alien_planet-1.jpg""  height=""600"" width=""auto""></p>",,,,,,,1,,,,,,,,,,,,,,,,,,
html-keyboard-response,17,190159,0.0-7.0-8.0,"""event"",""trial"",""time""
""blur"",""0"",""0""
""focus"",""1"",""10381""
""fullscreenenter"",""1"",""10880""
""blur"",""2"",""13049""
""focus"",""4"",""45978""
""blur"",""6"",""52029""
""focus"",""7"",""74741""
""blur"",""9"",""86800""
""focus"",""10"",""94603""
""blur"",""12"",""98398""
""focus"",""12"",""132166""
""blur"",""14"",""137954""
""focus"",""15"",""150173""
""blur"",""15"",""152435""
""focus"",""16"",""189141""
""blur"",""18"",""197427""
","""event"",""trial"",""time""
""blur"",""0"",""0""
""blur"",""2"",""13049""
""blur"",""6"",""52029""
""blur"",""9"",""86800""
""blur"",""12"",""98398""
""blur"",""14"",""137954""
""blur"",""15"",""152435""
""blur"",""18"",""197427""
","""event"",""trial"",""time""
""focus"",""1"",""10381""
""focus"",""4"",""45978""
""focus"",""7"",""74741""
""focus"",""10"",""94603""
""focus"",""12"",""132166""
""focus"",""15"",""150173""
""focus"",""16"",""189141""
","""event"",""trial"",""time""
""fullscreenenter"",""1"",""10880""
","
",,940.6999999,"<p>When you arrive at a new planet, the alien who owns the treasure mine on that planet will greet you!</p><p>The better an alien takes care of their mine the easier it is to dig for gems. Some aliens take better care of their mine than others. So, you won’t get exactly the same amount of gems on each planet.</p><p>What the alien looks like does not tell you anything about how many gems there are on the planet.</p><br><p><img src=""run_exp/static/images/task_images/aliens/instructions_aliens/planet/alien_planet-1.jpg""  height=""600"" width=""auto""></p><button class=""jspsych-html-btn-unchosen""><img src=""run_exp/static/images/task_images/planet-01.jpg"" height=""50""></button><button class=""jspsych-html-btn-chosen""><img src=""run_exp/static/images/task_images/planet-02.jpg"" height=""50""></button><p><b>[press the space bar to lock in your answer]<b><br></p>",32,,,,,,,,,,,,,,,,,,,,,,,,
time_out,18,201225,0.0-8.0-0.0,"""event"",""trial"",""time""
""blur"",""0"",""0""
""focus"",""1"",""10381""
""fullscreenenter"",""1"",""10880""
""blur"",""2"",""13049""
""focus"",""4"",""45978""
""blur"",""6"",""52029""
""focus"",""7"",""74741""
""blur"",""9"",""86800""
""focus"",""10"",""94603""
""blur"",""12"",""98398""
""focus"",""12"",""132166""
""blur"",""14"",""137954""
""focus"",""15"",""150173""
""blur"",""15"",""152435""
""focus"",""16"",""189141""
""blur"",""18"",""197427""
""focus"",""19"",""210267""
","""event"",""trial"",""time""
""blur"",""0"",""0""
""blur"",""2"",""13049""
""blur"",""6"",""52029""
""blur"",""9"",""86800""
""blur"",""12"",""98398""
""blur"",""14"",""137954""
""blur"",""15"",""152435""
""blur"",""18"",""197427""
","""event"",""trial"",""time""
""focus"",""1"",""10381""
""focus"",""4"",""45978""
""focus"",""7"",""74741""
""focus"",""10"",""94603""
""focus"",""12"",""132166""
""focus"",""15"",""150173""
""focus"",""16"",""189141""
""focus"",""19"",""210267""
","""event"",""trial"",""time""
""fullscreenenter"",""1"",""10880""
","
",,null,run_exp/static/audio/clip_7_timeout.m4a,null,"<p>If you don't make your choice fast enough, you’ll have to wait a few seconds before you can make another one.</p><p>You can’t dig for more gems or travel to new planets. You just have to sit and wait.</p><br><p><img src='run_exp/static/images/task_images/time_out.jpg'  height='600' width='auto'></p>",,,,,,,,,,,,,,,,,,,,,,,
time_out,19,210377,0.0-8.0-1.0,"""event"",""trial"",""time""
""blur"",""0"",""0""
""focus"",""1"",""10381""
""fullscreenenter"",""1"",""10880""
""blur"",""2"",""13049""
""focus"",""4"",""45978""
""blur"",""6"",""52029""
""focus"",""7"",""74741""
""blur"",""9"",""86800""
""focus"",""10"",""94603""
""blur"",""12"",""98398""
""focus"",""12"",""132166""
""blur"",""14"",""137954""
""focus"",""15"",""150173""
""blur"",""15"",""152435""
""focus"",""16"",""189141""
""blur"",""18"",""197427""
""focus"",""19"",""210267""
","""event"",""trial"",""time""
""blur"",""0"",""0""
""blur"",""2"",""13049""
""blur"",""6"",""52029""
""blur"",""9"",""86800""
""blur"",""12"",""98398""
""blur"",""14"",""137954""
""blur"",""15"",""152435""
""blur"",""18"",""197427""
","""event"",""trial"",""time""
""focus"",""1"",""10381""
""focus"",""4"",""45978""
""focus"",""7"",""74741""
""focus"",""10"",""94603""
""focus"",""12"",""132166""
""focus"",""15"",""150173""
""focus"",""16"",""189141""
""focus"",""19"",""210267""
","""event"",""trial"",""time""
""fullscreenenter"",""1"",""10880""
","
",,9150.9,"<p>If you don't make your choice fast enough, you’ll have to wait a few seconds before you can make another one.</p><p>You can’t dig for more gems or travel to new planets. You just have to sit and wait.</p><br><p><img src='run_exp/static/images/task_images/time_out.jpg'  height='600' width='auto'></p>",,,,,,,1,,,,,,,,,,,,,,,,,,
html-keyboard-response,20,210969,0.0-8.0-2.0,"""event"",""trial"",""time""
""blur"",""0"",""0""
""focus"",""1"",""10381""
""fullscreenenter"",""1"",""10880""
""blur"",""2"",""13049""
""focus"",""4"",""45978""
""blur"",""6"",""52029""
""focus"",""7"",""74741""
""blur"",""9"",""86800""
""focus"",""10"",""94603""
""blur"",""12"",""98398""
""focus"",""12"",""132166""
""blur"",""14"",""137954""
""focus"",""15"",""150173""
""blur"",""15"",""152435""
""focus"",""16"",""189141""
""blur"",""18"",""197427""
""focus"",""19"",""210267""
""blur"",""21"",""215824""
","""event"",""trial"",""time""
""blur"",""0"",""0""
""blur"",""2"",""13049""
""blur"",""6"",""52029""
""blur"",""9"",""86800""
""blur"",""12"",""98398""
""blur"",""14"",""137954""
""blur"",""15"",""152435""
""blur"",""18"",""197427""
""blur"",""21"",""215824""
","""event"",""trial"",""time""
""focus"",""1"",""10381""
""focus"",""4"",""45978""
""focus"",""7"",""74741""
""focus"",""10"",""94603""
""focus"",""12"",""132166""
""focus"",""15"",""150173""
""focus"",""16"",""189141""
""focus"",""19"",""210267""
","""event"",""trial"",""time""
""fullscreenenter"",""1"",""10880""
","
",,590.5,"<p>If you don't make your choice fast enough, you’ll have to wait a few seconds before you can make another one.</p><p>You can’t dig for more gems or travel to new planets. You just have to sit and wait.</p><br><p><img src='run_exp/static/images/task_images/time_out.jpg'  height='600' width='auto'></p><button class=""jspsych-html-btn-unchosen""><img src=""run_exp/static/images/task_images/planet-01.jpg"" height=""50""></button><button class=""jspsych-html-btn-chosen""><img src=""run_exp/static/images/task_images/planet-02.jpg"" height=""50""></button><p><b>[press the space bar to lock in your answer]<b><br></p>",32,,,,,,,,,,,,,,,,,,,,,,,,
instruc_break,21,226624,0.0-9.0-0.0,"""event"",""trial"",""time""
""blur"",""0"",""0""
""focus"",""1"",""10381""
""fullscreenenter"",""1"",""10880""
""blur"",""2"",""13049""
""focus"",""4"",""45978""
""blur"",""6"",""52029""
""focus"",""7"",""74741""
""blur"",""9"",""86800""
""focus"",""10"",""94603""
""blur"",""12"",""98398""
""focus"",""12"",""132166""
""blur"",""14"",""137954""
""focus"",""15"",""150173""
""blur"",""15"",""152435""
""focus"",""16"",""189141""
""blur"",""18"",""197427""
""focus"",""19"",""210267""
""blur"",""21"",""215824""
""focus"",""22"",""231164""
","""event"",""trial"",""time""
""blur"",""0"",""0""
""blur"",""2"",""13049""
""blur"",""6"",""52029""
""blur"",""9"",""86800""
""blur"",""12"",""98398""
""blur"",""14"",""137954""
""blur"",""15"",""152435""
""blur"",""18"",""197427""
""blur"",""21"",""215824""
","""event"",""trial"",""time""
""focus"",""1"",""10381""
""focus"",""4"",""45978""
""focus"",""7"",""74741""
""focus"",""10"",""94603""
""focus"",""12"",""132166""
""focus"",""15"",""150173""
""focus"",""16"",""189141""
""focus"",""19"",""210267""
""focus"",""22"",""231164""
","""event"",""trial"",""time""
""fullscreenenter"",""1"",""10880""
","
",,null,run_exp/static/audio/clip_8_break.m4a,null,"<p> After digging and traveling for a while, you’ll be able to take a break at home base. </p><p>The game will last 20 minutes no matter what.</p><p>You will visit home base every 5 minutes, so, you will visit home base three times during the game.</p><br><p><img src='run_exp/static/images/task_images/home_base.jpg' height='600' width='auto'></p>",,,,,,,,,,,,,,,,,,,,,,,
instruc_break,22,231250,0.0-9.0-1.0,"""event"",""trial"",""time""
""blur"",""0"",""0""
""focus"",""1"",""10381""
""fullscreenenter"",""1"",""10880""
""blur"",""2"",""13049""
""focus"",""4"",""45978""
""blur"",""6"",""52029""
""focus"",""7"",""74741""
""blur"",""9"",""86800""
""focus"",""10"",""94603""
""blur"",""12"",""98398""
""focus"",""12"",""132166""
""blur"",""14"",""137954""
""focus"",""15"",""150173""
""blur"",""15"",""152435""
""focus"",""16"",""189141""
""blur"",""18"",""197427""
""focus"",""19"",""210267""
""blur"",""21"",""215824""
""focus"",""22"",""231164""
","""event"",""trial"",""time""
""blur"",""0"",""0""
""blur"",""2"",""13049""
""blur"",""6"",""52029""
""blur"",""9"",""86800""
""blur"",""12"",""98398""
""blur"",""14"",""137954""
""blur"",""15"",""152435""
""blur"",""18"",""197427""
""blur"",""21"",""215824""
","""event"",""trial"",""time""
""focus"",""1"",""10381""
""focus"",""4"",""45978""
""focus"",""7"",""74741""
""focus"",""10"",""94603""
""focus"",""12"",""132166""
""focus"",""15"",""150173""
""focus"",""16"",""189141""
""focus"",""19"",""210267""
""focus"",""22"",""231164""
","""event"",""trial"",""time""
""fullscreenenter"",""1"",""10880""
","
",,4625.5,"<p> After digging and traveling for a while, you’ll be able to take a break at home base. </p><p>The game will last 20 minutes no matter what.</p><p>You will visit home base every 5 minutes, so, you will visit home base three times during the game.</p><br><p><img src='run_exp/static/images/task_images/home_base.jpg' height='600' width='auto'></p>",,,,,,,1,,,,,,,,,,,,,,,,,,
html-keyboard-response,23,231561,0.0-9.0-2.0,"""event"",""trial"",""time""
""blur"",""0"",""0""
""focus"",""1"",""10381""
""fullscreenenter"",""1"",""10880""
""blur"",""2"",""13049""
""focus"",""4"",""45978""
""blur"",""6"",""52029""
""focus"",""7"",""74741""
""blur"",""9"",""86800""
""focus"",""10"",""94603""
""blur"",""12"",""98398""
""focus"",""12"",""132166""
""blur"",""14"",""137954""
""focus"",""15"",""150173""
""blur"",""15"",""152435""
""focus"",""16"",""189141""
""blur"",""18"",""197427""
""focus"",""19"",""210267""
""blur"",""21"",""215824""
""focus"",""22"",""231164""
""blur"",""24"",""235677""
","""event"",""trial"",""time""
""blur"",""0"",""0""
""blur"",""2"",""13049""
""blur"",""6"",""52029""
""blur"",""9"",""86800""
""blur"",""12"",""98398""
""blur"",""14"",""137954""
""blur"",""15"",""152435""
""blur"",""18"",""197427""
""blur"",""21"",""215824""
""blur"",""24"",""235677""
","""event"",""trial"",""time""
""focus"",""1"",""10381""
""focus"",""4"",""45978""
""focus"",""7"",""74741""
""focus"",""10"",""94603""
""focus"",""12"",""132166""
""focus"",""15"",""150173""
""focus"",""16"",""189141""
""focus"",""19"",""210267""
""focus"",""22"",""231164""
","""event"",""trial"",""time""
""fullscreenenter"",""1"",""10880""
","
",,310.1,"<p> After digging and traveling for a while, you’ll be able to take a break at home base. </p><p>The game will last 20 minutes no matter what.</p><p>You will visit home base every 5 minutes, so, you will visit home base three times during the game.</p><br><p><img src='run_exp/static/images/task_images/home_base.jpg' height='600' width='auto'></p><button class=""jspsych-html-btn-unchosen""><img src=""run_exp/static/images/task_images/planet-01.jpg"" height=""50""></button><button class=""jspsych-html-btn-chosen""><img src=""run_exp/static/images/task_images/planet-02.jpg"" height=""50""></button><p><b>[press the space bar to lock in your answer]<b><br></p>",32,,,,,,,,,,,,,,,,,,,,,,,,
instruc_prac_game,24,241684,0.0-10.0-0.0,"""event"",""trial"",""time""
""blur"",""0"",""0""
""focus"",""1"",""10381""
""fullscreenenter"",""1"",""10880""
""blur"",""2"",""13049""
""focus"",""4"",""45978""
""blur"",""6"",""52029""
""focus"",""7"",""74741""
""blur"",""9"",""86800""
""focus"",""10"",""94603""
""blur"",""12"",""98398""
""focus"",""12"",""132166""
""blur"",""14"",""137954""
""focus"",""15"",""150173""
""blur"",""15"",""152435""
""focus"",""16"",""189141""
""blur"",""18"",""197427""
""focus"",""19"",""210267""
""blur"",""21"",""215824""
""focus"",""22"",""231164""
""blur"",""24"",""235677""
""focus"",""25"",""244499""
","""event"",""trial"",""time""
""blur"",""0"",""0""
""blur"",""2"",""13049""
""blur"",""6"",""52029""
""blur"",""9"",""86800""
""blur"",""12"",""98398""
""blur"",""14"",""137954""
""blur"",""15"",""152435""
""blur"",""18"",""197427""
""blur"",""21"",""215824""
""blur"",""24"",""235677""
","""event"",""trial"",""time""
""focus"",""1"",""10381""
""focus"",""4"",""45978""
""focus"",""7"",""74741""
""focus"",""10"",""94603""
""focus"",""12"",""132166""
""focus"",""15"",""150173""
""focus"",""16"",""189141""
""focus"",""19"",""210267""
""focus"",""22"",""231164""
""focus"",""25"",""244499""
","""event"",""trial"",""time""
""fullscreenenter"",""1"",""10880""
","
",,null,run_exp/static/audio/clip_9_practice.m4a,null,"<p> Are you ready to play a practice game? </p> <p>In this practice game, you'll be digging up barrels of gems. But, in the real game, you'll be digging up the gems themselves. </p>",,,,,,,,,,,,,,,,,,,,,,,
html-button-response,25,244567,0.0-10.0-1.0,"""event"",""trial"",""time""
""blur"",""0"",""0""
""focus"",""1"",""10381""
""fullscreenenter"",""1"",""10880""
""blur"",""2"",""13049""
""focus"",""4"",""45978""
""blur"",""6"",""52029""
""focus"",""7"",""74741""
""blur"",""9"",""86800""
""focus"",""10"",""94603""
""blur"",""12"",""98398""
""focus"",""12"",""132166""
""blur"",""14"",""137954""
""focus"",""15"",""150173""
""blur"",""15"",""152435""
""focus"",""16"",""189141""
""blur"",""18"",""197427""
""focus"",""19"",""210267""
""blur"",""21"",""215824""
""focus"",""22"",""231164""
""blur"",""24"",""235677""
""focus"",""25"",""244499""
""blur"",""26"",""249142""
","""event"",""trial"",""time""
""blur"",""0"",""0""
""blur"",""2"",""13049""
""blur"",""6"",""52029""
""blur"",""9"",""86800""
""blur"",""12"",""98398""
""blur"",""14"",""137954""
""blur"",""15"",""152435""
""blur"",""18"",""197427""
""blur"",""21"",""215824""
""blur"",""24"",""235677""
""blur"",""26"",""249142""
","""event"",""trial"",""time""
""focus"",""1"",""10381""
""focus"",""4"",""45978""
""focus"",""7"",""74741""
""focus"",""10"",""94603""
""focus"",""12"",""132166""
""focus"",""15"",""150173""
""focus"",""16"",""189141""
""focus"",""19"",""210267""
""focus"",""22"",""231164""
""focus"",""25"",""244499""
","""event"",""trial"",""time""
""fullscreenenter"",""1"",""10880""
","
",,2882.2,"<p> Are you ready to play a practice game? </p> <p>In this practice game, you'll be digging up barrels of gems. But, in the real game, you'll be digging up the gems themselves. </p>",,,,,,,0,,,,,,,,,,,,,,,,,,
alien_welcome_prac,26,249583,0.0-11.0-0.0,"""event"",""trial"",""time""
""blur"",""0"",""0""
""focus"",""1"",""10381""
""fullscreenenter"",""1"",""10880""
""blur"",""2"",""13049""
""focus"",""4"",""45978""
""blur"",""6"",""52029""
""focus"",""7"",""74741""
""blur"",""9"",""86800""
""focus"",""10"",""94603""
""blur"",""12"",""98398""
""focus"",""12"",""132166""
""blur"",""14"",""137954""
""focus"",""15"",""150173""
""blur"",""15"",""152435""
""focus"",""16"",""189141""
""blur"",""18"",""197427""
""focus"",""19"",""210267""
""blur"",""21"",""215824""
""focus"",""22"",""231164""
""blur"",""24"",""235677""
""focus"",""25"",""244499""
""blur"",""26"",""249142""
","""event"",""trial"",""time""
""blur"",""0"",""0""
""blur"",""2"",""13049""
""blur"",""6"",""52029""
""blur"",""9"",""86800""
""blur"",""12"",""98398""
""blur"",""14"",""137954""
""blur"",""15"",""152435""
""blur"",""18"",""197427""
""blur"",""21"",""215824""
""blur"",""24"",""235677""
""blur"",""26"",""249142""
","""event"",""trial"",""time""
""focus"",""1"",""10381""
""focus"",""4"",""45978""
""focus"",""7"",""74741""
""focus"",""10"",""94603""
""focus"",""12"",""132166""
""focus"",""15"",""150173""
""focus"",""16"",""189141""
""focus"",""19"",""210267""
""focus"",""22"",""231164""
""focus"",""25"",""244499""
","""event"",""trial"",""time""
""fullscreenenter"",""1"",""10880""
","
",,null,run_exp/static/images/task_images/aliens/practice_aliens/planet/alien_planet-5.jpg,null,,,,,,,,,,,,,,,,,,,,,,,,
land_prac,27,250089,0.0-11.0-1.0,"""event"",""trial"",""time""
""blur"",""0"",""0""
""focus"",""1"",""10381""
""fullscreenenter"",""1"",""10880""
""blur"",""2"",""13049""
""focus"",""4"",""45978""
""blur"",""6"",""52029""
""focus"",""7"",""74741""
""blur"",""9"",""86800""
""focus"",""10"",""94603""
""blur"",""12"",""98398""
""focus"",""12"",""132166""
""blur"",""14"",""137954""
""focus"",""15"",""150173""
""blur"",""15"",""152435""
""focus"",""16"",""189141""
""blur"",""18"",""197427""
""focus"",""19"",""210267""
""blur"",""21"",""215824""
""focus"",""22"",""231164""
""blur"",""24"",""235677""
""focus"",""25"",""244499""
""blur"",""26"",""249142""
","""event"",""trial"",""time""
""blur"",""0"",""0""
""blur"",""2"",""13049""
""blur"",""6"",""52029""
""blur"",""9"",""86800""
""blur"",""12"",""98398""
""blur"",""14"",""137954""
""blur"",""15"",""152435""
""blur"",""18"",""197427""
""blur"",""21"",""215824""
""blur"",""24"",""235677""
""blur"",""26"",""249142""
","""event"",""trial"",""time""
""focus"",""1"",""10381""
""focus"",""4"",""45978""
""focus"",""7"",""74741""
""focus"",""10"",""94603""
""focus"",""12"",""132166""
""focus"",""15"",""150173""
""focus"",""16"",""189141""
""focus"",""19"",""210267""
""focus"",""22"",""231164""
""focus"",""25"",""244499""
","""event"",""trial"",""time""
""fullscreenenter"",""1"",""10880""
","
",,null,run_exp/static/images/task_images/land.jpg,null,,,,,,,106,,,0,,,,,,,,,,,,,,
dig_prac,28,252092,0.0-11.0-2.0,"""event"",""trial"",""time""
""blur"",""0"",""0""
""focus"",""1"",""10381""
""fullscreenenter"",""1"",""10880""
""blur"",""2"",""13049""
""focus"",""4"",""45978""
""blur"",""6"",""52029""
""focus"",""7"",""74741""
""blur"",""9"",""86800""
""focus"",""10"",""94603""
""blur"",""12"",""98398""
""focus"",""12"",""132166""
""blur"",""14"",""137954""
""focus"",""15"",""150173""
""blur"",""15"",""152435""
""focus"",""16"",""189141""
""blur"",""18"",""197427""
""focus"",""19"",""210267""
""blur"",""21"",""215824""
""focus"",""22"",""231164""
""blur"",""24"",""235677""
""focus"",""25"",""244499""
""blur"",""26"",""249142""
","""event"",""trial"",""time""
""blur"",""0"",""0""
""blur"",""2"",""13049""
""blur"",""6"",""52029""
""blur"",""9"",""86800""
""blur"",""12"",""98398""
""blur"",""14"",""137954""
""blur"",""15"",""152435""
""blur"",""18"",""197427""
""blur"",""21"",""215824""
""blur"",""24"",""235677""
""blur"",""26"",""249142""
","""event"",""trial"",""time""
""focus"",""1"",""10381""
""focus"",""4"",""45978""
""focus"",""7"",""74741""
""focus"",""10"",""94603""
""focus"",""12"",""132166""
""focus"",""15"",""150173""
""focus"",""16"",""189141""
""focus"",""19"",""210267""
""focus"",""22"",""231164""
""focus"",""25"",""244499""
","""event"",""trial"",""time""
""fullscreenenter"",""1"",""10880""
","
",,,,,,,,,,,,"[{""stimulus"":""run_exp/static/images/task_images/dig.jpg"",""time"":0.19999992847442627},{""stimulus"":""run_exp/static/images/task_images/land.jpg"",""time"":679},{""stimulus"":""run_exp/static/images/task_images/dig.jpg"",""time"":1338.7999999523163}]",[],,,,,,,,,,,,,,,
harvest_prac,29,253093,0.0-11.0-3.0,"""event"",""trial"",""time""
""blur"",""0"",""0""
""focus"",""1"",""10381""
""fullscreenenter"",""1"",""10880""
""blur"",""2"",""13049""
""focus"",""4"",""45978""
""blur"",""6"",""52029""
""focus"",""7"",""74741""
""blur"",""9"",""86800""
""focus"",""10"",""94603""
""blur"",""12"",""98398""
""focus"",""12"",""132166""
""blur"",""14"",""137954""
""focus"",""15"",""150173""
""blur"",""15"",""152435""
""focus"",""16"",""189141""
""blur"",""18"",""197427""
""focus"",""19"",""210267""
""blur"",""21"",""215824""
""focus"",""22"",""231164""
""blur"",""24"",""235677""
""focus"",""25"",""244499""
""blur"",""26"",""249142""
""focus"",""30"",""255981""
","""event"",""trial"",""time""
""blur"",""0"",""0""
""blur"",""2"",""13049""
""blur"",""6"",""52029""
""blur"",""9"",""86800""
""blur"",""12"",""98398""
""blur"",""14"",""137954""
""blur"",""15"",""152435""
""blur"",""18"",""197427""
""blur"",""21"",""215824""
""blur"",""24"",""235677""
""blur"",""26"",""249142""
","""event"",""trial"",""time""
""focus"",""1"",""10381""
""focus"",""4"",""45978""
""focus"",""7"",""74741""
""focus"",""10"",""94603""
""focus"",""12"",""132166""
""focus"",""15"",""150173""
""focus"",""16"",""189141""
""focus"",""19"",""210267""
""focus"",""22"",""231164""
""focus"",""25"",""244499""
""focus"",""30"",""255981""
","""event"",""trial"",""time""
""fullscreenenter"",""1"",""10880""
","
",,null,run_exp/static/images/task_images/barrel_text.jpg,null,,,,,,,,,,,,,,,,,,,,,,,,
decision_prac,30,256094,0.0-11.0-4.0,"""event"",""trial"",""time""
""blur"",""0"",""0""
""focus"",""1"",""10381""
""fullscreenenter"",""1"",""10880""
""blur"",""2"",""13049""
""focus"",""4"",""45978""
""blur"",""6"",""52029""
""focus"",""7"",""74741""
""blur"",""9"",""86800""
""focus"",""10"",""94603""
""blur"",""12"",""98398""
""focus"",""12"",""132166""
""blur"",""14"",""137954""
""focus"",""15"",""150173""
""blur"",""15"",""152435""
""focus"",""16"",""189141""
""blur"",""18"",""197427""
""focus"",""19"",""210267""
""blur"",""21"",""215824""
""focus"",""22"",""231164""
""blur"",""24"",""235677""
""focus"",""25"",""244499""
""blur"",""26"",""249142""
""focus"",""30"",""255981""
","""event"",""trial"",""time""
""blur"",""0"",""0""
""blur"",""2"",""13049""
""blur"",""6"",""52029""
""blur"",""9"",""86800""
""blur"",""12"",""98398""
""blur"",""14"",""137954""
""blur"",""15"",""152435""
""blur"",""18"",""197427""
""blur"",""21"",""215824""
""blur"",""24"",""235677""
""blur"",""26"",""249142""
","""event"",""trial"",""time""
""focus"",""1"",""10381""
""focus"",""4"",""45978""
""focus"",""7"",""74741""
""focus"",""10"",""94603""
""focus"",""12"",""132166""
""focus"",""15"",""150173""
""focus"",""16"",""189141""
""focus"",""19"",""210267""
""focus"",""22"",""231164""
""focus"",""25"",""244499""
""focus"",""30"",""255981""
","""event"",""trial"",""time""
""fullscreenenter"",""1"",""10880""
","
",,null,run_exp/static/images/task_images/land.jpg,null,,,,,,,,,,,1,,,,,,,,,,,,,
time_out,31,258108,0.0-12.0-0.0,"""event"",""trial"",""time""
""blur"",""0"",""0""
""focus"",""1"",""10381""
""fullscreenenter"",""1"",""10880""
""blur"",""2"",""13049""
""focus"",""4"",""45978""
""blur"",""6"",""52029""
""focus"",""7"",""74741""
""blur"",""9"",""86800""
""focus"",""10"",""94603""
""blur"",""12"",""98398""
""focus"",""12"",""132166""
""blur"",""14"",""137954""
""focus"",""15"",""150173""
""blur"",""15"",""152435""
""focus"",""16"",""189141""
""blur"",""18"",""197427""
""focus"",""19"",""210267""
""blur"",""21"",""215824""
""focus"",""22"",""231164""
""blur"",""24"",""235677""
""focus"",""25"",""244499""
""blur"",""26"",""249142""
""focus"",""30"",""255981""
","""event"",""trial"",""time""
""blur"",""0"",""0""
""blur"",""2"",""13049""
""blur"",""6"",""52029""
""blur"",""9"",""86800""
""blur"",""12"",""98398""
""blur"",""14"",""137954""
""blur"",""15"",""152435""
""blur"",""18"",""197427""
""blur"",""21"",""215824""
""blur"",""24"",""235677""
""blur"",""26"",""249142""
","""event"",""trial"",""time""
""focus"",""1"",""10381""
""focus"",""4"",""45978""
""focus"",""7"",""74741""
""focus"",""10"",""94603""
""focus"",""12"",""132166""
""focus"",""15"",""150173""
""focus"",""16"",""189141""
""focus"",""19"",""210267""
""focus"",""22"",""231164""
""focus"",""25"",""244499""
""focus"",""30"",""255981""
","""event"",""trial"",""time""
""fullscreenenter"",""1"",""10880""
","
",,null,run_exp/static/images/task_images/time_out.jpg,null,,,,,,,,,,,,,,,,,,,,,,,,
decision_prac,32,258943,0.0-12.0-1.0,"""event"",""trial"",""time""
""blur"",""0"",""0""
""focus"",""1"",""10381""
""fullscreenenter"",""1"",""10880""
""blur"",""2"",""13049""
""focus"",""4"",""45978""
""blur"",""6"",""52029""
""focus"",""7"",""74741""
""blur"",""9"",""86800""
""focus"",""10"",""94603""
""blur"",""12"",""98398""
""focus"",""12"",""132166""
""blur"",""14"",""137954""
""focus"",""15"",""150173""
""blur"",""15"",""152435""
""focus"",""16"",""189141""
""blur"",""18"",""197427""
""focus"",""19"",""210267""
""blur"",""21"",""215824""
""focus"",""22"",""231164""
""blur"",""24"",""235677""
""focus"",""25"",""244499""
""blur"",""26"",""249142""
""focus"",""30"",""255981""
","""event"",""trial"",""time""
""blur"",""0"",""0""
""blur"",""2"",""13049""
""blur"",""6"",""52029""
""blur"",""9"",""86800""
""blur"",""12"",""98398""
""blur"",""14"",""137954""
""blur"",""15"",""152435""
""blur"",""18"",""197427""
""blur"",""21"",""215824""
""blur"",""24"",""235677""
""blur"",""26"",""249142""
","""event"",""trial"",""time""
""focus"",""1"",""10381""
""focus"",""4"",""45978""
""focus"",""7"",""74741""
""focus"",""10"",""94603""
""focus"",""12"",""132166""
""focus"",""15"",""150173""
""focus"",""16"",""189141""
""focus"",""19"",""210267""
""focus"",""22"",""231164""
""focus"",""25"",""244499""
""focus"",""30"",""255981""
","""event"",""trial"",""time""
""fullscreenenter"",""1"",""10880""
","
",,834.5,run_exp/static/images/task_images/land.jpg,65,,,,,,,,,,,2,,,,,,,,,,,,,
dig_prac,33,260958,0.0-13.0-0.0,"""event"",""trial"",""time""
""blur"",""0"",""0""
""focus"",""1"",""10381""
""fullscreenenter"",""1"",""10880""
""blur"",""2"",""13049""
""focus"",""4"",""45978""
""blur"",""6"",""52029""
""focus"",""7"",""74741""
""blur"",""9"",""86800""
""focus"",""10"",""94603""
""blur"",""12"",""98398""
""focus"",""12"",""132166""
""blur"",""14"",""137954""
""focus"",""15"",""150173""
""blur"",""15"",""152435""
""focus"",""16"",""189141""
""blur"",""18"",""197427""
""focus"",""19"",""210267""
""blur"",""21"",""215824""
""focus"",""22"",""231164""
""blur"",""24"",""235677""
""focus"",""25"",""244499""
""blur"",""26"",""249142""
""focus"",""30"",""255981""
","""event"",""trial"",""time""
""blur"",""0"",""0""
""blur"",""2"",""13049""
""blur"",""6"",""52029""
""blur"",""9"",""86800""
""blur"",""12"",""98398""
""blur"",""14"",""137954""
""blur"",""15"",""152435""
""blur"",""18"",""197427""
""blur"",""21"",""215824""
""blur"",""24"",""235677""
""blur"",""26"",""249142""
","""event"",""trial"",""time""
""focus"",""1"",""10381""
""focus"",""4"",""45978""
""focus"",""7"",""74741""
""focus"",""10"",""94603""
""focus"",""12"",""132166""
""focus"",""15"",""150173""
""focus"",""16"",""189141""
""focus"",""19"",""210267""
""focus"",""22"",""231164""
""focus"",""25"",""244499""
""focus"",""30"",""255981""
","""event"",""trial"",""time""
""fullscreenenter"",""1"",""10880""
","
",,,,,,,,,,,,"[{""stimulus"":""run_exp/static/images/task_images/dig.jpg"",""time"":0},{""stimulus"":""run_exp/static/images/task_images/land.jpg"",""time"":682.1999999284744},{""stimulus"":""run_exp/static/images/task_images/dig.jpg"",""time"":1343.6999999284744}]",[],,,,,,,,,,,,,,,
harvest_prac,34,261965,0.0-13.0-1.0,"""event"",""trial"",""time""
""blur"",""0"",""0""
""focus"",""1"",""10381""
""fullscreenenter"",""1"",""10880""
""blur"",""2"",""13049""
""focus"",""4"",""45978""
""blur"",""6"",""52029""
""focus"",""7"",""74741""
""blur"",""9"",""86800""
""focus"",""10"",""94603""
""blur"",""12"",""98398""
""focus"",""12"",""132166""
""blur"",""14"",""137954""
""focus"",""15"",""150173""
""blur"",""15"",""152435""
""focus"",""16"",""189141""
""blur"",""18"",""197427""
""focus"",""19"",""210267""
""blur"",""21"",""215824""
""focus"",""22"",""231164""
""blur"",""24"",""235677""
""focus"",""25"",""244499""
""blur"",""26"",""249142""
""focus"",""30"",""255981""
","""event"",""trial"",""time""
""blur"",""0"",""0""
""blur"",""2"",""13049""
""blur"",""6"",""52029""
""blur"",""9"",""86800""
""blur"",""12"",""98398""
""blur"",""14"",""137954""
""blur"",""15"",""152435""
""blur"",""18"",""197427""
""blur"",""21"",""215824""
""blur"",""24"",""235677""
""blur"",""26"",""249142""
","""event"",""trial"",""time""
""focus"",""1"",""10381""
""focus"",""4"",""45978""
""focus"",""7"",""74741""
""focus"",""10"",""94603""
""focus"",""12"",""132166""
""focus"",""15"",""150173""
""focus"",""16"",""189141""
""focus"",""19"",""210267""
""focus"",""22"",""231164""
""focus"",""25"",""244499""
""focus"",""30"",""255981""
","""event"",""trial"",""time""
""fullscreenenter"",""1"",""10880""
","
",,null,run_exp/static/images/task_images/barrel_text.jpg,null,,,,,,,,,,,,,,,,,,,,,,,,
decision_prac,35,262315,0.0-13.0-2.0,"""event"",""trial"",""time""
""blur"",""0"",""0""
""focus"",""1"",""10381""
""fullscreenenter"",""1"",""10880""
""blur"",""2"",""13049""
""focus"",""4"",""45978""
""blur"",""6"",""52029""
""focus"",""7"",""74741""
""blur"",""9"",""86800""
""focus"",""10"",""94603""
""blur"",""12"",""98398""
""focus"",""12"",""132166""
""blur"",""14"",""137954""
""focus"",""15"",""150173""
""blur"",""15"",""152435""
""focus"",""16"",""189141""
""blur"",""18"",""197427""
""focus"",""19"",""210267""
""blur"",""21"",""215824""
""focus"",""22"",""231164""
""blur"",""24"",""235677""
""focus"",""25"",""244499""
""blur"",""26"",""249142""
""focus"",""30"",""255981""
","""event"",""trial"",""time""
""blur"",""0"",""0""
""blur"",""2"",""13049""
""blur"",""6"",""52029""
""blur"",""9"",""86800""
""blur"",""12"",""98398""
""blur"",""14"",""137954""
""blur"",""15"",""152435""
""blur"",""18"",""197427""
""blur"",""21"",""215824""
""blur"",""24"",""235677""
""blur"",""26"",""249142""
","""event"",""trial"",""time""
""focus"",""1"",""10381""
""focus"",""4"",""45978""
""focus"",""7"",""74741""
""focus"",""10"",""94603""
""focus"",""12"",""132166""
""focus"",""15"",""150173""
""focus"",""16"",""189141""
""focus"",""19"",""210267""
""focus"",""22"",""231164""
""focus"",""25"",""244499""
""focus"",""30"",""255981""
","""event"",""trial"",""time""
""fullscreenenter"",""1"",""10880""
","
",,348.5,run_exp/static/images/task_images/land.jpg,65,,,,,,,,,,,3,,,,,,,,,,,,,
dig_prac,36,264323,0.0-14.0-0.0,"""event"",""trial"",""time""
""blur"",""0"",""0""
""focus"",""1"",""10381""
""fullscreenenter"",""1"",""10880""
""blur"",""2"",""13049""
""focus"",""4"",""45978""
""blur"",""6"",""52029""
""focus"",""7"",""74741""
""blur"",""9"",""86800""
""focus"",""10"",""94603""
""blur"",""12"",""98398""
""focus"",""12"",""132166""
""blur"",""14"",""137954""
""focus"",""15"",""150173""
""blur"",""15"",""152435""
""focus"",""16"",""189141""
""blur"",""18"",""197427""
""focus"",""19"",""210267""
""blur"",""21"",""215824""
""focus"",""22"",""231164""
""blur"",""24"",""235677""
""focus"",""25"",""244499""
""blur"",""26"",""249142""
""focus"",""30"",""255981""
","""event"",""trial"",""time""
""blur"",""0"",""0""
""blur"",""2"",""13049""
""blur"",""6"",""52029""
""blur"",""9"",""86800""
""blur"",""12"",""98398""
""blur"",""14"",""137954""
""blur"",""15"",""152435""
""blur"",""18"",""197427""
""blur"",""21"",""215824""
""blur"",""24"",""235677""
""blur"",""26"",""249142""
","""event"",""trial"",""time""
""focus"",""1"",""10381""
""focus"",""4"",""45978""
""focus"",""7"",""74741""
""focus"",""10"",""94603""
""focus"",""12"",""132166""
""focus"",""15"",""150173""
""focus"",""16"",""189141""
""focus"",""19"",""210267""
""focus"",""22"",""231164""
""focus"",""25"",""244499""
""focus"",""30"",""255981""
","""event"",""trial"",""time""
""fullscreenenter"",""1"",""10880""
","
",,,,,,,,,,,,"[{""stimulus"":""run_exp/static/images/task_images/dig.jpg"",""time"":0},{""stimulus"":""run_exp/static/images/task_images/land.jpg"",""time"":680.1000000238419},{""stimulus"":""run_exp/static/images/task_images/dig.jpg"",""time"":1342.7999999523163}]",[],,,,,,,,,,,,,,,
harvest_prac,37,265336,0.0-14.0-1.0,"""event"",""trial"",""time""
""blur"",""0"",""0""
""focus"",""1"",""10381""
""fullscreenenter"",""1"",""10880""
""blur"",""2"",""13049""
""focus"",""4"",""45978""
""blur"",""6"",""52029""
""focus"",""7"",""74741""
""blur"",""9"",""86800""
""focus"",""10"",""94603""
""blur"",""12"",""98398""
""focus"",""12"",""132166""
""blur"",""14"",""137954""
""focus"",""15"",""150173""
""blur"",""15"",""152435""
""focus"",""16"",""189141""
""blur"",""18"",""197427""
""focus"",""19"",""210267""
""blur"",""21"",""215824""
""focus"",""22"",""231164""
""blur"",""24"",""235677""
""focus"",""25"",""244499""
""blur"",""26"",""249142""
""focus"",""30"",""255981""
","""event"",""trial"",""time""
""blur"",""0"",""0""
""blur"",""2"",""13049""
""blur"",""6"",""52029""
""blur"",""9"",""86800""
""blur"",""12"",""98398""
""blur"",""14"",""137954""
""blur"",""15"",""152435""
""blur"",""18"",""197427""
""blur"",""21"",""215824""
""blur"",""24"",""235677""
""blur"",""26"",""249142""
","""event"",""trial"",""time""
""focus"",""1"",""10381""
""focus"",""4"",""45978""
""focus"",""7"",""74741""
""focus"",""10"",""94603""
""focus"",""12"",""132166""
""focus"",""15"",""150173""
""focus"",""16"",""189141""
""focus"",""19"",""210267""
""focus"",""22"",""231164""
""focus"",""25"",""244499""
""focus"",""30"",""255981""
","""event"",""trial"",""time""
""fullscreenenter"",""1"",""10880""
","
",,null,run_exp/static/images/task_images/barrel_text.jpg,null,,,,,,,,,,,,,,,,,,,,,,,,
decision_prac,38,265965,0.0-14.0-2.0,"""event"",""trial"",""time""
""blur"",""0"",""0""
""focus"",""1"",""10381""
""fullscreenenter"",""1"",""10880""
""blur"",""2"",""13049""
""focus"",""4"",""45978""
""blur"",""6"",""52029""
""focus"",""7"",""74741""
""blur"",""9"",""86800""
""focus"",""10"",""94603""
""blur"",""12"",""98398""
""focus"",""12"",""132166""
""blur"",""14"",""137954""
""focus"",""15"",""150173""
""blur"",""15"",""152435""
""focus"",""16"",""189141""
""blur"",""18"",""197427""
""focus"",""19"",""210267""
""blur"",""21"",""215824""
""focus"",""22"",""231164""
""blur"",""24"",""235677""
""focus"",""25"",""244499""
""blur"",""26"",""249142""
""focus"",""30"",""255981""
","""event"",""trial"",""time""
""blur"",""0"",""0""
""blur"",""2"",""13049""
""blur"",""6"",""52029""
""blur"",""9"",""86800""
""blur"",""12"",""98398""
""blur"",""14"",""137954""
""blur"",""15"",""152435""
""blur"",""18"",""197427""
""blur"",""21"",""215824""
""blur"",""24"",""235677""
""blur"",""26"",""249142""
","""event"",""trial"",""time""
""focus"",""1"",""10381""
""focus"",""4"",""45978""
""focus"",""7"",""74741""
""focus"",""10"",""94603""
""focus"",""12"",""132166""
""focus"",""15"",""150173""
""focus"",""16"",""189141""
""focus"",""19"",""210267""
""focus"",""22"",""231164""
""focus"",""25"",""244499""
""focus"",""30"",""255981""
","""event"",""trial"",""time""
""fullscreenenter"",""1"",""10880""
","
",,627.9,run_exp/static/images/task_images/land.jpg,65,,,,,,,,,,,4,,,,,,,,,,,,,
dig_prac,39,267981,0.0-15.0-0.0,"""event"",""trial"",""time""
""blur"",""0"",""0""
""focus"",""1"",""10381""
""fullscreenenter"",""1"",""10880""
""blur"",""2"",""13049""
""focus"",""4"",""45978""
""blur"",""6"",""52029""
""focus"",""7"",""74741""
""blur"",""9"",""86800""
""focus"",""10"",""94603""
""blur"",""12"",""98398""
""focus"",""12"",""132166""
""blur"",""14"",""137954""
""focus"",""15"",""150173""
""blur"",""15"",""152435""
""focus"",""16"",""189141""
""blur"",""18"",""197427""
""focus"",""19"",""210267""
""blur"",""21"",""215824""
""focus"",""22"",""231164""
""blur"",""24"",""235677""
""focus"",""25"",""244499""
""blur"",""26"",""249142""
""focus"",""30"",""255981""
","""event"",""trial"",""time""
""blur"",""0"",""0""
""blur"",""2"",""13049""
""blur"",""6"",""52029""
""blur"",""9"",""86800""
""blur"",""12"",""98398""
""blur"",""14"",""137954""
""blur"",""15"",""152435""
""blur"",""18"",""197427""
""blur"",""21"",""215824""
""blur"",""24"",""235677""
""blur"",""26"",""249142""
","""event"",""trial"",""time""
""focus"",""1"",""10381""
""focus"",""4"",""45978""
""focus"",""7"",""74741""
""focus"",""10"",""94603""
""focus"",""12"",""132166""
""focus"",""15"",""150173""
""focus"",""16"",""189141""
""focus"",""19"",""210267""
""focus"",""22"",""231164""
""focus"",""25"",""244499""
""focus"",""30"",""255981""
","""event"",""trial"",""time""
""fullscreenenter"",""1"",""10880""
","
",,,,,,,,,,,,"[{""stimulus"":""run_exp/static/images/task_images/dig.jpg"",""time"":0.20000004768371582},{""stimulus"":""run_exp/static/images/task_images/land.jpg"",""time"":667.8000000715256},{""stimulus"":""run_exp/static/images/task_images/dig.jpg"",""time"":1349.3999999761581}]",[],,,,,,,,,,,,,,,
harvest_prac,40,268994,0.0-15.0-1.0,"""event"",""trial"",""time""
""blur"",""0"",""0""
""focus"",""1"",""10381""
""fullscreenenter"",""1"",""10880""
""blur"",""2"",""13049""
""focus"",""4"",""45978""
""blur"",""6"",""52029""
""focus"",""7"",""74741""
""blur"",""9"",""86800""
""focus"",""10"",""94603""
""blur"",""12"",""98398""
""focus"",""12"",""132166""
""blur"",""14"",""137954""
""focus"",""15"",""150173""
""blur"",""15"",""152435""
""focus"",""16"",""189141""
""blur"",""18"",""197427""
""focus"",""19"",""210267""
""blur"",""21"",""215824""
""focus"",""22"",""231164""
""blur"",""24"",""235677""
""focus"",""25"",""244499""
""blur"",""26"",""249142""
""focus"",""30"",""255981""
","""event"",""trial"",""time""
""blur"",""0"",""0""
""blur"",""2"",""13049""
""blur"",""6"",""52029""
""blur"",""9"",""86800""
""blur"",""12"",""98398""
""blur"",""14"",""137954""
""blur"",""15"",""152435""
""blur"",""18"",""197427""
""blur"",""21"",""215824""
""blur"",""24"",""235677""
""blur"",""26"",""249142""
","""event"",""trial"",""time""
""focus"",""1"",""10381""
""focus"",""4"",""45978""
""focus"",""7"",""74741""
""focus"",""10"",""94603""
""focus"",""12"",""132166""
""focus"",""15"",""150173""
""focus"",""16"",""189141""
""focus"",""19"",""210267""
""focus"",""22"",""231164""
""focus"",""25"",""244499""
""focus"",""30"",""255981""
","""event"",""trial"",""time""
""fullscreenenter"",""1"",""10880""
","
",,null,run_exp/static/images/task_images/barrel_text.jpg,null,,,,,,,,,,,,,,,,,,,,,,,,
decision_prac,41,269690,0.0-15.0-2.0,"""event"",""trial"",""time""
""blur"",""0"",""0""
""focus"",""1"",""10381""
""fullscreenenter"",""1"",""10880""
""blur"",""2"",""13049""
""focus"",""4"",""45978""
""blur"",""6"",""52029""
""focus"",""7"",""74741""
""blur"",""9"",""86800""
""focus"",""10"",""94603""
""blur"",""12"",""98398""
""focus"",""12"",""132166""
""blur"",""14"",""137954""
""focus"",""15"",""150173""
""blur"",""15"",""152435""
""focus"",""16"",""189141""
""blur"",""18"",""197427""
""focus"",""19"",""210267""
""blur"",""21"",""215824""
""focus"",""22"",""231164""
""blur"",""24"",""235677""
""focus"",""25"",""244499""
""blur"",""26"",""249142""
""focus"",""30"",""255981""
","""event"",""trial"",""time""
""blur"",""0"",""0""
""blur"",""2"",""13049""
""blur"",""6"",""52029""
""blur"",""9"",""86800""
""blur"",""12"",""98398""
""blur"",""14"",""137954""
""blur"",""15"",""152435""
""blur"",""18"",""197427""
""blur"",""21"",""215824""
""blur"",""24"",""235677""
""blur"",""26"",""249142""
","""event"",""trial"",""time""
""focus"",""1"",""10381""
""focus"",""4"",""45978""
""focus"",""7"",""74741""
""focus"",""10"",""94603""
""focus"",""12"",""132166""
""focus"",""15"",""150173""
""focus"",""16"",""189141""
""focus"",""19"",""210267""
""focus"",""22"",""231164""
""focus"",""25"",""244499""
""focus"",""30"",""255981""
","""event"",""trial"",""time""
""fullscreenenter"",""1"",""10880""
","
",,695.1999999,run_exp/static/images/task_images/land.jpg,65,,,,,,,,,,,,1,,,,,,,,,,,,
quiz_instruc,42,272654,0.0-16.0-0.0,"""event"",""trial"",""time""
""blur"",""0"",""0""
""focus"",""1"",""10381""
""fullscreenenter"",""1"",""10880""
""blur"",""2"",""13049""
""focus"",""4"",""45978""
""blur"",""6"",""52029""
""focus"",""7"",""74741""
""blur"",""9"",""86800""
""focus"",""10"",""94603""
""blur"",""12"",""98398""
""focus"",""12"",""132166""
""blur"",""14"",""137954""
""focus"",""15"",""150173""
""blur"",""15"",""152435""
""focus"",""16"",""189141""
""blur"",""18"",""197427""
""focus"",""19"",""210267""
""blur"",""21"",""215824""
""focus"",""22"",""231164""
""blur"",""24"",""235677""
""focus"",""25"",""244499""
""blur"",""26"",""249142""
""focus"",""30"",""255981""
""blur"",""43"",""291082""
","""event"",""trial"",""time""
""blur"",""0"",""0""
""blur"",""2"",""13049""
""blur"",""6"",""52029""
""blur"",""9"",""86800""
""blur"",""12"",""98398""
""blur"",""14"",""137954""
""blur"",""15"",""152435""
""blur"",""18"",""197427""
""blur"",""21"",""215824""
""blur"",""24"",""235677""
""blur"",""26"",""249142""
""blur"",""43"",""291082""
","""event"",""trial"",""time""
""focus"",""1"",""10381""
""focus"",""4"",""45978""
""focus"",""7"",""74741""
""focus"",""10"",""94603""
""focus"",""12"",""132166""
""focus"",""15"",""150173""
""focus"",""16"",""189141""
""focus"",""19"",""210267""
""focus"",""22"",""231164""
""focus"",""25"",""244499""
""focus"",""30"",""255981""
","""event"",""trial"",""time""
""fullscreenenter"",""1"",""10880""
","
",,2962.3,run_exp/static/audio/clip_10_quiz.m4a,,,,,,,0,,,,,,,,,,,,,,,,,,
instruc_repeat,43,315413,0.0-16.0-1.0,"""event"",""trial"",""time""
""blur"",""0"",""0""
""focus"",""1"",""10381""
""fullscreenenter"",""1"",""10880""
""blur"",""2"",""13049""
""focus"",""4"",""45978""
""blur"",""6"",""52029""
""focus"",""7"",""74741""
""blur"",""9"",""86800""
""focus"",""10"",""94603""
""blur"",""12"",""98398""
""focus"",""12"",""132166""
""blur"",""14"",""137954""
""focus"",""15"",""150173""
""blur"",""15"",""152435""
""focus"",""16"",""189141""
""blur"",""18"",""197427""
""focus"",""19"",""210267""
""blur"",""21"",""215824""
""focus"",""22"",""231164""
""blur"",""24"",""235677""
""focus"",""25"",""244499""
""blur"",""26"",""249142""
""focus"",""30"",""255981""
""blur"",""43"",""291082""
""focus"",""44"",""316766""
","""event"",""trial"",""time""
""blur"",""0"",""0""
""blur"",""2"",""13049""
""blur"",""6"",""52029""
""blur"",""9"",""86800""
""blur"",""12"",""98398""
""blur"",""14"",""137954""
""blur"",""15"",""152435""
""blur"",""18"",""197427""
""blur"",""21"",""215824""
""blur"",""24"",""235677""
""blur"",""26"",""249142""
""blur"",""43"",""291082""
","""event"",""trial"",""time""
""focus"",""1"",""10381""
""focus"",""4"",""45978""
""focus"",""7"",""74741""
""focus"",""10"",""94603""
""focus"",""12"",""132166""
""focus"",""15"",""150173""
""focus"",""16"",""189141""
""focus"",""19"",""210267""
""focus"",""22"",""231164""
""focus"",""25"",""244499""
""focus"",""30"",""255981""
""focus"",""44"",""316766""
","""event"",""trial"",""time""
""fullscreenenter"",""1"",""10880""
","
",,null,"<p> Are you ready to play a practice game? </p> <p>In this practice game, you'll be digging up barrels of gems. But, in the real game, you'll be digging up the gems themselves. </p>",null,"<p>In this game, your goal is to collect as many gems as you can. That’s how you will win bonus money. </p> <p>The entire game will last 20 minutes no matter how many gems you collect or how many planets you visit. </p><p>To stay on a planet and dig again, press the letter A on your keyboard. To leave for a new planet, press the letter L.</p><p>The more you dig on a planet, the fewer gems you’ll get with each dig which is why you might consider leaving for a new planet. </p><p>When you arrive at a new planet, you’ll be greeted by an alien. What the alien looks like does not tell you anything about how much treasure is on the planet. </p>",,,,,,,,,,,,,,,,,,,,,,,
instruc_repeat_continue,44,316855,0.0-16.0-2.0,"""event"",""trial"",""time""
""blur"",""0"",""0""
""focus"",""1"",""10381""
""fullscreenenter"",""1"",""10880""
""blur"",""2"",""13049""
""focus"",""4"",""45978""
""blur"",""6"",""52029""
""focus"",""7"",""74741""
""blur"",""9"",""86800""
""focus"",""10"",""94603""
""blur"",""12"",""98398""
""focus"",""12"",""132166""
""blur"",""14"",""137954""
""focus"",""15"",""150173""
""blur"",""15"",""152435""
""focus"",""16"",""189141""
""blur"",""18"",""197427""
""focus"",""19"",""210267""
""blur"",""21"",""215824""
""focus"",""22"",""231164""
""blur"",""24"",""235677""
""focus"",""25"",""244499""
""blur"",""26"",""249142""
""focus"",""30"",""255981""
""blur"",""43"",""291082""
""focus"",""44"",""316766""
","""event"",""trial"",""time""
""blur"",""0"",""0""
""blur"",""2"",""13049""
""blur"",""6"",""52029""
""blur"",""9"",""86800""
""blur"",""12"",""98398""
""blur"",""14"",""137954""
""blur"",""15"",""152435""
""blur"",""18"",""197427""
""blur"",""21"",""215824""
""blur"",""24"",""235677""
""blur"",""26"",""249142""
""blur"",""43"",""291082""
","""event"",""trial"",""time""
""focus"",""1"",""10381""
""focus"",""4"",""45978""
""focus"",""7"",""74741""
""focus"",""10"",""94603""
""focus"",""12"",""132166""
""focus"",""15"",""150173""
""focus"",""16"",""189141""
""focus"",""19"",""210267""
""focus"",""22"",""231164""
""focus"",""25"",""244499""
""focus"",""30"",""255981""
""focus"",""44"",""316766""
","""event"",""trial"",""time""
""fullscreenenter"",""1"",""10880""
","
",,1440.7,"<p> Are you ready to play a practice game? </p> <p>In this practice game, you'll be digging up barrels of gems. But, in the real game, you'll be digging up the gems themselves. </p>",,,,,,,0,,,,,,,,,,,,,,,,,,
quiz_q_1_ask,45,321039,0.0-16.0-3.0,"""event"",""trial"",""time""
""blur"",""0"",""0""
""focus"",""1"",""10381""
""fullscreenenter"",""1"",""10880""
""blur"",""2"",""13049""
""focus"",""4"",""45978""
""blur"",""6"",""52029""
""focus"",""7"",""74741""
""blur"",""9"",""86800""
""focus"",""10"",""94603""
""blur"",""12"",""98398""
""focus"",""12"",""132166""
""blur"",""14"",""137954""
""focus"",""15"",""150173""
""blur"",""15"",""152435""
""focus"",""16"",""189141""
""blur"",""18"",""197427""
""focus"",""19"",""210267""
""blur"",""21"",""215824""
""focus"",""22"",""231164""
""blur"",""24"",""235677""
""focus"",""25"",""244499""
""blur"",""26"",""249142""
""focus"",""30"",""255981""
""blur"",""43"",""291082""
""focus"",""44"",""316766""
","""event"",""trial"",""time""
""blur"",""0"",""0""
""blur"",""2"",""13049""
""blur"",""6"",""52029""
""blur"",""9"",""86800""
""blur"",""12"",""98398""
""blur"",""14"",""137954""
""blur"",""15"",""152435""
""blur"",""18"",""197427""
""blur"",""21"",""215824""
""blur"",""24"",""235677""
""blur"",""26"",""249142""
""blur"",""43"",""291082""
","""event"",""trial"",""time""
""focus"",""1"",""10381""
""focus"",""4"",""45978""
""focus"",""7"",""74741""
""focus"",""10"",""94603""
""focus"",""12"",""132166""
""focus"",""15"",""150173""
""focus"",""16"",""189141""
""focus"",""19"",""210267""
""focus"",""22"",""231164""
""focus"",""25"",""244499""
""focus"",""30"",""255981""
""focus"",""44"",""316766""
","""event"",""trial"",""time""
""fullscreenenter"",""1"",""10880""
","
",,4182.5,run_exp/static/audio/clip_11_q1_ask.m4a,,,,,,,2,,,,,,,,,,,,,,,,,,
quiz_q_1_fb_correct,46,324873,0.0-17.0-0.0,"""event"",""trial"",""time""
""blur"",""0"",""0""
""focus"",""1"",""10381""
""fullscreenenter"",""1"",""10880""
""blur"",""2"",""13049""
""focus"",""4"",""45978""
""blur"",""6"",""52029""
""focus"",""7"",""74741""
""blur"",""9"",""86800""
""focus"",""10"",""94603""
""blur"",""12"",""98398""
""focus"",""12"",""132166""
""blur"",""14"",""137954""
""focus"",""15"",""150173""
""blur"",""15"",""152435""
""focus"",""16"",""189141""
""blur"",""18"",""197427""
""focus"",""19"",""210267""
""blur"",""21"",""215824""
""focus"",""22"",""231164""
""blur"",""24"",""235677""
""focus"",""25"",""244499""
""blur"",""26"",""249142""
""focus"",""30"",""255981""
""blur"",""43"",""291082""
""focus"",""44"",""316766""
""blur"",""47"",""325766""
""focus"",""47"",""327367""
","""event"",""trial"",""time""
""blur"",""0"",""0""
""blur"",""2"",""13049""
""blur"",""6"",""52029""
""blur"",""9"",""86800""
""blur"",""12"",""98398""
""blur"",""14"",""137954""
""blur"",""15"",""152435""
""blur"",""18"",""197427""
""blur"",""21"",""215824""
""blur"",""24"",""235677""
""blur"",""26"",""249142""
""blur"",""43"",""291082""
""blur"",""47"",""325766""
","""event"",""trial"",""time""
""focus"",""1"",""10381""
""focus"",""4"",""45978""
""focus"",""7"",""74741""
""focus"",""10"",""94603""
""focus"",""12"",""132166""
""focus"",""15"",""150173""
""focus"",""16"",""189141""
""focus"",""19"",""210267""
""focus"",""22"",""231164""
""focus"",""25"",""244499""
""focus"",""30"",""255981""
""focus"",""44"",""316766""
""focus"",""47"",""327367""
","""event"",""trial"",""time""
""fullscreenenter"",""1"",""10880""
","
",,null,run_exp/static/audio/clip_12_q1_correct.m4a,null,<p>That’s correct. You win extra money by collecting more gems.</p>,,,,,,,,,,,,,,,,,,,,,,,
quiz_q_2_ask,47,327432,0.0-17.0-1.0,"""event"",""trial"",""time""
""blur"",""0"",""0""
""focus"",""1"",""10381""
""fullscreenenter"",""1"",""10880""
""blur"",""2"",""13049""
""focus"",""4"",""45978""
""blur"",""6"",""52029""
""focus"",""7"",""74741""
""blur"",""9"",""86800""
""focus"",""10"",""94603""
""blur"",""12"",""98398""
""focus"",""12"",""132166""
""blur"",""14"",""137954""
""focus"",""15"",""150173""
""blur"",""15"",""152435""
""focus"",""16"",""189141""
""blur"",""18"",""197427""
""focus"",""19"",""210267""
""blur"",""21"",""215824""
""focus"",""22"",""231164""
""blur"",""24"",""235677""
""focus"",""25"",""244499""
""blur"",""26"",""249142""
""focus"",""30"",""255981""
""blur"",""43"",""291082""
""focus"",""44"",""316766""
""blur"",""47"",""325766""
""focus"",""47"",""327367""
","""event"",""trial"",""time""
""blur"",""0"",""0""
""blur"",""2"",""13049""
""blur"",""6"",""52029""
""blur"",""9"",""86800""
""blur"",""12"",""98398""
""blur"",""14"",""137954""
""blur"",""15"",""152435""
""blur"",""18"",""197427""
""blur"",""21"",""215824""
""blur"",""24"",""235677""
""blur"",""26"",""249142""
""blur"",""43"",""291082""
""blur"",""47"",""325766""
","""event"",""trial"",""time""
""focus"",""1"",""10381""
""focus"",""4"",""45978""
""focus"",""7"",""74741""
""focus"",""10"",""94603""
""focus"",""12"",""132166""
""focus"",""15"",""150173""
""focus"",""16"",""189141""
""focus"",""19"",""210267""
""focus"",""22"",""231164""
""focus"",""25"",""244499""
""focus"",""30"",""255981""
""focus"",""44"",""316766""
""focus"",""47"",""327367""
","""event"",""trial"",""time""
""fullscreenenter"",""1"",""10880""
","
",,2558.1,run_exp/static/audio/clip_14_q2_ask.m4a,,,,,,,1,,,,,,,,,,,,,,,,,,
quiz_q_2_fb_correct,48,331433,0.0-18.0-0.0,"""event"",""trial"",""time""
""blur"",""0"",""0""
""focus"",""1"",""10381""
""fullscreenenter"",""1"",""10880""
""blur"",""2"",""13049""
""focus"",""4"",""45978""
""blur"",""6"",""52029""
""focus"",""7"",""74741""
""blur"",""9"",""86800""
""focus"",""10"",""94603""
""blur"",""12"",""98398""
""focus"",""12"",""132166""
""blur"",""14"",""137954""
""focus"",""15"",""150173""
""blur"",""15"",""152435""
""focus"",""16"",""189141""
""blur"",""18"",""197427""
""focus"",""19"",""210267""
""blur"",""21"",""215824""
""focus"",""22"",""231164""
""blur"",""24"",""235677""
""focus"",""25"",""244499""
""blur"",""26"",""249142""
""focus"",""30"",""255981""
""blur"",""43"",""291082""
""focus"",""44"",""316766""
""blur"",""47"",""325766""
""focus"",""47"",""327367""
""blur"",""49"",""332636""
""focus"",""49"",""334220""
","""event"",""trial"",""time""
""blur"",""0"",""0""
""blur"",""2"",""13049""
""blur"",""6"",""52029""
""blur"",""9"",""86800""
""blur"",""12"",""98398""
""blur"",""14"",""137954""
""blur"",""15"",""152435""
""blur"",""18"",""197427""
""blur"",""21"",""215824""
""blur"",""24"",""235677""
""blur"",""26"",""249142""
""blur"",""43"",""291082""
""blur"",""47"",""325766""
""blur"",""49"",""332636""
","""event"",""trial"",""time""
""focus"",""1"",""10381""
""focus"",""4"",""45978""
""focus"",""7"",""74741""
""focus"",""10"",""94603""
""focus"",""12"",""132166""
""focus"",""15"",""150173""
""focus"",""16"",""189141""
""focus"",""19"",""210267""
""focus"",""22"",""231164""
""focus"",""25"",""244499""
""focus"",""30"",""255981""
""focus"",""44"",""316766""
""focus"",""47"",""327367""
""focus"",""49"",""334220""
","""event"",""trial"",""time""
""fullscreenenter"",""1"",""10880""
","
",,null,run_exp/static/audio/clip_15_q2_correct.m4a,null,<p>That’s correct. The experiment is 20 minutes no matter what.</p>,,,,,,,,,,,,,,,,,,,,,,,
quiz_q_3_ask,49,334303,0.0-18.0-1.0,"""event"",""trial"",""time""
""blur"",""0"",""0""
""focus"",""1"",""10381""
""fullscreenenter"",""1"",""10880""
""blur"",""2"",""13049""
""focus"",""4"",""45978""
""blur"",""6"",""52029""
""focus"",""7"",""74741""
""blur"",""9"",""86800""
""focus"",""10"",""94603""
""blur"",""12"",""98398""
""focus"",""12"",""132166""
""blur"",""14"",""137954""
""focus"",""15"",""150173""
""blur"",""15"",""152435""
""focus"",""16"",""189141""
""blur"",""18"",""197427""
""focus"",""19"",""210267""
""blur"",""21"",""215824""
""focus"",""22"",""231164""
""blur"",""24"",""235677""
""focus"",""25"",""244499""
""blur"",""26"",""249142""
""focus"",""30"",""255981""
""blur"",""43"",""291082""
""focus"",""44"",""316766""
""blur"",""47"",""325766""
""focus"",""47"",""327367""
""blur"",""49"",""332636""
""focus"",""49"",""334220""
","""event"",""trial"",""time""
""blur"",""0"",""0""
""blur"",""2"",""13049""
""blur"",""6"",""52029""
""blur"",""9"",""86800""
""blur"",""12"",""98398""
""blur"",""14"",""137954""
""blur"",""15"",""152435""
""blur"",""18"",""197427""
""blur"",""21"",""215824""
""blur"",""24"",""235677""
""blur"",""26"",""249142""
""blur"",""43"",""291082""
""blur"",""47"",""325766""
""blur"",""49"",""332636""
","""event"",""trial"",""time""
""focus"",""1"",""10381""
""focus"",""4"",""45978""
""focus"",""7"",""74741""
""focus"",""10"",""94603""
""focus"",""12"",""132166""
""focus"",""15"",""150173""
""focus"",""16"",""189141""
""focus"",""19"",""210267""
""focus"",""22"",""231164""
""focus"",""25"",""244499""
""focus"",""30"",""255981""
""focus"",""44"",""316766""
""focus"",""47"",""327367""
""focus"",""49"",""334220""
","""event"",""trial"",""time""
""fullscreenenter"",""1"",""10880""
","
",,2868.9,run_exp/static/audio/clip_17_q3_ask.m4a,,,,,,,1,,,,,,,,,,,,,,,,,,
quiz_q_3_fb_correct,50,338293,0.0-19.0-0.0,"""event"",""trial"",""time""
""blur"",""0"",""0""
""focus"",""1"",""10381""
""fullscreenenter"",""1"",""10880""
""blur"",""2"",""13049""
""focus"",""4"",""45978""
""blur"",""6"",""52029""
""focus"",""7"",""74741""
""blur"",""9"",""86800""
""focus"",""10"",""94603""
""blur"",""12"",""98398""
""focus"",""12"",""132166""
""blur"",""14"",""137954""
""focus"",""15"",""150173""
""blur"",""15"",""152435""
""focus"",""16"",""189141""
""blur"",""18"",""197427""
""focus"",""19"",""210267""
""blur"",""21"",""215824""
""focus"",""22"",""231164""
""blur"",""24"",""235677""
""focus"",""25"",""244499""
""blur"",""26"",""249142""
""focus"",""30"",""255981""
""blur"",""43"",""291082""
""focus"",""44"",""316766""
""blur"",""47"",""325766""
""focus"",""47"",""327367""
""blur"",""49"",""332636""
""focus"",""49"",""334220""
","""event"",""trial"",""time""
""blur"",""0"",""0""
""blur"",""2"",""13049""
""blur"",""6"",""52029""
""blur"",""9"",""86800""
""blur"",""12"",""98398""
""blur"",""14"",""137954""
""blur"",""15"",""152435""
""blur"",""18"",""197427""
""blur"",""21"",""215824""
""blur"",""24"",""235677""
""blur"",""26"",""249142""
""blur"",""43"",""291082""
""blur"",""47"",""325766""
""blur"",""49"",""332636""
","""event"",""trial"",""time""
""focus"",""1"",""10381""
""focus"",""4"",""45978""
""focus"",""7"",""74741""
""focus"",""10"",""94603""
""focus"",""12"",""132166""
""focus"",""15"",""150173""
""focus"",""16"",""189141""
""focus"",""19"",""210267""
""focus"",""22"",""231164""
""focus"",""25"",""244499""
""focus"",""30"",""255981""
""focus"",""44"",""316766""
""focus"",""47"",""327367""
""focus"",""49"",""334220""
","""event"",""trial"",""time""
""fullscreenenter"",""1"",""10880""
","
",,null,run_exp/static/audio/clip_18_q3_correct.m4a,null,<p> That’s correct. You press the letter L to travel to a new planet.</p>,,,,,,,,,,,,,,,,,,,,,,,
quiz_q_4_ask,51,343121,0.0-19.0-1.0,"""event"",""trial"",""time""
""blur"",""0"",""0""
""focus"",""1"",""10381""
""fullscreenenter"",""1"",""10880""
""blur"",""2"",""13049""
""focus"",""4"",""45978""
""blur"",""6"",""52029""
""focus"",""7"",""74741""
""blur"",""9"",""86800""
""focus"",""10"",""94603""
""blur"",""12"",""98398""
""focus"",""12"",""132166""
""blur"",""14"",""137954""
""focus"",""15"",""150173""
""blur"",""15"",""152435""
""focus"",""16"",""189141""
""blur"",""18"",""197427""
""focus"",""19"",""210267""
""blur"",""21"",""215824""
""focus"",""22"",""231164""
""blur"",""24"",""235677""
""focus"",""25"",""244499""
""blur"",""26"",""249142""
""focus"",""30"",""255981""
""blur"",""43"",""291082""
""focus"",""44"",""316766""
""blur"",""47"",""325766""
""focus"",""47"",""327367""
""blur"",""49"",""332636""
""focus"",""49"",""334220""
","""event"",""trial"",""time""
""blur"",""0"",""0""
""blur"",""2"",""13049""
""blur"",""6"",""52029""
""blur"",""9"",""86800""
""blur"",""12"",""98398""
""blur"",""14"",""137954""
""blur"",""15"",""152435""
""blur"",""18"",""197427""
""blur"",""21"",""215824""
""blur"",""24"",""235677""
""blur"",""26"",""249142""
""blur"",""43"",""291082""
""blur"",""47"",""325766""
""blur"",""49"",""332636""
","""event"",""trial"",""time""
""focus"",""1"",""10381""
""focus"",""4"",""45978""
""focus"",""7"",""74741""
""focus"",""10"",""94603""
""focus"",""12"",""132166""
""focus"",""15"",""150173""
""focus"",""16"",""189141""
""focus"",""19"",""210267""
""focus"",""22"",""231164""
""focus"",""25"",""244499""
""focus"",""30"",""255981""
""focus"",""44"",""316766""
""focus"",""47"",""327367""
""focus"",""49"",""334220""
","""event"",""trial"",""time""
""fullscreenenter"",""1"",""10880""
","
",,4827,run_exp/static/audio/clip_20_q4_ask.m4a,,,,,,,1,,,,,,,,,,,,,,,,,,
quiz_q_4_fb_incorrect,52,348932,0.0-20.0-0.0,"""event"",""trial"",""time""
""blur"",""0"",""0""
""focus"",""1"",""10381""
""fullscreenenter"",""1"",""10880""
""blur"",""2"",""13049""
""focus"",""4"",""45978""
""blur"",""6"",""52029""
""focus"",""7"",""74741""
""blur"",""9"",""86800""
""focus"",""10"",""94603""
""blur"",""12"",""98398""
""focus"",""12"",""132166""
""blur"",""14"",""137954""
""focus"",""15"",""150173""
""blur"",""15"",""152435""
""focus"",""16"",""189141""
""blur"",""18"",""197427""
""focus"",""19"",""210267""
""blur"",""21"",""215824""
""focus"",""22"",""231164""
""blur"",""24"",""235677""
""focus"",""25"",""244499""
""blur"",""26"",""249142""
""focus"",""30"",""255981""
""blur"",""43"",""291082""
""focus"",""44"",""316766""
""blur"",""47"",""325766""
""focus"",""47"",""327367""
""blur"",""49"",""332636""
""focus"",""49"",""334220""
","""event"",""trial"",""time""
""blur"",""0"",""0""
""blur"",""2"",""13049""
""blur"",""6"",""52029""
""blur"",""9"",""86800""
""blur"",""12"",""98398""
""blur"",""14"",""137954""
""blur"",""15"",""152435""
""blur"",""18"",""197427""
""blur"",""21"",""215824""
""blur"",""24"",""235677""
""blur"",""26"",""249142""
""blur"",""43"",""291082""
""blur"",""47"",""325766""
""blur"",""49"",""332636""
","""event"",""trial"",""time""
""focus"",""1"",""10381""
""focus"",""4"",""45978""
""focus"",""7"",""74741""
""focus"",""10"",""94603""
""focus"",""12"",""132166""
""focus"",""15"",""150173""
""focus"",""16"",""189141""
""focus"",""19"",""210267""
""focus"",""22"",""231164""
""focus"",""25"",""244499""
""focus"",""30"",""255981""
""focus"",""44"",""316766""
""focus"",""47"",""327367""
""focus"",""49"",""334220""
","""event"",""trial"",""time""
""fullscreenenter"",""1"",""10880""
","
",,null,run_exp/static/audio/clip_22_q4_incorrect.m4a,null,<p>That’s incorrect.  The more you dig on a planet the fewer gems you’ll get with each dig.</p>,,,,,,,,,,,,,,,,,,,,,,,
quiz_q_5_ask,53,351063,0.0-20.0-1.0,"""event"",""trial"",""time""
""blur"",""0"",""0""
""focus"",""1"",""10381""
""fullscreenenter"",""1"",""10880""
""blur"",""2"",""13049""
""focus"",""4"",""45978""
""blur"",""6"",""52029""
""focus"",""7"",""74741""
""blur"",""9"",""86800""
""focus"",""10"",""94603""
""blur"",""12"",""98398""
""focus"",""12"",""132166""
""blur"",""14"",""137954""
""focus"",""15"",""150173""
""blur"",""15"",""152435""
""focus"",""16"",""189141""
""blur"",""18"",""197427""
""focus"",""19"",""210267""
""blur"",""21"",""215824""
""focus"",""22"",""231164""
""blur"",""24"",""235677""
""focus"",""25"",""244499""
""blur"",""26"",""249142""
""focus"",""30"",""255981""
""blur"",""43"",""291082""
""focus"",""44"",""316766""
""blur"",""47"",""325766""
""focus"",""47"",""327367""
""blur"",""49"",""332636""
""focus"",""49"",""334220""
","""event"",""trial"",""time""
""blur"",""0"",""0""
""blur"",""2"",""13049""
""blur"",""6"",""52029""
""blur"",""9"",""86800""
""blur"",""12"",""98398""
""blur"",""14"",""137954""
""blur"",""15"",""152435""
""blur"",""18"",""197427""
""blur"",""21"",""215824""
""blur"",""24"",""235677""
""blur"",""26"",""249142""
""blur"",""43"",""291082""
""blur"",""47"",""325766""
""blur"",""49"",""332636""
","""event"",""trial"",""time""
""focus"",""1"",""10381""
""focus"",""4"",""45978""
""focus"",""7"",""74741""
""focus"",""10"",""94603""
""focus"",""12"",""132166""
""focus"",""15"",""150173""
""focus"",""16"",""189141""
""focus"",""19"",""210267""
""focus"",""22"",""231164""
""focus"",""25"",""244499""
""focus"",""30"",""255981""
""focus"",""44"",""316766""
""focus"",""47"",""327367""
""focus"",""49"",""334220""
","""event"",""trial"",""time""
""fullscreenenter"",""1"",""10880""
","
",,2129.8,run_exp/static/audio/clip_23_q5_ask.m4a,,,,,,,1,,,,,,,,,,,,,,,,,,
quiz_q_5_fb_correct,54,356072,0.0-21.0-0.0,"""event"",""trial"",""time""
""blur"",""0"",""0""
""focus"",""1"",""10381""
""fullscreenenter"",""1"",""10880""
""blur"",""2"",""13049""
""focus"",""4"",""45978""
""blur"",""6"",""52029""
""focus"",""7"",""74741""
""blur"",""9"",""86800""
""focus"",""10"",""94603""
""blur"",""12"",""98398""
""focus"",""12"",""132166""
""blur"",""14"",""137954""
""focus"",""15"",""150173""
""blur"",""15"",""152435""
""focus"",""16"",""189141""
""blur"",""18"",""197427""
""focus"",""19"",""210267""
""blur"",""21"",""215824""
""focus"",""22"",""231164""
""blur"",""24"",""235677""
""focus"",""25"",""244499""
""blur"",""26"",""249142""
""focus"",""30"",""255981""
""blur"",""43"",""291082""
""focus"",""44"",""316766""
""blur"",""47"",""325766""
""focus"",""47"",""327367""
""blur"",""49"",""332636""
""focus"",""49"",""334220""
","""event"",""trial"",""time""
""blur"",""0"",""0""
""blur"",""2"",""13049""
""blur"",""6"",""52029""
""blur"",""9"",""86800""
""blur"",""12"",""98398""
""blur"",""14"",""137954""
""blur"",""15"",""152435""
""blur"",""18"",""197427""
""blur"",""21"",""215824""
""blur"",""24"",""235677""
""blur"",""26"",""249142""
""blur"",""43"",""291082""
""blur"",""47"",""325766""
""blur"",""49"",""332636""
","""event"",""trial"",""time""
""focus"",""1"",""10381""
""focus"",""4"",""45978""
""focus"",""7"",""74741""
""focus"",""10"",""94603""
""focus"",""12"",""132166""
""focus"",""15"",""150173""
""focus"",""16"",""189141""
""focus"",""19"",""210267""
""focus"",""22"",""231164""
""focus"",""25"",""244499""
""focus"",""30"",""255981""
""focus"",""44"",""316766""
""focus"",""47"",""327367""
""focus"",""49"",""334220""
","""event"",""trial"",""time""
""fullscreenenter"",""1"",""10880""
","
",,null,run_exp/static/audio/clip_24_q5_correct.m4a,null,<p> That’s correct. The alien tells you nothing about how much treasure is on the planet.</p>,,,,,,,,,,,,,,,,,,,,,,,
quiz_incorrect,55,361612,0.0-22.0-0.0,"""event"",""trial"",""time""
""blur"",""0"",""0""
""focus"",""1"",""10381""
""fullscreenenter"",""1"",""10880""
""blur"",""2"",""13049""
""focus"",""4"",""45978""
""blur"",""6"",""52029""
""focus"",""7"",""74741""
""blur"",""9"",""86800""
""focus"",""10"",""94603""
""blur"",""12"",""98398""
""focus"",""12"",""132166""
""blur"",""14"",""137954""
""focus"",""15"",""150173""
""blur"",""15"",""152435""
""focus"",""16"",""189141""
""blur"",""18"",""197427""
""focus"",""19"",""210267""
""blur"",""21"",""215824""
""focus"",""22"",""231164""
""blur"",""24"",""235677""
""focus"",""25"",""244499""
""blur"",""26"",""249142""
""focus"",""30"",""255981""
""blur"",""43"",""291082""
""focus"",""44"",""316766""
""blur"",""47"",""325766""
""focus"",""47"",""327367""
""blur"",""49"",""332636""
""focus"",""49"",""334220""
","""event"",""trial"",""time""
""blur"",""0"",""0""
""blur"",""2"",""13049""
""blur"",""6"",""52029""
""blur"",""9"",""86800""
""blur"",""12"",""98398""
""blur"",""14"",""137954""
""blur"",""15"",""152435""
""blur"",""18"",""197427""
""blur"",""21"",""215824""
""blur"",""24"",""235677""
""blur"",""26"",""249142""
""blur"",""43"",""291082""
""blur"",""47"",""325766""
""blur"",""49"",""332636""
","""event"",""trial"",""time""
""focus"",""1"",""10381""
""focus"",""4"",""45978""
""focus"",""7"",""74741""
""focus"",""10"",""94603""
""focus"",""12"",""132166""
""focus"",""15"",""150173""
""focus"",""16"",""189141""
""focus"",""19"",""210267""
""focus"",""22"",""231164""
""focus"",""25"",""244499""
""focus"",""30"",""255981""
""focus"",""44"",""316766""
""focus"",""47"",""327367""
""focus"",""49"",""334220""
","""event"",""trial"",""time""
""fullscreenenter"",""1"",""10880""
","
",,null,run_exp/static/audio/clip_27_incorrect_quiz.m4a,null,,,,,,,,,,,,,,,,,,,,,,,,
quiz_incorrect_continue,56,362514,0.0-22.0-1.0,"""event"",""trial"",""time""
""blur"",""0"",""0""
""focus"",""1"",""10381""
""fullscreenenter"",""1"",""10880""
""blur"",""2"",""13049""
""focus"",""4"",""45978""
""blur"",""6"",""52029""
""focus"",""7"",""74741""
""blur"",""9"",""86800""
""focus"",""10"",""94603""
""blur"",""12"",""98398""
""focus"",""12"",""132166""
""blur"",""14"",""137954""
""focus"",""15"",""150173""
""blur"",""15"",""152435""
""focus"",""16"",""189141""
""blur"",""18"",""197427""
""focus"",""19"",""210267""
""blur"",""21"",""215824""
""focus"",""22"",""231164""
""blur"",""24"",""235677""
""focus"",""25"",""244499""
""blur"",""26"",""249142""
""focus"",""30"",""255981""
""blur"",""43"",""291082""
""focus"",""44"",""316766""
""blur"",""47"",""325766""
""focus"",""47"",""327367""
""blur"",""49"",""332636""
""focus"",""49"",""334220""
","""event"",""trial"",""time""
""blur"",""0"",""0""
""blur"",""2"",""13049""
""blur"",""6"",""52029""
""blur"",""9"",""86800""
""blur"",""12"",""98398""
""blur"",""14"",""137954""
""blur"",""15"",""152435""
""blur"",""18"",""197427""
""blur"",""21"",""215824""
""blur"",""24"",""235677""
""blur"",""26"",""249142""
""blur"",""43"",""291082""
""blur"",""47"",""325766""
""blur"",""49"",""332636""
","""event"",""trial"",""time""
""focus"",""1"",""10381""
""focus"",""4"",""45978""
""focus"",""7"",""74741""
""focus"",""10"",""94603""
""focus"",""12"",""132166""
""focus"",""15"",""150173""
""focus"",""16"",""189141""
""focus"",""19"",""210267""
""focus"",""22"",""231164""
""focus"",""25"",""244499""
""focus"",""30"",""255981""
""focus"",""44"",""316766""
""focus"",""47"",""327367""
""focus"",""49"",""334220""
","""event"",""trial"",""time""
""fullscreenenter"",""1"",""10880""
","
",,899.6999999,"<p>Oops, you missed some questions.</p><p>Now that you’ve heard the correct answers. Try the quiz again!</p>",,,,,,,0,,,,,,,,,,,,,,,,,,
quiz_q_1_ask,57,364931,0.0-22.0-2.0,"""event"",""trial"",""time""
""blur"",""0"",""0""
""focus"",""1"",""10381""
""fullscreenenter"",""1"",""10880""
""blur"",""2"",""13049""
""focus"",""4"",""45978""
""blur"",""6"",""52029""
""focus"",""7"",""74741""
""blur"",""9"",""86800""
""focus"",""10"",""94603""
""blur"",""12"",""98398""
""focus"",""12"",""132166""
""blur"",""14"",""137954""
""focus"",""15"",""150173""
""blur"",""15"",""152435""
""focus"",""16"",""189141""
""blur"",""18"",""197427""
""focus"",""19"",""210267""
""blur"",""21"",""215824""
""focus"",""22"",""231164""
""blur"",""24"",""235677""
""focus"",""25"",""244499""
""blur"",""26"",""249142""
""focus"",""30"",""255981""
""blur"",""43"",""291082""
""focus"",""44"",""316766""
""blur"",""47"",""325766""
""focus"",""47"",""327367""
""blur"",""49"",""332636""
""focus"",""49"",""334220""
","""event"",""trial"",""time""
""blur"",""0"",""0""
""blur"",""2"",""13049""
""blur"",""6"",""52029""
""blur"",""9"",""86800""
""blur"",""12"",""98398""
""blur"",""14"",""137954""
""blur"",""15"",""152435""
""blur"",""18"",""197427""
""blur"",""21"",""215824""
""blur"",""24"",""235677""
""blur"",""26"",""249142""
""blur"",""43"",""291082""
""blur"",""47"",""325766""
""blur"",""49"",""332636""
","""event"",""trial"",""time""
""focus"",""1"",""10381""
""focus"",""4"",""45978""
""focus"",""7"",""74741""
""focus"",""10"",""94603""
""focus"",""12"",""132166""
""focus"",""15"",""150173""
""focus"",""16"",""189141""
""focus"",""19"",""210267""
""focus"",""22"",""231164""
""focus"",""25"",""244499""
""focus"",""30"",""255981""
""focus"",""44"",""316766""
""focus"",""47"",""327367""
""focus"",""49"",""334220""
","""event"",""trial"",""time""
""fullscreenenter"",""1"",""10880""
","
",,2416.3,run_exp/static/audio/clip_11_q1_ask.m4a,,,,,,,2,,,,,,,,,,,,,,,,,,
quiz_q_1_fb_correct,58,368772,0.0-23.0-0.0,"""event"",""trial"",""time""
""blur"",""0"",""0""
""focus"",""1"",""10381""
""fullscreenenter"",""1"",""10880""
""blur"",""2"",""13049""
""focus"",""4"",""45978""
""blur"",""6"",""52029""
""focus"",""7"",""74741""
""blur"",""9"",""86800""
""focus"",""10"",""94603""
""blur"",""12"",""98398""
""focus"",""12"",""132166""
""blur"",""14"",""137954""
""focus"",""15"",""150173""
""blur"",""15"",""152435""
""focus"",""16"",""189141""
""blur"",""18"",""197427""
""focus"",""19"",""210267""
""blur"",""21"",""215824""
""focus"",""22"",""231164""
""blur"",""24"",""235677""
""focus"",""25"",""244499""
""blur"",""26"",""249142""
""focus"",""30"",""255981""
""blur"",""43"",""291082""
""focus"",""44"",""316766""
""blur"",""47"",""325766""
""focus"",""47"",""327367""
""blur"",""49"",""332636""
""focus"",""49"",""334220""
","""event"",""trial"",""time""
""blur"",""0"",""0""
""blur"",""2"",""13049""
""blur"",""6"",""52029""
""blur"",""9"",""86800""
""blur"",""12"",""98398""
""blur"",""14"",""137954""
""blur"",""15"",""152435""
""blur"",""18"",""197427""
""blur"",""21"",""215824""
""blur"",""24"",""235677""
""blur"",""26"",""249142""
""blur"",""43"",""291082""
""blur"",""47"",""325766""
""blur"",""49"",""332636""
","""event"",""trial"",""time""
""focus"",""1"",""10381""
""focus"",""4"",""45978""
""focus"",""7"",""74741""
""focus"",""10"",""94603""
""focus"",""12"",""132166""
""focus"",""15"",""150173""
""focus"",""16"",""189141""
""focus"",""19"",""210267""
""focus"",""22"",""231164""
""focus"",""25"",""244499""
""focus"",""30"",""255981""
""focus"",""44"",""316766""
""focus"",""47"",""327367""
""focus"",""49"",""334220""
","""event"",""trial"",""time""
""fullscreenenter"",""1"",""10880""
","
",,null,run_exp/static/audio/clip_12_q1_correct.m4a,null,<p>That’s correct. You win extra money by collecting more gems.</p>,,,,,,,,,,,,,,,,,,,,,,,
quiz_q_2_ask,59,370696,0.0-23.0-1.0,"""event"",""trial"",""time""
""blur"",""0"",""0""
""focus"",""1"",""10381""
""fullscreenenter"",""1"",""10880""
""blur"",""2"",""13049""
""focus"",""4"",""45978""
""blur"",""6"",""52029""
""focus"",""7"",""74741""
""blur"",""9"",""86800""
""focus"",""10"",""94603""
""blur"",""12"",""98398""
""focus"",""12"",""132166""
""blur"",""14"",""137954""
""focus"",""15"",""150173""
""blur"",""15"",""152435""
""focus"",""16"",""189141""
""blur"",""18"",""197427""
""focus"",""19"",""210267""
""blur"",""21"",""215824""
""focus"",""22"",""231164""
""blur"",""24"",""235677""
""focus"",""25"",""244499""
""blur"",""26"",""249142""
""focus"",""30"",""255981""
""blur"",""43"",""291082""
""focus"",""44"",""316766""
""blur"",""47"",""325766""
""focus"",""47"",""327367""
""blur"",""49"",""332636""
""focus"",""49"",""334220""
","""event"",""trial"",""time""
""blur"",""0"",""0""
""blur"",""2"",""13049""
""blur"",""6"",""52029""
""blur"",""9"",""86800""
""blur"",""12"",""98398""
""blur"",""14"",""137954""
""blur"",""15"",""152435""
""blur"",""18"",""197427""
""blur"",""21"",""215824""
""blur"",""24"",""235677""
""blur"",""26"",""249142""
""blur"",""43"",""291082""
""blur"",""47"",""325766""
""blur"",""49"",""332636""
","""event"",""trial"",""time""
""focus"",""1"",""10381""
""focus"",""4"",""45978""
""focus"",""7"",""74741""
""focus"",""10"",""94603""
""focus"",""12"",""132166""
""focus"",""15"",""150173""
""focus"",""16"",""189141""
""focus"",""19"",""210267""
""focus"",""22"",""231164""
""focus"",""25"",""244499""
""focus"",""30"",""255981""
""focus"",""44"",""316766""
""focus"",""47"",""327367""
""focus"",""49"",""334220""
","""event"",""trial"",""time""
""fullscreenenter"",""1"",""10880""
","
",,1922.2,run_exp/static/audio/clip_14_q2_ask.m4a,,,,,,,1,,,,,,,,,,,,,,,,,,
quiz_q_2_fb_correct,60,374692,0.0-24.0-0.0,"""event"",""trial"",""time""
""blur"",""0"",""0""
""focus"",""1"",""10381""
""fullscreenenter"",""1"",""10880""
""blur"",""2"",""13049""
""focus"",""4"",""45978""
""blur"",""6"",""52029""
""focus"",""7"",""74741""
""blur"",""9"",""86800""
""focus"",""10"",""94603""
""blur"",""12"",""98398""
""focus"",""12"",""132166""
""blur"",""14"",""137954""
""focus"",""15"",""150173""
""blur"",""15"",""152435""
""focus"",""16"",""189141""
""blur"",""18"",""197427""
""focus"",""19"",""210267""
""blur"",""21"",""215824""
""focus"",""22"",""231164""
""blur"",""24"",""235677""
""focus"",""25"",""244499""
""blur"",""26"",""249142""
""focus"",""30"",""255981""
""blur"",""43"",""291082""
""focus"",""44"",""316766""
""blur"",""47"",""325766""
""focus"",""47"",""327367""
""blur"",""49"",""332636""
""focus"",""49"",""334220""
","""event"",""trial"",""time""
""blur"",""0"",""0""
""blur"",""2"",""13049""
""blur"",""6"",""52029""
""blur"",""9"",""86800""
""blur"",""12"",""98398""
""blur"",""14"",""137954""
""blur"",""15"",""152435""
""blur"",""18"",""197427""
""blur"",""21"",""215824""
""blur"",""24"",""235677""
""blur"",""26"",""249142""
""blur"",""43"",""291082""
""blur"",""47"",""325766""
""blur"",""49"",""332636""
","""event"",""trial"",""time""
""focus"",""1"",""10381""
""focus"",""4"",""45978""
""focus"",""7"",""74741""
""focus"",""10"",""94603""
""focus"",""12"",""132166""
""focus"",""15"",""150173""
""focus"",""16"",""189141""
""focus"",""19"",""210267""
""focus"",""22"",""231164""
""focus"",""25"",""244499""
""focus"",""30"",""255981""
""focus"",""44"",""316766""
""focus"",""47"",""327367""
""focus"",""49"",""334220""
","""event"",""trial"",""time""
""fullscreenenter"",""1"",""10880""
","
",,null,run_exp/static/audio/clip_15_q2_correct.m4a,null,<p>That’s correct. The experiment is 20 minutes no matter what.</p>,,,,,,,,,,,,,,,,,,,,,,,
quiz_q_3_ask,61,377359,0.0-24.0-1.0,"""event"",""trial"",""time""
""blur"",""0"",""0""
""focus"",""1"",""10381""
""fullscreenenter"",""1"",""10880""
""blur"",""2"",""13049""
""focus"",""4"",""45978""
""blur"",""6"",""52029""
""focus"",""7"",""74741""
""blur"",""9"",""86800""
""focus"",""10"",""94603""
""blur"",""12"",""98398""
""focus"",""12"",""132166""
""blur"",""14"",""137954""
""focus"",""15"",""150173""
""blur"",""15"",""152435""
""focus"",""16"",""189141""
""blur"",""18"",""197427""
""focus"",""19"",""210267""
""blur"",""21"",""215824""
""focus"",""22"",""231164""
""blur"",""24"",""235677""
""focus"",""25"",""244499""
""blur"",""26"",""249142""
""focus"",""30"",""255981""
""blur"",""43"",""291082""
""focus"",""44"",""316766""
""blur"",""47"",""325766""
""focus"",""47"",""327367""
""blur"",""49"",""332636""
""focus"",""49"",""334220""
","""event"",""trial"",""time""
""blur"",""0"",""0""
""blur"",""2"",""13049""
""blur"",""6"",""52029""
""blur"",""9"",""86800""
""blur"",""12"",""98398""
""blur"",""14"",""137954""
""blur"",""15"",""152435""
""blur"",""18"",""197427""
""blur"",""21"",""215824""
""blur"",""24"",""235677""
""blur"",""26"",""249142""
""blur"",""43"",""291082""
""blur"",""47"",""325766""
""blur"",""49"",""332636""
","""event"",""trial"",""time""
""focus"",""1"",""10381""
""focus"",""4"",""45978""
""focus"",""7"",""74741""
""focus"",""10"",""94603""
""focus"",""12"",""132166""
""focus"",""15"",""150173""
""focus"",""16"",""189141""
""focus"",""19"",""210267""
""focus"",""22"",""231164""
""focus"",""25"",""244499""
""focus"",""30"",""255981""
""focus"",""44"",""316766""
""focus"",""47"",""327367""
""focus"",""49"",""334220""
","""event"",""trial"",""time""
""fullscreenenter"",""1"",""10880""
","
",,2666.1,run_exp/static/audio/clip_17_q3_ask.m4a,,,,,,,1,,,,,,,,,,,,,,,,,,
quiz_q_3_fb_correct,62,381332,0.0-25.0-0.0,"""event"",""trial"",""time""
""blur"",""0"",""0""
""focus"",""1"",""10381""
""fullscreenenter"",""1"",""10880""
""blur"",""2"",""13049""
""focus"",""4"",""45978""
""blur"",""6"",""52029""
""focus"",""7"",""74741""
""blur"",""9"",""86800""
""focus"",""10"",""94603""
""blur"",""12"",""98398""
""focus"",""12"",""132166""
""blur"",""14"",""137954""
""focus"",""15"",""150173""
""blur"",""15"",""152435""
""focus"",""16"",""189141""
""blur"",""18"",""197427""
""focus"",""19"",""210267""
""blur"",""21"",""215824""
""focus"",""22"",""231164""
""blur"",""24"",""235677""
""focus"",""25"",""244499""
""blur"",""26"",""249142""
""focus"",""30"",""255981""
""blur"",""43"",""291082""
""focus"",""44"",""316766""
""blur"",""47"",""325766""
""focus"",""47"",""327367""
""blur"",""49"",""332636""
""focus"",""49"",""334220""
","""event"",""trial"",""time""
""blur"",""0"",""0""
""blur"",""2"",""13049""
""blur"",""6"",""52029""
""blur"",""9"",""86800""
""blur"",""12"",""98398""
""blur"",""14"",""137954""
""blur"",""15"",""152435""
""blur"",""18"",""197427""
""blur"",""21"",""215824""
""blur"",""24"",""235677""
""blur"",""26"",""249142""
""blur"",""43"",""291082""
""blur"",""47"",""325766""
""blur"",""49"",""332636""
","""event"",""trial"",""time""
""focus"",""1"",""10381""
""focus"",""4"",""45978""
""focus"",""7"",""74741""
""focus"",""10"",""94603""
""focus"",""12"",""132166""
""focus"",""15"",""150173""
""focus"",""16"",""189141""
""focus"",""19"",""210267""
""focus"",""22"",""231164""
""focus"",""25"",""244499""
""focus"",""30"",""255981""
""focus"",""44"",""316766""
""focus"",""47"",""327367""
""focus"",""49"",""334220""
","""event"",""trial"",""time""
""fullscreenenter"",""1"",""10880""
","
",,null,run_exp/static/audio/clip_18_q3_correct.m4a,null,<p> That’s correct. You press the letter L to travel to a new planet.</p>,,,,,,,,,,,,,,,,,,,,,,,
quiz_q_4_ask,63,384524,0.0-25.0-1.0,"""event"",""trial"",""time""
""blur"",""0"",""0""
""focus"",""1"",""10381""
""fullscreenenter"",""1"",""10880""
""blur"",""2"",""13049""
""focus"",""4"",""45978""
""blur"",""6"",""52029""
""focus"",""7"",""74741""
""blur"",""9"",""86800""
""focus"",""10"",""94603""
""blur"",""12"",""98398""
""focus"",""12"",""132166""
""blur"",""14"",""137954""
""focus"",""15"",""150173""
""blur"",""15"",""152435""
""focus"",""16"",""189141""
""blur"",""18"",""197427""
""focus"",""19"",""210267""
""blur"",""21"",""215824""
""focus"",""22"",""231164""
""blur"",""24"",""235677""
""focus"",""25"",""244499""
""blur"",""26"",""249142""
""focus"",""30"",""255981""
""blur"",""43"",""291082""
""focus"",""44"",""316766""
""blur"",""47"",""325766""
""focus"",""47"",""327367""
""blur"",""49"",""332636""
""focus"",""49"",""334220""
","""event"",""trial"",""time""
""blur"",""0"",""0""
""blur"",""2"",""13049""
""blur"",""6"",""52029""
""blur"",""9"",""86800""
""blur"",""12"",""98398""
""blur"",""14"",""137954""
""blur"",""15"",""152435""
""blur"",""18"",""197427""
""blur"",""21"",""215824""
""blur"",""24"",""235677""
""blur"",""26"",""249142""
""blur"",""43"",""291082""
""blur"",""47"",""325766""
""blur"",""49"",""332636""
","""event"",""trial"",""time""
""focus"",""1"",""10381""
""focus"",""4"",""45978""
""focus"",""7"",""74741""
""focus"",""10"",""94603""
""focus"",""12"",""132166""
""focus"",""15"",""150173""
""focus"",""16"",""189141""
""focus"",""19"",""210267""
""focus"",""22"",""231164""
""focus"",""25"",""244499""
""focus"",""30"",""255981""
""focus"",""44"",""316766""
""focus"",""47"",""327367""
""focus"",""49"",""334220""
","""event"",""trial"",""time""
""fullscreenenter"",""1"",""10880""
","
",,3190.8,run_exp/static/audio/clip_20_q4_ask.m4a,,,,,,,0,,,,,,,,,,,,,,,,,,
quiz_q_4_fb_correct,64,389852,0.0-26.0-0.0,"""event"",""trial"",""time""
""blur"",""0"",""0""
""focus"",""1"",""10381""
""fullscreenenter"",""1"",""10880""
""blur"",""2"",""13049""
""focus"",""4"",""45978""
""blur"",""6"",""52029""
""focus"",""7"",""74741""
""blur"",""9"",""86800""
""focus"",""10"",""94603""
""blur"",""12"",""98398""
""focus"",""12"",""132166""
""blur"",""14"",""137954""
""focus"",""15"",""150173""
""blur"",""15"",""152435""
""focus"",""16"",""189141""
""blur"",""18"",""197427""
""focus"",""19"",""210267""
""blur"",""21"",""215824""
""focus"",""22"",""231164""
""blur"",""24"",""235677""
""focus"",""25"",""244499""
""blur"",""26"",""249142""
""focus"",""30"",""255981""
""blur"",""43"",""291082""
""focus"",""44"",""316766""
""blur"",""47"",""325766""
""focus"",""47"",""327367""
""blur"",""49"",""332636""
""focus"",""49"",""334220""
","""event"",""trial"",""time""
