trial_type,trial_index,time_elapsed,internal_node_id,interactions,blur_events,focus_events,fullscreenenter_events,fullscreenexit_events,success,rt,stimulus,key_press,prompt,subject_id,participant_id,age,gender,button_pressed,next_reward,animation_sequence,responses,planet,curr_prac_trial,n_prac_rounds,alien,aliens,reward_received,decay_rate_actual,decay_rate_exp,time_in_block,block_num,prt,last_trial_on_planet,button_html,bonus,num_failures
pavlovia,0,46,0.0-0.0,"""event"",""trial"",""time""
""focus"",""0"",""0""
""fullscreenenter"",""1"",""2609""
","
","""event"",""trial"",""time""
""focus"",""0"",""0""
","""event"",""trial"",""time""
""fullscreenenter"",""1"",""2609""
","
",,,,,,,,,,,,,,,,,,,,,,,,,,,,
fullscreen,1,3300,0.0-1.0,"""event"",""trial"",""time""
""focus"",""0"",""0""
""fullscreenenter"",""1"",""2609""
","
","""event"",""trial"",""time""
""focus"",""0"",""0""
","""event"",""trial"",""time""
""fullscreenenter"",""1"",""2609""
","
",TRUE,,,,,,,,,,,,,,,,,,,,,,,,,,,
instruc_welcome,2,13420,0.0-2.0,"""event"",""trial"",""time""
""focus"",""0"",""0""
""fullscreenenter"",""1"",""2609""
","
","""event"",""trial"",""time""
""focus"",""0"",""0""
","""event"",""trial"",""time""
""fullscreenenter"",""1"",""2609""
","
",,null,run_exp/static/audio/clip_1_welcome.m4a,null,"<p>Howdy! In this experiment, you’ll be an explorer traveling through space to collect space treasure.</p><p>Your mission is to collect as much treasure as possible.</p><br><br><p><img src='run_exp/static/images/task_images/opening_img-01.jpg' height='300' width='auto'></p>",9319,73,12.81,Female,,,,,,,,,,,,,,,,,,,
audio-keyboard-response,3,30117,0.0-3.0,"""event"",""trial"",""time""
""focus"",""0"",""0""
""fullscreenenter"",""1"",""2609""
","
","""event"",""trial"",""time""
""focus"",""0"",""0""
","""event"",""trial"",""time""
""fullscreenenter"",""1"",""2609""
","
",,null,run_exp/static/audio/clip_2_move.m4a,null,,,,,,,,,,,,,,,,,,,,,,,,
welcome_dec,4,34290,0.0-4.0,"""event"",""trial"",""time""
""focus"",""0"",""0""
""fullscreenenter"",""1"",""2609""
","
","""event"",""trial"",""time""
""focus"",""0"",""0""
","""event"",""trial"",""time""
""fullscreenenter"",""1"",""2609""
","
",,4170,"<p>Howdy! In this experiment, you’ll be an explorer traveling through space to collect space treasure.</p><p>Your mission is to collect as much treasure as possible.</p><br><br><p><img src='run_exp/static/images/task_images/opening_img-01.jpg' height='300' width='auto'></p>",,,,,,,0,,,,,,,,,,,,,,,,,,
html-keyboard-response,5,36741,0.0-5.0,"""event"",""trial"",""time""
""focus"",""0"",""0""
""fullscreenenter"",""1"",""2609""
","
","""event"",""trial"",""time""
""focus"",""0"",""0""
","""event"",""trial"",""time""
""fullscreenenter"",""1"",""2609""
","
",,2447,"<p>Howdy! In this experiment, you’ll be an explorer traveling through space to collect space treasure.</p><p>Your mission is to collect as much treasure as possible.</p><br><br><p><img src='run_exp/static/images/task_images/opening_img-01.jpg' height='300' width='auto'></p><button class=""jspsych-html-btn-chosen""><img src=""run_exp/static/images/task_images/planet-01.jpg"" height=""50""></button><button class=""jspsych-html-btn-unchosen""><img src=""run_exp/static/images/task_images/planet-02.jpg"" height=""50""></button><p><b>[press the space bar to lock in your answer]<b><br></p>",32,,,,,,,,,,,,,,,,,,,,,,,,
instruc_welcome,6,46849,0.0-6.0-0.0,"""event"",""trial"",""time""
""focus"",""0"",""0""
""fullscreenenter"",""1"",""2609""
","
","""event"",""trial"",""time""
""focus"",""0"",""0""
","""event"",""trial"",""time""
""fullscreenenter"",""1"",""2609""
","
",,null,run_exp/static/audio/clip_1_welcome.m4a,null,"<p>Howdy! In this experiment, you’ll be an explorer traveling through space to collect space treasure.</p><p>Your mission is to collect as much treasure as possible.</p><br><br><p><img src='run_exp/static/images/task_images/opening_img-01.jpg' height='300' width='auto'></p>",9319,73,12,Female,,,,,,,,,,,,,,,,,,,
audio-keyboard-response,7,63539,0.0-6.0-1.0,"""event"",""trial"",""time""
""focus"",""0"",""0""
""fullscreenenter"",""1"",""2609""
","
","""event"",""trial"",""time""
""focus"",""0"",""0""
","""event"",""trial"",""time""
""fullscreenenter"",""1"",""2609""
","
",,null,run_exp/static/audio/clip_2_move.m4a,null,,,,,,,,,,,,,,,,,,,,,,,,
welcome_dec,8,65194,0.0-6.0-2.0,"""event"",""trial"",""time""
""focus"",""0"",""0""
""fullscreenenter"",""1"",""2609""
","
","""event"",""trial"",""time""
""focus"",""0"",""0""
","""event"",""trial"",""time""
""fullscreenenter"",""1"",""2609""
","
",,1647,"<p>Howdy! In this experiment, you’ll be an explorer traveling through space to collect space treasure.</p><p>Your mission is to collect as much treasure as possible.</p><br><br><p><img src='run_exp/static/images/task_images/opening_img-01.jpg' height='300' width='auto'></p>",,,,,,,1,,,,,,,,,,,,,,,,,,
html-keyboard-response,9,66153,0.0-6.0-3.0,"""event"",""trial"",""time""
""focus"",""0"",""0""
""fullscreenenter"",""1"",""2609""
","
","""event"",""trial"",""time""
""focus"",""0"",""0""
","""event"",""trial"",""time""
""fullscreenenter"",""1"",""2609""
","
",,955,"<p>Howdy! In this experiment, you’ll be an explorer traveling through space to collect space treasure.</p><p>Your mission is to collect as much treasure as possible.</p><br><br><p><img src='run_exp/static/images/task_images/opening_img-01.jpg' height='300' width='auto'></p><button class=""jspsych-html-btn-unchosen""><img src=""run_exp/static/images/task_images/planet-01.jpg"" height=""50""></button><button class=""jspsych-html-btn-chosen""><img src=""run_exp/static/images/task_images/planet-02.jpg"" height=""50""></button><p><b>[press the space bar to lock in your answer]<b><br></p>",32,,,,,,,,,,,,,,,,,,,,,,,,
instruc_goal,10,76342,0.0-7.0-0.0,"""event"",""trial"",""time""
""focus"",""0"",""0""
""fullscreenenter"",""1"",""2609""
","
","""event"",""trial"",""time""
""focus"",""0"",""0""
","""event"",""trial"",""time""
""fullscreenenter"",""1"",""2609""
","
",,null,run_exp/static/audio/clip_3_goal.m4a,null,"<p> As a space explorer, you’ll visit different planets to dig for space treasure, these pink gems.</p> <p> The more treasure you dig up, the more bonus money you’ll win! </p><br><br><p><img src='run_exp/static/images/task_images/pink_gem.jpg' height='300' width='auto'></p>",,,,,,,,,,,,,,,,,,,,,,,
instruc_goal,11,81104,0.0-7.0-1.0,"""event"",""trial"",""time""
""focus"",""0"",""0""
""fullscreenenter"",""1"",""2609""
","
","""event"",""trial"",""time""
""focus"",""0"",""0""
","""event"",""trial"",""time""
""fullscreenenter"",""1"",""2609""
","
",,4760,"<p> As a space explorer, you’ll visit different planets to dig for space treasure, these pink gems.</p> <p> The more treasure you dig up, the more bonus money you’ll win! </p><br><br><p><img src='run_exp/static/images/task_images/pink_gem.jpg' height='300' width='auto'></p>",,,,,,,1,,,,,,,,,,,,,,,,,,
html-keyboard-response,12,81564,0.0-7.0-2.0,"""event"",""trial"",""time""
""focus"",""0"",""0""
""fullscreenenter"",""1"",""2609""
","
","""event"",""trial"",""time""
""focus"",""0"",""0""
","""event"",""trial"",""time""
""fullscreenenter"",""1"",""2609""
","
",,459,"<p> As a space explorer, you’ll visit different planets to dig for space treasure, these pink gems.</p> <p> The more treasure you dig up, the more bonus money you’ll win! </p><br><br><p><img src='run_exp/static/images/task_images/pink_gem.jpg' height='300' width='auto'></p><button class=""jspsych-html-btn-unchosen""><img src=""run_exp/static/images/task_images/planet-01.jpg"" height=""50""></button><button class=""jspsych-html-btn-chosen""><img src=""run_exp/static/images/task_images/planet-02.jpg"" height=""50""></button><p><b>[press the space bar to lock in your answer]<b><br></p>",32,,,,,,,,,,,,,,,,,,,,,,,,
instruc_dig,13,97801,0.0-8.0-0.0,"""event"",""trial"",""time""
""focus"",""0"",""0""
""fullscreenenter"",""1"",""2609""
","
","""event"",""trial"",""time""
""focus"",""0"",""0""
","""event"",""trial"",""time""
""fullscreenenter"",""1"",""2609""
","
",,null,run_exp/static/audio/clip_4_dig.m4a,null,,,,,,,100,,,,,,,,,,,,,,,,,
instruc_dig_try,14,98503,0.0-8.0-1.0,"""event"",""trial"",""time""
""focus"",""0"",""0""
""fullscreenenter"",""1"",""2609""
","
","""event"",""trial"",""time""
""focus"",""0"",""0""
","""event"",""trial"",""time""
""fullscreenenter"",""1"",""2609""
","
",,701,"<p> When you’ve arrived at a new planet, you will dig once. </p> <p>Then, you get to decide if you want to stay on the planet and dig again or travel to a new planet and dig there.</p> <p> To stay and dig, press the letter <strong>‘A’</strong> on your keyboard. Try pressing it now! </p><p><img src='run_exp/static/images/task_images/land.jpg'  height='700' width='auto'></p>",65,"<p> When you’ve arrived at a new planet, you will dig once. </p> <p>Then, you get to decide if you want to stay on the planet and dig again or travel to a new planet and dig there.</p> <p> To stay and dig, press the letter <strong>‘A’</strong> on your keyboard. Try pressing it now! </p><p><img src='run_exp/static/images/task_images/land.jpg'  height='700' width='auto'></p>",,,,,,100,,,,,,,,,,,,,,,,,
dig_prac,15,100645,0.0-8.0-2.0,"""event"",""trial"",""time""
""focus"",""0"",""0""
""fullscreenenter"",""1"",""2609""
","
","""event"",""trial"",""time""
""focus"",""0"",""0""
","""event"",""trial"",""time""
""fullscreenenter"",""1"",""2609""
","
",,,,,,,,,,,,"[{""stimulus"":""run_exp/static/images/task_images/dig.jpg"",""time"":0},{""stimulus"":""run_exp/static/images/task_images/land.jpg"",""time"":681},{""stimulus"":""run_exp/static/images/task_images/dig.jpg"",""time"":1361}]",[],,,,,,,,,,,,,,,
instruc_travel,16,137009,0.0-8.0-3.0,"""event"",""trial"",""time""
""focus"",""0"",""0""
""fullscreenenter"",""1"",""2609""
","
","""event"",""trial"",""time""
""focus"",""0"",""0""
","""event"",""trial"",""time""
""fullscreenenter"",""1"",""2609""
","
",,null,run_exp/static/audio/clip_5_travel.m4a,null,"<p>Every time you dig up gems, there are less gems on the planet, so the more you dig on a planet the fewer gems you’ll get with each dig.</p><p>When gems are running low, you may want to travel to a new planet. </p> <p>  Planets are very far apart in this galaxy, so it will take some time to travel between them. </p> <br><p>There are lots and lots of planets for you to visit, so you won’t be able to return to any planets you’ve seen before. </p><br><p>To leave this planet and travel to a new one, press the letter <strong>‘L’</strong> on your keyboard. Try pressing it now! </p><p><img src='run_exp/static/images/task_images/rocket-01.jpg'  height='600' width='auto'></p>",,,,,,,,,,,,,,,,,,,,,,,
instruc_travel_try,17,137372,0.0-8.0-4.0,"""event"",""trial"",""time""
""focus"",""0"",""0""
""fullscreenenter"",""1"",""2609""
","
","""event"",""trial"",""time""
""focus"",""0"",""0""
","""event"",""trial"",""time""
""fullscreenenter"",""1"",""2609""
","
",,363,"<p>Every time you dig up gems, there are less gems on the planet, so the more you dig on a planet the fewer gems you’ll get with each dig.</p><p>When gems are running low, you may want to travel to a new planet. </p> <p>  Planets are very far apart in this galaxy, so it will take some time to travel between them. </p> <br><p>There are lots and lots of planets for you to visit, so you won’t be able to return to any planets you’ve seen before. </p><br><p>To leave this planet and travel to a new one, press the letter <strong>‘L’</strong> on your keyboard. Try pressing it now! </p><p><img src='run_exp/static/images/task_images/rocket-01.jpg'  height='600' width='auto'></p>",76,"<p>Every time you dig up gems, there are less gems on the planet, so the more you dig on a planet the fewer gems you’ll get with each dig.</p><p>When gems are running low, you may want to travel to a new planet. </p> <p>  Planets are very far apart in this galaxy, so it will take some time to travel between them. </p> <br><p>There are lots and lots of planets for you to visit, so you won’t be able to return to any planets you’ve seen before. </p><br><p>To leave this planet and travel to a new one, press the letter <strong>‘L’</strong> on your keyboard. Try pressing it now! </p><p><img src='run_exp/static/images/task_images/rocket-01.jpg'  height='600' width='auto'></p>",,,,,,,,,,,,,,,,,,,,,,,
travel_prac,18,147458,0.0-8.0-5.0,"""event"",""trial"",""time""
""focus"",""0"",""0""
""fullscreenenter"",""1"",""2609""
","
","""event"",""trial"",""time""
""focus"",""0"",""0""
","""event"",""trial"",""time""
""fullscreenenter"",""1"",""2609""
","
",,,,,,,,,,,,"[{""stimulus"":""run_exp/static/images/task_images/rocket-01.jpg"",""time"":0},{""stimulus"":""run_exp/static/images/task_images/rocket-02.jpg"",""time"":1118},{""stimulus"":""run_exp/static/images/task_images/rocket-03.jpg"",""time"":2231},{""stimulus"":""run_exp/static/images/task_images/rocket-04.jpg"",""time"":3347},{""stimulus"":""run_exp/static/images/task_images/rocket-05.jpg"",""time"":4479},{""stimulus"":""run_exp/static/images/task_images/rocket-06.jpg"",""time"":5598},{""stimulus"":""run_exp/static/images/task_images/rocket-07.jpg"",""time"":6718},{""stimulus"":""run_exp/static/images/task_images/rocket-08.jpg"",""time"":7849},{""stimulus"":""run_exp/static/images/task_images/rocket-09.jpg"",""time"":8963}]",[],0,,,,,,,,,,,,,,
instruc_alien_greet,19,174779,0.0-8.0-6.0,"""event"",""trial"",""time""
""focus"",""0"",""0""
""fullscreenenter"",""1"",""2609""
","
","""event"",""trial"",""time""
""focus"",""0"",""0""
","""event"",""trial"",""time""
""fullscreenenter"",""1"",""2609""
","
",,null,run_exp/static/audio/clip_6_alien.m4a,null,"<p>When you arrive at a new planet, the alien who owns the treasure mine on that planet will greet you!</p><p>The better an alien takes care of their mine the easier it is to dig for gems. Some aliens take better care of their mine than others. So, you won’t get exactly the same amount of gems on each planet.</p><p>What the alien looks like does not tell you anything about how many gems there are on the planet.</p><br><p><img src=""run_exp/static/images/task_images/aliens/instructions_aliens/planet/alien_planet-1.jpg""  height=""600"" width=""auto""></p>",,,,,,,,,,,,,,,,,,,,,,,
instruc_alien_greet,20,176199,0.0-8.0-7.0,"""event"",""trial"",""time""
""focus"",""0"",""0""
""fullscreenenter"",""1"",""2609""
","
","""event"",""trial"",""time""
""focus"",""0"",""0""
","""event"",""trial"",""time""
""fullscreenenter"",""1"",""2609""
","
",,1419,"<p>When you arrive at a new planet, the alien who owns the treasure mine on that planet will greet you!</p><p>The better an alien takes care of their mine the easier it is to dig for gems. Some aliens take better care of their mine than others. So, you won’t get exactly the same amount of gems on each planet.</p><p>What the alien looks like does not tell you anything about how many gems there are on the planet.</p><br><p><img src=""run_exp/static/images/task_images/aliens/instructions_aliens/planet/alien_planet-1.jpg""  height=""600"" width=""auto""></p>",,,,,,,1,,,,,,,,,,,,,,,,,,
html-keyboard-response,21,176813,0.0-8.0-8.0,"""event"",""trial"",""time""
""focus"",""0"",""0""
""fullscreenenter"",""1"",""2609""
","
","""event"",""trial"",""time""
""focus"",""0"",""0""
","""event"",""trial"",""time""
""fullscreenenter"",""1"",""2609""
","
",,612,"<p>When you arrive at a new planet, the alien who owns the treasure mine on that planet will greet you!</p><p>The better an alien takes care of their mine the easier it is to dig for gems. Some aliens take better care of their mine than others. So, you won’t get exactly the same amount of gems on each planet.</p><p>What the alien looks like does not tell you anything about how many gems there are on the planet.</p><br><p><img src=""run_exp/static/images/task_images/aliens/instructions_aliens/planet/alien_planet-1.jpg""  height=""600"" width=""auto""></p><button class=""jspsych-html-btn-unchosen""><img src=""run_exp/static/images/task_images/planet-01.jpg"" height=""50""></button><button class=""jspsych-html-btn-chosen""><img src=""run_exp/static/images/task_images/planet-02.jpg"" height=""50""></button><p><b>[press the space bar to lock in your answer]<b><br></p>",32,,,,,,,,,,,,,,,,,,,,,,,,
time_out,22,187959,0.0-9.0-0.0,"""event"",""trial"",""time""
""focus"",""0"",""0""
""fullscreenenter"",""1"",""2609""
","
","""event"",""trial"",""time""
""focus"",""0"",""0""
","""event"",""trial"",""time""
""fullscreenenter"",""1"",""2609""
","
",,null,run_exp/static/audio/clip_7_timeout.m4a,null,"<p>If you don't make your choice fast enough, you’ll have to wait a few seconds before you can make another one.</p><p>You can’t dig for more gems or travel to new planets. You just have to sit and wait.</p><br><p><img src='run_exp/static/images/task_images/time_out.jpg'  height='600' width='auto'></p>",,,,,,,,,,,,,,,,,,,,,,,
time_out,23,189605,0.0-9.0-1.0,"""event"",""trial"",""time""
""focus"",""0"",""0""
""fullscreenenter"",""1"",""2609""
","
","""event"",""trial"",""time""
""focus"",""0"",""0""
","""event"",""trial"",""time""
""fullscreenenter"",""1"",""2609""
","
",,1645,"<p>If you don't make your choice fast enough, you’ll have to wait a few seconds before you can make another one.</p><p>You can’t dig for more gems or travel to new planets. You just have to sit and wait.</p><br><p><img src='run_exp/static/images/task_images/time_out.jpg'  height='600' width='auto'></p>",,,,,,,1,,,,,,,,,,,,,,,,,,
html-keyboard-response,24,190042,0.0-9.0-2.0,"""event"",""trial"",""time""
""focus"",""0"",""0""
""fullscreenenter"",""1"",""2609""
","
","""event"",""trial"",""time""
""focus"",""0"",""0""
","""event"",""trial"",""time""
""fullscreenenter"",""1"",""2609""
","
",,435,"<p>If you don't make your choice fast enough, you’ll have to wait a few seconds before you can make another one.</p><p>You can’t dig for more gems or travel to new planets. You just have to sit and wait.</p><br><p><img src='run_exp/static/images/task_images/time_out.jpg'  height='600' width='auto'></p><button class=""jspsych-html-btn-unchosen""><img src=""run_exp/static/images/task_images/planet-01.jpg"" height=""50""></button><button class=""jspsych-html-btn-chosen""><img src=""run_exp/static/images/task_images/planet-02.jpg"" height=""50""></button><p><b>[press the space bar to lock in your answer]<b><br></p>",32,,,,,,,,,,,,,,,,,,,,,,,,
instruc_break,25,205804,0.0-10.0-0.0,"""event"",""trial"",""time""
""focus"",""0"",""0""
""fullscreenenter"",""1"",""2609""
","
","""event"",""trial"",""time""
""focus"",""0"",""0""
","""event"",""trial"",""time""
""fullscreenenter"",""1"",""2609""
","
",,null,run_exp/static/audio/clip_8_break.m4a,null,"<p> After digging and traveling for a while, you’ll be able to take a break at home base. </p><p>The game will last 20 minutes no matter what.</p><p>You will visit home base every 5 minutes, so, you will visit home base three times during the game.</p><br><p><img src='run_exp/static/images/task_images/home_base.jpg' height='600' width='auto'></p>",,,,,,,,,,,,,,,,,,,,,,,
instruc_break,26,206796,0.0-10.0-1.0,"""event"",""trial"",""time""
""focus"",""0"",""0""
""fullscreenenter"",""1"",""2609""
","
","""event"",""trial"",""time""
""focus"",""0"",""0""
","""event"",""trial"",""time""
""fullscreenenter"",""1"",""2609""
","
",,991,"<p> After digging and traveling for a while, you’ll be able to take a break at home base. </p><p>The game will last 20 minutes no matter what.</p><p>You will visit home base every 5 minutes, so, you will visit home base three times during the game.</p><br><p><img src='run_exp/static/images/task_images/home_base.jpg' height='600' width='auto'></p>",,,,,,,1,,,,,,,,,,,,,,,,,,
html-keyboard-response,27,207424,0.0-10.0-2.0,"""event"",""trial"",""time""
""focus"",""0"",""0""
""fullscreenenter"",""1"",""2609""
","
","""event"",""trial"",""time""
""focus"",""0"",""0""
","""event"",""trial"",""time""
""fullscreenenter"",""1"",""2609""
","
",,626,"<p> After digging and traveling for a while, you’ll be able to take a break at home base. </p><p>The game will last 20 minutes no matter what.</p><p>You will visit home base every 5 minutes, so, you will visit home base three times during the game.</p><br><p><img src='run_exp/static/images/task_images/home_base.jpg' height='600' width='auto'></p><button class=""jspsych-html-btn-unchosen""><img src=""run_exp/static/images/task_images/planet-01.jpg"" height=""50""></button><button class=""jspsych-html-btn-chosen""><img src=""run_exp/static/images/task_images/planet-02.jpg"" height=""50""></button><p><b>[press the space bar to lock in your answer]<b><br></p>",32,,,,,,,,,,,,,,,,,,,,,,,,
instruc_prac_game,28,217660,0.0-11.0-0.0,"""event"",""trial"",""time""
""focus"",""0"",""0""
""fullscreenenter"",""1"",""2609""
","
","""event"",""trial"",""time""
""focus"",""0"",""0""
","""event"",""trial"",""time""
""fullscreenenter"",""1"",""2609""
","
",,null,run_exp/static/audio/clip_9_practice.m4a,null,"<p> Are you ready to play a practice game? </p> <p>In this practice game, you'll be digging up barrels of gems. But, in the real game, you'll be digging up the gems themselves. </p>",,,,,,,,,,,,,,,,,,,,,,,
html-button-response,29,219110,0.0-11.0-1.0,"""event"",""trial"",""time""
""focus"",""0"",""0""
""fullscreenenter"",""1"",""2609""
","
","""event"",""trial"",""time""
""focus"",""0"",""0""
","""event"",""trial"",""time""
""fullscreenenter"",""1"",""2609""
","
",,1448,"<p> Are you ready to play a practice game? </p> <p>In this practice game, you'll be digging up barrels of gems. But, in the real game, you'll be digging up the gems themselves. </p>",,,,,,,0,,,,,,,,,,,,,,,,,,
alien_welcome_prac,30,224115,0.0-12.0-0.0,"""event"",""trial"",""time""
""focus"",""0"",""0""
""fullscreenenter"",""1"",""2609""
","
","""event"",""trial"",""time""
""focus"",""0"",""0""
","""event"",""trial"",""time""
""fullscreenenter"",""1"",""2609""
","
",,null,run_exp/static/images/task_images/aliens/practice_aliens/planet/alien_planet-5.jpg,null,,,,,,,,,,,,,,,,,,,,,,,,
land_prac,31,224622,0.0-12.0-1.0,"""event"",""trial"",""time""
""focus"",""0"",""0""
""fullscreenenter"",""1"",""2609""
","
","""event"",""trial"",""time""
""focus"",""0"",""0""
","""event"",""trial"",""time""
""fullscreenenter"",""1"",""2609""
","
",,null,run_exp/static/images/task_images/land.jpg,null,,,,,,,103,,,0,,,,,,,,,,,,,,
dig_prac,32,226675,0.0-12.0-2.0,"""event"",""trial"",""time""
""focus"",""0"",""0""
""fullscreenenter"",""1"",""2609""
","
","""event"",""trial"",""time""
""focus"",""0"",""0""
","""event"",""trial"",""time""
""fullscreenenter"",""1"",""2609""
","
",,,,,,,,,,,,"[{""stimulus"":""run_exp/static/images/task_images/dig.jpg"",""time"":0},{""stimulus"":""run_exp/static/images/task_images/land.jpg"",""time"":682},{""stimulus"":""run_exp/static/images/task_images/dig.jpg"",""time"":1361}]",[],,,,,,,,,,,,,,,
harvest_prac,33,227688,0.0-12.0-3.0,"""event"",""trial"",""time""
""focus"",""0"",""0""
""fullscreenenter"",""1"",""2609""
","
","""event"",""trial"",""time""
""focus"",""0"",""0""
","""event"",""trial"",""time""
""fullscreenenter"",""1"",""2609""
","
",,null,run_exp/static/images/task_images/barrel_text.jpg,null,,,,,,,,,,,,,,,,,,,,,,,,
decision_prac,34,228133,0.0-12.0-4.0,"""event"",""trial"",""time""
""focus"",""0"",""0""
""fullscreenenter"",""1"",""2609""
","
","""event"",""trial"",""time""
""focus"",""0"",""0""
","""event"",""trial"",""time""
""fullscreenenter"",""1"",""2609""
","
",,444,run_exp/static/images/task_images/land.jpg,65,,,,,,,,,,,1,,,,,,,,,,,,,
dig_prac,35,230181,0.0-13.0-0.0,"""event"",""trial"",""time""
""focus"",""0"",""0""
""fullscreenenter"",""1"",""2609""
","
","""event"",""trial"",""time""
""focus"",""0"",""0""
","""event"",""trial"",""time""
""fullscreenenter"",""1"",""2609""
","
",,,,,,,,,,,,"[{""stimulus"":""run_exp/static/images/task_images/dig.jpg"",""time"":0},{""stimulus"":""run_exp/static/images/task_images/land.jpg"",""time"":681},{""stimulus"":""run_exp/static/images/task_images/dig.jpg"",""time"":1355}]",[],,,,,,,,,,,,,,,
harvest_prac,36,231196,0.0-13.0-1.0,"""event"",""trial"",""time""
""focus"",""0"",""0""
""fullscreenenter"",""1"",""2609""
","
","""event"",""trial"",""time""
""focus"",""0"",""0""
","""event"",""trial"",""time""
""fullscreenenter"",""1"",""2609""
","
",,null,run_exp/static/images/task_images/barrel_text.jpg,null,,,,,,,,,,,,,,,,,,,,,,,,
decision_prac,37,231543,0.0-13.0-2.0,"""event"",""trial"",""time""
""focus"",""0"",""0""
""fullscreenenter"",""1"",""2609""
","
","""event"",""trial"",""time""
""focus"",""0"",""0""
","""event"",""trial"",""time""
""fullscreenenter"",""1"",""2609""
","
",,346,run_exp/static/images/task_images/land.jpg,65,,,,,,,,,,,2,,,,,,,,,,,,,
dig_prac,38,233576,0.0-14.0-0.0,"""event"",""trial"",""time""
""focus"",""0"",""0""
""fullscreenenter"",""1"",""2609""
","
","""event"",""trial"",""time""
""focus"",""0"",""0""
","""event"",""trial"",""time""
""fullscreenenter"",""1"",""2609""
","
",,,,,,,,,,,,"[{""stimulus"":""run_exp/static/images/task_images/dig.jpg"",""time"":0},{""stimulus"":""run_exp/static/images/task_images/land.jpg"",""time"":679},{""stimulus"":""run_exp/static/images/task_images/dig.jpg"",""time"":1346}]",[],,,,,,,,,,,,,,,
harvest_prac,39,234582,0.0-14.0-1.0,"""event"",""trial"",""time""
""focus"",""0"",""0""
""fullscreenenter"",""1"",""2609""
","
","""event"",""trial"",""time""
""focus"",""0"",""0""
","""event"",""trial"",""time""
""fullscreenenter"",""1"",""2609""
","
",,null,run_exp/static/images/task_images/barrel_text.jpg,null,,,,,,,,,,,,,,,,,,,,,,,,
decision_prac,40,234853,0.0-14.0-2.0,"""event"",""trial"",""time""
""focus"",""0"",""0""
""fullscreenenter"",""1"",""2609""
","
","""event"",""trial"",""time""
""focus"",""0"",""0""
","""event"",""trial"",""time""
""fullscreenenter"",""1"",""2609""
","
",,269,run_exp/static/images/task_images/land.jpg,65,,,,,,,,,,,3,,,,,,,,,,,,,
dig_prac,41,236890,0.0-15.0-0.0,"""event"",""trial"",""time""
""focus"",""0"",""0""
""fullscreenenter"",""1"",""2609""
","
","""event"",""trial"",""time""
""focus"",""0"",""0""
","""event"",""trial"",""time""
""fullscreenenter"",""1"",""2609""
","
",,,,,,,,,,,,"[{""stimulus"":""run_exp/static/images/task_images/dig.jpg"",""time"":0},{""stimulus"":""run_exp/static/images/task_images/land.jpg"",""time"":673},{""stimulus"":""run_exp/static/images/task_images/dig.jpg"",""time"":1347}]",[],,,,,,,,,,,,,,,
harvest_prac,42,237903,0.0-15.0-1.0,"""event"",""trial"",""time""
""focus"",""0"",""0""
""fullscreenenter"",""1"",""2609""
","
","""event"",""trial"",""time""
""focus"",""0"",""0""
","""event"",""trial"",""time""
""fullscreenenter"",""1"",""2609""
","
",,null,run_exp/static/images/task_images/barrel_text.jpg,null,,,,,,,,,,,,,,,,,,,,,,,,
decision_prac,43,238304,0.0-15.0-2.0,"""event"",""trial"",""time""
""focus"",""0"",""0""
""fullscreenenter"",""1"",""2609""
","
","""event"",""trial"",""time""
""focus"",""0"",""0""
","""event"",""trial"",""time""
""fullscreenenter"",""1"",""2609""
","
",,399,run_exp/static/images/task_images/land.jpg,65,,,,,,,,,,,4,,,,,,,,,,,,,
dig_prac,44,240344,0.0-16.0-0.0,"""event"",""trial"",""time""
""focus"",""0"",""0""
""fullscreenenter"",""1"",""2609""
","
","""event"",""trial"",""time""
""focus"",""0"",""0""
","""event"",""trial"",""time""
""fullscreenenter"",""1"",""2609""
","
",,,,,,,,,,,,"[{""stimulus"":""run_exp/static/images/task_images/dig.jpg"",""time"":0},{""stimulus"":""run_exp/static/images/task_images/land.jpg"",""time"":670},{""stimulus"":""run_exp/static/images/task_images/dig.jpg"",""time"":1349}]",[],,,,,,,,,,,,,,,
harvest_prac,45,241359,0.0-16.0-1.0,"""event"",""trial"",""time""
""focus"",""0"",""0""
""fullscreenenter"",""1"",""2609""
","
","""event"",""trial"",""time""
""focus"",""0"",""0""
","""event"",""trial"",""time""
""fullscreenenter"",""1"",""2609""
","
",,null,run_exp/static/images/task_images/barrel_text.jpg,null,,,,,,,,,,,,,,,,,,,,,,,,
decision_prac,46,242253,0.0-16.0-2.0,"""event"",""trial"",""time""
""focus"",""0"",""0""
""fullscreenenter"",""1"",""2609""
","
","""event"",""trial"",""time""
""focus"",""0"",""0""
","""event"",""trial"",""time""
""fullscreenenter"",""1"",""2609""
","
",,892,run_exp/static/images/task_images/land.jpg,76,,,,,,,,,,,,1,,,,,,,,,,,,
quiz_instruc,47,250864,0.0-17.0-0.0,"""event"",""trial"",""time""
""focus"",""0"",""0""
""fullscreenenter"",""1"",""2609""
","
","""event"",""trial"",""time""
""focus"",""0"",""0""
","""event"",""trial"",""time""
""fullscreenenter"",""1"",""2609""
","
",,8607,run_exp/static/audio/clip_10_quiz.m4a,,,,,,,0,,,,,,,,,,,,,,,,,,
instruc_repeat,48,293610,0.0-17.0-1.0,"""event"",""trial"",""time""
""focus"",""0"",""0""
""fullscreenenter"",""1"",""2609""
","
","""event"",""trial"",""time""
""focus"",""0"",""0""
","""event"",""trial"",""time""
""fullscreenenter"",""1"",""2609""
","
",,null,"<p> Are you ready to play a practice game? </p> <p>In this practice game, you'll be digging up barrels of gems. But, in the real game, you'll be digging up the gems themselves. </p>",null,"<p>In this game, your goal is to collect as many gems as you can. That’s how you will win bonus money. </p> <p>The entire game will last 20 minutes no matter how many gems you collect or how many planets you visit. </p><p>To stay on a planet and dig again, press the letter A on your keyboard. To leave for a new planet, press the letter L.</p><p>The more you dig on a planet, the fewer gems you’ll get with each dig which is why you might consider leaving for a new planet. </p><p>When you arrive at a new planet, you’ll be greeted by an alien. What the alien looks like does not tell you anything about how much treasure is on the planet. </p>",,,,,,,,,,,,,,,,,,,,,,,
instruc_repeat_continue,49,295395,0.0-17.0-2.0,"""event"",""trial"",""time""
""focus"",""0"",""0""
""fullscreenenter"",""1"",""2609""
","
","""event"",""trial"",""time""
""focus"",""0"",""0""
","""event"",""trial"",""time""
""fullscreenenter"",""1"",""2609""
","
",,1784,"<p> Are you ready to play a practice game? </p> <p>In this practice game, you'll be digging up barrels of gems. But, in the real game, you'll be digging up the gems themselves. </p>",,,,,,,0,,,,,,,,,,,,,,,,,,
quiz_q_1_ask,50,298103,0.0-17.0-3.0,"""event"",""trial"",""time""
""focus"",""0"",""0""
""fullscreenenter"",""1"",""2609""
","
","""event"",""trial"",""time""
""focus"",""0"",""0""
","""event"",""trial"",""time""
""fullscreenenter"",""1"",""2609""
","
",,2705,run_exp/static/audio/clip_11_q1_ask.m4a,,,,,,,2,,,,,,,,,,,,,,,,,,
quiz_q_1_fb_correct,51,301935,0.0-18.0-0.0,"""event"",""trial"",""time""
""focus"",""0"",""0""
""fullscreenenter"",""1"",""2609""
","
","""event"",""trial"",""time""
""focus"",""0"",""0""
","""event"",""trial"",""time""
""fullscreenenter"",""1"",""2609""
","
",,null,run_exp/static/audio/clip_12_q1_correct.m4a,null,<p>That’s correct. You win extra money by collecting more gems.</p>,,,,,,,,,,,,,,,,,,,,,,,
quiz_q_2_ask,52,303650,0.0-18.0-1.0,"""event"",""trial"",""time""
""focus"",""0"",""0""
""fullscreenenter"",""1"",""2609""
","
","""event"",""trial"",""time""
""focus"",""0"",""0""
","""event"",""trial"",""time""
""fullscreenenter"",""1"",""2609""
","
",,1715,run_exp/static/audio/clip_14_q2_ask.m4a,,,,,,,1,,,,,,,,,,,,,,,,,,
quiz_q_2_fb_correct,53,307645,0.0-19.0-0.0,"""event"",""trial"",""time""
""focus"",""0"",""0""
""fullscreenenter"",""1"",""2609""
","
","""event"",""trial"",""time""
""focus"",""0"",""0""
","""event"",""trial"",""time""
""fullscreenenter"",""1"",""2609""
","
",,null,run_exp/static/audio/clip_15_q2_correct.m4a,null,<p>That’s correct. The experiment is 20 minutes no matter what.</p>,,,,,,,,,,,,,,,,,,,,,,,
quiz_q_3_ask,54,309791,0.0-19.0-1.0,"""event"",""trial"",""time""
""focus"",""0"",""0""
""fullscreenenter"",""1"",""2609""
","
","""event"",""trial"",""time""
""focus"",""0"",""0""
","""event"",""trial"",""time""
""fullscreenenter"",""1"",""2609""
","
",,2144,run_exp/static/audio/clip_17_q3_ask.m4a,,,,,,,1,,,,,,,,,,,,,,,,,,
quiz_q_3_fb_correct,55,313765,0.0-20.0-0.0,"""event"",""trial"",""time""
""focus"",""0"",""0""
""fullscreenenter"",""1"",""2609""
","
","""event"",""trial"",""time""
""focus"",""0"",""0""
","""event"",""trial"",""time""
""fullscreenenter"",""1"",""2609""
","
",,null,run_exp/static/audio/clip_18_q3_correct.m4a,null,<p> That’s correct. You press the letter L to travel to a new planet.</p>,,,,,,,,,,,,,,,,,,,,,,,
quiz_q_4_ask,56,315921,0.0-20.0-1.0,"""event"",""trial"",""time""
""focus"",""0"",""0""
""fullscreenenter"",""1"",""2609""
","
","""event"",""trial"",""time""
""focus"",""0"",""0""
","""event"",""trial"",""time""
""fullscreenenter"",""1"",""2609""
","
",,2155,run_exp/static/audio/clip_20_q4_ask.m4a,,,,,,,0,,,,,,,,,,,,,,,,,,
quiz_q_4_fb_correct,57,321226,0.0-21.0-0.0,"""event"",""trial"",""time""
""focus"",""0"",""0""
""fullscreenenter"",""1"",""2609""
","
","""event"",""trial"",""time""
""focus"",""0"",""0""
","""event"",""trial"",""time""
""fullscreenenter"",""1"",""2609""
","
",,null,run_exp/static/audio/clip_21_q4_correct.m4a,null,<p> That’s correct. The more you dig on a planet the fewer gems you’ll get with each dig. </p>,,,,,,,,,,,,,,,,,,,,,,,
quiz_q_5_ask,58,323656,0.0-21.0-1.0,"""event"",""trial"",""time""
""focus"",""0"",""0""
""fullscreenenter"",""1"",""2609""
","
","""event"",""trial"",""time""
""focus"",""0"",""0""
","""event"",""trial"",""time""
""fullscreenenter"",""1"",""2609""
","
",,2428,run_exp/static/audio/clip_23_q5_ask.m4a,,,,,,,1,,,,,,,,,,,,,,,,,,
quiz_q_5_fb_correct,59,328637,0.0-22.0-0.0,"""event"",""trial"",""time""
""focus"",""0"",""0""
""fullscreenenter"",""1"",""2609""
","
","""event"",""trial"",""time""
""focus"",""0"",""0""
","""event"",""trial"",""time""
""fullscreenenter"",""1"",""2609""
","
",,null,run_exp/static/audio/clip_24_q5_correct.m4a,null,<p> That’s correct. The alien tells you nothing about how much treasure is on the planet.</p>,,,,,,,,,,,,,,,,,,,,,,,
quiz_correct,60,332087,0.0-23.0-0.0,"""event"",""trial"",""time""
""focus"",""0"",""0""
""fullscreenenter"",""1"",""2609""
","
","""event"",""trial"",""time""
""focus"",""0"",""0""
","""event"",""trial"",""time""
""fullscreenenter"",""1"",""2609""
","
",,null,run_exp/static/audio/clip_26_correct_quiz.m4a,null,,,,,,,,,,,,,,,,,,,,,,,,
quiz_correct_continue,61,334060,0.0-23.0-1.0,"""event"",""trial"",""time""
""focus"",""0"",""0""
""fullscreenenter"",""1"",""2609""
","
","""event"",""trial"",""time""
""focus"",""0"",""0""
","""event"",""trial"",""time""
""fullscreenenter"",""1"",""2609""
","
",,1973,<p>Good job! You're now ready to move on to the real game!</p>,,,,,,,0,,,,,,,,,,,,,,,,,,
audio-keyboard-response,62,344165,0.0-23.0-2.0,"""event"",""trial"",""time""
""focus"",""0"",""0""
""fullscreenenter"",""1"",""2609""
","
","""event"",""trial"",""time""
""focus"",""0"",""0""
","""event"",""trial"",""time""
""fullscreenenter"",""1"",""2609""
","
",,null,run_exp/static/audio/clip_28_real_game.m4a,null,,,,,,,,,,,,,,,,,,,,,,,,
instruc_begin_exp_contine,63,345381,0.0-23.0-3.0,"""event"",""trial"",""time""
""focus"",""0"",""0""
""fullscreenenter"",""1"",""2609""
","
","""event"",""trial"",""time""
""focus"",""0"",""0""
","""event"",""trial"",""time""
""fullscreenenter"",""1"",""2609""
","
",,1215,"<p>Now that you know how  to dig for space treasure and travel to new planets,you can start exploring! </p><p>Do you want to go over the instructions again or get started with the real game?</p>",,,,,,,1,,,,,,1,,,,,,,,,,,,
alien_welcome,64,350397,0.0-24.0-0.0,"""event"",""trial"",""time""
""focus"",""0"",""0""
""fullscreenenter"",""1"",""2609""
","
","""event"",""trial"",""time""
""focus"",""0"",""0""
","""event"",""trial"",""time""
""fullscreenenter"",""1"",""2609""
","
",,null,run_exp/static/images/task_images/aliens/old_aliens/planet/alien_planet-59.jpg,null,,,,,,,,,,,,,59,"59,39,40,12,61,50,77,45,46,22,18,67,36,62,43,13,35,51,76,72,31,14,58,24,34,19,17,41,57,16,7,29,71,78,49,5,55,54,2,56,79,63,25,65,23,69,27",,,,,,,,,,
land,65,350900,0.0-24.0-1.0,"""event"",""trial"",""time""
""focus"",""0"",""0""
""fullscreenenter"",""1"",""2609""
","
","""event"",""trial"",""time""
""focus"",""0"",""0""
","""event"",""trial"",""time""
""fullscreenenter"",""1"",""2609""
","
",,null,run_exp/static/images/task_images/land.jpg,null,,,,,,,103,,,1,,,,,,,,,,,,,,
dig,66,352953,0.0-24.0-2.0,"""event"",""trial"",""time""
""focus"",""0"",""0""
""fullscreenenter"",""1"",""2609""
","
","""event"",""trial"",""time""
""focus"",""0"",""0""
","""event"",""trial"",""time""
""fullscreenenter"",""1"",""2609""
","
",,,,,,,,,,,,"[{""stimulus"":""run_exp/static/images/task_images/dig.jpg"",""time"":1},{""stimulus"":""run_exp/static/images/task_images/land.jpg"",""time"":686},{""stimulus"":""run_exp/static/images/task_images/dig.jpg"",""time"":1368}]",[],1,,,,,,,,,,,,,,
harvest,67,353958,0.0-24.0-3.0,"""event"",""trial"",""time""
""focus"",""0"",""0""
""fullscreenenter"",""1"",""2609""
","
","""event"",""trial"",""time""
""focus"",""0"",""0""
","""event"",""trial"",""time""
""fullscreenenter"",""1"",""2609""
","
",,null,run_exp/static/images/task_images/gems/103.jpg,null,,,,,,,17,,,1,,,,,103,0.162059141,0.165048544,,,,,,,
decision,68,354512,0.0-24.0-4.0,"""event"",""trial"",""time""
""focus"",""0"",""0""
""fullscreenenter"",""1"",""2609""
","
","""event"",""trial"",""time""
""focus"",""0"",""0""
","""event"",""trial"",""time""
""fullscreenenter"",""1"",""2609""
","
",,549,run_exp/static/images/task_images/land.jpg,65,,,,,,,17,,,1,,,,,,,,9130,1,0,FALSE,,,
dig,69,357006,0.0-25.0-0.0,"""event"",""trial"",""time""
""focus"",""0"",""0""
""fullscreenenter"",""1"",""2609""
","
","""event"",""trial"",""time""
""focus"",""0"",""0""
","""event"",""trial"",""time""
""fullscreenenter"",""1"",""2609""
","
",,,,,,,,,,,,"[{""stimulus"":""run_exp/static/images/task_images/dig.jpg"",""time"":0},{""stimulus"":""run_exp/static/images/task_images/land.jpg"",""time"":821},{""stimulus"":""run_exp/static/images/task_images/dig.jpg"",""time"":1646}]",[],1,,,,,,,,,,,,,,
harvest,70,358017,0.0-25.0-1.0,"""event"",""trial"",""time""
""focus"",""0"",""0""
""fullscreenenter"",""1"",""2609""
","
","""event"",""trial"",""time""
""focus"",""0"",""0""
","""event"",""trial"",""time""
""fullscreenenter"",""1"",""2609""
","
",,null,run_exp/static/images/task_images/gems/17.jpg,null,,,,,,,4,,,1,,,,,17,0.229458602,0.235294118,,,,,,,
decision,71,358182,0.0-25.0-2.0,"""event"",""trial"",""time""
""focus"",""0"",""0""
""fullscreenenter"",""1"",""2609""
","
","""event"",""trial"",""time""
""focus"",""0"",""0""
","""event"",""trial"",""time""
""fullscreenenter"",""1"",""2609""
","
",,163,run_exp/static/images/task_images/land.jpg,76,,,,,,,4,,,1,,,,,,,,12800,1,1,TRUE,,,
travel,72,368103,0.0-26.0-0.0,"""event"",""trial"",""time""
""focus"",""0"",""0""
""fullscreenenter"",""1"",""2609""
","
","""event"",""trial"",""time""
""focus"",""0"",""0""
","""event"",""trial"",""time""
""fullscreenenter"",""1"",""2609""
","
",,,,,,,,,,,,"[{""stimulus"":""run_exp/static/images/task_images/rocket-01.jpg"",""time"":0},{""stimulus"":""run_exp/static/images/task_images/rocket-02.jpg"",""time"":1100},{""stimulus"":""run_exp/static/images/task_images/rocket-03.jpg"",""time"":2196},{""stimulus"":""run_exp/static/images/task_images/rocket-04.jpg"",""time"":3294},{""stimulus"":""run_exp/static/images/task_images/rocket-05.jpg"",""time"":4388},{""stimulus"":""run_exp/static/images/task_images/rocket-06.jpg"",""time"":5495},{""stimulus"":""run_exp/static/images/task_images/rocket-07.jpg"",""time"":6600},{""stimulus"":""run_exp/static/images/task_images/rocket-08.jpg"",""time"":7704},{""stimulus"":""run_exp/static/images/task_images/rocket-09.jpg"",""time"":8808}]",[],1,,,,,,,,,,,,,,
alien_welcome,73,373113,0.0-26.0-1.0,"""event"",""trial"",""time""
""focus"",""0"",""0""
""fullscreenenter"",""1"",""2609""
","
","""event"",""trial"",""time""
""focus"",""0"",""0""
","""event"",""trial"",""time""
""fullscreenenter"",""1"",""2609""
","
",,null,run_exp/static/images/task_images/aliens/old_aliens/planet/alien_planet-39.jpg,null,,,,,,,,,,,,,39,"59,39,40,12,61,50,77,45,46,22,18,67,36,62,43,13,35,51,76,72,31,14,58,24,34,19,17,41,57,16,7,29,71,78,49,5,55,54,2,56,79,63,25,65,23,69,27",,,,,,,,,,
land,74,373618,0.0-26.0-2.0,"""event"",""trial"",""time""
""focus"",""0"",""0""
""fullscreenenter"",""1"",""2609""
","
","""event"",""trial"",""time""
""focus"",""0"",""0""
","""event"",""trial"",""time""
""fullscreenenter"",""1"",""2609""
","
",,null,run_exp/static/images/task_images/land.jpg,null,,,,,,,101,,,2,,,,,,,,,,,,,,
dig,75,375667,0.0-26.0-3.0,"""event"",""trial"",""time""
""focus"",""0"",""0""
""fullscreenenter"",""1"",""2609""
","
","""event"",""trial"",""time""
""focus"",""0"",""0""
","""event"",""trial"",""time""
""fullscreenenter"",""1"",""2609""
","
",,,,,,,,,,,,"[{""stimulus"":""run_exp/static/images/task_images/dig.jpg"",""time"":0},{""stimulus"":""run_exp/static/images/task_images/land.jpg"",""time"":679},{""stimulus"":""run_exp/static/images/task_images/dig.jpg"",""time"":1358}]",[],2,,,,,,,,,,,,,,
harvest,76,376674,0.0-26.0-4.0,"""event"",""trial"",""time""
""focus"",""0"",""0""
""fullscreenenter"",""1"",""2609""
","
","""event"",""trial"",""time""
""focus"",""0"",""0""
","""event"",""trial"",""time""
""fullscreenenter"",""1"",""2609""
","
",,null,run_exp/static/images/task_images/gems/101.jpg,null,,,,,,,23,,,2,,,,,101,0.229791584,0.227722772,,,,,,,
decision,77,377222,0.0-26.0-5.0,"""event"",""trial"",""time""
""focus"",""0"",""0""
""fullscreenenter"",""1"",""2609""
","
","""event"",""trial"",""time""
""focus"",""0"",""0""
","""event"",""trial"",""time""
""fullscreenenter"",""1"",""2609""
","
",,545,run_exp/static/images/task_images/land.jpg,65,,,,,,,23,,,2,,,,,,,,31841,1,0,FALSE,,,
dig,78,379713,0.0-27.0-0.0,"""event"",""trial"",""time""
""focus"",""0"",""0""
""fullscreenenter"",""1"",""2609""
","
","""event"",""trial"",""time""
""focus"",""0"",""0""
","""event"",""trial"",""time""
""fullscreenenter"",""1"",""2609""
","
",,,,,,,,,,,,"[{""stimulus"":""run_exp/static/images/task_images/dig.jpg"",""time"":0},{""stimulus"":""run_exp/static/images/task_images/land.jpg"",""time"":830},{""stimulus"":""run_exp/static/images/task_images/dig.jpg"",""time"":1655}]",[],2,,,,,,,,,,,,,,
harvest,79,380724,0.0-27.0-1.0,"""event"",""trial"",""time""
""focus"",""0"",""0""
""fullscreenenter"",""1"",""2609""
","
","""event"",""trial"",""time""
""focus"",""0"",""0""
","""event"",""trial"",""time""
""fullscreenenter"",""1"",""2609""
","
",,null,run_exp/static/images/task_images/gems/23.jpg,null,,,,,,,5,,,2,,,,,23,0.236227806,0.217391304,,,,,,,
decision,80,381392,0.0-27.0-2.0,"""event"",""trial"",""time""
""focus"",""0"",""0""
""fullscreenenter"",""1"",""2609""
","
","""event"",""trial"",""time""
""focus"",""0"",""0""
","""event"",""trial"",""time""
""fullscreenenter"",""1"",""2609""
","
",,668,run_exp/static/images/task_images/land.jpg,65,,,,,,,5,,,2,,,,,,,,36010,1,1,FALSE,,,
dig,81,383758,0.0-28.0-0.0,"""event"",""trial"",""time""
""focus"",""0"",""0""
""fullscreenenter"",""1"",""2609""
","
","""event"",""trial"",""time""
""focus"",""0"",""0""
","""event"",""trial"",""time""
""fullscreenenter"",""1"",""2609""
","
",,,,,,,,,,,,"[{""stimulus"":""run_exp/static/images/task_images/dig.jpg"",""time"":0},{""stimulus"":""run_exp/static/images/task_images/land.jpg"",""time"":788},{""stimulus"":""run_exp/static/images/task_images/dig.jpg"",""time"":1576}]",[],2,,,,,,,,,,,,,,
harvest,82,384771,0.0-28.0-1.0,"""event"",""trial"",""time""
""focus"",""0"",""0""
""fullscreenenter"",""1"",""2609""
","
","""event"",""trial"",""time""
""focus"",""0"",""0""
","""event"",""trial"",""time""
""fullscreenenter"",""1"",""2609""
","
",,null,run_exp/static/images/task_images/gems/5.jpg,null,,,,,,,1,,,2,,,,,5,0.221301312,0.2,,,,,,,
decision,83,384902,0.0-28.0-2.0,"""event"",""trial"",""time""
""focus"",""0"",""0""
""fullscreenenter"",""1"",""2609""
","
","""event"",""trial"",""time""
""focus"",""0"",""0""
","""event"",""trial"",""time""
""fullscreenenter"",""1"",""2609""
","
",,128,run_exp/static/images/task_images/land.jpg,76,,,,,,,1,,,2,,,,,,,,39520,1,2,TRUE,,,
travel,84,394850,0.0-29.0-0.0,"""event"",""trial"",""time""
""focus"",""0"",""0""
""fullscreenenter"",""1"",""2609""
","
","""event"",""trial"",""time""
""focus"",""0"",""0""
","""event"",""trial"",""time""
""fullscreenenter"",""1"",""2609""
","
",,,,,,,,,,,,"[{""stimulus"":""run_exp/static/images/task_images/rocket-01.jpg"",""time"":0},{""stimulus"":""run_exp/static/images/task_images/rocket-02.jpg"",""time"":1102},{""stimulus"":""run_exp/static/images/task_images/rocket-03.jpg"",""time"":2201},{""stimulus"":""run_exp/static/images/task_images/rocket-04.jpg"",""time"":3312},{""stimulus"":""run_exp/static/images/task_images/rocket-05.jpg"",""time"":4423},{""stimulus"":""run_exp/static/images/task_images/rocket-06.jpg"",""time"":5532},{""stimulus"":""run_exp/static/images/task_images/rocket-07.jpg"",""time"":6637},{""stimulus"":""run_exp/static/images/task_images/rocket-08.jpg"",""time"":7733},{""stimulus"":""run_exp/static/images/task_images/rocket-09.jpg"",""time"":8835}]",[],2,,,,,,,,,,,,,,
alien_welcome,85,399858,0.0-29.0-1.0,"""event"",""trial"",""time""
""focus"",""0"",""0""
""fullscreenenter"",""1"",""2609""
","
","""event"",""trial"",""time""
""focus"",""0"",""0""
","""event"",""trial"",""time""
""fullscreenenter"",""1"",""2609""
","
",,null,run_exp/static/images/task_images/aliens/old_aliens/planet/alien_planet-40.jpg,null,,,,,,,,,,,,,40,"59,39,40,12,61,50,77,45,46,22,18,67,36,62,43,13,35,51,76,72,31,14,58,24,34,19,17,41,57,16,7,29,71,78,49,5,55,54,2,56,79,63,25,65,23,69,27",,,,,,,,,,
land,86,400375,0.0-29.0-2.0,"""event"",""trial"",""time""
""focus"",""0"",""0""
""fullscreenenter"",""1"",""2609""
","
","""event"",""trial"",""time""
""focus"",""0"",""0""
","""event"",""trial"",""time""
""fullscreenenter"",""1"",""2609""
","
",,null,run_exp/static/images/task_images/land.jpg,null,,,,,,,102,,,3,,,,,,,,,,,,,,
dig,87,402419,0.0-29.0-3.0,"""event"",""trial"",""time""
""focus"",""0"",""0""
""fullscreenenter"",""1"",""2609""
","
","""event"",""trial"",""time""
""focus"",""0"",""0""
","""event"",""trial"",""time""
""fullscreenenter"",""1"",""2609""
","
",,,,,,,,,,,,"[{""stimulus"":""run_exp/static/images/task_images/dig.jpg"",""time"":0},{""stimulus"":""run_exp/static/images/task_images/land.jpg"",""time"":683},{""stimulus"":""run_exp/static/images/task_images/dig.jpg"",""time"":1363}]",[],3,,,,,,,,,,,,,,
harvest,88,403427,0.0-29.0-4.0,"""event"",""trial"",""time""
""focus"",""0"",""0""
""fullscreenenter"",""1"",""2609""
","
","""event"",""trial"",""time""
""focus"",""0"",""0""
","""event"",""trial"",""time""
""fullscreenenter"",""1"",""2609""
","
",,null,run_exp/static/images/task_images/gems/102.jpg,null,,,,,,,53,,,3,,,,,102,0.52005697,0.519607843,,,,,,,
decision,89,403713,0.0-29.0-5.0,"""event"",""trial"",""time""
""focus"",""0"",""0""
""fullscreenenter"",""1"",""2609""
","
","""event"",""trial"",""time""
""focus"",""0"",""0""
","""event"",""trial"",""time""
""fullscreenenter"",""1"",""2609""
","
",,284,run_exp/static/images/task_images/land.jpg,65,,,,,,,53,,,3,,,,,,,,58331,1,0,FALSE,,,
dig,90,406465,0.0-30.0-0.0,"""event"",""trial"",""time""
""focus"",""0"",""0""
""fullscreenenter"",""1"",""2609""
","
","""event"",""trial"",""time""
""focus"",""0"",""0""
","""event"",""trial"",""time""
""fullscreenenter"",""1"",""2609""
","
",,,,,,,,,,,,"[{""stimulus"":""run_exp/static/images/task_images/dig.jpg"",""time"":0},{""stimulus"":""run_exp/static/images/task_images/land.jpg"",""time"":913},{""stimulus"":""run_exp/static/images/task_images/dig.jpg"",""time"":1825}]",[],3,,,,,,,,,,,,,,
harvest,91,407469,0.0-30.0-1.0,"""event"",""trial"",""time""
""focus"",""0"",""0""
""fullscreenenter"",""1"",""2609""
","
","""event"",""trial"",""time""
""focus"",""0"",""0""
","""event"",""trial"",""time""
""fullscreenenter"",""1"",""2609""
","
",,null,run_exp/static/images/task_images/gems/53.jpg,null,,,,,,,28,,,3,,,,,53,0.520110574,0.528301887,,,,,,,
decision,92,407943,0.0-30.0-2.0,"""event"",""trial"",""time""
""focus"",""0"",""0""
""fullscreenenter"",""1"",""2609""
","
","""event"",""trial"",""time""
""focus"",""0"",""0""
","""event"",""trial"",""time""
""fullscreenenter"",""1"",""2609""
","
",,472,run_exp/static/images/task_images/land.jpg,76,,,,,,,28,,,3,,,,,,,,62561,1,1,TRUE,,,
travel,93,417542,0.0-31.0-0.0,"""event"",""trial"",""time""
""focus"",""0"",""0""
""fullscreenenter"",""1"",""2609""
","
","""event"",""trial"",""time""
""focus"",""0"",""0""
","""event"",""trial"",""time""
""fullscreenenter"",""1"",""2609""
","
",,,,,,,,,,,,"[{""stimulus"":""run_exp/static/images/task_images/rocket-01.jpg"",""time"":0},{""stimulus"":""run_exp/static/images/task_images/rocket-02.jpg"",""time"":1063},{""stimulus"":""run_exp/static/images/task_images/rocket-03.jpg"",""time"":2126},{""stimulus"":""run_exp/static/images/task_images/rocket-04.jpg"",""time"":3183},{""stimulus"":""run_exp/static/images/task_images/rocket-05.jpg"",""time"":4249},{""stimulus"":""run_exp/static/images/task_images/rocket-06.jpg"",""time"":5322},{""stimulus"":""run_exp/static/images/task_images/rocket-07.jpg"",""time"":6393},{""stimulus"":""run_exp/static/images/task_images/rocket-08.jpg"",""time"":7451},{""stimulus"":""run_exp/static/images/task_images/rocket-09.jpg"",""time"":8519}]",[],3,,,,,,,,,,,,,,
alien_welcome,94,422550,0.0-31.0-1.0,"""event"",""trial"",""time""
""focus"",""0"",""0""
""fullscreenenter"",""1"",""2609""
","
","""event"",""trial"",""time""
""focus"",""0"",""0""
","""event"",""trial"",""time""
""fullscreenenter"",""1"",""2609""
","
",,null,run_exp/static/images/task_images/aliens/old_aliens/planet/alien_planet-12.jpg,null,,,,,,,,,,,,,12,"59,39,40,12,61,50,77,45,46,22,18,67,36,62,43,13,35,51,76,72,31,14,58,24,34,19,17,41,57,16,7,29,71,78,49,5,55,54,2,56,79,63,25,65,23,69,27",,,,,,,,,,
land,95,423061,0.0-31.0-2.0,"""event"",""trial"",""time""
""focus"",""0"",""0""
""fullscreenenter"",""1"",""2609""
","
","""event"",""trial"",""time""
""focus"",""0"",""0""
","""event"",""trial"",""time""
""fullscreenenter"",""1"",""2609""
","
",,null,run_exp/static/images/task_images/land.jpg,null,,,,,,,106,,,4,,,,,,,,,,,,,,
dig,96,425097,0.0-31.0-3.0,"""event"",""trial"",""time""
""focus"",""0"",""0""
""fullscreenenter"",""1"",""2609""
","
","""event"",""trial"",""time""
""focus"",""0"",""0""
","""event"",""trial"",""time""
""fullscreenenter"",""1"",""2609""
","
",,,,,,,,,,,,"[{""stimulus"":""run_exp/static/images/task_images/dig.jpg"",""time"":0},{""stimulus"":""run_exp/static/images/task_images/land.jpg"",""time"":674},{""stimulus"":""run_exp/static/images/task_images/dig.jpg"",""time"":1355}]",[],4,,,,,,,,,,,,,,
harvest,97,426106,0.0-31.0-4.0,"""event"",""trial"",""time""
""focus"",""0"",""0""
""fullscreenenter"",""1"",""2609""
","
","""event"",""trial"",""time""
""focus"",""0"",""0""
","""event"",""trial"",""time""
""fullscreenenter"",""1"",""2609""
","
",,null,run_exp/static/images/task_images/gems/106.jpg,null,,,,,,,53,,,4,,,,,106,0.496521941,0.5,,,,,,,
decision,98,427083,0.0-31.0-5.0,"""event"",""trial"",""time""
""focus"",""0"",""0""
""fullscreenenter"",""1"",""2609""
","
","""event"",""trial"",""time""
""focus"",""0"",""0""
","""event"",""trial"",""time""
""fullscreenenter"",""1"",""2609""
","
",,976,run_exp/static/images/task_images/land.jpg,65,,,,,,,53,,,4,,,,,,,,81701,1,0,FALSE,,,
dig,99,429157,0.0-32.0-0.0,"""event"",""trial"",""time""
""focus"",""0"",""0""
""fullscreenenter"",""1"",""2609""
","
","""event"",""trial"",""time""
""focus"",""0"",""0""
","""event"",""trial"",""time""
""fullscreenenter"",""1"",""2609""
","
",,,,,,,,,,,,"[{""stimulus"":""run_exp/static/images/task_images/dig.jpg"",""time"":0},{""stimulus"":""run_exp/static/images/task_images/land.jpg"",""time"":686},{""stimulus"":""run_exp/static/images/task_images/dig.jpg"",""time"":1375}]",[],4,,,,,,,,,,,,,,
harvest,100,430174,0.0-32.0-1.0,"""event"",""trial"",""time""
""focus"",""0"",""0""
""fullscreenenter"",""1"",""2609""
","
","""event"",""trial"",""time""
""focus"",""0"",""0""
","""event"",""trial"",""time""
""fullscreenenter"",""1"",""2609""
","
",,null,run_exp/static/images/task_images/gems/53.jpg,null,,,,,,,27,,,4,,,,,53,0.500243748,0.509433962,,,,,,,
decision,101,430332,0.0-32.0-2.0,"""event"",""trial"",""time""
""focus"",""0"",""0""
""fullscreenenter"",""1"",""2609""
","
","""event"",""trial"",""time""
""focus"",""0"",""0""
","""event"",""trial"",""time""
""fullscreenenter"",""1"",""2609""
","
",,156,run_exp/static/images/task_images/land.jpg,65,,,,,,,27,,,4,,,,,,,,84951,1,1,FALSE,,,
dig,102,433206,0.0-33.0-0.0,"""event"",""trial"",""time""
""focus"",""0"",""0""
""fullscreenenter"",""1"",""2609""
","
","""event"",""trial"",""time""
""focus"",""0"",""0""
","""event"",""trial"",""time""
""fullscreenenter"",""1"",""2609""
","
",,,,,,,,,,,,"[{""stimulus"":""run_exp/static/images/task_images/dig.jpg"",""time"":0},{""stimulus"":""run_exp/static/images/task_images/land.jpg"",""time"":956},{""stimulus"":""run_exp/static/images/task_images/dig.jpg"",""time"":1908}]",[],4,,,,,,,,,,,,,,
harvest,103,434215,0.0-33.0-1.0,"""event"",""trial"",""time""
""focus"",""0"",""0""
""fullscreenenter"",""1"",""2609""
","
","""event"",""trial"",""time""
""focus"",""0"",""0""
","""event"",""trial"",""time""
""fullscreenenter"",""1"",""2609""
","
",,null,run_exp/static/images/task_images/gems/27.jpg,null,,,,,,,11,,,4,,,,,27,0.395203154,0.407407407,,,,,,,
decision,104,435052,0.0-33.0-2.0,"""event"",""trial"",""time""
""focus"",""0"",""0""
""fullscreenenter"",""1"",""2609""
","
","""event"",""trial"",""time""
""focus"",""0"",""0""
","""event"",""trial"",""time""
""fullscreenenter"",""1"",""2609""
","
",,836,run_exp/static/images/task_images/land.jpg,76,,,,,,,11,,,4,,,,,,,,89670,1,2,TRUE,,,
travel,105,444299,0.0-34.0-0.0,"""event"",""trial"",""time""
""focus"",""0"",""0""
""fullscreenenter"",""1"",""2609""
","
","""event"",""trial"",""time""
""focus"",""0"",""0""
","""event"",""trial"",""time""
""fullscreenenter"",""1"",""2609""
","
",,,,,,,,,,,,"[{""stimulus"":""run_exp/static/images/task_images/rocket-01.jpg"",""time"":1},{""stimulus"":""run_exp/static/images/task_images/rocket-02.jpg"",""time"":1029},{""stimulus"":""run_exp/static/images/task_images/rocket-03.jpg"",""time"":2058},{""stimulus"":""run_exp/static/images/task_images/rocket-04.jpg"",""time"":3084},{""stimulus"":""run_exp/static/images/task_images/rocket-05.jpg"",""time"":4114},{""stimulus"":""run_exp/static/images/task_images/rocket-06.jpg"",""time"":5141},{""stimulus"":""run_exp/static/images/task_images/rocket-07.jpg"",""time"":6165},{""stimulus"":""run_exp/static/images/task_images/rocket-08.jpg"",""time"":7191},{""stimulus"":""run_exp/static/images/task_images/rocket-09.jpg"",""time"":8213}]",[],4,,,,,,,,,,,,,,
alien_welcome,106,449301,0.0-34.0-1.0,"""event"",""trial"",""time""
""focus"",""0"",""0""
""fullscreenenter"",""1"",""2609""
","
","""event"",""trial"",""time""
""focus"",""0"",""0""
","""event"",""trial"",""time""
""fullscreenenter"",""1"",""2609""
","
",,null,run_exp/static/images/task_images/aliens/old_aliens/planet/alien_planet-61.jpg,null,,,,,,,,,,,,,61,"59,39,40,12,61,50,77,45,46,22,18,67,36,62,43,13,35,51,76,72,31,14,58,24,34,19,17,41,57,16,7,29,71,78,49,5,55,54,2,56,79,63,25,65,23,69,27",,,,,,,,,,
land,107,449802,0.0-34.0-2.0,"""event"",""trial"",""time""
""focus"",""0"",""0""
""fullscreenenter"",""1"",""2609""
","
","""event"",""trial"",""time""
""focus"",""0"",""0""
","""event"",""trial"",""time""
""fullscreenenter"",""1"",""2609""
","
",,null,run_exp/static/images/task_images/land.jpg,null,,,,,,,106,,,5,,,,,,,,,,,,,,
dig,108,451846,0.0-34.0-3.0,"""event"",""trial"",""time""
""focus"",""0"",""0""
""fullscreenenter"",""1"",""2609""
","
","""event"",""trial"",""time""
""focus"",""0"",""0""
","""event"",""trial"",""time""
""fullscreenenter"",""1"",""2609""
","
",,,,,,,,,,,,"[{""stimulus"":""run_exp/static/images/task_images/dig.jpg"",""time"":1},{""stimulus"":""run_exp/static/images/task_images/land.jpg"",""time"":682},{""stimulus"":""run_exp/static/images/task_images/dig.jpg"",""time"":1355}]",[],5,,,,,,,,,,,,,,
harvest,109,452849,0.0-34.0-4.0,"""event"",""trial"",""time""
""focus"",""0"",""0""
""fullscreenenter"",""1"",""2609""
","
","""event"",""trial"",""time""
""focus"",""0"",""0""
","""event"",""trial"",""time""
""fullscreenenter"",""1"",""2609""
","
",,null,run_exp/static/images/task_images/gems/106.jpg,null,,,,,,,56,,,5,,,,,106,0.532987479,0.528301887,,,,,,,
decision,110,453453,0.0-34.0-5.0,"""event"",""trial"",""time""
""focus"",""0"",""0""
""fullscreenenter"",""1"",""2609""
","
","""event"",""trial"",""time""
""focus"",""0"",""0""
","""event"",""trial"",""time""
""fullscreenenter"",""1"",""2609""
","
",,603,run_exp/static/images/task_images/land.jpg,65,,,,,,,56,,,5,,,,,,,,108072,1,0,FALSE,,,
dig,111,455884,0.0-35.0-0.0,"""event"",""trial"",""time""
""focus"",""0"",""0""
""fullscreenenter"",""1"",""2609""
","
","""event"",""trial"",""time""
""focus"",""0"",""0""
","""event"",""trial"",""time""
""fullscreenenter"",""1"",""2609""
","
",,,,,,,,,,,,"[{""stimulus"":""run_exp/static/images/task_images/dig.jpg"",""time"":0},{""stimulus"":""run_exp/static/images/task_images/land.jpg"",""time"":805},{""stimulus"":""run_exp/static/images/task_images/dig.jpg"",""time"":1607}]",[],5,,,,,,,,,,,,,,
harvest,112,456896,0.0-35.0-1.0,"""event"",""trial"",""time""
""focus"",""0"",""0""
""fullscreenenter"",""1"",""2609""
","
","""event"",""trial"",""time""
""focus"",""0"",""0""
","""event"",""trial"",""time""
""fullscreenenter"",""1"",""2609""
","
",,null,run_exp/static/images/task_images/gems/56.jpg,null,,,,,,,31,,,5,,,,,56,0.555191635,0.553571429,,,,,,,
decision,113,457253,0.0-35.0-2.0,"""event"",""trial"",""time""
""focus"",""0"",""0""
""fullscreenenter"",""1"",""2609""
","
","""event"",""trial"",""time""
""focus"",""0"",""0""
","""event"",""trial"",""time""
""fullscreenenter"",""1"",""2609""
","
",,355,run_exp/static/images/task_images/land.jpg,76,,,,,,,31,,,5,,,,,,,,111871,1,1,TRUE,,,
travel,114,466972,0.0-36.0-0.0,"""event"",""trial"",""time""
""focus"",""0"",""0""
""fullscreenenter"",""1"",""2609""
","
","""event"",""trial"",""time""
""focus"",""0"",""0""
","""event"",""trial"",""time""
""fullscreenenter"",""1"",""2609""
","
",,,,,,,,,,,,"[{""stimulus"":""run_exp/static/images/task_images/rocket-01.jpg"",""time"":0},{""stimulus"":""run_exp/static/images/task_images/rocket-02.jpg"",""time"":1083},{""stimulus"":""run_exp/static/images/task_images/rocket-03.jpg"",""time"":2161},{""stimulus"":""run_exp/static/images/task_images/rocket-04.jpg"",""time"":3247},{""stimulus"":""run_exp/static/images/task_images/rocket-05.jpg"",""time"":4328},{""stimulus"":""run_exp/static/images/task_images/rocket-06.jpg"",""time"":5400},{""stimulus"":""run_exp/static/images/task_images/rocket-07.jpg"",""time"":6474},{""stimulus"":""run_exp/static/images/task_images/rocket-08.jpg"",""time"":7554},{""stimulus"":""run_exp/static/images/task_images/rocket-09.jpg"",""time"":8628}]",[],5,,,,,,,,,,,,,,
alien_welcome,115,471986,0.0-36.0-1.0,"""event"",""trial"",""time""
""focus"",""0"",""0""
""fullscreenenter"",""1"",""2609""
","
","""event"",""trial"",""time""
""focus"",""0"",""0""
","""event"",""trial"",""time""
""fullscreenenter"",""1"",""2609""
","
",,null,run_exp/static/images/task_images/aliens/old_aliens/planet/alien_planet-50.jpg,null,,,,,,,,,,,,,50,"59,39,40,12,61,50,77,45,46,22,18,67,36,62,43,13,35,51,76,72,31,14,58,24,34,19,17,41,57,16,7,29,71,78,49,5,55,54,2,56,79,63,25,65,23,69,27",,,,,,,,,,
land,116,472499,0.0-36.0-2.0,"""event"",""trial"",""time""
""focus"",""0"",""0""
""fullscreenenter"",""1"",""2609""
","
","""event"",""trial"",""time""
""focus"",""0"",""0""
","""event"",""trial"",""time""
""fullscreenenter"",""1"",""2609""
","
",,null,run_exp/static/images/task_images/land.jpg,null,,,,,,,100,,,6,,,,,,,,,,,,,,
dig,117,474531,0.0-36.0-3.0,"""event"",""trial"",""time""
""focus"",""0"",""0""
""fullscreenenter"",""1"",""2609""
","
","""event"",""trial"",""time""
""focus"",""0"",""0""
","""event"",""trial"",""time""
""fullscreenenter"",""1"",""2609""
","
",,,,,,,,,,,,"[{""stimulus"":""run_exp/static/images/task_images/dig.jpg"",""time"":1},{""stimulus"":""run_exp/static/images/task_images/land.jpg"",""time"":676},{""stimulus"":""run_exp/static/images/task_images/dig.jpg"",""time"":1355}]",[],6,,,,,,,,,,,,,,
harvest,118,475537,0.0-36.0-4.0,"""event"",""trial"",""time""
""focus"",""0"",""0""
""fullscreenenter"",""1"",""2609""
","
","""event"",""trial"",""time""
""focus"",""0"",""0""
","""event"",""trial"",""time""
""fullscreenenter"",""1"",""2609""
","
",,null,run_exp/static/images/task_images/gems/100.jpg,null,,,,,,,84,,,6,,,,,100,0.839258521,0.84,,,,,,,
decision,119,476024,0.0-36.0-5.0,"""event"",""trial"",""time""
""focus"",""0"",""0""
""fullscreenenter"",""1"",""2609""
","
","""event"",""trial"",""time""
""focus"",""0"",""0""
","""event"",""trial"",""time""
""fullscreenenter"",""1"",""2609""
","
",,485,run_exp/static/images/task_images/land.jpg,65,,,,,,,84,,,6,,,,,,,,130642,1,0,FALSE,,,
dig,120,478567,0.0-37.0-0.0,"""event"",""trial"",""time""
""focus"",""0"",""0""
""fullscreenenter"",""1"",""2609""
","
","""event"",""trial"",""time""
""focus"",""0"",""0""
","""event"",""trial"",""time""
""fullscreenenter"",""1"",""2609""
","
",,,,,,,,,,,,"[{""stimulus"":""run_exp/static/images/task_images/dig.jpg"",""time"":0},{""stimulus"":""run_exp/static/images/task_images/land.jpg"",""time"":847},{""stimulus"":""run_exp/static/images/task_images/dig.jpg"",""time"":1690}]",[],6,,,,,,,,,,,,,,
harvest,121,479574,0.0-37.0-1.0,"""event"",""trial"",""time""
""focus"",""0"",""0""
""fullscreenenter"",""1"",""2609""
","
","""event"",""trial"",""time""
""focus"",""0"",""0""
","""event"",""trial"",""time""
""fullscreenenter"",""1"",""2609""
","
",,null,run_exp/static/images/task_images/gems/84.jpg,null,,,,,,,62,,,6,,,,,84,0.742259376,0.738095238,,,,,,,
decision,122,480424,0.0-37.0-2.0,"""event"",""trial"",""time""
""focus"",""0"",""0""
""fullscreenenter"",""1"",""2609""
","
","""event"",""trial"",""time""
""focus"",""0"",""0""
","""event"",""trial"",""time""
""fullscreenenter"",""1"",""2609""
","
",,846,run_exp/static/images/task_images/land.jpg,65,,,,,,,62,,,6,,,,,,,,135042,1,1,FALSE,,,
dig,123,482606,0.0-38.0-0.0,"""event"",""trial"",""time""
""focus"",""0"",""0""
""fullscreenenter"",""1"",""2609""
","
","""event"",""trial"",""time""
""focus"",""0"",""0""
","""event"",""trial"",""time""
""fullscreenenter"",""1"",""2609""
","
",,,,,,,,,,,,"[{""stimulus"":""run_exp/static/images/task_images/dig.jpg"",""time"":0},{""stimulus"":""run_exp/static/images/task_images/land.jpg"",""time"":722},{""stimulus"":""run_exp/static/images/task_images/dig.jpg"",""time"":1451}]",[],6,,,,,,,,,,,,,,
harvest,124,483609,0.0-38.0-1.0,"""event"",""trial"",""time""
""focus"",""0"",""0""
""fullscreenenter"",""1"",""2609""
","
","""event"",""trial"",""time""
""focus"",""0"",""0""
","""event"",""trial"",""time""
""fullscreenenter"",""1"",""2609""
","
",,null,run_exp/static/images/task_images/gems/62.jpg,null,,,,,,,50,,,6,,,,,62,0.811876764,0.806451613,,,,,,,
decision,125,484315,0.0-38.0-2.0,"""event"",""trial"",""time""
""focus"",""0"",""0""
""fullscreenenter"",""1"",""2609""
","
","""event"",""trial"",""time""
""focus"",""0"",""0""
","""event"",""trial"",""time""
""fullscreenenter"",""1"",""2609""
","
",,705,run_exp/static/images/task_images/land.jpg,65,,,,,,,50,,,6,,,,,,,,138934,1,2,FALSE,,,
dig,126,486643,0.0-39.0-0.0,"""event"",""trial"",""time""
""focus"",""0"",""0""
""fullscreenenter"",""1"",""2609""
","
","""event"",""trial"",""time""
""focus"",""0"",""0""
","""event"",""trial"",""time""
""fullscreenenter"",""1"",""2609""
","
",,,,,,,,,,,,"[{""stimulus"":""run_exp/static/images/task_images/dig.jpg"",""time"":0},{""stimulus"":""run_exp/static/images/task_images/land.jpg"",""time"":780},{""stimulus"":""run_exp/static/images/task_images/dig.jpg"",""time"":1544}]",[],6,,,,,,,,,,,,,,
harvest,127,487658,0.0-39.0-1.0,"""event"",""trial"",""time""
""focus"",""0"",""0""
""fullscreenenter"",""1"",""2609""
","
","""event"",""trial"",""time""
""focus"",""0"",""0""
","""event"",""trial"",""time""
""fullscreenenter"",""1"",""2609""
","
",,null,run_exp/static/images/task_images/gems/50.jpg,null,,,,,,,41,,,6,,,,,50,0.817370421,0.82,,,,,,,
decision,128,487744,0.0-39.0-2.0,"""event"",""trial"",""time""
""focus"",""0"",""0""
""fullscreenenter"",""1"",""2609""
","
","""event"",""trial"",""time""
""focus"",""0"",""0""
","""event"",""trial"",""time""
""fullscreenenter"",""1"",""2609""
","
",,84,run_exp/static/images/task_images/land.jpg,76,,,,,,,41,,,6,,,,,,,,142362,1,3,TRUE,,,
travel,129,497705,0.0-40.0-0.0,"""event"",""trial"",""time""
""focus"",""0"",""0""
""fullscreenenter"",""1"",""2609""
","
","""event"",""trial"",""time""
""focus"",""0"",""0""
","""event"",""trial"",""time""
""fullscreenenter"",""1"",""2609""
","
",,,,,,,,,,,,"[{""stimulus"":""run_exp/static/images/task_images/rocket-01.jpg"",""time"":0},{""stimulus"":""run_exp/static/images/task_images/rocket-02.jpg"",""time"":1111},{""stimulus"":""run_exp/static/images/task_images/rocket-03.jpg"",""time"":2213},{""stimulus"":""run_exp/static/images/task_images/rocket-04.jpg"",""time"":3316},{""stimulus"":""run_exp/static/images/task_images/rocket-05.jpg"",""time"":4418},{""stimulus"":""run_exp/static/images/task_images/rocket-06.jpg"",""time"":5521},{""stimulus"":""run_exp/static/images/task_images/rocket-07.jpg"",""time"":6637},{""stimulus"":""run_exp/static/images/task_images/rocket-08.jpg"",""time"":7743},{""stimulus"":""run_exp/static/images/task_images/rocket-09.jpg"",""time"":8846}]",[],6,,,,,,,,,,,,,,
alien_welcome,130,502710,0.0-40.0-1.0,"""event"",""trial"",""time""
""focus"",""0"",""0""
""fullscreenenter"",""1"",""2609""
","
","""event"",""trial"",""time""
""focus"",""0"",""0""
","""event"",""trial"",""time""
""fullscreenenter"",""1"",""2609""
","
",,null,run_exp/static/images/task_images/aliens/old_aliens/planet/alien_planet-77.jpg,null,,,,,,,,,,,,,77,"59,39,40,12,61,50,77,45,46,22,18,67,36,62,43,13,35,51,76,72,31,14,58,24,34,19,17,41,57,16,7,29,71,78,49,5,55,54,2,56,79,63,25,65,23,69,27",,,,,,,,,,
land,131,503217,0.0-40.0-2.0,"""event"",""trial"",""time""
""focus"",""0"",""0""
""fullscreenenter"",""1"",""2609""
","
","""event"",""trial"",""time""
""focus"",""0"",""0""
","""event"",""trial"",""time""
""fullscreenenter"",""1"",""2609""
","
",,null,run_exp/static/images/task_images/land.jpg,null,,,,,,,102,,,7,,,,,,,,,,,,,,
dig,132,505246,0.0-40.0-3.0,"""event"",""trial"",""time""
""focus"",""0"",""0""
""fullscreenenter"",""1"",""2609""
","
","""event"",""trial"",""time""
""focus"",""0"",""0""
","""event"",""trial"",""time""
""fullscreenenter"",""1"",""2609""
","
",,,,,,,,,,,,"[{""stimulus"":""run_exp/static/images/task_images/dig.jpg"",""time"":0},{""stimulus"":""run_exp/static/images/task_images/land.jpg"",""time"":671},{""stimulus"":""run_exp/static/images/task_images/dig.jpg"",""time"":1341}]",[],7,,,,,,,,,,,,,,
harvest,133,506260,0.0-40.0-4.0,"""event"",""trial"",""time""
""focus"",""0"",""0""
""fullscreenenter"",""1"",""2609""
","
","""event"",""trial"",""time""
""focus"",""0"",""0""
","""event"",""trial"",""time""
""fullscreenenter"",""1"",""2609""
","
",,null,run_exp/static/images/task_images/gems/102.jpg,null,,,,,,,84,,,7,,,,,102,0.820328058,0.823529412,,,,,,,
decision,134,506704,0.0-40.0-5.0,"""event"",""trial"",""time""
""focus"",""0"",""0""
""fullscreenenter"",""1"",""2609""
","
","""event"",""trial"",""time""
""focus"",""0"",""0""
","""event"",""trial"",""time""
""fullscreenenter"",""1"",""2609""
","
",,442,run_exp/static/images/task_images/land.jpg,65,,,,,,,84,,,7,,,,,,,,161322,1,0,FALSE,,,
dig,135,509301,0.0-41.0-0.0,"""event"",""trial"",""time""
""focus"",""0"",""0""
""fullscreenenter"",""1"",""2609""
","
","""event"",""trial"",""time""
""focus"",""0"",""0""
","""event"",""trial"",""time""
""fullscreenenter"",""1"",""2609""
","
",,,,,,,,,,,,"[{""stimulus"":""run_exp/static/images/task_images/dig.jpg"",""time"":1},{""stimulus"":""run_exp/static/images/task_images/land.jpg"",""time"":860},{""stimulus"":""run_exp/static/images/task_images/dig.jpg"",""time"":1719}]",[],7,,,,,,,,,,,,,,
harvest,136,510304,0.0-41.0-1.0,"""event"",""trial"",""time""
""focus"",""0"",""0""
""fullscreenenter"",""1"",""2609""
","
","""event"",""trial"",""time""
""focus"",""0"",""0""
","""event"",""trial"",""time""
""fullscreenenter"",""1"",""2609""
","
",,null,run_exp/static/images/task_images/gems/84.jpg,null,,,,,,,70,,,7,,,,,84,0.83750826,0.833333333,,,,,,,
decision,137,510363,0.0-41.0-2.0,"""event"",""trial"",""time""
""focus"",""0"",""0""
""fullscreenenter"",""1"",""2609""
","
","""event"",""trial"",""time""
""focus"",""0"",""0""
","""event"",""trial"",""time""
""fullscreenenter"",""1"",""2609""
","
",,57,run_exp/static/images/task_images/land.jpg,65,,,,,,,70,,,7,,,,,,,,164981,1,1,FALSE,,,
dig,138,513341,0.0-42.0-0.0,"""event"",""trial"",""time""
""focus"",""0"",""0""
""fullscreenenter"",""1"",""2609""
","
","""event"",""trial"",""time""
""focus"",""0"",""0""
","""event"",""trial"",""time""
""fullscreenenter"",""1"",""2609""
","
",,,,,,,,,,,,"[{""stimulus"":""run_exp/static/images/task_images/dig.jpg"",""time"":1},{""stimulus"":""run_exp/static/images/task_images/land.jpg"",""time"":987},{""stimulus"":""run_exp/static/images/task_images/dig.jpg"",""time"":1982}]",[],7,,,,,,,,,,,,,,
harvest,139,514354,0.0-42.0-1.0,"""event"",""trial"",""time""
""focus"",""0"",""0""
""fullscreenenter"",""1"",""2609""
","
","""event"",""trial"",""time""
""focus"",""0"",""0""
","""event"",""trial"",""time""
""fullscreenenter"",""1"",""2609""
","
",,null,run_exp/static/images/task_images/gems/70.jpg,null,,,,,,,58,,,7,,,,,70,0.827537146,0.828571429,,,,,,,
decision,140,514673,0.0-42.0-2.0,"""event"",""trial"",""time""
""focus"",""0"",""0""
""fullscreenenter"",""1"",""2609""
","
","""event"",""trial"",""time""
""focus"",""0"",""0""
","""event"",""trial"",""time""
""fullscreenenter"",""1"",""2609""
","
",,318,run_exp/static/images/task_images/land.jpg,65,,,,,,,58,,,7,,,,,,,,169291,1,2,FALSE,,,
dig,141,517395,0.0-43.0-0.0,"""event"",""trial"",""time""
""focus"",""0"",""0""
""fullscreenenter"",""1"",""2609""
","
","""event"",""trial"",""time""
""focus"",""0"",""0""
","""event"",""trial"",""time""
""fullscreenenter"",""1"",""2609""
","
",,,,,,,,,,,,"[{""stimulus"":""run_exp/static/images/task_images/dig.jpg"",""time"":0},{""stimulus"":""run_exp/static/images/task_images/land.jpg"",""time"":907},{""stimulus"":""run_exp/static/images/task_images/dig.jpg"",""time"":1815}]",[],7,,,,,,,,,,,,,,
harvest,142,518411,0.0-43.0-1.0,"""event"",""trial"",""time""
""focus"",""0"",""0""
""fullscreenenter"",""1"",""2609""
","
","""event"",""trial"",""time""
""focus"",""0"",""0""
","""event"",""trial"",""time""
""fullscreenenter"",""1"",""2609""
","
",,null,run_exp/static/images/task_images/gems/58.jpg,null,,,,,,,50,,,7,,,,,58,0.854153983,0.862068966,,,,,,,
decision,143,518506,0.0-43.0-2.0,"""event"",""trial"",""time""
""focus"",""0"",""0""
""fullscreenenter"",""1"",""2609""
","
","""event"",""trial"",""time""
""focus"",""0"",""0""
","""event"",""trial"",""time""
""fullscreenenter"",""1"",""2609""
","
",,94,run_exp/static/images/task_images/land.jpg,65,,,,,,,50,,,7,,,,,,,,173125,1,3,FALSE,,,
dig,144,521446,0.0-44.0-0.0,"""event"",""trial"",""time""
""focus"",""0"",""0""
""fullscreenenter"",""1"",""2609""
","
","""event"",""trial"",""time""
""focus"",""0"",""0""
","""event"",""trial"",""time""
""fullscreenenter"",""1"",""2609""
","
",,,,,,,,,,,,"[{""stimulus"":""run_exp/static/images/task_images/dig.jpg"",""time"":1},{""stimulus"":""run_exp/static/images/task_images/land.jpg"",""time"":974},{""stimulus"":""run_exp/static/images/task_images/dig.jpg"",""time"":1951}]",[],7,,,,,,,,,,,,,,
harvest,145,522458,0.0-44.0-1.0,"""event"",""trial"",""time""
""focus"",""0"",""0""
""fullscreenenter"",""1"",""2609""
","
","""event"",""trial"",""time""
""focus"",""0"",""0""
","""event"",""trial"",""time""
""fullscreenenter"",""1"",""2609""
","
",,null,run_exp/static/images/task_images/gems/50.jpg,null,,,,,,,41,,,7,,,,,50,0.82459833,0.82,,,,,,,
decision,146,522644,0.0-44.0-2.0,"""event"",""trial"",""time""
""focus"",""0"",""0""
""fullscreenenter"",""1"",""2609""
","
","""event"",""trial"",""time""
""focus"",""0"",""0""
","""event"",""trial"",""time""
""fullscreenenter"",""1"",""2609""
","
",,183,run_exp/static/images/task_images/land.jpg,76,,,,,,,41,,,7,,,,,,,,177262,1,4,TRUE,,,
travel,147,532514,0.0-45.0-0.0,"""event"",""trial"",""time""
""focus"",""0"",""0""
""fullscreenenter"",""1"",""2609""
","
","""event"",""trial"",""time""
""focus"",""0"",""0""
","""event"",""trial"",""time""
""fullscreenenter"",""1"",""2609""
","
",,,,,,,,,,,,"[{""stimulus"":""run_exp/static/images/task_images/rocket-01.jpg"",""time"":0},{""stimulus"":""run_exp/static/images/task_images/rocket-02.jpg"",""time"":1096},{""stimulus"":""run_exp/static/images/task_images/rocket-03.jpg"",""time"":2190},{""stimulus"":""run_exp/static/images/task_images/rocket-04.jpg"",""time"":3281},{""stimulus"":""run_exp/static/images/task_images/rocket-05.jpg"",""time"":4377},{""stimulus"":""run_exp/static/images/task_images/rocket-06.jpg"",""time"":5481},{""stimulus"":""run_exp/static/images/task_images/rocket-07.jpg"",""time"":6571},{""stimulus"":""run_exp/static/images/task_images/rocket-08.jpg"",""time"":7665},{""stimulus"":""run_exp/static/images/task_images/rocket-09.jpg"",""time"":8761}]",[],7,,,,,,,,,,,,,,
alien_welcome,148,537521,0.0-45.0-1.0,"""event"",""trial"",""time""
""focus"",""0"",""0""
""fullscreenenter"",""1"",""2609""
","
","""event"",""trial"",""time""
""focus"",""0"",""0""
","""event"",""trial"",""time""
""fullscreenenter"",""1"",""2609""
","
",,null,run_exp/static/images/task_images/aliens/old_aliens/planet/alien_planet-45.jpg,null,,,,,,,,,,,,,45,"59,39,40,12,61,50,77,45,46,22,18,67,36,62,43,13,35,51,76,72,31,14,58,24,34,19,17,41,57,16,7,29,71,78,49,5,55,54,2,56,79,63,25,65,23,69,27",,,,,,,,,,
land,149,538029,0.0-45.0-2.0,"""event"",""trial"",""time""
""focus"",""0"",""0""
""fullscreenenter"",""1"",""2609""
","
","""event"",""trial"",""time""
""focus"",""0"",""0""
","""event"",""trial"",""time""
""fullscreenenter"",""1"",""2609""
","
",,null,run_exp/static/images/task_images/land.jpg,null,,,,,,,98,,,8,,,,,,,,,,,,,,
dig,150,540053,0.0-45.0-3.0,"""event"",""trial"",""time""
""focus"",""0"",""0""
""fullscreenenter"",""1"",""2609""
","
","""event"",""trial"",""time""
""focus"",""0"",""0""
","""event"",""trial"",""time""
""fullscreenenter"",""1"",""2609""
","
",,,,,,,,,,,,"[{""stimulus"":""run_exp/static/images/task_images/dig.jpg"",""time"":0},{""stimulus"":""run_exp/static/images/task_images/land.jpg"",""time"":670},{""stimulus"":""run_exp/static/images/task_images/dig.jpg"",""time"":1339}]",[],8,,,,,,,,,,,,,,
harvest,151,541065,0.0-45.0-4.0,"""event"",""trial"",""time""
""focus"",""0"",""0""
""fullscreenenter"",""1"",""2609""
","
","""event"",""trial"",""time""
""focus"",""0"",""0""
","""event"",""trial"",""time""
""fullscreenenter"",""1"",""2609""
","
",,null,run_exp/static/images/task_images/gems/98.jpg,null,,,,,,,72,,,8,,,,,98,0.737166164,0.734693878,,,,,,,
decision,152,541497,0.0-45.0-5.0,"""event"",""trial"",""time""
""focus"",""0"",""0""
""fullscreenenter"",""1"",""2609""
","
","""event"",""trial"",""time""
""focus"",""0"",""0""
","""event"",""trial"",""time""
""fullscreenenter"",""1"",""2609""
","
",,430,run_exp/static/images/task_images/land.jpg,65,,,,,,,72,,,8,,,,,,,,196115,1,0,FALSE,,,
dig,153,544097,0.0-46.0-0.0,"""event"",""trial"",""time""
""focus"",""0"",""0""
""fullscreenenter"",""1"",""2609""
","
","""event"",""trial"",""time""
""focus"",""0"",""0""
","""event"",""trial"",""time""
""fullscreenenter"",""1"",""2609""
","
",,,,,,,,,,,,"[{""stimulus"":""run_exp/static/images/task_images/dig.jpg"",""time"":0},{""stimulus"":""run_exp/static/images/task_images/land.jpg"",""time"":858},{""stimulus"":""run_exp/static/images/task_images/dig.jpg"",""time"":1721}]",[],8,,,,,,,,,,,,,,
harvest,154,545114,0.0-46.0-1.0,"""event"",""trial"",""time""
""focus"",""0"",""0""
""fullscreenenter"",""1"",""2609""
","
","""event"",""trial"",""time""
""focus"",""0"",""0""
","""event"",""trial"",""time""
""fullscreenenter"",""1"",""2609""
","
",,null,run_exp/static/images/task_images/gems/72.jpg,null,,,,,,,55,,,8,,,,,72,0.769544583,0.763888889,,,,,,,
decision,155,545424,0.0-46.0-2.0,"""event"",""trial"",""time""
""focus"",""0"",""0""
""fullscreenenter"",""1"",""2609""
","
","""event"",""trial"",""time""
""focus"",""0"",""0""
","""event"",""trial"",""time""
""fullscreenenter"",""1"",""2609""
","
",,309,run_exp/static/images/task_images/land.jpg,65,,,,,,,55,,,8,,,,,,,,200042,1,1,FALSE,,,
dig,156,548141,0.0-47.0-0.0,"""event"",""trial"",""time""
""focus"",""0"",""0""
""fullscreenenter"",""1"",""2609""
","
","""event"",""trial"",""time""
""focus"",""0"",""0""
","""event"",""trial"",""time""
""fullscreenenter"",""1"",""2609""
","
",,,,,,,,,,,,"[{""stimulus"":""run_exp/static/images/task_images/dig.jpg"",""time"":1},{""stimulus"":""run_exp/static/images/task_images/land.jpg"",""time"":900},{""stimulus"":""run_exp/static/images/task_images/dig.jpg"",""time"":1802}]",[],8,,,,,,,,,,,,,,
harvest,157,549158,0.0-47.0-1.0,"""event"",""trial"",""time""
""focus"",""0"",""0""
""fullscreenenter"",""1"",""2609""
","
","""event"",""trial"",""time""
""focus"",""0"",""0""
","""event"",""trial"",""time""
""fullscreenenter"",""1"",""2609""
","
",,null,run_exp/static/images/task_images/gems/55.jpg,null,,,,,,,45,,,8,,,,,55,0.812932622,0.818181818,,,,,,,
decision,158,549513,0.0-47.0-2.0,"""event"",""trial"",""time""
""focus"",""0"",""0""
""fullscreenenter"",""1"",""2609""
","
","""event"",""trial"",""time""
""focus"",""0"",""0""
","""event"",""trial"",""time""
""fullscreenenter"",""1"",""2609""
","
",,353,run_exp/static/images/task_images/land.jpg,65,,,,,,,45,,,8,,,,,,,,204131,1,2,FALSE,,,
dig,159,552208,0.0-48.0-0.0,"""event"",""trial"",""time""
""focus"",""0"",""0""
""fullscreenenter"",""1"",""2609""
","
","""event"",""trial"",""time""
""focus"",""0"",""0""
","""event"",""trial"",""time""
""fullscreenenter"",""1"",""2609""
","
",,,,,,,,,,,,"[{""stimulus"":""run_exp/static/images/task_images/dig.jpg"",""time"":0},{""stimulus"":""run_exp/static/images/task_images/land.jpg"",""time"":894},{""stimulus"":""run_exp/static/images/task_images/dig.jpg"",""time"":1785}]",[],8,,,,,,,,,,,,,,
harvest,160,553214,0.0-48.0-1.0,"""event"",""trial"",""time""
""focus"",""0"",""0""
""fullscreenenter"",""1"",""2609""
","
","""event"",""trial"",""time""
""focus"",""0"",""0""
","""event"",""trial"",""time""
""fullscreenenter"",""1"",""2609""
","
",,null,run_exp/static/images/task_images/gems/45.jpg,null,,,,,,,38,,,8,,,,,45,0.836730836,0.844444444,,,,,,,
decision,161,553853,0.0-48.0-2.0,"""event"",""trial"",""time""
""focus"",""0"",""0""
""fullscreenenter"",""1"",""2609""
","
","""event"",""trial"",""time""
""focus"",""0"",""0""
","""event"",""trial"",""time""
""fullscreenenter"",""1"",""2609""
","
",,638,run_exp/static/images/task_images/land.jpg,76,,,,,,,38,,,8,,,,,,,,208471,1,3,TRUE,,,
travel,162,563304,0.0-49.0-0.0,"""event"",""trial"",""time""
""focus"",""0"",""0""
""fullscreenenter"",""1"",""2609""
","
","""event"",""trial"",""time""
""focus"",""0"",""0""
","""event"",""trial"",""time""
""fullscreenenter"",""1"",""2609""
","
",,,,,,,,,,,,"[{""stimulus"":""run_exp/static/images/task_images/rocket-01.jpg"",""time"":0},{""stimulus"":""run_exp/static/images/task_images/rocket-02.jpg"",""time"":1056},{""stimulus"":""run_exp/static/images/task_images/rocket-03.jpg"",""time"":2099},{""stimulus"":""run_exp/static/images/task_images/rocket-04.jpg"",""time"":3156},{""stimulus"":""run_exp/static/images/task_images/rocket-05.jpg"",""time"":4196},{""stimulus"":""run_exp/static/images/task_images/rocket-06.jpg"",""time"":5257},{""stimulus"":""run_exp/static/images/task_images/rocket-07.jpg"",""time"":6301},{""stimulus"":""run_exp/static/images/task_images/rocket-08.jpg"",""time"":7347},{""stimulus"":""run_exp/static/images/task_images/rocket-09.jpg"",""time"":8393}]",[],8,,,,,,,,,,,,,,
alien_welcome,163,568316,0.0-49.0-1.0,"""event"",""trial"",""time""
""focus"",""0"",""0""
""fullscreenenter"",""1"",""2609""
","
","""event"",""trial"",""time""
""focus"",""0"",""0""
","""event"",""trial"",""time""
""fullscreenenter"",""1"",""2609""
","
",,null,run_exp/static/images/task_images/aliens/old_aliens/planet/alien_planet-46.jpg,null,,,,,,,,,,,,,46,"59,39,40,12,61,50,77,45,46,22,18,67,36,62,43,13,35,51,76,72,31,14,58,24,34,19,17,41,57,16,7,29,71,78,49,5,55,54,2,56,79,63,25,65,23,69,27",,,,,,,,,,
land,164,568821,0.0-49.0-2.0,"""event"",""trial"",""time""
""focus"",""0"",""0""
""fullscreenenter"",""1"",""2609""
","
","""event"",""trial"",""time""
""focus"",""0"",""0""
","""event"",""trial"",""time""
""fullscreenenter"",""1"",""2609""
","
",,null,run_exp/static/images/task_images/land.jpg,null,,,,,,,107,,,9,,,,,,,,,,,,,,
dig,165,570847,0.0-49.0-3.0,"""event"",""trial"",""time""
""focus"",""0"",""0""
""fullscreenenter"",""1"",""2609""
","
","""event"",""trial"",""time""
""focus"",""0"",""0""
","""event"",""trial"",""time""
""fullscreenenter"",""1"",""2609""
","
",,,,,,,,,,,,"[{""stimulus"":""run_exp/static/images/task_images/dig.jpg"",""time"":0},{""stimulus"":""run_exp/static/images/task_images/land.jpg"",""time"":674},{""stimulus"":""run_exp/static/images/task_images/dig.jpg"",""time"":1344}]",[],9,,,,,,,,,,,,,,
harvest,166,571862,0.0-49.0-4.0,"""event"",""trial"",""time""
""focus"",""0"",""0""
""fullscreenenter"",""1"",""2609""
","
","""event"",""trial"",""time""
""focus"",""0"",""0""
","""event"",""trial"",""time""
""fullscreenenter"",""1"",""2609""
","
",,null,run_exp/static/images/task_images/gems/107.jpg,null,,,,,,,29,,,9,,,,,107,0.273784703,0.271028037,,,,,,,
decision,167,572343,0.0-49.0-5.0,"""event"",""trial"",""time""
""focus"",""0"",""0""
""fullscreenenter"",""1"",""2609""
","
","""event"",""trial"",""time""
""focus"",""0"",""0""
","""event"",""trial"",""time""
""fullscreenenter"",""1"",""2609""
","
",,481,run_exp/static/images/task_images/land.jpg,65,,,,,,,29,,,9,,,,,,,,226962,1,0,FALSE,,,
dig,168,574909,0.0-50.0-0.0,"""event"",""trial"",""time""
""focus"",""0"",""0""
""fullscreenenter"",""1"",""2609""
","
","""event"",""trial"",""time""
""focus"",""0"",""0""
","""event"",""trial"",""time""
""fullscreenenter"",""1"",""2609""
","
",,,,,,,,,,,,"[{""stimulus"":""run_exp/static/images/task_images/dig.jpg"",""time"":0},{""stimulus"":""run_exp/static/images/task_images/land.jpg"",""time"":854},{""stimulus"":""run_exp/static/images/task_images/dig.jpg"",""time"":1704}]",[],9,,,,,,,,,,,,,,
harvest,169,575912,0.0-50.0-1.0,"""event"",""trial"",""time""
""focus"",""0"",""0""
""fullscreenenter"",""1"",""2609""
","
","""event"",""trial"",""time""
""focus"",""0"",""0""
","""event"",""trial"",""time""
""fullscreenenter"",""1"",""2609""
","
",,null,run_exp/static/images/task_images/gems/29.jpg,null,,,,,,,6,,,9,,,,,29,0.198431134,0.206896552,,,,,,,
decision,170,576076,0.0-50.0-2.0,"""event"",""trial"",""time""
""focus"",""0"",""0""
""fullscreenenter"",""1"",""2609""
","
","""event"",""trial"",""time""
""focus"",""0"",""0""
","""event"",""trial"",""time""
""fullscreenenter"",""1"",""2609""
","
",,162,run_exp/static/images/task_images/land.jpg,76,,,,,,,6,,,9,,,,,,,,230694,1,1,TRUE,,,
travel,171,585990,0.0-51.0-0.0,"""event"",""trial"",""time""
""focus"",""0"",""0""
""fullscreenenter"",""1"",""2609""
","
","""event"",""trial"",""time""
""focus"",""0"",""0""
","""event"",""trial"",""time""
""fullscreenenter"",""1"",""2609""
","
",,,,,,,,,,,,"[{""stimulus"":""run_exp/static/images/task_images/rocket-01.jpg"",""time"":0},{""stimulus"":""run_exp/static/images/task_images/rocket-02.jpg"",""time"":1103},{""stimulus"":""run_exp/static/images/task_images/rocket-03.jpg"",""time"":2199},{""stimulus"":""run_exp/static/images/task_images/rocket-04.jpg"",""time"":3294},{""stimulus"":""run_exp/static/images/task_images/rocket-05.jpg"",""time"":4403},{""stimulus"":""run_exp/static/images/task_images/rocket-06.jpg"",""time"":5501},{""stimulus"":""run_exp/static/images/task_images/rocket-07.jpg"",""time"":6596},{""stimulus"":""run_exp/static/images/task_images/rocket-08.jpg"",""time"":7696},{""stimulus"":""run_exp/static/images/task_images/rocket-09.jpg"",""time"":8794}]",[],9,,,,,,,,,,,,,,
alien_welcome,172,591002,0.0-51.0-1.0,"""event"",""trial"",""time""
""focus"",""0"",""0""
""fullscreenenter"",""1"",""2609""
","
","""event"",""trial"",""time""
""focus"",""0"",""0""
","""event"",""trial"",""time""
""fullscreenenter"",""1"",""2609""
","
",,null,run_exp/static/images/task_images/aliens/old_aliens/planet/alien_planet-22.jpg,null,,,,,,,,,,,,,22,"59,39,40,12,61,50,77,45,46,22,18,67,36,62,43,13,35,51,76,72,31,14,58,24,34,19,17,41,57,16,7,29,71,78,49,5,55,54,2,56,79,63,25,65,23,69,27",,,,,,,,,,
land,173,591506,0.0-51.0-2.0,"""event"",""trial"",""time""
""focus"",""0"",""0""
""fullscreenenter"",""1"",""2609""
","
","""event"",""trial"",""time""
""focus"",""0"",""0""
","""event"",""trial"",""time""
""fullscreenenter"",""1"",""2609""
","
",,null,run_exp/static/images/task_images/land.jpg,null,,,,,,,109,,,10,,,,,,,,,,,,,,
dig,174,593539,0.0-51.0-3.0,"""event"",""trial"",""time""
""focus"",""0"",""0""
""fullscreenenter"",""1"",""2609""
","
","""event"",""trial"",""time""
""focus"",""0"",""0""
","""event"",""trial"",""time""
""fullscreenenter"",""1"",""2609""
","
",,,,,,,,,,,,"[{""stimulus"":""run_exp/static/images/task_images/dig.jpg"",""time"":0},{""stimulus"":""run_exp/static/images/task_images/land.jpg"",""time"":682},{""stimulus"":""run_exp/static/images/task_images/dig.jpg"",""time"":1354}]",[],10,,,,,,,,,,,,,,
harvest,175,594546,0.0-51.0-4.0,"""event"",""trial"",""time""
""focus"",""0"",""0""
""fullscreenenter"",""1"",""2609""
","
","""event"",""trial"",""time""
""focus"",""0"",""0""
","""event"",""trial"",""time""
""fullscreenenter"",""1"",""2609""
","
",,null,run_exp/static/images/task_images/gems/109.jpg,null,,,,,,,21,,,10,,,,,109,0.19054021,0.19266055,,,,,,,
decision,176,594965,0.0-51.0-5.0,"""event"",""trial"",""time""
""focus"",""0"",""0""
""fullscreenenter"",""1"",""2609""
","
","""event"",""trial"",""time""
""focus"",""0"",""0""
","""event"",""trial"",""time""
""fullscreenenter"",""1"",""2609""
","
",,416,run_exp/static/images/task_images/land.jpg,65,,,,,,,21,,,10,,,,,,,,249583,1,0,FALSE,,,
dig,177,597585,0.0-52.0-0.0,"""event"",""trial"",""time""
""focus"",""0"",""0""
""fullscreenenter"",""1"",""2609""
","
","""event"",""trial"",""time""
""focus"",""0"",""0""
","""event"",""trial"",""time""
""fullscreenenter"",""1"",""2609""
","
",,,,,,,,,,,,"[{""stimulus"":""run_exp/static/images/task_images/dig.jpg"",""time"":0},{""stimulus"":""run_exp/static/images/task_images/land.jpg"",""time"":871},{""stimulus"":""run_exp/static/images/task_images/dig.jpg"",""time"":1745}]",[],10,,,,,,,,,,,,,,
harvest,178,598592,0.0-52.0-1.0,"""event"",""trial"",""time""
""focus"",""0"",""0""
""fullscreenenter"",""1"",""2609""
","
","""event"",""trial"",""time""
""focus"",""0"",""0""
","""event"",""trial"",""time""
""fullscreenenter"",""1"",""2609""
","
",,null,run_exp/static/images/task_images/gems/21.jpg,null,,,,,,,4,,,10,,,,,21,0.204911544,0.19047619,,,,,,,
decision,179,599134,0.0-52.0-2.0,"""event"",""trial"",""time""
""focus"",""0"",""0""
""fullscreenenter"",""1"",""2609""
","
","""event"",""trial"",""time""
""focus"",""0"",""0""
","""event"",""trial"",""time""
""fullscreenenter"",""1"",""2609""
","
",,540,run_exp/static/images/task_images/land.jpg,76,,,,,,,4,,,10,,,,,,,,253752,1,1,TRUE,,,
travel,180,608688,0.0-53.0-0.0,"""event"",""trial"",""time""
""focus"",""0"",""0""
""fullscreenenter"",""1"",""2609""
","
","""event"",""trial"",""time""
""focus"",""0"",""0""
","""event"",""trial"",""time""
""fullscreenenter"",""1"",""2609""
","
",,,,,,,,,,,,"[{""stimulus"":""run_exp/static/images/task_images/rocket-01.jpg"",""time"":1},{""stimulus"":""run_exp/static/images/task_images/rocket-02.jpg"",""time"":1059},{""stimulus"":""run_exp/static/images/task_images/rocket-03.jpg"",""time"":2122},{""stimulus"":""run_exp/static/images/task_images/rocket-04.jpg"",""time"":3179},{""stimulus"":""run_exp/static/images/task_images/rocket-05.jpg"",""time"":4244},{""stimulus"":""run_exp/static/images/task_images/rocket-06.jpg"",""time"":5298},{""stimulus"":""run_exp/static/images/task_images/rocket-07.jpg"",""time"":6364},{""stimulus"":""run_exp/static/images/task_images/rocket-08.jpg"",""time"":7414},{""stimulus"":""run_exp/static/images/task_images/rocket-09.jpg"",""time"":8479}]",[],10,,,,,,,,,,,,,,
alien_welcome,181,613697,0.0-53.0-1.0,"""event"",""trial"",""time""
""focus"",""0"",""0""
""fullscreenenter"",""1"",""2609""
","
","""event"",""trial"",""time""
""focus"",""0"",""0""
","""event"",""trial"",""time""
""fullscreenenter"",""1"",""2609""
","
",,null,run_exp/static/images/task_images/aliens/old_aliens/planet/alien_planet-18.jpg,null,,,,,,,,,,,,,18,"59,39,40,12,61,50,77,45,46,22,18,67,36,62,43,13,35,51,76,72,31,14,58,24,34,19,17,41,57,16,7,29,71,78,49,5,55,54,2,56,79,63,25,65,23,69,27",,,,,,,,,,
land,182,614203,0.0-53.0-2.0,"""event"",""trial"",""time""
""focus"",""0"",""0""
""fullscreenenter"",""1"",""2609""
","
","""event"",""trial"",""time""
""focus"",""0"",""0""
","""event"",""trial"",""time""
""fullscreenenter"",""1"",""2609""
","
",,null,run_exp/static/images/task_images/land.jpg,null,,,,,,,90,,,11,,,,,,,,,,,,,,
dig,183,616234,0.0-53.0-3.0,"""event"",""trial"",""time""
""focus"",""0"",""0""
""fullscreenenter"",""1"",""2609""
","
","""event"",""trial"",""time""
""focus"",""0"",""0""
","""event"",""trial"",""time""
""fullscreenenter"",""1"",""2609""
","
",,,,,,,,,,,,"[{""stimulus"":""run_exp/static/images/task_images/dig.jpg"",""time"":1},{""stimulus"":""run_exp/static/images/task_images/land.jpg"",""time"":674},{""stimulus"":""run_exp/static/images/task_images/dig.jpg"",""time"":1355}]",[],11,,,,,,,,,,,,,,
harvest,184,617242,0.0-53.0-4.0,"""event"",""trial"",""time""
""focus"",""0"",""0""
""fullscreenenter"",""1"",""2609""
","
","""event"",""trial"",""time""
""focus"",""0"",""0""
","""event"",""trial"",""time""
""fullscreenenter"",""1"",""2609""
","
",,null,run_exp/static/images/task_images/gems/90.jpg,null,,,,,,,10,,,11,,,,,90,0.108420166,0.111111111,,,,,,,
decision,185,617914,0.0-53.0-5.0,"""event"",""trial"",""time""
""focus"",""0"",""0""
""fullscreenenter"",""1"",""2609""
","
","""event"",""trial"",""time""
""focus"",""0"",""0""
","""event"",""trial"",""time""
""fullscreenenter"",""1"",""2609""
","
",,670,run_exp/static/images/task_images/land.jpg,65,,,,,,,10,,,11,,,,,,,,272532,1,0,FALSE,,,
dig,186,620273,0.0-54.0-0.0,"""event"",""trial"",""time""
""focus"",""0"",""0""
""fullscreenenter"",""1"",""2609""
","
","""event"",""trial"",""time""
""focus"",""0"",""0""
","""event"",""trial"",""time""
""fullscreenenter"",""1"",""2609""
","
",,,,,,,,,,,,"[{""stimulus"":""run_exp/static/images/task_images/dig.jpg"",""time"":1},{""stimulus"":""run_exp/static/images/task_images/land.jpg"",""time"":789},{""stimulus"":""run_exp/static/images/task_images/dig.jpg"",""time"":1568}]",[],11,,,,,,,,,,,,,,
harvest,187,621283,0.0-54.0-1.0,"""event"",""trial"",""time""
""focus"",""0"",""0""
""fullscreenenter"",""1"",""2609""
","
","""event"",""trial"",""time""
""focus"",""0"",""0""
","""event"",""trial"",""time""
""fullscreenenter"",""1"",""2609""
","
",,null,run_exp/static/images/task_images/gems/10.jpg,null,,,,,,,2,,,11,,,,,10,0.159020827,0.2,,,,,,,
decision,188,622155,0.0-54.0-2.0,"""event"",""trial"",""time""
""focus"",""0"",""0""
""fullscreenenter"",""1"",""2609""
","
","""event"",""trial"",""time""
""focus"",""0"",""0""
","""event"",""trial"",""time""
""fullscreenenter"",""1"",""2609""
","
",,870,run_exp/static/images/task_images/land.jpg,76,,,,,,,2,,,11,,,,,,,,276773,1,1,TRUE,,,
travel,189,631356,0.0-55.0-0.0,"""event"",""trial"",""time""
""focus"",""0"",""0""
""fullscreenenter"",""1"",""2609""
","
","""event"",""trial"",""time""
""focus"",""0"",""0""
","""event"",""trial"",""time""
""fullscreenenter"",""1"",""2609""
","
",,,,,,,,,,,,"[{""stimulus"":""run_exp/static/images/task_images/rocket-01.jpg"",""time"":1},{""stimulus"":""run_exp/static/images/task_images/rocket-02.jpg"",""time"":1017},{""stimulus"":""run_exp/static/images/task_images/rocket-03.jpg"",""time"":2043},{""stimulus"":""run_exp/static/images/task_images/rocket-04.jpg"",""time"":3067},{""stimulus"":""run_exp/static/images/task_images/rocket-05.jpg"",""time"":4080},{""stimulus"":""run_exp/static/images/task_images/rocket-06.jpg"",""time"":5100},{""stimulus"":""run_exp/static/images/task_images/rocket-07.jpg"",""time"":6120},{""stimulus"":""run_exp/static/images/task_images/rocket-08.jpg"",""time"":7136},{""stimulus"":""run_exp/static/images/task_images/rocket-09.jpg"",""time"":8163}]",[],11,,,,,,,,,,,,,,
alien_welcome,190,636361,0.0-55.0-1.0,"""event"",""trial"",""time""
""focus"",""0"",""0""
""fullscreenenter"",""1"",""2609""
","
","""event"",""trial"",""time""
""focus"",""0"",""0""
","""event"",""trial"",""time""
""fullscreenenter"",""1"",""2609""
","
",,null,run_exp/static/images/task_images/aliens/old_aliens/planet/alien_planet-67.jpg,null,,,,,,,,,,,,,67,"59,39,40,12,61,50,77,45,46,22,18,67,36,62,43,13,35,51,76,72,31,14,58,24,34,19,17,41,57,16,7,29,71,78,49,5,55,54,2,56,79,63,25,65,23,69,27",,,,,,,,,,
land,191,636867,0.0-55.0-2.0,"""event"",""trial"",""time""
""focus"",""0"",""0""
""fullscreenenter"",""1"",""2609""
","
","""event"",""trial"",""time""
""focus"",""0"",""0""
","""event"",""trial"",""time""
""fullscreenenter"",""1"",""2609""
","
",,null,run_exp/static/images/task_images/land.jpg,null,,,,,,,105,,,12,,,,,,,,,,,,,,
dig,192,638917,0.0-55.0-3.0,"""event"",""trial"",""time""
""focus"",""0"",""0""
""fullscreenenter"",""1"",""2609""
","
","""event"",""trial"",""time""
""focus"",""0"",""0""
","""event"",""trial"",""time""
""fullscreenenter"",""1"",""2609""
","
",,,,,,,,,,,,"[{""stimulus"":""run_exp/static/images/task_images/dig.jpg"",""time"":0},{""stimulus"":""run_exp/static/images/task_images/land.jpg"",""time"":684},{""stimulus"":""run_exp/static/images/task_images/dig.jpg"",""time"":1358}]",[],12,,,,,,,,,,,,,,
harvest,193,639933,0.0-55.0-4.0,"""event"",""trial"",""time""
""focus"",""0"",""0""
""fullscreenenter"",""1"",""2609""
","
","""event"",""trial"",""time""
""focus"",""0"",""0""
","""event"",""trial"",""time""
""fullscreenenter"",""1"",""2609""
","
",,null,run_exp/static/images/task_images/gems/105.jpg,null,,,,,,,21,,,12,,,,,105,0.202277795,0.2,,,,,,,
decision,194,640394,0.0-55.0-5.0,"""event"",""trial"",""time""
""focus"",""0"",""0""
""fullscreenenter"",""1"",""2609""
","
","""event"",""trial"",""time""
""focus"",""0"",""0""
","""event"",""trial"",""time""
""fullscreenenter"",""1"",""2609""
","
",,459,run_exp/static/images/task_images/land.jpg,65,,,,,,,21,,,12,,,,,,,,295012,1,0,FALSE,,,
dig,195,642969,0.0-56.0-0.0,"""event"",""trial"",""time""
""focus"",""0"",""0""
""fullscreenenter"",""1"",""2609""
","
","""event"",""trial"",""time""
""focus"",""0"",""0""
","""event"",""trial"",""time""
""fullscreenenter"",""1"",""2609""
","
",,,,,,,,,,,,"[{""stimulus"":""run_exp/static/images/task_images/dig.jpg"",""time"":0},{""stimulus"":""run_exp/static/images/task_images/land.jpg"",""time"":856},{""stimulus"":""run_exp/static/images/task_images/dig.jpg"",""time"":1709}]",[],12,,,,,,,,,,,,,,
harvest,196,643976,0.0-56.0-1.0,"""event"",""trial"",""time""
""focus"",""0"",""0""
""fullscreenenter"",""1"",""2609""
","
","""event"",""trial"",""time""
""focus"",""0"",""0""
","""event"",""trial"",""time""
""fullscreenenter"",""1"",""2609""
","
",,null,run_exp/static/images/task_images/gems/21.jpg,null,,,,,,,3,,,12,,,,,21,0.145582963,0.142857143,,,,,,,
decision,197,644014,0.0-56.0-2.0,"""event"",""trial"",""time""
""focus"",""0"",""0""
""fullscreenenter"",""1"",""2609""
","
","""event"",""trial"",""time""
""focus"",""0"",""0""
","""event"",""trial"",""time""
""fullscreenenter"",""1"",""2609""
","
",,37,run_exp/static/images/task_images/land.jpg,76,,,,,,,3,,,12,,,,,,,,298633,1,1,TRUE,,,
travel,198,654064,0.0-57.0-0.0,"""event"",""trial"",""time""
""focus"",""0"",""0""
""fullscreenenter"",""1"",""2609""
","
","""event"",""trial"",""time""
""focus"",""0"",""0""
","""event"",""trial"",""time""
""fullscreenenter"",""1"",""2609""
","
",,,,,,,,,,,,"[{""stimulus"":""run_exp/static/images/task_images/rocket-01.jpg"",""time"":0},{""stimulus"":""run_exp/static/images/task_images/rocket-02.jpg"",""time"":1111},{""stimulus"":""run_exp/static/images/task_images/rocket-03.jpg"",""time"":2231},{""stimulus"":""run_exp/static/images/task_images/rocket-04.jpg"",""time"":3340},{""stimulus"":""run_exp/static/images/task_images/rocket-05.jpg"",""time"":4456},{""stimulus"":""run_exp/static/images/task_images/rocket-06.jpg"",""time"":5577},{""stimulus"":""run_exp/static/images/task_images/rocket-07.jpg"",""time"":6697},{""stimulus"":""run_exp/static/images/task_images/rocket-08.jpg"",""time"":7813},{""stimulus"":""run_exp/static/images/task_images/rocket-09.jpg"",""time"":8925}]",[],12,,,,,,,,,,,,,,
alien_welcome,199,659076,0.0-57.0-1.0,"""event"",""trial"",""time""
""focus"",""0"",""0""
""fullscreenenter"",""1"",""2609""
","
","""event"",""trial"",""time""
""focus"",""0"",""0""
","""event"",""trial"",""time""
""fullscreenenter"",""1"",""2609""
","
",,null,run_exp/static/images/task_images/aliens/old_aliens/planet/alien_planet-36.jpg,null,,,,,,,,,,,,,36,"59,39,40,12,61,50,77,45,46,22,18,67,36,62,43,13,35,51,76,72,31,14,58,24,34,19,17,41,57,16,7,29,71,78,49,5,55,54,2,56,79,63,25,65,23,69,27",,,,,,,,,,
land,200,659592,0.0-57.0-2.0,"""event"",""trial"",""time""
""focus"",""0"",""0""
""fullscreenenter"",""1"",""2609""
","
","""event"",""trial"",""time""
""focus"",""0"",""0""
","""event"",""trial"",""time""
""fullscreenenter"",""1"",""2609""
","
",,null,run_exp/static/images/task_images/land.jpg,null,,,,,,,97,,,13,,,,,,,,,,,,,,
dig,201,661627,0.0-57.0-3.0,"""event"",""trial"",""time""
""focus"",""0"",""0""
""fullscreenenter"",""1"",""2609""
","
","""event"",""trial"",""time""
""focus"",""0"",""0""
","""event"",""trial"",""time""
""fullscreenenter"",""1"",""2609""
","
",,,,,,,,,,,,"[{""stimulus"":""run_exp/static/images/task_images/dig.jpg"",""time"":0},{""stimulus"":""run_exp/static/images/task_images/land.jpg"",""time"":682},{""stimulus"":""run_exp/static/images/task_images/dig.jpg"",""time"":1350}]",[],13,,,,,,,,,,,,,,
harvest,202,662639,0.0-57.0-4.0,"""event"",""trial"",""time""
""focus"",""0"",""0""
""fullscreenenter"",""1"",""2609""
","
","""event"",""trial"",""time""
""focus"",""0"",""0""
","""event"",""trial"",""time""
""fullscreenenter"",""1"",""2609""
","
",,null,run_exp/static/images/task_images/gems/97.jpg,null,,,,,,,21,,,13,,,,,97,0.214899089,0.216494845,,,,,,,
decision,203,662995,0.0-57.0-5.0,"""event"",""trial"",""time""
""focus"",""0"",""0""
""fullscreenenter"",""1"",""2609""
","
","""event"",""trial"",""time""
""focus"",""0"",""0""
","""event"",""trial"",""time""
""fullscreenenter"",""1"",""2609""
","
",,354,run_exp/static/images/task_images/land.jpg,65,,,,,,,21,,,13,,,,,,,,317613,1,0,TRUE,,,
end_of_block_continue,204,671907,0.0-58.0-0.0,"""event"",""trial"",""time""
""focus"",""0"",""0""
""fullscreenenter"",""1"",""2609""
","
","""event"",""trial"",""time""
""focus"",""0"",""0""
","""event"",""trial"",""time""
""fullscreenenter"",""1"",""2609""
","
",,null,run_exp/static/audio/clip_32_block_end.m4a,,,,,,,null,,,,,,,,,,,,,,,,,,
alien_welcome,205,676915,0.0-59.0-0.0,"""event"",""trial"",""time""
""focus"",""0"",""0""
""fullscreenenter"",""1"",""2609""
","
","""event"",""trial"",""time""
""focus"",""0"",""0""
","""event"",""trial"",""time""
""fullscreenenter"",""1"",""2609""
","
