trial_type,trial_index,time_elapsed,internal_node_id,interactions,blur_events,focus_events,fullscreenenter_events,fullscreenexit_events,success,rt,stimulus,key_press,prompt,subject_id,participant_id,age,gender,button_pressed,next_reward,animation_sequence,responses,planet,curr_prac_trial,n_prac_rounds,alien,aliens,reward_received,decay_rate_actual,decay_rate_exp,time_in_block,block_num,prt,last_trial_on_planet,button_html,bonus,num_failures
pavlovia,0,6,0.0-0.0,"""event"",""trial"",""time""
""blur"",""0"",""0""
""focus"",""0"",""0""
""fullscreenenter"",""1"",""3052""
","""event"",""trial"",""time""
""blur"",""0"",""0""
","""event"",""trial"",""time""
""focus"",""0"",""0""
","""event"",""trial"",""time""
""fullscreenenter"",""1"",""3052""
","
",,,,,,,,,,,,,,,,,,,,,,,,,,,,
fullscreen,1,4042,0.0-1.0,"""event"",""trial"",""time""
""blur"",""0"",""0""
""focus"",""0"",""0""
""fullscreenenter"",""1"",""3052""
","""event"",""trial"",""time""
""blur"",""0"",""0""
","""event"",""trial"",""time""
""focus"",""0"",""0""
","""event"",""trial"",""time""
""fullscreenenter"",""1"",""3052""
","
",TRUE,,,,,,,,,,,,,,,,,,,,,,,,,,,
instruc_welcome,2,13900,0.0-2.0,"""event"",""trial"",""time""
""blur"",""0"",""0""
""focus"",""0"",""0""
""fullscreenenter"",""1"",""3052""
","""event"",""trial"",""time""
""blur"",""0"",""0""
","""event"",""trial"",""time""
""focus"",""0"",""0""
","""event"",""trial"",""time""
""fullscreenenter"",""1"",""3052""
","
",,null,run_exp/static/audio/clip_1_welcome.m4a,null,"<p>Howdy! In this experiment, you’ll be an explorer traveling through space to collect space treasure.</p><p>Your mission is to collect as much treasure as possible.</p><br><br><p><img src='run_exp/static/images/task_images/opening_img-01.jpg' height='300' width='auto'></p>",8547,741,24.54,Female,,,,,,,,,,,,,,,,,,,
audio-keyboard-response,3,30480,0.0-3.0,"""event"",""trial"",""time""
""blur"",""0"",""0""
""focus"",""0"",""0""
""fullscreenenter"",""1"",""3052""
","""event"",""trial"",""time""
""blur"",""0"",""0""
","""event"",""trial"",""time""
""focus"",""0"",""0""
","""event"",""trial"",""time""
""fullscreenenter"",""1"",""3052""
","
",,null,run_exp/static/audio/clip_2_move.m4a,null,,,,,,,,,,,,,,,,,,,,,,,,
welcome_dec,4,32892,0.0-4.0,"""event"",""trial"",""time""
""blur"",""0"",""0""
""focus"",""0"",""0""
""fullscreenenter"",""1"",""3052""
","""event"",""trial"",""time""
""blur"",""0"",""0""
","""event"",""trial"",""time""
""focus"",""0"",""0""
","""event"",""trial"",""time""
""fullscreenenter"",""1"",""3052""
","
",,2408.5,"<p>Howdy! In this experiment, you’ll be an explorer traveling through space to collect space treasure.</p><p>Your mission is to collect as much treasure as possible.</p><br><br><p><img src='run_exp/static/images/task_images/opening_img-01.jpg' height='300' width='auto'></p>",,,,,,,1,,,,,,,,,,,,,,,,,,
html-keyboard-response,5,33632,0.0-5.0,"""event"",""trial"",""time""
""blur"",""0"",""0""
""focus"",""0"",""0""
""fullscreenenter"",""1"",""3052""
","""event"",""trial"",""time""
""blur"",""0"",""0""
","""event"",""trial"",""time""
""focus"",""0"",""0""
","""event"",""trial"",""time""
""fullscreenenter"",""1"",""3052""
","
",,737.6,"<p>Howdy! In this experiment, you’ll be an explorer traveling through space to collect space treasure.</p><p>Your mission is to collect as much treasure as possible.</p><br><br><p><img src='run_exp/static/images/task_images/opening_img-01.jpg' height='300' width='auto'></p><button class=""jspsych-html-btn-unchosen""><img src=""run_exp/static/images/task_images/planet-01.jpg"" height=""50""></button><button class=""jspsych-html-btn-chosen""><img src=""run_exp/static/images/task_images/planet-02.jpg"" height=""50""></button><p><b>[press the space bar to lock in your answer]<b><br></p>",32,,,,,,,,,,,,,,,,,,,,,,,,
instruc_goal,6,43700,0.0-6.0-0.0,"""event"",""trial"",""time""
""blur"",""0"",""0""
""focus"",""0"",""0""
""fullscreenenter"",""1"",""3052""
","""event"",""trial"",""time""
""blur"",""0"",""0""
","""event"",""trial"",""time""
""focus"",""0"",""0""
","""event"",""trial"",""time""
""fullscreenenter"",""1"",""3052""
","
",,null,run_exp/static/audio/clip_3_goal.m4a,null,"<p> As a space explorer, you’ll visit different planets to dig for space treasure, these pink gems.</p> <p> The more treasure you dig up, the more bonus money you’ll win! </p><br><br><p><img src='run_exp/static/images/task_images/pink_gem.jpg' height='300' width='auto'></p>",,,,,,,,,,,,,,,,,,,,,,,
instruc_goal,7,44657,0.0-6.0-1.0,"""event"",""trial"",""time""
""blur"",""0"",""0""
""focus"",""0"",""0""
""fullscreenenter"",""1"",""3052""
","""event"",""trial"",""time""
""blur"",""0"",""0""
","""event"",""trial"",""time""
""focus"",""0"",""0""
","""event"",""trial"",""time""
""fullscreenenter"",""1"",""3052""
","
",,954.6,"<p> As a space explorer, you’ll visit different planets to dig for space treasure, these pink gems.</p> <p> The more treasure you dig up, the more bonus money you’ll win! </p><br><br><p><img src='run_exp/static/images/task_images/pink_gem.jpg' height='300' width='auto'></p>",,,,,,,1,,,,,,,,,,,,,,,,,,
html-keyboard-response,8,45244,0.0-6.0-2.0,"""event"",""trial"",""time""
""blur"",""0"",""0""
""focus"",""0"",""0""
""fullscreenenter"",""1"",""3052""
","""event"",""trial"",""time""
""blur"",""0"",""0""
","""event"",""trial"",""time""
""focus"",""0"",""0""
","""event"",""trial"",""time""
""fullscreenenter"",""1"",""3052""
","
",,585.5,"<p> As a space explorer, you’ll visit different planets to dig for space treasure, these pink gems.</p> <p> The more treasure you dig up, the more bonus money you’ll win! </p><br><br><p><img src='run_exp/static/images/task_images/pink_gem.jpg' height='300' width='auto'></p><button class=""jspsych-html-btn-unchosen""><img src=""run_exp/static/images/task_images/planet-01.jpg"" height=""50""></button><button class=""jspsych-html-btn-chosen""><img src=""run_exp/static/images/task_images/planet-02.jpg"" height=""50""></button><p><b>[press the space bar to lock in your answer]<b><br></p>",32,,,,,,,,,,,,,,,,,,,,,,,,
instruc_dig,9,61240,0.0-7.0-0.0,"""event"",""trial"",""time""
""blur"",""0"",""0""
""focus"",""0"",""0""
""fullscreenenter"",""1"",""3052""
","""event"",""trial"",""time""
""blur"",""0"",""0""
","""event"",""trial"",""time""
""focus"",""0"",""0""
","""event"",""trial"",""time""
""fullscreenenter"",""1"",""3052""
","
",,null,run_exp/static/audio/clip_4_dig.m4a,null,,,,,,,100,,,,,,,,,,,,,,,,,
instruc_dig_try,10,61837,0.0-7.0-1.0,"""event"",""trial"",""time""
""blur"",""0"",""0""
""focus"",""0"",""0""
""fullscreenenter"",""1"",""3052""
","""event"",""trial"",""time""
""blur"",""0"",""0""
","""event"",""trial"",""time""
""focus"",""0"",""0""
","""event"",""trial"",""time""
""fullscreenenter"",""1"",""3052""
","
",,595.4,"<p> When you’ve arrived at a new planet, you will dig once. </p> <p>Then, you get to decide if you want to stay on the planet and dig again or travel to a new planet and dig there.</p> <p> To stay and dig, press the letter <strong>‘A’</strong> on your keyboard. Try pressing it now! </p><p><img src='run_exp/static/images/task_images/land.jpg'  height='700' width='auto'></p>",65,"<p> When you’ve arrived at a new planet, you will dig once. </p> <p>Then, you get to decide if you want to stay on the planet and dig again or travel to a new planet and dig there.</p> <p> To stay and dig, press the letter <strong>‘A’</strong> on your keyboard. Try pressing it now! </p><p><img src='run_exp/static/images/task_images/land.jpg'  height='700' width='auto'></p>",,,,,,100,,,,,,,,,,,,,,,,,
dig_prac,11,63866,0.0-7.0-2.0,"""event"",""trial"",""time""
""blur"",""0"",""0""
""focus"",""0"",""0""
""fullscreenenter"",""1"",""3052""
","""event"",""trial"",""time""
""blur"",""0"",""0""
","""event"",""trial"",""time""
""focus"",""0"",""0""
","""event"",""trial"",""time""
""fullscreenenter"",""1"",""3052""
","
",,,,,,,,,,,,"[{""stimulus"":""run_exp/static/images/task_images/dig.jpg"",""time"":0.20000004768371582},{""stimulus"":""run_exp/static/images/task_images/land.jpg"",""time"":674.1000000238419},{""stimulus"":""run_exp/static/images/task_images/dig.jpg"",""time"":1346.7000000476837}]",[],,,,,,,,,,,,,,,
instruc_travel,12,100100,0.0-7.0-3.0,"""event"",""trial"",""time""
""blur"",""0"",""0""
""focus"",""0"",""0""
""fullscreenenter"",""1"",""3052""
","""event"",""trial"",""time""
""blur"",""0"",""0""
","""event"",""trial"",""time""
""focus"",""0"",""0""
","""event"",""trial"",""time""
""fullscreenenter"",""1"",""3052""
","
",,null,run_exp/static/audio/clip_5_travel.m4a,null,"<p>Every time you dig up gems, there are less gems on the planet, so the more you dig on a planet the fewer gems you’ll get with each dig.</p><p>When gems are running low, you may want to travel to a new planet. </p> <p>  Planets are very far apart in this galaxy, so it will take some time to travel between them. </p> <br><p>There are lots and lots of planets for you to visit, so you won’t be able to return to any planets you’ve seen before. </p><br><p>To leave this planet and travel to a new one, press the letter <strong>‘L’</strong> on your keyboard. Try pressing it now! </p><p><img src='run_exp/static/images/task_images/rocket-01.jpg'  height='600' width='auto'></p>",,,,,,,,,,,,,,,,,,,,,,,
instruc_travel_try,13,102431,0.0-7.0-4.0,"""event"",""trial"",""time""
""blur"",""0"",""0""
""focus"",""0"",""0""
""fullscreenenter"",""1"",""3052""
","""event"",""trial"",""time""
""blur"",""0"",""0""
","""event"",""trial"",""time""
""focus"",""0"",""0""
","""event"",""trial"",""time""
""fullscreenenter"",""1"",""3052""
","
",,2329.5,"<p>Every time you dig up gems, there are less gems on the planet, so the more you dig on a planet the fewer gems you’ll get with each dig.</p><p>When gems are running low, you may want to travel to a new planet. </p> <p>  Planets are very far apart in this galaxy, so it will take some time to travel between them. </p> <br><p>There are lots and lots of planets for you to visit, so you won’t be able to return to any planets you’ve seen before. </p><br><p>To leave this planet and travel to a new one, press the letter <strong>‘L’</strong> on your keyboard. Try pressing it now! </p><p><img src='run_exp/static/images/task_images/rocket-01.jpg'  height='600' width='auto'></p>",76,"<p>Every time you dig up gems, there are less gems on the planet, so the more you dig on a planet the fewer gems you’ll get with each dig.</p><p>When gems are running low, you may want to travel to a new planet. </p> <p>  Planets are very far apart in this galaxy, so it will take some time to travel between them. </p> <br><p>There are lots and lots of planets for you to visit, so you won’t be able to return to any planets you’ve seen before. </p><br><p>To leave this planet and travel to a new one, press the letter <strong>‘L’</strong> on your keyboard. Try pressing it now! </p><p><img src='run_exp/static/images/task_images/rocket-01.jpg'  height='600' width='auto'></p>",,,,,,,,,,,,,,,,,,,,,,,
travel_prac,14,112441,0.0-7.0-5.0,"""event"",""trial"",""time""
""blur"",""0"",""0""
""focus"",""0"",""0""
""fullscreenenter"",""1"",""3052""
","""event"",""trial"",""time""
""blur"",""0"",""0""
","""event"",""trial"",""time""
""focus"",""0"",""0""
","""event"",""trial"",""time""
""fullscreenenter"",""1"",""3052""
","
",,,,,,,,,,,,"[{""stimulus"":""run_exp/static/images/task_images/rocket-01.jpg"",""time"":0.2999999523162842},{""stimulus"":""run_exp/static/images/task_images/rocket-02.jpg"",""time"":1120.6000000238419},{""stimulus"":""run_exp/static/images/task_images/rocket-03.jpg"",""time"":2228.399999976158},{""stimulus"":""run_exp/static/images/task_images/rocket-04.jpg"",""time"":3347.7999999523163},{""stimulus"":""run_exp/static/images/task_images/rocket-05.jpg"",""time"":4455.799999952316},{""stimulus"":""run_exp/static/images/task_images/rocket-06.jpg"",""time"":5557.699999928474},{""stimulus"":""run_exp/static/images/task_images/rocket-07.jpg"",""time"":6680.299999952316},{""stimulus"":""run_exp/static/images/task_images/rocket-08.jpg"",""time"":7796.100000023842},{""stimulus"":""run_exp/static/images/task_images/rocket-09.jpg"",""time"":8900.399999976158}]",[],0,,,,,,,,,,,,,,
instruc_alien_greet,15,139619,0.0-7.0-6.0,"""event"",""trial"",""time""
""blur"",""0"",""0""
""focus"",""0"",""0""
""fullscreenenter"",""1"",""3052""
","""event"",""trial"",""time""
""blur"",""0"",""0""
","""event"",""trial"",""time""
""focus"",""0"",""0""
","""event"",""trial"",""time""
""fullscreenenter"",""1"",""3052""
","
",,null,run_exp/static/audio/clip_6_alien.m4a,null,"<p>When you arrive at a new planet, the alien who owns the treasure mine on that planet will greet you!</p><p>The better an alien takes care of their mine the easier it is to dig for gems. Some aliens take better care of their mine than others. So, you won’t get exactly the same amount of gems on each planet.</p><p>What the alien looks like does not tell you anything about how many gems there are on the planet.</p><br><p><img src=""run_exp/static/images/task_images/aliens/instructions_aliens/planet/alien_planet-1.jpg""  height=""600"" width=""auto""></p>",,,,,,,,,,,,,,,,,,,,,,,
instruc_alien_greet,16,142029,0.0-7.0-7.0,"""event"",""trial"",""time""
""blur"",""0"",""0""
""focus"",""0"",""0""
""fullscreenenter"",""1"",""3052""
","""event"",""trial"",""time""
""blur"",""0"",""0""
","""event"",""trial"",""time""
""focus"",""0"",""0""
","""event"",""trial"",""time""
""fullscreenenter"",""1"",""3052""
","
",,2407.7,"<p>When you arrive at a new planet, the alien who owns the treasure mine on that planet will greet you!</p><p>The better an alien takes care of their mine the easier it is to dig for gems. Some aliens take better care of their mine than others. So, you won’t get exactly the same amount of gems on each planet.</p><p>What the alien looks like does not tell you anything about how many gems there are on the planet.</p><br><p><img src=""run_exp/static/images/task_images/aliens/instructions_aliens/planet/alien_planet-1.jpg""  height=""600"" width=""auto""></p>",,,,,,,1,,,,,,,,,,,,,,,,,,
html-keyboard-response,17,142771,0.0-7.0-8.0,"""event"",""trial"",""time""
""blur"",""0"",""0""
""focus"",""0"",""0""
""fullscreenenter"",""1"",""3052""
","""event"",""trial"",""time""
""blur"",""0"",""0""
","""event"",""trial"",""time""
""focus"",""0"",""0""
","""event"",""trial"",""time""
""fullscreenenter"",""1"",""3052""
","
",,740.1999999,"<p>When you arrive at a new planet, the alien who owns the treasure mine on that planet will greet you!</p><p>The better an alien takes care of their mine the easier it is to dig for gems. Some aliens take better care of their mine than others. So, you won’t get exactly the same amount of gems on each planet.</p><p>What the alien looks like does not tell you anything about how many gems there are on the planet.</p><br><p><img src=""run_exp/static/images/task_images/aliens/instructions_aliens/planet/alien_planet-1.jpg""  height=""600"" width=""auto""></p><button class=""jspsych-html-btn-unchosen""><img src=""run_exp/static/images/task_images/planet-01.jpg"" height=""50""></button><button class=""jspsych-html-btn-chosen""><img src=""run_exp/static/images/task_images/planet-02.jpg"" height=""50""></button><p><b>[press the space bar to lock in your answer]<b><br></p>",32,,,,,,,,,,,,,,,,,,,,,,,,
time_out,18,153860,0.0-8.0-0.0,"""event"",""trial"",""time""
""blur"",""0"",""0""
""focus"",""0"",""0""
""fullscreenenter"",""1"",""3052""
","""event"",""trial"",""time""
""blur"",""0"",""0""
","""event"",""trial"",""time""
""focus"",""0"",""0""
","""event"",""trial"",""time""
""fullscreenenter"",""1"",""3052""
","
",,null,run_exp/static/audio/clip_7_timeout.m4a,null,"<p>If you don't make your choice fast enough, you’ll have to wait a few seconds before you can make another one.</p><p>You can’t dig for more gems or travel to new planets. You just have to sit and wait.</p><br><p><img src='run_exp/static/images/task_images/time_out.jpg'  height='600' width='auto'></p>",,,,,,,,,,,,,,,,,,,,,,,
time_out,19,155339,0.0-8.0-1.0,"""event"",""trial"",""time""
""blur"",""0"",""0""
""focus"",""0"",""0""
""fullscreenenter"",""1"",""3052""
","""event"",""trial"",""time""
""blur"",""0"",""0""
","""event"",""trial"",""time""
""focus"",""0"",""0""
","""event"",""trial"",""time""
""fullscreenenter"",""1"",""3052""
","
",,1477,"<p>If you don't make your choice fast enough, you’ll have to wait a few seconds before you can make another one.</p><p>You can’t dig for more gems or travel to new planets. You just have to sit and wait.</p><br><p><img src='run_exp/static/images/task_images/time_out.jpg'  height='600' width='auto'></p>",,,,,,,1,,,,,,,,,,,,,,,,,,
html-keyboard-response,20,155599,0.0-8.0-2.0,"""event"",""trial"",""time""
""blur"",""0"",""0""
""focus"",""0"",""0""
""fullscreenenter"",""1"",""3052""
","""event"",""trial"",""time""
""blur"",""0"",""0""
","""event"",""trial"",""time""
""focus"",""0"",""0""
","""event"",""trial"",""time""
""fullscreenenter"",""1"",""3052""
","
",,258.2,"<p>If you don't make your choice fast enough, you’ll have to wait a few seconds before you can make another one.</p><p>You can’t dig for more gems or travel to new planets. You just have to sit and wait.</p><br><p><img src='run_exp/static/images/task_images/time_out.jpg'  height='600' width='auto'></p><button class=""jspsych-html-btn-unchosen""><img src=""run_exp/static/images/task_images/planet-01.jpg"" height=""50""></button><button class=""jspsych-html-btn-chosen""><img src=""run_exp/static/images/task_images/planet-02.jpg"" height=""50""></button><p><b>[press the space bar to lock in your answer]<b><br></p>",32,,,,,,,,,,,,,,,,,,,,,,,,
instruc_break,21,171258,0.0-9.0-0.0,"""event"",""trial"",""time""
""blur"",""0"",""0""
""focus"",""0"",""0""
""fullscreenenter"",""1"",""3052""
","""event"",""trial"",""time""
""blur"",""0"",""0""
","""event"",""trial"",""time""
""focus"",""0"",""0""
","""event"",""trial"",""time""
""fullscreenenter"",""1"",""3052""
","
",,null,run_exp/static/audio/clip_8_break.m4a,null,"<p> After digging and traveling for a while, you’ll be able to take a break at home base. </p><p>The game will last 20 minutes no matter what.</p><p>You will visit home base every 5 minutes, so, you will visit home base three times during the game.</p><br><p><img src='run_exp/static/images/task_images/home_base.jpg' height='600' width='auto'></p>",,,,,,,,,,,,,,,,,,,,,,,
instruc_break,22,172420,0.0-9.0-1.0,"""event"",""trial"",""time""
""blur"",""0"",""0""
""focus"",""0"",""0""
""fullscreenenter"",""1"",""3052""
","""event"",""trial"",""time""
""blur"",""0"",""0""
","""event"",""trial"",""time""
""focus"",""0"",""0""
","""event"",""trial"",""time""
""fullscreenenter"",""1"",""3052""
","
",,1160.3,"<p> After digging and traveling for a while, you’ll be able to take a break at home base. </p><p>The game will last 20 minutes no matter what.</p><p>You will visit home base every 5 minutes, so, you will visit home base three times during the game.</p><br><p><img src='run_exp/static/images/task_images/home_base.jpg' height='600' width='auto'></p>",,,,,,,1,,,,,,,,,,,,,,,,,,
html-keyboard-response,23,172547,0.0-9.0-2.0,"""event"",""trial"",""time""
""blur"",""0"",""0""
""focus"",""0"",""0""
""fullscreenenter"",""1"",""3052""
","""event"",""trial"",""time""
""blur"",""0"",""0""
","""event"",""trial"",""time""
""focus"",""0"",""0""
","""event"",""trial"",""time""
""fullscreenenter"",""1"",""3052""
","
",,125.5,"<p> After digging and traveling for a while, you’ll be able to take a break at home base. </p><p>The game will last 20 minutes no matter what.</p><p>You will visit home base every 5 minutes, so, you will visit home base three times during the game.</p><br><p><img src='run_exp/static/images/task_images/home_base.jpg' height='600' width='auto'></p><button class=""jspsych-html-btn-unchosen""><img src=""run_exp/static/images/task_images/planet-01.jpg"" height=""50""></button><button class=""jspsych-html-btn-chosen""><img src=""run_exp/static/images/task_images/planet-02.jpg"" height=""50""></button><p><b>[press the space bar to lock in your answer]<b><br></p>",32,,,,,,,,,,,,,,,,,,,,,,,,
instruc_prac_game,24,182658,0.0-10.0-0.0,"""event"",""trial"",""time""
""blur"",""0"",""0""
""focus"",""0"",""0""
""fullscreenenter"",""1"",""3052""
","""event"",""trial"",""time""
""blur"",""0"",""0""
","""event"",""trial"",""time""
""focus"",""0"",""0""
","""event"",""trial"",""time""
""fullscreenenter"",""1"",""3052""
","
",,null,run_exp/static/audio/clip_9_practice.m4a,null,"<p> Are you ready to play a practice game? </p> <p>In this practice game, you'll be digging up barrels of gems. But, in the real game, you'll be digging up the gems themselves. </p>",,,,,,,,,,,,,,,,,,,,,,,
html-button-response,25,184428,0.0-10.0-1.0,"""event"",""trial"",""time""
""blur"",""0"",""0""
""focus"",""0"",""0""
""fullscreenenter"",""1"",""3052""
","""event"",""trial"",""time""
""blur"",""0"",""0""
","""event"",""trial"",""time""
""focus"",""0"",""0""
","""event"",""trial"",""time""
""fullscreenenter"",""1"",""3052""
","
",,1768.4,"<p> Are you ready to play a practice game? </p> <p>In this practice game, you'll be digging up barrels of gems. But, in the real game, you'll be digging up the gems themselves. </p>",,,,,,,0,,,,,,,,,,,,,,,,,,
alien_welcome_prac,26,189434,0.0-11.0-0.0,"""event"",""trial"",""time""
""blur"",""0"",""0""
""focus"",""0"",""0""
""fullscreenenter"",""1"",""3052""
","""event"",""trial"",""time""
""blur"",""0"",""0""
","""event"",""trial"",""time""
""focus"",""0"",""0""
","""event"",""trial"",""time""
""fullscreenenter"",""1"",""3052""
","
",,null,run_exp/static/images/task_images/aliens/practice_aliens/planet/alien_planet-5.jpg,null,,,,,,,,,,,,,,,,,,,,,,,,
land_prac,27,189950,0.0-11.0-1.0,"""event"",""trial"",""time""
""blur"",""0"",""0""
""focus"",""0"",""0""
""fullscreenenter"",""1"",""3052""
","""event"",""trial"",""time""
""blur"",""0"",""0""
","""event"",""trial"",""time""
""focus"",""0"",""0""
","""event"",""trial"",""time""
""fullscreenenter"",""1"",""3052""
","
",,null,run_exp/static/images/task_images/land.jpg,null,,,,,,,107,,,0,,,,,,,,,,,,,,
dig_prac,28,191955,0.0-11.0-2.0,"""event"",""trial"",""time""
""blur"",""0"",""0""
""focus"",""0"",""0""
""fullscreenenter"",""1"",""3052""
","""event"",""trial"",""time""
""blur"",""0"",""0""
","""event"",""trial"",""time""
""focus"",""0"",""0""
","""event"",""trial"",""time""
""fullscreenenter"",""1"",""3052""
","
",,,,,,,,,,,,"[{""stimulus"":""run_exp/static/images/task_images/dig.jpg"",""time"":0.2999999523162842},{""stimulus"":""run_exp/static/images/task_images/land.jpg"",""time"":676.5999999046326},{""stimulus"":""run_exp/static/images/task_images/dig.jpg"",""time"":1349.3999999761581}]",[],,,,,,,,,,,,,,,
harvest_prac,29,192959,0.0-11.0-3.0,"""event"",""trial"",""time""
""blur"",""0"",""0""
""focus"",""0"",""0""
""fullscreenenter"",""1"",""3052""
","""event"",""trial"",""time""
""blur"",""0"",""0""
","""event"",""trial"",""time""
""focus"",""0"",""0""
","""event"",""trial"",""time""
""fullscreenenter"",""1"",""3052""
","
",,null,run_exp/static/images/task_images/barrel_text.jpg,null,,,,,,,,,,,,,,,,,,,,,,,,
decision_prac,30,194523,0.0-11.0-4.0,"""event"",""trial"",""time""
""blur"",""0"",""0""
""focus"",""0"",""0""
""fullscreenenter"",""1"",""3052""
","""event"",""trial"",""time""
""blur"",""0"",""0""
","""event"",""trial"",""time""
""focus"",""0"",""0""
","""event"",""trial"",""time""
""fullscreenenter"",""1"",""3052""
","
",,1562.1,run_exp/static/images/task_images/land.jpg,65,,,,,,,,,,,1,,,,,,,,,,,,,
dig_prac,31,196534,0.0-12.0-0.0,"""event"",""trial"",""time""
""blur"",""0"",""0""
""focus"",""0"",""0""
""fullscreenenter"",""1"",""3052""
","""event"",""trial"",""time""
""blur"",""0"",""0""
","""event"",""trial"",""time""
""focus"",""0"",""0""
","""event"",""trial"",""time""
""fullscreenenter"",""1"",""3052""
","
",,,,,,,,,,,,"[{""stimulus"":""run_exp/static/images/task_images/dig.jpg"",""time"":0.20000004768371582},{""stimulus"":""run_exp/static/images/task_images/land.jpg"",""time"":681.9000000953674},{""stimulus"":""run_exp/static/images/task_images/dig.jpg"",""time"":1345.7000000476837}]",[],,,,,,,,,,,,,,,
harvest_prac,32,197535,0.0-12.0-1.0,"""event"",""trial"",""time""
""blur"",""0"",""0""
""focus"",""0"",""0""
""fullscreenenter"",""1"",""3052""
","""event"",""trial"",""time""
""blur"",""0"",""0""
","""event"",""trial"",""time""
""focus"",""0"",""0""
","""event"",""trial"",""time""
""fullscreenenter"",""1"",""3052""
","
",,null,run_exp/static/images/task_images/barrel_text.jpg,null,,,,,,,,,,,,,,,,,,,,,,,,
decision_prac,33,198336,0.0-12.0-2.0,"""event"",""trial"",""time""
""blur"",""0"",""0""
""focus"",""0"",""0""
""fullscreenenter"",""1"",""3052""
","""event"",""trial"",""time""
""blur"",""0"",""0""
","""event"",""trial"",""time""
""focus"",""0"",""0""
","""event"",""trial"",""time""
""fullscreenenter"",""1"",""3052""
","
",,800,run_exp/static/images/task_images/land.jpg,65,,,,,,,,,,,2,,,,,,,,,,,,,
dig_prac,34,200350,0.0-13.0-0.0,"""event"",""trial"",""time""
""blur"",""0"",""0""
""focus"",""0"",""0""
""fullscreenenter"",""1"",""3052""
","""event"",""trial"",""time""
""blur"",""0"",""0""
","""event"",""trial"",""time""
""focus"",""0"",""0""
","""event"",""trial"",""time""
""fullscreenenter"",""1"",""3052""
","
",,,,,,,,,,,,"[{""stimulus"":""run_exp/static/images/task_images/dig.jpg"",""time"":0.20000004768371582},{""stimulus"":""run_exp/static/images/task_images/land.jpg"",""time"":670.3999999761581},{""stimulus"":""run_exp/static/images/task_images/dig.jpg"",""time"":1339.7000000476837}]",[],,,,,,,,,,,,,,,
harvest_prac,35,201359,0.0-13.0-1.0,"""event"",""trial"",""time""
""blur"",""0"",""0""
""focus"",""0"",""0""
""fullscreenenter"",""1"",""3052""
","""event"",""trial"",""time""
""blur"",""0"",""0""
","""event"",""trial"",""time""
""focus"",""0"",""0""
","""event"",""trial"",""time""
""fullscreenenter"",""1"",""3052""
","
",,null,run_exp/static/images/task_images/barrel_text.jpg,null,,,,,,,,,,,,,,,,,,,,,,,,
decision_prac,36,202162,0.0-13.0-2.0,"""event"",""trial"",""time""
""blur"",""0"",""0""
""focus"",""0"",""0""
""fullscreenenter"",""1"",""3052""
","""event"",""trial"",""time""
""blur"",""0"",""0""
","""event"",""trial"",""time""
""focus"",""0"",""0""
","""event"",""trial"",""time""
""fullscreenenter"",""1"",""3052""
","
",,802.2,run_exp/static/images/task_images/land.jpg,65,,,,,,,,,,,3,,,,,,,,,,,,,
dig_prac,37,204172,0.0-14.0-0.0,"""event"",""trial"",""time""
""blur"",""0"",""0""
""focus"",""0"",""0""
""fullscreenenter"",""1"",""3052""
","""event"",""trial"",""time""
""blur"",""0"",""0""
","""event"",""trial"",""time""
""focus"",""0"",""0""
","""event"",""trial"",""time""
""fullscreenenter"",""1"",""3052""
","
",,,,,,,,,,,,"[{""stimulus"":""run_exp/static/images/task_images/dig.jpg"",""time"":0.10000002384185791},{""stimulus"":""run_exp/static/images/task_images/land.jpg"",""time"":683.2000000476837},{""stimulus"":""run_exp/static/images/task_images/dig.jpg"",""time"":1336.8000000715256}]",[],,,,,,,,,,,,,,,
harvest_prac,38,205181,0.0-14.0-1.0,"""event"",""trial"",""time""
""blur"",""0"",""0""
""focus"",""0"",""0""
""fullscreenenter"",""1"",""3052""
","""event"",""trial"",""time""
""blur"",""0"",""0""
","""event"",""trial"",""time""
""focus"",""0"",""0""
","""event"",""trial"",""time""
""fullscreenenter"",""1"",""3052""
","
",,null,run_exp/static/images/task_images/barrel_text.jpg,null,,,,,,,,,,,,,,,,,,,,,,,,
decision_prac,39,205929,0.0-14.0-2.0,"""event"",""trial"",""time""
""blur"",""0"",""0""
""focus"",""0"",""0""
""fullscreenenter"",""1"",""3052""
","""event"",""trial"",""time""
""blur"",""0"",""0""
","""event"",""trial"",""time""
""focus"",""0"",""0""
","""event"",""trial"",""time""
""fullscreenenter"",""1"",""3052""
","
",,747.4,run_exp/static/images/task_images/land.jpg,65,,,,,,,,,,,4,,,,,,,,,,,,,
dig_prac,40,207941,0.0-15.0-0.0,"""event"",""trial"",""time""
""blur"",""0"",""0""
""focus"",""0"",""0""
""fullscreenenter"",""1"",""3052""
","""event"",""trial"",""time""
""blur"",""0"",""0""
","""event"",""trial"",""time""
""focus"",""0"",""0""
","""event"",""trial"",""time""
""fullscreenenter"",""1"",""3052""
","
",,,,,,,,,,,,"[{""stimulus"":""run_exp/static/images/task_images/dig.jpg"",""time"":0.20000004768371582},{""stimulus"":""run_exp/static/images/task_images/land.jpg"",""time"":678.1000000238419},{""stimulus"":""run_exp/static/images/task_images/dig.jpg"",""time"":1349.5}]",[],,,,,,,,,,,,,,,
harvest_prac,41,208944,0.0-15.0-1.0,"""event"",""trial"",""time""
""blur"",""0"",""0""
""focus"",""0"",""0""
""fullscreenenter"",""1"",""3052""
","""event"",""trial"",""time""
""blur"",""0"",""0""
","""event"",""trial"",""time""
""focus"",""0"",""0""
","""event"",""trial"",""time""
""fullscreenenter"",""1"",""3052""
","
",,null,run_exp/static/images/task_images/barrel_text.jpg,null,,,,,,,,,,,,,,,,,,,,,,,,
decision_prac,42,209548,0.0-15.0-2.0,"""event"",""trial"",""time""
""blur"",""0"",""0""
""focus"",""0"",""0""
""fullscreenenter"",""1"",""3052""
","""event"",""trial"",""time""
""blur"",""0"",""0""
","""event"",""trial"",""time""
""focus"",""0"",""0""
","""event"",""trial"",""time""
""fullscreenenter"",""1"",""3052""
","
",,603.7,run_exp/static/images/task_images/land.jpg,65,,,,,,,,,,,,1,,,,,,,,,,,,
quiz_instruc,43,212551,0.0-16.0-0.0,"""event"",""trial"",""time""
""blur"",""0"",""0""
""focus"",""0"",""0""
""fullscreenenter"",""1"",""3052""
","""event"",""trial"",""time""
""blur"",""0"",""0""
","""event"",""trial"",""time""
""focus"",""0"",""0""
","""event"",""trial"",""time""
""fullscreenenter"",""1"",""3052""
","
",,2999.6,run_exp/static/audio/clip_10_quiz.m4a,,,,,,,0,,,,,,,,,,,,,,,,,,
instruc_repeat,44,255319,0.0-16.0-1.0,"""event"",""trial"",""time""
""blur"",""0"",""0""
""focus"",""0"",""0""
""fullscreenenter"",""1"",""3052""
","""event"",""trial"",""time""
""blur"",""0"",""0""
","""event"",""trial"",""time""
""focus"",""0"",""0""
","""event"",""trial"",""time""
""fullscreenenter"",""1"",""3052""
","
",,null,"<p> Are you ready to play a practice game? </p> <p>In this practice game, you'll be digging up barrels of gems. But, in the real game, you'll be digging up the gems themselves. </p>",null,"<p>In this game, your goal is to collect as many gems as you can. That’s how you will win bonus money. </p> <p>The entire game will last 20 minutes no matter how many gems you collect or how many planets you visit. </p><p>To stay on a planet and dig again, press the letter A on your keyboard. To leave for a new planet, press the letter L.</p><p>The more you dig on a planet, the fewer gems you’ll get with each dig which is why you might consider leaving for a new planet. </p><p>When you arrive at a new planet, you’ll be greeted by an alien. What the alien looks like does not tell you anything about how much treasure is on the planet. </p>",,,,,,,,,,,,,,,,,,,,,,,
instruc_repeat_continue,45,257546,0.0-16.0-2.0,"""event"",""trial"",""time""
""blur"",""0"",""0""
""focus"",""0"",""0""
""fullscreenenter"",""1"",""3052""
","""event"",""trial"",""time""
""blur"",""0"",""0""
","""event"",""trial"",""time""
""focus"",""0"",""0""
","""event"",""trial"",""time""
""fullscreenenter"",""1"",""3052""
","
",,2225.1,"<p> Are you ready to play a practice game? </p> <p>In this practice game, you'll be digging up barrels of gems. But, in the real game, you'll be digging up the gems themselves. </p>",,,,,,,0,,,,,,,,,,,,,,,,,,
quiz_q_1_ask,46,261109,0.0-16.0-3.0,"""event"",""trial"",""time""
""blur"",""0"",""0""
""focus"",""0"",""0""
""fullscreenenter"",""1"",""3052""
","""event"",""trial"",""time""
""blur"",""0"",""0""
","""event"",""trial"",""time""
""focus"",""0"",""0""
","""event"",""trial"",""time""
""fullscreenenter"",""1"",""3052""
","
",,3561.7,run_exp/static/audio/clip_11_q1_ask.m4a,,,,,,,2,,,,,,,,,,,,,,,,,,
quiz_q_1_fb_correct,47,264959,0.0-17.0-0.0,"""event"",""trial"",""time""
""blur"",""0"",""0""
""focus"",""0"",""0""
""fullscreenenter"",""1"",""3052""
","""event"",""trial"",""time""
""blur"",""0"",""0""
","""event"",""trial"",""time""
""focus"",""0"",""0""
","""event"",""trial"",""time""
""fullscreenenter"",""1"",""3052""
","
",,null,run_exp/static/audio/clip_12_q1_correct.m4a,null,<p>That’s correct. You win extra money by collecting more gems.</p>,,,,,,,,,,,,,,,,,,,,,,,
quiz_q_2_ask,48,266958,0.0-17.0-1.0,"""event"",""trial"",""time""
""blur"",""0"",""0""
""focus"",""0"",""0""
""fullscreenenter"",""1"",""3052""
","""event"",""trial"",""time""
""blur"",""0"",""0""
","""event"",""trial"",""time""
""focus"",""0"",""0""
","""event"",""trial"",""time""
""fullscreenenter"",""1"",""3052""
","
",,1997.7,run_exp/static/audio/clip_14_q2_ask.m4a,,,,,,,1,,,,,,,,,,,,,,,,,,
quiz_q_2_fb_correct,49,270959,0.0-18.0-0.0,"""event"",""trial"",""time""
""blur"",""0"",""0""
""focus"",""0"",""0""
""fullscreenenter"",""1"",""3052""
","""event"",""trial"",""time""
""blur"",""0"",""0""
","""event"",""trial"",""time""
""focus"",""0"",""0""
","""event"",""trial"",""time""
""fullscreenenter"",""1"",""3052""
","
",,null,run_exp/static/audio/clip_15_q2_correct.m4a,null,<p>That’s correct. The experiment is 20 minutes no matter what.</p>,,,,,,,,,,,,,,,,,,,,,,,
quiz_q_3_ask,50,272927,0.0-18.0-1.0,"""event"",""trial"",""time""
""blur"",""0"",""0""
""focus"",""0"",""0""
""fullscreenenter"",""1"",""3052""
","""event"",""trial"",""time""
""blur"",""0"",""0""
","""event"",""trial"",""time""
""focus"",""0"",""0""
","""event"",""trial"",""time""
""fullscreenenter"",""1"",""3052""
","
",,1966.7,run_exp/static/audio/clip_17_q3_ask.m4a,,,,,,,1,,,,,,,,,,,,,,,,,,
quiz_q_3_fb_correct,51,276918,0.0-19.0-0.0,"""event"",""trial"",""time""
""blur"",""0"",""0""
""focus"",""0"",""0""
""fullscreenenter"",""1"",""3052""
","""event"",""trial"",""time""
""blur"",""0"",""0""
","""event"",""trial"",""time""
""focus"",""0"",""0""
","""event"",""trial"",""time""
""fullscreenenter"",""1"",""3052""
","
",,null,run_exp/static/audio/clip_18_q3_correct.m4a,null,<p> That’s correct. You press the letter L to travel to a new planet.</p>,,,,,,,,,,,,,,,,,,,,,,,
quiz_q_4_ask,52,282675,0.0-19.0-1.0,"""event"",""trial"",""time""
""blur"",""0"",""0""
""focus"",""0"",""0""
""fullscreenenter"",""1"",""3052""
","""event"",""trial"",""time""
""blur"",""0"",""0""
","""event"",""trial"",""time""
""focus"",""0"",""0""
","""event"",""trial"",""time""
""fullscreenenter"",""1"",""3052""
","
",,5755.6,run_exp/static/audio/clip_20_q4_ask.m4a,,,,,,,0,,,,,,,,,,,,,,,,,,
quiz_q_4_fb_correct,53,287998,0.0-20.0-0.0,"""event"",""trial"",""time""
""blur"",""0"",""0""
""focus"",""0"",""0""
""fullscreenenter"",""1"",""3052""
","""event"",""trial"",""time""
""blur"",""0"",""0""
","""event"",""trial"",""time""
""focus"",""0"",""0""
","""event"",""trial"",""time""
""fullscreenenter"",""1"",""3052""
","
",,null,run_exp/static/audio/clip_21_q4_correct.m4a,null,<p> That’s correct. The more you dig on a planet the fewer gems you’ll get with each dig. </p>,,,,,,,,,,,,,,,,,,,,,,,
quiz_q_5_ask,54,289873,0.0-20.0-1.0,"""event"",""trial"",""time""
""blur"",""0"",""0""
""focus"",""0"",""0""
""fullscreenenter"",""1"",""3052""
","""event"",""trial"",""time""
""blur"",""0"",""0""
","""event"",""trial"",""time""
""focus"",""0"",""0""
","""event"",""trial"",""time""
""fullscreenenter"",""1"",""3052""
","
",,1873.4,run_exp/static/audio/clip_23_q5_ask.m4a,,,,,,,1,,,,,,,,,,,,,,,,,,
quiz_q_5_fb_correct,55,294878,0.0-21.0-0.0,"""event"",""trial"",""time""
""blur"",""0"",""0""
""focus"",""0"",""0""
""fullscreenenter"",""1"",""3052""
","""event"",""trial"",""time""
""blur"",""0"",""0""
","""event"",""trial"",""time""
""focus"",""0"",""0""
","""event"",""trial"",""time""
""fullscreenenter"",""1"",""3052""
","
",,null,run_exp/static/audio/clip_24_q5_correct.m4a,null,<p> That’s correct. The alien tells you nothing about how much treasure is on the planet.</p>,,,,,,,,,,,,,,,,,,,,,,,
quiz_correct,56,298338,0.0-22.0-0.0,"""event"",""trial"",""time""
""blur"",""0"",""0""
""focus"",""0"",""0""
""fullscreenenter"",""1"",""3052""
","""event"",""trial"",""time""
""blur"",""0"",""0""
","""event"",""trial"",""time""
""focus"",""0"",""0""
","""event"",""trial"",""time""
""fullscreenenter"",""1"",""3052""
","
",,null,run_exp/static/audio/clip_26_correct_quiz.m4a,null,,,,,,,,,,,,,,,,,,,,,,,,
quiz_correct_continue,57,300091,0.0-22.0-1.0,"""event"",""trial"",""time""
""blur"",""0"",""0""
""focus"",""0"",""0""
""fullscreenenter"",""1"",""3052""
","""event"",""trial"",""time""
""blur"",""0"",""0""
","""event"",""trial"",""time""
""focus"",""0"",""0""
","""event"",""trial"",""time""
""fullscreenenter"",""1"",""3052""
","
",,1751.2,<p>Good job! You're now ready to move on to the real game!</p>,,,,,,,0,,,,,,,,,,,,,,,,,,
audio-keyboard-response,58,310218,0.0-22.0-2.0,"""event"",""trial"",""time""
""blur"",""0"",""0""
""focus"",""0"",""0""
""fullscreenenter"",""1"",""3052""
","""event"",""trial"",""time""
""blur"",""0"",""0""
","""event"",""trial"",""time""
""focus"",""0"",""0""
","""event"",""trial"",""time""
""fullscreenenter"",""1"",""3052""
","
",,null,run_exp/static/audio/clip_28_real_game.m4a,null,,,,,,,,,,,,,,,,,,,,,,,,
instruc_begin_exp_contine,59,311416,0.0-22.0-3.0,"""event"",""trial"",""time""
""blur"",""0"",""0""
""focus"",""0"",""0""
""fullscreenenter"",""1"",""3052""
","""event"",""trial"",""time""
""blur"",""0"",""0""
","""event"",""trial"",""time""
""focus"",""0"",""0""
","""event"",""trial"",""time""
""fullscreenenter"",""1"",""3052""
","
",,1196.5,"<p>Now that you know how  to dig for space treasure and travel to new planets,you can start exploring! </p><p>Do you want to go over the instructions again or get started with the real game?</p>",,,,,,,1,,,,,,1,,,,,,,,,,,,
alien_welcome,60,316430,0.0-23.0-0.0,"""event"",""trial"",""time""
""blur"",""0"",""0""
""focus"",""0"",""0""
""fullscreenenter"",""1"",""3052""
","""event"",""trial"",""time""
""blur"",""0"",""0""
","""event"",""trial"",""time""
""focus"",""0"",""0""
","""event"",""trial"",""time""
""fullscreenenter"",""1"",""3052""
","
",,null,run_exp/static/images/task_images/aliens/old_aliens/planet/alien_planet-24.jpg,null,,,,,,,,,,,,,24,"24,7,40,77,6,37,65,17,25,23,27,53,55,36,47,4,35,16,5,64,71,13,50,76,41,20,29,66,26,74",,,,,,,,,,
land,61,316933,0.0-23.0-1.0,"""event"",""trial"",""time""
""blur"",""0"",""0""
""focus"",""0"",""0""
""fullscreenenter"",""1"",""3052""
","""event"",""trial"",""time""
""blur"",""0"",""0""
","""event"",""trial"",""time""
""focus"",""0"",""0""
","""event"",""trial"",""time""
""fullscreenenter"",""1"",""3052""
","
",,null,run_exp/static/images/task_images/land.jpg,null,,,,,,,98,,,1,,,,,,,,,,,,,,
dig,62,318943,0.0-23.0-2.0,"""event"",""trial"",""time""
""blur"",""0"",""0""
""focus"",""0"",""0""
""fullscreenenter"",""1"",""3052""
","""event"",""trial"",""time""
""blur"",""0"",""0""
","""event"",""trial"",""time""
""focus"",""0"",""0""
","""event"",""trial"",""time""
""fullscreenenter"",""1"",""3052""
","
",,,,,,,,,,,,"[{""stimulus"":""run_exp/static/images/task_images/dig.jpg"",""time"":0.20000004768371582},{""stimulus"":""run_exp/static/images/task_images/land.jpg"",""time"":671.8000000715256},{""stimulus"":""run_exp/static/images/task_images/dig.jpg"",""time"":1345.3999999761581}]",[],1,,,,,,,,,,,,,,
harvest,63,319952,0.0-23.0-3.0,"""event"",""trial"",""time""
""blur"",""0"",""0""
""focus"",""0"",""0""
""fullscreenenter"",""1"",""3052""
","""event"",""trial"",""time""
""blur"",""0"",""0""
","""event"",""trial"",""time""
""focus"",""0"",""0""
","""event"",""trial"",""time""
""fullscreenenter"",""1"",""3052""
","
",,null,run_exp/static/images/task_images/gems/98.jpg,null,,,,,,,16,,,1,,,,,98,0.161404082,0.163265306,,,,,,,
decision,64,320565,0.0-23.0-4.0,"""event"",""trial"",""time""
""blur"",""0"",""0""
""focus"",""0"",""0""
""fullscreenenter"",""1"",""3052""
","""event"",""trial"",""time""
""blur"",""0"",""0""
","""event"",""trial"",""time""
""focus"",""0"",""0""
","""event"",""trial"",""time""
""fullscreenenter"",""1"",""3052""
","
",,610.3000001,run_exp/static/images/task_images/land.jpg,65,,,,,,,16,,,1,,,,,,,,9147,1,0,FALSE,,,
dig,65,322965,0.0-24.0-0.0,"""event"",""trial"",""time""
""blur"",""0"",""0""
""focus"",""0"",""0""
""fullscreenenter"",""1"",""3052""
","""event"",""trial"",""time""
""blur"",""0"",""0""
","""event"",""trial"",""time""
""focus"",""0"",""0""
","""event"",""trial"",""time""
""fullscreenenter"",""1"",""3052""
","
",,,,,,,,,,,,"[{""stimulus"":""run_exp/static/images/task_images/dig.jpg"",""time"":0.10000002384185791},{""stimulus"":""run_exp/static/images/task_images/land.jpg"",""time"":807},{""stimulus"":""run_exp/static/images/task_images/dig.jpg"",""time"":1599.2000000476837}]",[],1,,,,,,,,,,,,,,
harvest,66,323980,0.0-24.0-1.0,"""event"",""trial"",""time""
""blur"",""0"",""0""
""focus"",""0"",""0""
""fullscreenenter"",""1"",""3052""
","""event"",""trial"",""time""
""blur"",""0"",""0""
","""event"",""trial"",""time""
""focus"",""0"",""0""
","""event"",""trial"",""time""
""fullscreenenter"",""1"",""3052""
","
",,null,run_exp/static/images/task_images/gems/16.jpg,null,,,,,,,3,,,1,,,,,16,0.207591871,0.1875,,,,,,,
decision,67,324456,0.0-24.0-2.0,"""event"",""trial"",""time""
""blur"",""0"",""0""
""focus"",""0"",""0""
""fullscreenenter"",""1"",""3052""
","""event"",""trial"",""time""
""blur"",""0"",""0""
","""event"",""trial"",""time""
""focus"",""0"",""0""
","""event"",""trial"",""time""
""fullscreenenter"",""1"",""3052""
","
",,474.8000001,run_exp/static/images/task_images/land.jpg,65,,,,,,,3,,,1,,,,,,,,13038,1,1,FALSE,,,
dig,68,326988,0.0-25.0-0.0,"""event"",""trial"",""time""
""blur"",""0"",""0""
""focus"",""0"",""0""
""fullscreenenter"",""1"",""3052""
","""event"",""trial"",""time""
""blur"",""0"",""0""
","""event"",""trial"",""time""
""focus"",""0"",""0""
","""event"",""trial"",""time""
""fullscreenenter"",""1"",""3052""
","
",,,,,,,,,,,,"[{""stimulus"":""run_exp/static/images/task_images/dig.jpg"",""time"":0.20000004768371582},{""stimulus"":""run_exp/static/images/task_images/land.jpg"",""time"":856.3999999761581},{""stimulus"":""run_exp/static/images/task_images/dig.jpg"",""time"":1696.2999999523163}]",[],1,,,,,,,,,,,,,,
harvest,69,327993,0.0-25.0-1.0,"""event"",""trial"",""time""
""blur"",""0"",""0""
""focus"",""0"",""0""
""fullscreenenter"",""1"",""3052""
","""event"",""trial"",""time""
""blur"",""0"",""0""
","""event"",""trial"",""time""
""focus"",""0"",""0""
","""event"",""trial"",""time""
""fullscreenenter"",""1"",""3052""
","
",,null,run_exp/static/images/task_images/gems/3.jpg,null,,,,,,,1,,,1,,,,,3,0.291056397,0.333333333,,,,,,,
decision,70,329132,0.0-25.0-2.0,"""event"",""trial"",""time""
""blur"",""0"",""0""
""focus"",""0"",""0""
""fullscreenenter"",""1"",""3052""
","""event"",""trial"",""time""
""blur"",""0"",""0""
","""event"",""trial"",""time""
""focus"",""0"",""0""
","""event"",""trial"",""time""
""fullscreenenter"",""1"",""3052""
","
",,1138.3,run_exp/static/images/task_images/land.jpg,76,,,,,,,1,,,1,,,,,,,,17714,1,2,TRUE,,,
travel,71,337998,0.0-26.0-0.0,"""event"",""trial"",""time""
""blur"",""0"",""0""
""focus"",""0"",""0""
""fullscreenenter"",""1"",""3052""
","""event"",""trial"",""time""
""blur"",""0"",""0""
","""event"",""trial"",""time""
""focus"",""0"",""0""
","""event"",""trial"",""time""
""fullscreenenter"",""1"",""3052""
","
",,,,,,,,,,,,"[{""stimulus"":""run_exp/static/images/task_images/rocket-01.jpg"",""time"":0.10000002384185791},{""stimulus"":""run_exp/static/images/task_images/rocket-02.jpg"",""time"":988.6000000238419},{""stimulus"":""run_exp/static/images/task_images/rocket-03.jpg"",""time"":1984.3999999761581},{""stimulus"":""run_exp/static/images/task_images/rocket-04.jpg"",""time"":2964.7000000476837},{""stimulus"":""run_exp/static/images/task_images/rocket-05.jpg"",""time"":3941.2000000476837},{""stimulus"":""run_exp/static/images/task_images/rocket-06.jpg"",""time"":4923.399999976158},{""stimulus"":""run_exp/static/images/task_images/rocket-07.jpg"",""time"":5913},{""stimulus"":""run_exp/static/images/task_images/rocket-08.jpg"",""time"":6904.700000047684},{""stimulus"":""run_exp/static/images/task_images/rocket-09.jpg"",""time"":7874.600000023842}]",[],1,,,,,,,,,,,,,,
alien_welcome,72,343005,0.0-26.0-1.0,"""event"",""trial"",""time""
""blur"",""0"",""0""
""focus"",""0"",""0""
""fullscreenenter"",""1"",""3052""
","""event"",""trial"",""time""
""blur"",""0"",""0""
","""event"",""trial"",""time""
""focus"",""0"",""0""
","""event"",""trial"",""time""
""fullscreenenter"",""1"",""3052""
","
",,null,run_exp/static/images/task_images/aliens/old_aliens/planet/alien_planet-7.jpg,null,,,,,,,,,,,,,7,"24,7,40,77,6,37,65,17,25,23,27,53,55,36,47,4,35,16,5,64,71,13,50,76,41,20,29,66,26,74",,,,,,,,,,
land,73,343507,0.0-26.0-2.0,"""event"",""trial"",""time""
""blur"",""0"",""0""
""focus"",""0"",""0""
""fullscreenenter"",""1"",""3052""
","""event"",""trial"",""time""
""blur"",""0"",""0""
","""event"",""trial"",""time""
""focus"",""0"",""0""
","""event"",""trial"",""time""
""fullscreenenter"",""1"",""3052""
","
",,null,run_exp/static/images/task_images/land.jpg,null,,,,,,,100,,,2,,,,,,,,,,,,,,
dig,74,345518,0.0-26.0-3.0,"""event"",""trial"",""time""
""blur"",""0"",""0""
""focus"",""0"",""0""
""fullscreenenter"",""1"",""3052""
","""event"",""trial"",""time""
""blur"",""0"",""0""
","""event"",""trial"",""time""
""focus"",""0"",""0""
","""event"",""trial"",""time""
""fullscreenenter"",""1"",""3052""
","
",,,,,,,,,,,,"[{""stimulus"":""run_exp/static/images/task_images/dig.jpg"",""time"":0.3999999761581421},{""stimulus"":""run_exp/static/images/task_images/land.jpg"",""time"":679.1000000238419},{""stimulus"":""run_exp/static/images/task_images/dig.jpg"",""time"":1336.3000000715256}]",[],2,,,,,,,,,,,,,,
harvest,75,346526,0.0-26.0-4.0,"""event"",""trial"",""time""
""blur"",""0"",""0""
""focus"",""0"",""0""
""fullscreenenter"",""1"",""3052""
","""event"",""trial"",""time""
""blur"",""0"",""0""
","""event"",""trial"",""time""
""focus"",""0"",""0""
","""event"",""trial"",""time""
""fullscreenenter"",""1"",""3052""
","
",,null,run_exp/static/images/task_images/gems/100.jpg,null,,,,,,,22,,,2,,,,,100,0.219904428,0.22,,,,,,,
decision,76,346840,0.0-26.0-5.0,"""event"",""trial"",""time""
""blur"",""0"",""0""
""focus"",""0"",""0""
""fullscreenenter"",""1"",""3052""
","""event"",""trial"",""time""
""blur"",""0"",""0""
","""event"",""trial"",""time""
""focus"",""0"",""0""
","""event"",""trial"",""time""
""fullscreenenter"",""1"",""3052""
","
",,312.6,run_exp/static/images/task_images/land.jpg,65,,,,,,,22,,,2,,,,,,,,35422,1,0,FALSE,,,
dig,77,349529,0.0-27.0-0.0,"""event"",""trial"",""time""
""blur"",""0"",""0""
""focus"",""0"",""0""
""fullscreenenter"",""1"",""3052""
","""event"",""trial"",""time""
""blur"",""0"",""0""
","""event"",""trial"",""time""
""focus"",""0"",""0""
","""event"",""trial"",""time""
""fullscreenenter"",""1"",""3052""
","
",,,,,,,,,,,,"[{""stimulus"":""run_exp/static/images/task_images/dig.jpg"",""time"":0.10000002384185791},{""stimulus"":""run_exp/static/images/task_images/land.jpg"",""time"":900.3000000715256},{""stimulus"":""run_exp/static/images/task_images/dig.jpg"",""time"":1800.4000000953674}]",[],2,,,,,,,,,,,,,,
harvest,78,350542,0.0-27.0-1.0,"""event"",""trial"",""time""
""blur"",""0"",""0""
""focus"",""0"",""0""
""fullscreenenter"",""1"",""3052""
","""event"",""trial"",""time""
""blur"",""0"",""0""
","""event"",""trial"",""time""
""focus"",""0"",""0""
","""event"",""trial"",""time""
""fullscreenenter"",""1"",""3052""
","
",,null,run_exp/static/images/task_images/gems/22.jpg,null,,,,,,,3,,,2,,,,,22,0.158273636,0.136363636,,,,,,,
decision,79,350680,0.0-27.0-2.0,"""event"",""trial"",""time""
""blur"",""0"",""0""
""focus"",""0"",""0""
""fullscreenenter"",""1"",""3052""
","""event"",""trial"",""time""
""blur"",""0"",""0""
","""event"",""trial"",""time""
""focus"",""0"",""0""
","""event"",""trial"",""time""
""fullscreenenter"",""1"",""3052""
","
",,137.1,run_exp/static/images/task_images/land.jpg,65,,,,,,,3,,,2,,,,,,,,39262,1,1,FALSE,,,
dig,80,353547,0.0-28.0-0.0,"""event"",""trial"",""time""
""blur"",""0"",""0""
""focus"",""0"",""0""
""fullscreenenter"",""1"",""3052""
","""event"",""trial"",""time""
""blur"",""0"",""0""
","""event"",""trial"",""time""
""focus"",""0"",""0""
","""event"",""trial"",""time""
""fullscreenenter"",""1"",""3052""
","
",,,,,,,,,,,,"[{""stimulus"":""run_exp/static/images/task_images/dig.jpg"",""time"":0.20000004768371582},{""stimulus"":""run_exp/static/images/task_images/land.jpg"",""time"":964.3999999761581},{""stimulus"":""run_exp/static/images/task_images/dig.jpg"",""time"":1913.2999999523163}]",[],2,,,,,,,,,,,,,,
harvest,81,354550,0.0-28.0-1.0,"""event"",""trial"",""time""
""blur"",""0"",""0""
""focus"",""0"",""0""
""fullscreenenter"",""1"",""3052""
","""event"",""trial"",""time""
""blur"",""0"",""0""
","""event"",""trial"",""time""
""focus"",""0"",""0""
","""event"",""trial"",""time""
""fullscreenenter"",""1"",""3052""
","
",,null,run_exp/static/images/task_images/gems/3.jpg,null,,,,,,,1,,,2,,,,,3,0.174433335,0.333333333,,,,,,,
decision,82,355042,0.0-28.0-2.0,"""event"",""trial"",""time""
""blur"",""0"",""0""
""focus"",""0"",""0""
""fullscreenenter"",""1"",""3052""
","""event"",""trial"",""time""
""blur"",""0"",""0""
","""event"",""trial"",""time""
""focus"",""0"",""0""
","""event"",""trial"",""time""
""fullscreenenter"",""1"",""3052""
","
",,489.8000001,run_exp/static/images/task_images/land.jpg,65,,,,,,,1,,,2,,,,,,,,43624,1,2,FALSE,,,
dig,83,357555,0.0-29.0-0.0,"""event"",""trial"",""time""
""blur"",""0"",""0""
""focus"",""0"",""0""
""fullscreenenter"",""1"",""3052""
","""event"",""trial"",""time""
""blur"",""0"",""0""
","""event"",""trial"",""time""
""focus"",""0"",""0""
","""event"",""trial"",""time""
""fullscreenenter"",""1"",""3052""
","
",,,,,,,,,,,,"[{""stimulus"":""run_exp/static/images/task_images/dig.jpg"",""time"":0.20000004768371582},{""stimulus"":""run_exp/static/images/task_images/land.jpg"",""time"":848.7000000476837},{""stimulus"":""run_exp/static/images/task_images/dig.jpg"",""time"":1688.8000000715256}]",[],2,,,,,,,,,,,,,,
harvest,84,358570,0.0-29.0-1.0,"""event"",""trial"",""time""
""blur"",""0"",""0""
""focus"",""0"",""0""
""fullscreenenter"",""1"",""3052""
","""event"",""trial"",""time""
""blur"",""0"",""0""
","""event"",""trial"",""time""
""focus"",""0"",""0""
","""event"",""trial"",""time""
""fullscreenenter"",""1"",""3052""
","
",,null,run_exp/static/images/task_images/gems/1.jpg,null,,,,,,,0,,,2,,,,,1,0.124057618,0,,,,,,,
decision,85,358775,0.0-29.0-2.0,"""event"",""trial"",""time""
""blur"",""0"",""0""
""focus"",""0"",""0""
""fullscreenenter"",""1"",""3052""
","""event"",""trial"",""time""
""blur"",""0"",""0""
","""event"",""trial"",""time""
""focus"",""0"",""0""
","""event"",""trial"",""time""
""fullscreenenter"",""1"",""3052""
","
",,204.0999999,run_exp/static/images/task_images/land.jpg,76,,,,,,,0,,,2,,,,,,,,47357,1,3,TRUE,,,
travel,86,368580,0.0-30.0-0.0,"""event"",""trial"",""time""
""blur"",""0"",""0""
""focus"",""0"",""0""
""fullscreenenter"",""1"",""3052""
","""event"",""trial"",""time""
""blur"",""0"",""0""
","""event"",""trial"",""time""
""focus"",""0"",""0""
","""event"",""trial"",""time""
""fullscreenenter"",""1"",""3052""
","
",,,,,,,,,,,,"[{""stimulus"":""run_exp/static/images/task_images/rocket-01.jpg"",""time"":0},{""stimulus"":""run_exp/static/images/task_images/rocket-02.jpg"",""time"":1090.7000000476837},{""stimulus"":""run_exp/static/images/task_images/rocket-03.jpg"",""time"":2182.2000000476837},{""stimulus"":""run_exp/static/images/task_images/rocket-04.jpg"",""time"":3271.600000023842},{""stimulus"":""run_exp/static/images/task_images/rocket-05.jpg"",""time"":4362.600000023842},{""stimulus"":""run_exp/static/images/task_images/rocket-06.jpg"",""time"":5444.100000023842},{""stimulus"":""run_exp/static/images/task_images/rocket-07.jpg"",""time"":6542.5},{""stimulus"":""run_exp/static/images/task_images/rocket-08.jpg"",""time"":7627.400000095367},{""stimulus"":""run_exp/static/images/task_images/rocket-09.jpg"",""time"":8712.800000071526}]",[],2,,,,,,,,,,,,,,
alien_welcome,87,373588,0.0-30.0-1.0,"""event"",""trial"",""time""
""blur"",""0"",""0""
""focus"",""0"",""0""
""fullscreenenter"",""1"",""3052""
","""event"",""trial"",""time""
""blur"",""0"",""0""
","""event"",""trial"",""time""
""focus"",""0"",""0""
","""event"",""trial"",""time""
""fullscreenenter"",""1"",""3052""
","
",,null,run_exp/static/images/task_images/aliens/old_aliens/planet/alien_planet-40.jpg,null,,,,,,,,,,,,,40,"24,7,40,77,6,37,65,17,25,23,27,53,55,36,47,4,35,16,5,64,71,13,50,76,41,20,29,66,26,74",,,,,,,,,,
land,88,374103,0.0-30.0-2.0,"""event"",""trial"",""time""
""blur"",""0"",""0""
""focus"",""0"",""0""
""fullscreenenter"",""1"",""3052""
","""event"",""trial"",""time""
""blur"",""0"",""0""
","""event"",""trial"",""time""
""focus"",""0"",""0""
","""event"",""trial"",""time""
""fullscreenenter"",""1"",""3052""
","
",,null,run_exp/static/images/task_images/land.jpg,null,,,,,,,105,,,3,,,,,,,,,,,,,,
dig,89,376111,0.0-30.0-3.0,"""event"",""trial"",""time""
""blur"",""0"",""0""
""focus"",""0"",""0""
""fullscreenenter"",""1"",""3052""
","""event"",""trial"",""time""
""blur"",""0"",""0""
","""event"",""trial"",""time""
""focus"",""0"",""0""
","""event"",""trial"",""time""
""fullscreenenter"",""1"",""3052""
","
",,,,,,,,,,,,"[{""stimulus"":""run_exp/static/images/task_images/dig.jpg"",""time"":0.3999999761581421},{""stimulus"":""run_exp/static/images/task_images/land.jpg"",""time"":682.7999999523163},{""stimulus"":""run_exp/static/images/task_images/dig.jpg"",""time"":1343}]",[],3,,,,,,,,,,,,,,
harvest,90,377119,0.0-30.0-4.0,"""event"",""trial"",""time""
""blur"",""0"",""0""
""focus"",""0"",""0""
""fullscreenenter"",""1"",""3052""
","""event"",""trial"",""time""
""blur"",""0"",""0""
","""event"",""trial"",""time""
""focus"",""0"",""0""
","""event"",""trial"",""time""
""fullscreenenter"",""1"",""3052""
","
",,null,run_exp/static/images/task_images/gems/105.jpg,null,,,,,,,60,,,3,,,,,105,0.56706954,0.571428571,,,,,,,
decision,91,379179,0.0-30.0-5.0,"""event"",""trial"",""time""
""blur"",""0"",""0""
""focus"",""0"",""0""
""fullscreenenter"",""1"",""3052""
","""event"",""trial"",""time""
""blur"",""0"",""0""
","""event"",""trial"",""time""
""focus"",""0"",""0""
","""event"",""trial"",""time""
""fullscreenenter"",""1"",""3052""
","
",,2059.1,run_exp/static/images/task_images/land.jpg,65,,,,,,,60,,,3,,,,,,,,67762,1,0,FALSE,,,
dig,92,380124,0.0-31.0-0.0,"""event"",""trial"",""time""
""blur"",""0"",""0""
""focus"",""0"",""0""
""fullscreenenter"",""1"",""3052""
","""event"",""trial"",""time""
""blur"",""0"",""0""
","""event"",""trial"",""time""
""focus"",""0"",""0""
","""event"",""trial"",""time""
""fullscreenenter"",""1"",""3052""
","
",,,,,,,,,,,,"[{""stimulus"":""run_exp/static/images/task_images/dig.jpg"",""time"":0},{""stimulus"":""run_exp/static/images/task_images/land.jpg"",""time"":318.2999999523163},{""stimulus"":""run_exp/static/images/task_images/dig.jpg"",""time"":629.1000000238419}]",[],3,,,,,,,,,,,,,,
harvest,93,381133,0.0-31.0-1.0,"""event"",""trial"",""time""
""blur"",""0"",""0""
""focus"",""0"",""0""
""fullscreenenter"",""1"",""3052""
","""event"",""trial"",""time""
""blur"",""0"",""0""
","""event"",""trial"",""time""
""focus"",""0"",""0""
","""event"",""trial"",""time""
""fullscreenenter"",""1"",""3052""
","
",,null,run_exp/static/images/task_images/gems/60.jpg,null,,,,,,,33,,,3,,,,,60,0.544175286,0.55,,,,,,,
decision,94,382074,0.0-31.0-2.0,"""event"",""trial"",""time""
""blur"",""0"",""0""
""focus"",""0"",""0""
""fullscreenenter"",""1"",""3052""
","""event"",""trial"",""time""
""blur"",""0"",""0""
","""event"",""trial"",""time""
""focus"",""0"",""0""
","""event"",""trial"",""time""
""fullscreenenter"",""1"",""3052""
","
",,940.4,run_exp/static/images/task_images/land.jpg,65,,,,,,,33,,,3,,,,,,,,70656,1,1,FALSE,,,
dig,95,384152,0.0-32.0-0.0,"""event"",""trial"",""time""
""blur"",""0"",""0""
""focus"",""0"",""0""
""fullscreenenter"",""1"",""3052""
","""event"",""trial"",""time""
""blur"",""0"",""0""
","""event"",""trial"",""time""
""focus"",""0"",""0""
","""event"",""trial"",""time""
""fullscreenenter"",""1"",""3052""
","
",,,,,,,,,,,,"[{""stimulus"":""run_exp/static/images/task_images/dig.jpg"",""time"":0.2999999523162842},{""stimulus"":""run_exp/static/images/task_images/land.jpg"",""time"":694.6999999284744},{""stimulus"":""run_exp/static/images/task_images/dig.jpg"",""time"":1379}]",[],3,,,,,,,,,,,,,,
harvest,96,385154,0.0-32.0-1.0,"""event"",""trial"",""time""
""blur"",""0"",""0""
""focus"",""0"",""0""
""fullscreenenter"",""1"",""3052""
","""event"",""trial"",""time""
""blur"",""0"",""0""
","""event"",""trial"",""time""
""focus"",""0"",""0""
","""event"",""trial"",""time""
""fullscreenenter"",""1"",""3052""
","
",,null,run_exp/static/images/task_images/gems/33.jpg,null,,,,,,,16,,,3,,,,,33,0.474554847,0.484848485,,,,,,,
decision,97,385173,0.0-32.0-2.0,"""event"",""trial"",""time""
""blur"",""0"",""0""
""focus"",""0"",""0""
""fullscreenenter"",""1"",""3052""
","""event"",""trial"",""time""
""blur"",""0"",""0""
","""event"",""trial"",""time""
""focus"",""0"",""0""
","""event"",""trial"",""time""
""fullscreenenter"",""1"",""3052""
","
",,17.69999993,run_exp/static/images/task_images/land.jpg,65,,,,,,,16,,,3,,,,,,,,73755,1,2,FALSE,,,
dig,98,388171,0.0-33.0-0.0,"""event"",""trial"",""time""
""blur"",""0"",""0""
""focus"",""0"",""0""
""fullscreenenter"",""1"",""3052""
","""event"",""trial"",""time""
""blur"",""0"",""0""
","""event"",""trial"",""time""
""focus"",""0"",""0""
","""event"",""trial"",""time""
""fullscreenenter"",""1"",""3052""
","
",,,,,,,,,,,,"[{""stimulus"":""run_exp/static/images/task_images/dig.jpg"",""time"":0.20000004768371582},{""stimulus"":""run_exp/static/images/task_images/land.jpg"",""time"":999.6000000238419},{""stimulus"":""run_exp/static/images/task_images/dig.jpg"",""time"":2001.7999999523163}]",[],3,,,,,,,,,,,,,,
harvest,99,389178,0.0-33.0-1.0,"""event"",""trial"",""time""
""blur"",""0"",""0""
""focus"",""0"",""0""
""fullscreenenter"",""1"",""3052""
","""event"",""trial"",""time""
""blur"",""0"",""0""
","""event"",""trial"",""time""
""focus"",""0"",""0""
","""event"",""trial"",""time""
""fullscreenenter"",""1"",""3052""
","
",,null,run_exp/static/images/task_images/gems/16.jpg,null,,,,,,,9,,,3,,,,,16,0.589954976,0.5625,,,,,,,
decision,100,390802,0.0-33.0-2.0,"""event"",""trial"",""time""
""blur"",""0"",""0""
""focus"",""0"",""0""
""fullscreenenter"",""1"",""3052""
","""event"",""trial"",""time""
""blur"",""0"",""0""
","""event"",""trial"",""time""
""focus"",""0"",""0""
","""event"",""trial"",""time""
""fullscreenenter"",""1"",""3052""
","
",,1622.7,run_exp/static/images/task_images/land.jpg,65,,,,,,,9,,,3,,,,,,,,79385,1,3,FALSE,,,
dig,101,392193,0.0-34.0-0.0,"""event"",""trial"",""time""
""blur"",""0"",""0""
""focus"",""0"",""0""
""fullscreenenter"",""1"",""3052""
","""event"",""trial"",""time""
""blur"",""0"",""0""
","""event"",""trial"",""time""
""focus"",""0"",""0""
","""event"",""trial"",""time""
""fullscreenenter"",""1"",""3052""
","
",,,,,,,,,,,,"[{""stimulus"":""run_exp/static/images/task_images/dig.jpg"",""time"":0.20000004768371582},{""stimulus"":""run_exp/static/images/task_images/land.jpg"",""time"":466.7000000476837},{""stimulus"":""run_exp/static/images/task_images/dig.jpg"",""time"":921.5}]",[],3,,,,,,,,,,,,,,
harvest,102,393204,0.0-34.0-1.0,"""event"",""trial"",""time""
""blur"",""0"",""0""
""focus"",""0"",""0""
""fullscreenenter"",""1"",""3052""
","""event"",""trial"",""time""
""blur"",""0"",""0""
","""event"",""trial"",""time""
""focus"",""0"",""0""
","""event"",""trial"",""time""
""fullscreenenter"",""1"",""3052""
","
",,null,run_exp/static/images/task_images/gems/9.jpg,null,,,,,,,5,,,3,,,,,9,0.515638171,0.555555556,,,,,,,
decision,103,393813,0.0-34.0-2.0,"""event"",""trial"",""time""
""blur"",""0"",""0""
""focus"",""0"",""0""
""fullscreenenter"",""1"",""3052""
","""event"",""trial"",""time""
""blur"",""0"",""0""
","""event"",""trial"",""time""
""focus"",""0"",""0""
","""event"",""trial"",""time""
""fullscreenenter"",""1"",""3052""
","
",,608.3,run_exp/static/images/task_images/land.jpg,65,,,,,,,5,,,3,,,,,,,,82396,1,4,FALSE,,,
dig,104,396214,0.0-35.0-0.0,"""event"",""trial"",""time""
""blur"",""0"",""0""
""focus"",""0"",""0""
""fullscreenenter"",""1"",""3052""
","""event"",""trial"",""time""
""blur"",""0"",""0""
","""event"",""trial"",""time""
""focus"",""0"",""0""
","""event"",""trial"",""time""
""fullscreenenter"",""1"",""3052""
","
",,,,,,,,,,,,"[{""stimulus"":""run_exp/static/images/task_images/dig.jpg"",""time"":0.30000007152557373},{""stimulus"":""run_exp/static/images/task_images/land.jpg"",""time"":810.6000000238419},{""stimulus"":""run_exp/static/images/task_images/dig.jpg"",""time"":1605.8000000715256}]",[],3,,,,,,,,,,,,,,
harvest,105,397229,0.0-35.0-1.0,"""event"",""trial"",""time""
""blur"",""0"",""0""
""focus"",""0"",""0""
""fullscreenenter"",""1"",""3052""
","""event"",""trial"",""time""
""blur"",""0"",""0""
","""event"",""trial"",""time""
""focus"",""0"",""0""
","""event"",""trial"",""time""
""fullscreenenter"",""1"",""3052""
","
",,null,run_exp/static/images/task_images/gems/5.jpg,null,,,,,,,3,,,3,,,,,5,0.524388841,0.6,,,,,,,
decision,106,397336,0.0-35.0-2.0,"""event"",""trial"",""time""
""blur"",""0"",""0""
""focus"",""0"",""0""
""fullscreenenter"",""1"",""3052""
","""event"",""trial"",""time""
""blur"",""0"",""0""
","""event"",""trial"",""time""
""focus"",""0"",""0""
","""event"",""trial"",""time""
""fullscreenenter"",""1"",""3052""
","
",,105.8000001,run_exp/static/images/task_images/land.jpg,65,,,,,,,3,,,3,,,,,,,,85918,1,5,FALSE,,,
dig,107,400232,0.0-36.0-0.0,"""event"",""trial"",""time""
""blur"",""0"",""0""
""focus"",""0"",""0""
""fullscreenenter"",""1"",""3052""
","""event"",""trial"",""time""
""blur"",""0"",""0""
","""event"",""trial"",""time""
""focus"",""0"",""0""
","""event"",""trial"",""time""
""fullscreenenter"",""1"",""3052""
","
",,,,,,,,,,,,"[{""stimulus"":""run_exp/static/images/task_images/dig.jpg"",""time"":0.09999990463256836},{""stimulus"":""run_exp/static/images/task_images/land.jpg"",""time"":970.7999999523163},{""stimulus"":""run_exp/static/images/task_images/dig.jpg"",""time"":1934.2999999523163}]",[],3,,,,,,,,,,,,,,
harvest,108,401235,0.0-36.0-1.0,"""event"",""trial"",""time""
""blur"",""0"",""0""
""focus"",""0"",""0""
""fullscreenenter"",""1"",""3052""
","""event"",""trial"",""time""
""blur"",""0"",""0""
","""event"",""trial"",""time""
""focus"",""0"",""0""
","""event"",""trial"",""time""
""fullscreenenter"",""1"",""3052""
","
",,null,run_exp/static/images/task_images/gems/3.jpg,null,,,,,,,1,,,3,,,,,3,0.475670771,0.333333333,,,,,,,
decision,109,402261,0.0-36.0-2.0,"""event"",""trial"",""time""
""blur"",""0"",""0""
""focus"",""0"",""0""
""fullscreenenter"",""1"",""3052""
","""event"",""trial"",""time""
""blur"",""0"",""0""
","""event"",""trial"",""time""
""focus"",""0"",""0""
","""event"",""trial"",""time""
""fullscreenenter"",""1"",""3052""
","
",,1024.4,run_exp/static/images/task_images/land.jpg,65,,,,,,,1,,,3,,,,,,,,90843,1,6,FALSE,,,
dig,110,404257,0.0-37.0-0.0,"""event"",""trial"",""time""
""blur"",""0"",""0""
""focus"",""0"",""0""
""fullscreenenter"",""1"",""3052""
","""event"",""trial"",""time""
""blur"",""0"",""0""
","""event"",""trial"",""time""
""focus"",""0"",""0""
","""event"",""trial"",""time""
""fullscreenenter"",""1"",""3052""
","
",,,,,,,,,,,,"[{""stimulus"":""run_exp/static/images/task_images/dig.jpg"",""time"":0.2999999523162842},{""stimulus"":""run_exp/static/images/task_images/land.jpg"",""time"":672.2999999523163},{""stimulus"":""run_exp/static/images/task_images/dig.jpg"",""time"":1325.5}]",[],3,,,,,,,,,,,,,,
harvest,111,405277,0.0-37.0-1.0,"""event"",""trial"",""time""
""blur"",""0"",""0""
""focus"",""0"",""0""
""fullscreenenter"",""1"",""3052""
","""event"",""trial"",""time""
""blur"",""0"",""0""
","""event"",""trial"",""time""
""focus"",""0"",""0""
","""event"",""trial"",""time""
""fullscreenenter"",""1"",""3052""
","
",,null,run_exp/static/images/task_images/gems/1.jpg,null,,,,,,,0,,,3,,,,,1,0.482125553,0,,,,,,,
decision,112,405677,0.0-37.0-2.0,"""event"",""trial"",""time""
""blur"",""0"",""0""
""focus"",""0"",""0""
""fullscreenenter"",""1"",""3052""
","""event"",""trial"",""time""
""blur"",""0"",""0""
","""event"",""trial"",""time""
""focus"",""0"",""0""
","""event"",""trial"",""time""
""fullscreenenter"",""1"",""3052""
","
",,398.9,run_exp/static/images/task_images/land.jpg,76,,,,,,,0,,,3,,,,,,,,94260,1,7,TRUE,,,
travel,113,415289,0.0-38.0-0.0,"""event"",""trial"",""time""
""blur"",""0"",""0""
""focus"",""0"",""0""
""fullscreenenter"",""1"",""3052""
","""event"",""trial"",""time""
""blur"",""0"",""0""
","""event"",""trial"",""time""
""focus"",""0"",""0""
","""event"",""trial"",""time""
""fullscreenenter"",""1"",""3052""
","
",,,,,,,,,,,,"[{""stimulus"":""run_exp/static/images/task_images/rocket-01.jpg"",""time"":0.10000002384185791},{""stimulus"":""run_exp/static/images/task_images/rocket-02.jpg"",""time"":1075.6000000238419},{""stimulus"":""run_exp/static/images/task_images/rocket-03.jpg"",""time"":2144.8000000715256},{""stimulus"":""run_exp/static/images/task_images/rocket-04.jpg"",""time"":3201.5},{""stimulus"":""run_exp/static/images/task_images/rocket-05.jpg"",""time"":4269.899999976158},{""stimulus"":""run_exp/static/images/task_images/rocket-06.jpg"",""time"":5332},{""stimulus"":""run_exp/static/images/task_images/rocket-07.jpg"",""time"":6405},{""stimulus"":""run_exp/static/images/task_images/rocket-08.jpg"",""time"":7465.5},{""stimulus"":""run_exp/static/images/task_images/rocket-09.jpg"",""time"":8530.100000023842}]",[],3,,,,,,,,,,,,,,
alien_welcome,114,420304,0.0-38.0-1.0,"""event"",""trial"",""time""
""blur"",""0"",""0""
""focus"",""0"",""0""
""fullscreenenter"",""1"",""3052""
","""event"",""trial"",""time""
""blur"",""0"",""0""
","""event"",""trial"",""time""
""focus"",""0"",""0""
","""event"",""trial"",""time""
""fullscreenenter"",""1"",""3052""
","
",,null,run_exp/static/images/task_images/aliens/old_aliens/planet/alien_planet-77.jpg,null,,,,,,,,,,,,,77,"24,7,40,77,6,37,65,17,25,23,27,53,55,36,47,4,35,16,5,64,71,13,50,76,41,20,29,66,26,74",,,,,,,,,,
land,115,420812,0.0-38.0-2.0,"""event"",""trial"",""time""
""blur"",""0"",""0""
""focus"",""0"",""0""
""fullscreenenter"",""1"",""3052""
","""event"",""trial"",""time""
""blur"",""0"",""0""
","""event"",""trial"",""time""
""focus"",""0"",""0""
","""event"",""trial"",""time""
""fullscreenenter"",""1"",""3052""
","
",,null,run_exp/static/images/task_images/land.jpg,null,,,,,,,98,,,4,,,,,,,,,,,,,,
dig,116,422830,0.0-38.0-3.0,"""event"",""trial"",""time""
""blur"",""0"",""0""
""focus"",""0"",""0""
""fullscreenenter"",""1"",""3052""
","""event"",""trial"",""time""
""blur"",""0"",""0""
","""event"",""trial"",""time""
""focus"",""0"",""0""
","""event"",""trial"",""time""
""fullscreenenter"",""1"",""3052""
","
",,,,,,,,,,,,"[{""stimulus"":""run_exp/static/images/task_images/dig.jpg"",""time"":0.40000009536743164},{""stimulus"":""run_exp/static/images/task_images/land.jpg"",""time"":668.5},{""stimulus"":""run_exp/static/images/task_images/dig.jpg"",""time"":1343.5}]",[],4,,,,,,,,,,,,,,
harvest,117,423846,0.0-38.0-4.0,"""event"",""trial"",""time""
""blur"",""0"",""0""
""focus"",""0"",""0""
""fullscreenenter"",""1"",""3052""
","""event"",""trial"",""time""
""blur"",""0"",""0""
","""event"",""trial"",""time""
""focus"",""0"",""0""
","""event"",""trial"",""time""
""fullscreenenter"",""1"",""3052""
","
",,null,run_exp/static/images/task_images/gems/98.jpg,null,,,,,,,47,,,4,,,,,98,0.478069628,0.479591837,,,,,,,
decision,118,424343,0.0-38.0-5.0,"""event"",""trial"",""time""
""blur"",""0"",""0""
""focus"",""0"",""0""
""fullscreenenter"",""1"",""3052""
","""event"",""trial"",""time""
""blur"",""0"",""0""
","""event"",""trial"",""time""
""focus"",""0"",""0""
","""event"",""trial"",""time""
""fullscreenenter"",""1"",""3052""
","
",,495,run_exp/static/images/task_images/land.jpg,65,,,,,,,47,,,4,,,,,,,,112925,1,0,FALSE,,,
dig,119,426861,0.0-39.0-0.0,"""event"",""trial"",""time""
""blur"",""0"",""0""
""focus"",""0"",""0""
""fullscreenenter"",""1"",""3052""
","""event"",""trial"",""time""
""blur"",""0"",""0""
","""event"",""trial"",""time""
""focus"",""0"",""0""
","""event"",""trial"",""time""
""fullscreenenter"",""1"",""3052""
","
",,,,,,,,,,,,"[{""stimulus"":""run_exp/static/images/task_images/dig.jpg"",""time"":0},{""stimulus"":""run_exp/static/images/task_images/land.jpg"",""time"":846.2000000476837},{""stimulus"":""run_exp/static/images/task_images/dig.jpg"",""time"":1685.6000000238419}]",[],4,,,,,,,,,,,,,,
harvest,120,427876,0.0-39.0-1.0,"""event"",""trial"",""time""
""blur"",""0"",""0""
""focus"",""0"",""0""
""fullscreenenter"",""1"",""3052""
","""event"",""trial"",""time""
""blur"",""0"",""0""
","""event"",""trial"",""time""
""focus"",""0"",""0""
","""event"",""trial"",""time""
""fullscreenenter"",""1"",""3052""
","
",,null,run_exp/static/images/task_images/gems/47.jpg,null,,,,,,,24,,,4,,,,,47,0.50979308,0.510638298,,,,,,,
decision,121,428413,0.0-39.0-2.0,"""event"",""trial"",""time""
""blur"",""0"",""0""
""focus"",""0"",""0""
""fullscreenenter"",""1"",""3052""
","""event"",""trial"",""time""
""blur"",""0"",""0""
","""event"",""trial"",""time""
""focus"",""0"",""0""
","""event"",""trial"",""time""
""fullscreenenter"",""1"",""3052""
","
",,535.3,run_exp/static/images/task_images/land.jpg,65,,,,,,,24,,,4,,,,,,,,116995,1,1,FALSE,,,
dig,122,430894,0.0-40.0-0.0,"""event"",""trial"",""time""
""blur"",""0"",""0""
""focus"",""0"",""0""
""fullscreenenter"",""1"",""3052""
","""event"",""trial"",""time""
""blur"",""0"",""0""
","""event"",""trial"",""time""
""focus"",""0"",""0""
","""event"",""trial"",""time""
""fullscreenenter"",""1"",""3052""
","
",,,,,,,,,,,,"[{""stimulus"":""run_exp/static/images/task_images/dig.jpg"",""time"":0.30000007152557373},{""stimulus"":""run_exp/static/images/task_images/land.jpg"",""time"":826},{""stimulus"":""run_exp/static/images/task_images/dig.jpg"",""time"":1650}]",[],4,,,,,,,,,,,,,,
harvest,123,431898,0.0-40.0-1.0,"""event"",""trial"",""time""
""blur"",""0"",""0""
""focus"",""0"",""0""
""fullscreenenter"",""1"",""3052""
","""event"",""trial"",""time""
""blur"",""0"",""0""
","""event"",""trial"",""time""
""focus"",""0"",""0""
","""event"",""trial"",""time""
""fullscreenenter"",""1"",""3052""
","
",,null,run_exp/static/images/task_images/gems/24.jpg,null,,,,,,,11,,,4,,,,,24,0.464202826,0.458333333,,,,,,,
decision,124,432131,0.0-40.0-2.0,"""event"",""trial"",""time""
""blur"",""0"",""0""
""focus"",""0"",""0""
""fullscreenenter"",""1"",""3052""
","""event"",""trial"",""time""
""blur"",""0"",""0""
","""event"",""trial"",""time""
""focus"",""0"",""0""
","""event"",""trial"",""time""
""fullscreenenter"",""1"",""3052""
","
",,231.2,run_exp/static/images/task_images/land.jpg,65,,,,,,,11,,,4,,,,,,,,120713,1,2,FALSE,,,
dig,125,434906,0.0-41.0-0.0,"""event"",""trial"",""time""
""blur"",""0"",""0""
""focus"",""0"",""0""
""fullscreenenter"",""1"",""3052""
","""event"",""trial"",""time""
""blur"",""0"",""0""
","""event"",""trial"",""time""
""focus"",""0"",""0""
","""event"",""trial"",""time""
""fullscreenenter"",""1"",""3052""
","
",,,,,,,,,,,,"[{""stimulus"":""run_exp/static/images/task_images/dig.jpg"",""time"":0.19999992847442627},{""stimulus"":""run_exp/static/images/task_images/land.jpg"",""time"":925.5},{""stimulus"":""run_exp/static/images/task_images/dig.jpg"",""time"":1846.5}]",[],4,,,,,,,,,,,,,,
harvest,126,435915,0.0-41.0-1.0,"""event"",""trial"",""time""
""blur"",""0"",""0""
""focus"",""0"",""0""
""fullscreenenter"",""1"",""3052""
","""event"",""trial"",""time""
""blur"",""0"",""0""
","""event"",""trial"",""time""
""focus"",""0"",""0""
","""event"",""trial"",""time""
""fullscreenenter"",""1"",""3052""
","
",,null,run_exp/static/images/task_images/gems/11.jpg,null,,,,,,,5,,,4,,,,,11,0.435794442,0.454545455,,,,,,,
decision,127,436529,0.0-41.0-2.0,"""event"",""trial"",""time""
""blur"",""0"",""0""
""focus"",""0"",""0""
""fullscreenenter"",""1"",""3052""
","""event"",""trial"",""time""
""blur"",""0"",""0""
","""event"",""trial"",""time""
""focus"",""0"",""0""
","""event"",""trial"",""time""
""fullscreenenter"",""1"",""3052""
","
",,612.6,run_exp/static/images/task_images/land.jpg,65,,,,,,,5,,,4,,,,,,,,125111,1,3,FALSE,,,
dig,128,438919,0.0-42.0-0.0,"""event"",""trial"",""time""
""blur"",""0"",""0""
""focus"",""0"",""0""
""fullscreenenter"",""1"",""3052""
","""event"",""trial"",""time""
""blur"",""0"",""0""
","""event"",""trial"",""time""
""focus"",""0"",""0""
","""event"",""trial"",""time""
""fullscreenenter"",""1"",""3052""
","
",,,,,,,,,,,,"[{""stimulus"":""run_exp/static/images/task_images/dig.jpg"",""time"":0.30000007152557373},{""stimulus"":""run_exp/static/images/task_images/land.jpg"",""time"":800.4000000953674},{""stimulus"":""run_exp/static/images/task_images/dig.jpg"",""time"":1597}]",[],4,,,,,,,,,,,,,,
harvest,129,439926,0.0-42.0-1.0,"""event"",""trial"",""time""
""blur"",""0"",""0""
""focus"",""0"",""0""
""fullscreenenter"",""1"",""3052""
","""event"",""trial"",""time""
""blur"",""0"",""0""
","""event"",""trial"",""time""
""focus"",""0"",""0""
","""event"",""trial"",""time""
""fullscreenenter"",""1"",""3052""
","
",,null,run_exp/static/images/task_images/gems/5.jpg,null,,,,,,,2,,,4,,,,,5,0.471609523,0.4,,,,,,,
decision,130,440328,0.0-42.0-2.0,"""event"",""trial"",""time""
""blur"",""0"",""0""
""focus"",""0"",""0""
""fullscreenenter"",""1"",""3052""
","""event"",""trial"",""time""
""blur"",""0"",""0""
","""event"",""trial"",""time""
""focus"",""0"",""0""
","""event"",""trial"",""time""
""fullscreenenter"",""1"",""3052""
","
",,401.4,run_exp/static/images/task_images/land.jpg,65,,,,,,,2,,,4,,,,,,,,128910,1,4,FALSE,,,
dig,131,442946,0.0-43.0-0.0,"""event"",""trial"",""time""
""blur"",""0"",""0""
""focus"",""0"",""0""
""fullscreenenter"",""1"",""3052""
","""event"",""trial"",""time""
""blur"",""0"",""0""
","""event"",""trial"",""time""
""focus"",""0"",""0""
","""event"",""trial"",""time""
""fullscreenenter"",""1"",""3052""
","
",,,,,,,,,,,,"[{""stimulus"":""run_exp/static/images/task_images/dig.jpg"",""time"":0.2999999523162842},{""stimulus"":""run_exp/static/images/task_images/land.jpg"",""time"":874.0999999046326},{""stimulus"":""run_exp/static/images/task_images/dig.jpg"",""time"":1744.1999999284744}]",[],4,,,,,,,,,,,,,,
harvest,132,443948,0.0-43.0-1.0,"""event"",""trial"",""time""
""blur"",""0"",""0""
""focus"",""0"",""0""
""fullscreenenter"",""1"",""3052""
","""event"",""trial"",""time""
""blur"",""0"",""0""
","""event"",""trial"",""time""
""focus"",""0"",""0""
","""event"",""trial"",""time""
""fullscreenenter"",""1"",""3052""
","
",,null,run_exp/static/images/task_images/gems/2.jpg,null,,,,,,,1,,,4,,,,,2,0.476477163,0.5,,,,,,,
decision,133,444493,0.0-43.0-2.0,"""event"",""trial"",""time""
""blur"",""0"",""0""
""focus"",""0"",""0""
""fullscreenenter"",""1"",""3052""
","""event"",""trial"",""time""
""blur"",""0"",""0""
","""event"",""trial"",""time""
""focus"",""0"",""0""
","""event"",""trial"",""time""
""fullscreenenter"",""1"",""3052""
","
",,543.8000001,run_exp/static/images/task_images/land.jpg,65,,,,,,,1,,,4,,,,,,,,133075,1,5,FALSE,,,
dig,134,446960,0.0-44.0-0.0,"""event"",""trial"",""time""
""blur"",""0"",""0""
""focus"",""0"",""0""
""fullscreenenter"",""1"",""3052""
","""event"",""trial"",""time""
""blur"",""0"",""0""
","""event"",""trial"",""time""
""focus"",""0"",""0""
","""event"",""trial"",""time""
""fullscreenenter"",""1"",""3052""
","
",,,,,,,,,,,,"[{""stimulus"":""run_exp/static/images/task_images/dig.jpg"",""time"":0.20000004768371582},{""stimulus"":""run_exp/static/images/task_images/land.jpg"",""time"":823.5},{""stimulus"":""run_exp/static/images/task_images/dig.jpg"",""time"":1647.4000000953674}]",[],4,,,,,,,,,,,,,,
harvest,135,447974,0.0-44.0-1.0,"""event"",""trial"",""time""
""blur"",""0"",""0""
""focus"",""0"",""0""
""fullscreenenter"",""1"",""3052""
","""event"",""trial"",""time""
""blur"",""0"",""0""
","""event"",""trial"",""time""
""focus"",""0"",""0""
","""event"",""trial"",""time""
""fullscreenenter"",""1"",""3052""
","
",,null,run_exp/static/images/task_images/gems/1.jpg,null,,,,,,,0,,,4,,,,,1,0.482029425,0,,,,,,,
decision,136,448599,0.0-44.0-2.0,"""event"",""trial"",""time""
""blur"",""0"",""0""
""focus"",""0"",""0""
""fullscreenenter"",""1"",""3052""
","""event"",""trial"",""time""
""blur"",""0"",""0""
","""event"",""trial"",""time""
""focus"",""0"",""0""
","""event"",""trial"",""time""
""fullscreenenter"",""1"",""3052""
","
",,624.6999999,run_exp/static/images/task_images/land.jpg,76,,,,,,,0,,,4,,,,,,,,137182,1,6,TRUE,,,
travel,137,457986,0.0-45.0-0.0,"""event"",""trial"",""time""
""blur"",""0"",""0""
""focus"",""0"",""0""
""fullscreenenter"",""1"",""3052""
","""event"",""trial"",""time""
""blur"",""0"",""0""
","""event"",""trial"",""time""
""focus"",""0"",""0""
","""event"",""trial"",""time""
""fullscreenenter"",""1"",""3052""
","
",,,,,,,,,,,,"[{""stimulus"":""run_exp/static/images/task_images/rocket-01.jpg"",""time"":0},{""stimulus"":""run_exp/static/images/task_images/rocket-02.jpg"",""time"":1052.1000000238419},{""stimulus"":""run_exp/static/images/task_images/rocket-03.jpg"",""time"":2094.2000000476837},{""stimulus"":""run_exp/static/images/task_images/rocket-04.jpg"",""time"":3138.600000023842},{""stimulus"":""run_exp/static/images/task_images/rocket-05.jpg"",""time"":4179.5},{""stimulus"":""run_exp/static/images/task_images/rocket-06.jpg"",""time"":5220.800000071526},{""stimulus"":""run_exp/static/images/task_images/rocket-07.jpg"",""time"":6258.100000023842},{""stimulus"":""run_exp/static/images/task_images/rocket-08.jpg"",""time"":7298.899999976158},{""stimulus"":""run_exp/static/images/task_images/rocket-09.jpg"",""time"":8336}]",[],4,,,,,,,,,,,,,,
alien_welcome,138,463001,0.0-45.0-1.0,"""event"",""trial"",""time""
""blur"",""0"",""0""
""focus"",""0"",""0""
""fullscreenenter"",""1"",""3052""
","""event"",""trial"",""time""
""blur"",""0"",""0""
","""event"",""trial"",""time""
""focus"",""0"",""0""
","""event"",""trial"",""time""
""fullscreenenter"",""1"",""3052""
","
",,null,run_exp/static/images/task_images/aliens/old_aliens/planet/alien_planet-6.jpg,null,,,,,,,,,,,,,6,"24,7,40,77,6,37,65,17,25,23,27,53,55,36,47,4,35,16,5,64,71,13,50,76,41,20,29,66,26,74",,,,,,,,,,
land,139,463513,0.0-45.0-2.0,"""event"",""trial"",""time""
""blur"",""0"",""0""
""focus"",""0"",""0""
""fullscreenenter"",""1"",""3052""
","""event"",""trial"",""time""
""blur"",""0"",""0""
","""event"",""trial"",""time""
""focus"",""0"",""0""
","""event"",""trial"",""time""
""fullscreenenter"",""1"",""3052""
","
",,null,run_exp/static/images/task_images/land.jpg,null,,,,,,,108,,,5,,,,,,,,,,,,,,
dig,140,465527,0.0-45.0-3.0,"""event"",""trial"",""time""
""blur"",""0"",""0""
""focus"",""0"",""0""
""fullscreenenter"",""1"",""3052""
","""event"",""trial"",""time""
""blur"",""0"",""0""
","""event"",""trial"",""time""
""focus"",""0"",""0""
","""event"",""trial"",""time""
""fullscreenenter"",""1"",""3052""
","
",,,,,,,,,,,,"[{""stimulus"":""run_exp/static/images/task_images/dig.jpg"",""time"":0.20000004768371582},{""stimulus"":""run_exp/static/images/task_images/land.jpg"",""time"":681.3000000715256},{""stimulus"":""run_exp/static/images/task_images/dig.jpg"",""time"":1343}]",[],5,,,,,,,,,,,,,,
harvest,141,466532,0.0-45.0-4.0,"""event"",""trial"",""time""
""blur"",""0"",""0""
""focus"",""0"",""0""
""fullscreenenter"",""1"",""3052""
","""event"",""trial"",""time""
""blur"",""0"",""0""
","""event"",""trial"",""time""
""focus"",""0"",""0""
","""event"",""trial"",""time""
""fullscreenenter"",""1"",""3052""
","
",,null,run_exp/static/images/task_images/gems/108.jpg,null,,,,,,,56,,,5,,,,,108,0.52185087,0.518518519,,,,,,,
decision,142,467144,0.0-45.0-5.0,"""event"",""trial"",""time""
""blur"",""0"",""0""
""focus"",""0"",""0""
""fullscreenenter"",""1"",""3052""
","""event"",""trial"",""time""
""blur"",""0"",""0""
","""event"",""trial"",""time""
""focus"",""0"",""0""
","""event"",""trial"",""time""
""fullscreenenter"",""1"",""3052""
","
",,610.5999999,run_exp/static/images/task_images/land.jpg,65,,,,,,,56,,,5,,,,,,,,155726,1,0,FALSE,,,
dig,143,469547,0.0-46.0-0.0,"""event"",""trial"",""time""
""blur"",""0"",""0""
""focus"",""0"",""0""
""fullscreenenter"",""1"",""3052""
","""event"",""trial"",""time""
""blur"",""0"",""0""
","""event"",""trial"",""time""
""focus"",""0"",""0""
","""event"",""trial"",""time""
""fullscreenenter"",""1"",""3052""
","
",,,,,,,,,,,,"[{""stimulus"":""run_exp/static/images/task_images/dig.jpg"",""time"":0.20000004768371582},{""stimulus"":""run_exp/static/images/task_images/land.jpg"",""time"":804.3000000715256},{""stimulus"":""run_exp/static/images/task_images/dig.jpg"",""time"":1600.6000000238419}]",[],5,,,,,,,,,,,,,,
harvest,144,470560,0.0-46.0-1.0,"""event"",""trial"",""time""
""blur"",""0"",""0""
""focus"",""0"",""0""
""fullscreenenter"",""1"",""3052""
","""event"",""trial"",""time""
""blur"",""0"",""0""
","""event"",""trial"",""time""
""focus"",""0"",""0""
","""event"",""trial"",""time""
""fullscreenenter"",""1"",""3052""
","
",,null,run_exp/static/images/task_images/gems/56.jpg,null,,,,,,,27,,,5,,,,,56,0.480933836,0.482142857,,,,,,,
decision,145,470877,0.0-46.0-2.0,"""event"",""trial"",""time""
""blur"",""0"",""0""
""focus"",""0"",""0""
""fullscreenenter"",""1"",""3052""
","""event"",""trial"",""time""
""blur"",""0"",""0""
","""event"",""trial"",""time""
""focus"",""0"",""0""
","""event"",""trial"",""time""
""fullscreenenter"",""1"",""3052""
","
",,316.3,run_exp/static/images/task_images/land.jpg,65,,,,,,,27,,,5,,,,,,,,159459,1,1,FALSE,,,
dig,146,473574,0.0-47.0-0.0,"""event"",""trial"",""time""
""blur"",""0"",""0""
""focus"",""0"",""0""
""fullscreenenter"",""1"",""3052""
","""event"",""trial"",""time""
""blur"",""0"",""0""
","""event"",""trial"",""time""
""focus"",""0"",""0""
","""event"",""trial"",""time""
""fullscreenenter"",""1"",""3052""
","
",,,,,,,,,,,,"[{""stimulus"":""run_exp/static/images/task_images/dig.jpg"",""time"":0.19999992847442627},{""stimulus"":""run_exp/static/images/task_images/land.jpg"",""time"":908.6999999284744},{""stimulus"":""run_exp/static/images/task_images/dig.jpg"",""time"":1791.0999999046326}]",[],5,,,,,,,,,,,,,,
harvest,147,474586,0.0-47.0-1.0,"""event"",""trial"",""time""
""blur"",""0"",""0""
""focus"",""0"",""0""
""fullscreenenter"",""1"",""3052""
","""event"",""trial"",""time""
""blur"",""0"",""0""
","""event"",""trial"",""time""
""focus"",""0"",""0""
","""event"",""trial"",""time""
""fullscreenenter"",""1"",""3052""
","
",,null,run_exp/static/images/task_images/gems/27.jpg,null,,,,,,,14,,,5,,,,,27,0.508554248,0.518518519,,,,,,,
decision,148,474965,0.0-47.0-2.0,"""event"",""trial"",""time""
""blur"",""0"",""0""
""focus"",""0"",""0""
""fullscreenenter"",""1"",""3052""
","""event"",""trial"",""time""
""blur"",""0"",""0""
","""event"",""trial"",""time""
""focus"",""0"",""0""
","""event"",""trial"",""time""
""fullscreenenter"",""1"",""3052""
","
",,377,run_exp/static/images/task_images/land.jpg,65,,,,,,,14,,,5,,,,,,,,163547,1,2,FALSE,,,
dig,149,477600,0.0-48.0-0.0,"""event"",""trial"",""time""
""blur"",""0"",""0""
""focus"",""0"",""0""
""fullscreenenter"",""1"",""3052""
","""event"",""trial"",""time""
""blur"",""0"",""0""
","""event"",""trial"",""time""
""focus"",""0"",""0""
","""event"",""trial"",""time""
""fullscreenenter"",""1"",""3052""
","
",,,,,,,,,,,,"[{""stimulus"":""run_exp/static/images/task_images/dig.jpg"",""time"":0.19999992847442627},{""stimulus"":""run_exp/static/images/task_images/land.jpg"",""time"":880.7999999523163},{""stimulus"":""run_exp/static/images/task_images/dig.jpg"",""time"":1761.6999999284744}]",[],5,,,,,,,,,,,,,,
harvest,150,478601,0.0-48.0-1.0,"""event"",""trial"",""time""
""blur"",""0"",""0""
""focus"",""0"",""0""
""fullscreenenter"",""1"",""3052""
","""event"",""trial"",""time""
""blur"",""0"",""0""
","""event"",""trial"",""time""
""focus"",""0"",""0""
","""event"",""trial"",""time""
""fullscreenenter"",""1"",""3052""
","
",,null,run_exp/static/images/task_images/gems/14.jpg,null,,,,,,,7,,,5,,,,,14,0.50545654,0.5,,,,,,,
decision,151,479235,0.0-48.0-2.0,"""event"",""trial"",""time""
""blur"",""0"",""0""
""focus"",""0"",""0""
""fullscreenenter"",""1"",""3052""
","""event"",""trial"",""time""
""blur"",""0"",""0""
","""event"",""trial"",""time""
""focus"",""0"",""0""
","""event"",""trial"",""time""
""fullscreenenter"",""1"",""3052""
","
",,632.7,run_exp/static/images/task_images/land.jpg,65,,,,,,,7,,,5,,,,,,,,167817,1,3,FALSE,,,
dig,152,481618,0.0-49.0-0.0,"""event"",""trial"",""time""
""blur"",""0"",""0""
""focus"",""0"",""0""
""fullscreenenter"",""1"",""3052""
","""event"",""trial"",""time""
""blur"",""0"",""0""
","""event"",""trial"",""time""
""focus"",""0"",""0""
","""event"",""trial"",""time""
""fullscreenenter"",""1"",""3052""
","
",,,,,,,,,,,,"[{""stimulus"":""run_exp/static/images/task_images/dig.jpg"",""time"":0.30000007152557373},{""stimulus"":""run_exp/static/images/task_images/land.jpg"",""time"":801.7000000476837},{""stimulus"":""run_exp/static/images/task_images/dig.jpg"",""time"":1592.3000000715256}]",[],5,,,,,,,,,,,,,,
harvest,153,482622,0.0-49.0-1.0,"""event"",""trial"",""time""
""blur"",""0"",""0""
""focus"",""0"",""0""
""fullscreenenter"",""1"",""3052""
","""event"",""trial"",""time""
""blur"",""0"",""0""
","""event"",""trial"",""time""
""focus"",""0"",""0""
","""event"",""trial"",""time""
""fullscreenenter"",""1"",""3052""
","
",,null,run_exp/static/images/task_images/gems/7.jpg,null,,,,,,,4,,,5,,,,,7,0.528961759,0.571428571,,,,,,,
decision,154,483149,0.0-49.0-2.0,"""event"",""trial"",""time""
""blur"",""0"",""0""
""focus"",""0"",""0""
""fullscreenenter"",""1"",""3052""
","""event"",""trial"",""time""
""blur"",""0"",""0""
","""event"",""trial"",""time""
""focus"",""0"",""0""
","""event"",""trial"",""time""
""fullscreenenter"",""1"",""3052""
","
",,525.3,run_exp/static/images/task_images/land.jpg,65,,,,,,,4,,,5,,,,,,,,171731,1,4,FALSE,,,
dig,155,485638,0.0-50.0-0.0,"""event"",""trial"",""time""
""blur"",""0"",""0""
""focus"",""0"",""0""
""fullscreenenter"",""1"",""3052""
","""event"",""trial"",""time""
""blur"",""0"",""0""
","""event"",""trial"",""time""
""focus"",""0"",""0""
","""event"",""trial"",""time""
""fullscreenenter"",""1"",""3052""
","
",,,,,,,,,,,,"[{""stimulus"":""run_exp/static/images/task_images/dig.jpg"",""time"":0.30000007152557373},{""stimulus"":""run_exp/static/images/task_images/land.jpg"",""time"":828.8999999761581},{""stimulus"":""run_exp/static/images/task_images/dig.jpg"",""time"":1650}]",[],5,,,,,,,,,,,,,,
harvest,156,486650,0.0-50.0-1.0,"""event"",""trial"",""time""
""blur"",""0"",""0""
""focus"",""0"",""0""
""fullscreenenter"",""1"",""3052""
","""event"",""trial"",""time""
""blur"",""0"",""0""
","""event"",""trial"",""time""
""focus"",""0"",""0""
","""event"",""trial"",""time""
""fullscreenenter"",""1"",""3052""
","
",,null,run_exp/static/images/task_images/gems/4.jpg,null,,,,,,,2,,,5,,,,,4,0.494664783,0.5,,,,,,,
decision,157,486815,0.0-50.0-2.0,"""event"",""trial"",""time""
""blur"",""0"",""0""
""focus"",""0"",""0""
""fullscreenenter"",""1"",""3052""
","""event"",""trial"",""time""
""blur"",""0"",""0""
","""event"",""trial"",""time""
""focus"",""0"",""0""
","""event"",""trial"",""time""
""fullscreenenter"",""1"",""3052""
","
",,163.7,run_exp/static/images/task_images/land.jpg,65,,,,,,,2,,,5,,,,,,,,175397,1,5,FALSE,,,
dig,158,489670,0.0-51.0-0.0,"""event"",""trial"",""time""
""blur"",""0"",""0""
""focus"",""0"",""0""
""fullscreenenter"",""1"",""3052""
","""event"",""trial"",""time""
""blur"",""0"",""0""
","""event"",""trial"",""time""
""focus"",""0"",""0""
","""event"",""trial"",""time""
""fullscreenenter"",""1"",""3052""
","
",,,,,,,,,,,,"[{""stimulus"":""run_exp/static/images/task_images/dig.jpg"",""time"":0.20000004768371582},{""stimulus"":""run_exp/static/images/task_images/land.jpg"",""time"":948.3999999761581},{""stimulus"":""run_exp/static/images/task_images/dig.jpg"",""time"":1903.7000000476837}]",[],5,,,,,,,,,,,,,,
harvest,159,490678,0.0-51.0-1.0,"""event"",""trial"",""time""
""blur"",""0"",""0""
""focus"",""0"",""0""
""fullscreenenter"",""1"",""3052""
","""event"",""trial"",""time""
""blur"",""0"",""0""
","""event"",""trial"",""time""
""focus"",""0"",""0""
","""event"",""trial"",""time""
""fullscreenenter"",""1"",""3052""
","
",,null,run_exp/static/images/task_images/gems/2.jpg,null,,,,,,,1,,,5,,,,,2,0.527597395,0.5,,,,,,,
decision,160,490800,0.0-51.0-2.0,"""event"",""trial"",""time""
""blur"",""0"",""0""
""focus"",""0"",""0""
""fullscreenenter"",""1"",""3052""
","""event"",""trial"",""time""
""blur"",""0"",""0""
","""event"",""trial"",""time""
""focus"",""0"",""0""
","""event"",""trial"",""time""
""fullscreenenter"",""1"",""3052""
","
",,121,run_exp/static/images/task_images/land.jpg,65,,,,,,,1,,,5,,,,,,,,179382,1,6,FALSE,,,
dig,161,493684,0.0-52.0-0.0,"""event"",""trial"",""time""
""blur"",""0"",""0""
""focus"",""0"",""0""
""fullscreenenter"",""1"",""3052""
","""event"",""trial"",""time""
""blur"",""0"",""0""
","""event"",""trial"",""time""
""focus"",""0"",""0""
","""event"",""trial"",""time""
""fullscreenenter"",""1"",""3052""
","
",,,,,,,,,,,,"[{""stimulus"":""run_exp/static/images/task_images/dig.jpg"",""time"":0.19999992847442627},{""stimulus"":""run_exp/static/images/task_images/land.jpg"",""time"":973.5999999046326},{""stimulus"":""run_exp/static/images/task_images/dig.jpg"",""time"":1922.7999999523163}]",[],5,,,,,,,,,,,,,,
harvest,162,494692,0.0-52.0-1.0,"""event"",""trial"",""time""
""blur"",""0"",""0""
""focus"",""0"",""0""
""fullscreenenter"",""1"",""3052""
","""event"",""trial"",""time""
""blur"",""0"",""0""
","""event"",""trial"",""time""
""focus"",""0"",""0""
","""event"",""trial"",""time""
""fullscreenenter"",""1"",""3052""
","
",,null,run_exp/static/images/task_images/gems/1.jpg,null,,,,,,,1,,,5,,,,,1,0.574248847,1,,,,,,,
decision,163,495024,0.0-52.0-2.0,"""event"",""trial"",""time""
""blur"",""0"",""0""
""focus"",""0"",""0""
""fullscreenenter"",""1"",""3052""
","""event"",""trial"",""time""
""blur"",""0"",""0""
","""event"",""trial"",""time""
""focus"",""0"",""0""
","""event"",""trial"",""time""
""fullscreenenter"",""1"",""3052""
","
",,330.8,run_exp/static/images/task_images/land.jpg,76,,,,,,,1,,,5,,,,,,,,183606,1,7,TRUE,,,
travel,164,504706,0.0-53.0-0.0,"""event"",""trial"",""time""
""blur"",""0"",""0""
""focus"",""0"",""0""
""fullscreenenter"",""1"",""3052""
","""event"",""trial"",""time""
""blur"",""0"",""0""
","""event"",""trial"",""time""
""focus"",""0"",""0""
","""event"",""trial"",""time""
""fullscreenenter"",""1"",""3052""
","
",,,,,,,,,,,,"[{""stimulus"":""run_exp/static/images/task_images/rocket-01.jpg"",""time"":0.30000007152557373},{""stimulus"":""run_exp/static/images/task_images/rocket-02.jpg"",""time"":1086.4000000953674},{""stimulus"":""run_exp/static/images/task_images/rocket-03.jpg"",""time"":2154.5},{""stimulus"":""run_exp/static/images/task_images/rocket-04.jpg"",""time"":3238.600000023842},{""stimulus"":""run_exp/static/images/task_images/rocket-05.jpg"",""time"":4311.600000023842},{""stimulus"":""run_exp/static/images/task_images/rocket-06.jpg"",""time"":5384.5},{""stimulus"":""run_exp/static/images/task_images/rocket-07.jpg"",""time"":6459.800000071526},{""stimulus"":""run_exp/static/images/task_images/rocket-08.jpg"",""time"":7533},{""stimulus"":""run_exp/static/images/task_images/rocket-09.jpg"",""time"":8608.5}]",[],5,,,,,,,,,,,,,,
alien_welcome,165,509710,0.0-53.0-1.0,"""event"",""trial"",""time""
""blur"",""0"",""0""
""focus"",""0"",""0""
""fullscreenenter"",""1"",""3052""
","""event"",""trial"",""time""
""blur"",""0"",""0""
","""event"",""trial"",""time""
""focus"",""0"",""0""
","""event"",""trial"",""time""
""fullscreenenter"",""1"",""3052""
","
",,null,run_exp/static/images/task_images/aliens/old_aliens/planet/alien_planet-37.jpg,null,,,,,,,,,,,,,37,"24,7,40,77,6,37,65,17,25,23,27,53,55,36,47,4,35,16,5,64,71,13,50,76,41,20,29,66,26,74",,,,,,,,,,
land,166,510225,0.0-53.0-2.0,"""event"",""trial"",""time""
""blur"",""0"",""0""
""focus"",""0"",""0""
""fullscreenenter"",""1"",""3052""
","""event"",""trial"",""time""
""blur"",""0"",""0""
","""event"",""trial"",""time""
""focus"",""0"",""0""
","""event"",""trial"",""time""
""fullscreenenter"",""1"",""3052""
","
",,null,run_exp/static/images/task_images/land.jpg,null,,,,,,,104,,,6,,,,,,,,,,,,,,
dig,167,512234,0.0-53.0-3.0,"""event"",""trial"",""time""
""blur"",""0"",""0""
""focus"",""0"",""0""
""fullscreenenter"",""1"",""3052""
","""event"",""trial"",""time""
""blur"",""0"",""0""
","""event"",""trial"",""time""
""focus"",""0"",""0""
","""event"",""trial"",""time""
""fullscreenenter"",""1"",""3052""
","
",,,,,,,,,,,,"[{""stimulus"":""run_exp/static/images/task_images/dig.jpg"",""time"":0.30000007152557373},{""stimulus"":""run_exp/static/images/task_images/land.jpg"",""time"":672},{""stimulus"":""run_exp/static/images/task_images/dig.jpg"",""time"":1341.7000000476837}]",[],6,,,,,,,,,,,,,,
harvest,168,513243,0.0-53.0-4.0,"""event"",""trial"",""time""
""blur"",""0"",""0""
""focus"",""0"",""0""
""fullscreenenter"",""1"",""3052""
","""event"",""trial"",""time""
""blur"",""0"",""0""
","""event"",""trial"",""time""
""focus"",""0"",""0""
","""event"",""trial"",""time""
""fullscreenenter"",""1"",""3052""
","
",,null,run_exp/static/images/task_images/gems/104.jpg,null,,,,,,,80,,,6,,,,,104,0.770809871,0.769230769,,,,,,,
decision,169,513717,0.0-53.0-5.0,"""event"",""trial"",""time""
""blur"",""0"",""0""
""focus"",""0"",""0""
""fullscreenenter"",""1"",""3052""
","""event"",""trial"",""time""
""blur"",""0"",""0""
","""event"",""trial"",""time""
""focus"",""0"",""0""
","""event"",""trial"",""time""
""fullscreenenter"",""1"",""3052""
","
",,472.5999999,run_exp/static/images/task_images/land.jpg,65,,,,,,,80,,,6,,,,,,,,202299,1,0,FALSE,,,
dig,170,516250,0.0-54.0-0.0,"""event"",""trial"",""time""
""blur"",""0"",""0""
""focus"",""0"",""0""
""fullscreenenter"",""1"",""3052""
","""event"",""trial"",""time""
""blur"",""0"",""0""
","""event"",""trial"",""time""
""focus"",""0"",""0""
","""event"",""trial"",""time""
""fullscreenenter"",""1"",""3052""
","
",,,,,,,,,,,,"[{""stimulus"":""run_exp/static/images/task_images/dig.jpg"",""time"":0.30000007152557373},{""stimulus"":""run_exp/static/images/task_images/land.jpg"",""time"":852.8999999761581},{""stimulus"":""run_exp/static/images/task_images/dig.jpg"",""time"":1687}]",[],6,,,,,,,,,,,,,,
harvest,171,517258,0.0-54.0-1.0,"""event"",""trial"",""time""
""blur"",""0"",""0""
""focus"",""0"",""0""
""fullscreenenter"",""1"",""3052""
","""event"",""trial"",""time""
""blur"",""0"",""0""
","""event"",""trial"",""time""
""focus"",""0"",""0""
","""event"",""trial"",""time""
""fullscreenenter"",""1"",""3052""
","
",,null,run_exp/static/images/task_images/gems/80.jpg,null,,,,,,,66,,,6,,,,,80,0.821629333,0.825,,,,,,,
decision,172,517728,0.0-54.0-2.0,"""event"",""trial"",""time""
""blur"",""0"",""0""
""focus"",""0"",""0""
""fullscreenenter"",""1"",""3052""
","""event"",""trial"",""time""
""blur"",""0"",""0""
","""event"",""trial"",""time""
""focus"",""0"",""0""
","""event"",""trial"",""time""
""fullscreenenter"",""1"",""3052""
","
",,469.3000001,run_exp/static/images/task_images/land.jpg,65,,,,,,,66,,,6,,,,,,,,206310,1,1,FALSE,,,
dig,173,520263,0.0-55.0-0.0,"""event"",""trial"",""time""
""blur"",""0"",""0""
""focus"",""0"",""0""
""fullscreenenter"",""1"",""3052""
","""event"",""trial"",""time""
""blur"",""0"",""0""
","""event"",""trial"",""time""
""focus"",""0"",""0""
","""event"",""trial"",""time""
""fullscreenenter"",""1"",""3052""
","
",,,,,,,,,,,,"[{""stimulus"":""run_exp/static/images/task_images/dig.jpg"",""time"":0.30000007152557373},{""stimulus"":""run_exp/static/images/task_images/land.jpg"",""time"":858.8999999761581},{""stimulus"":""run_exp/static/images/task_images/dig.jpg"",""time"":1694}]",[],6,,,,,,,,,,,,,,
harvest,174,521277,0.0-55.0-1.0,"""event"",""trial"",""time""
""blur"",""0"",""0""
""focus"",""0"",""0""
""fullscreenenter"",""1"",""3052""
","""event"",""trial"",""time""
""blur"",""0"",""0""
","""event"",""trial"",""time""
""focus"",""0"",""0""
","""event"",""trial"",""time""
""fullscreenenter"",""1"",""3052""
","
",,null,run_exp/static/images/task_images/gems/66.jpg,null,,,,,,,51,,,6,,,,,66,0.777366885,0.772727273,,,,,,,
decision,175,521655,0.0-55.0-2.0,"""event"",""trial"",""time""
""blur"",""0"",""0""
""focus"",""0"",""0""
""fullscreenenter"",""1"",""3052""
","""event"",""trial"",""time""
""blur"",""0"",""0""
","""event"",""trial"",""time""
""focus"",""0"",""0""
","""event"",""trial"",""time""
""fullscreenenter"",""1"",""3052""
","
",,376.4,run_exp/static/images/task_images/land.jpg,65,,,,,,,51,,,6,,,,,,,,210237,1,2,FALSE,,,
dig,176,524286,0.0-56.0-0.0,"""event"",""trial"",""time""
""blur"",""0"",""0""
""focus"",""0"",""0""
""fullscreenenter"",""1"",""3052""
","""event"",""trial"",""time""
""blur"",""0"",""0""
","""event"",""trial"",""time""
""focus"",""0"",""0""
","""event"",""trial"",""time""
""fullscreenenter"",""1"",""3052""
","
",,,,,,,,,,,,"[{""stimulus"":""run_exp/static/images/task_images/dig.jpg"",""time"":0.19999992847442627},{""stimulus"":""run_exp/static/images/task_images/land.jpg"",""time"":878},{""stimulus"":""run_exp/static/images/task_images/dig.jpg"",""time"":1752.8999999761581}]",[],6,,,,,,,,,,,,,,
harvest,177,525303,0.0-56.0-1.0,"""event"",""trial"",""time""
""blur"",""0"",""0""
""focus"",""0"",""0""
""fullscreenenter"",""1"",""3052""
","""event"",""trial"",""time""
""blur"",""0"",""0""
","""event"",""trial"",""time""
""focus"",""0"",""0""
","""event"",""trial"",""time""
""fullscreenenter"",""1"",""3052""
","
",,null,run_exp/static/images/task_images/gems/51.jpg,null,,,,,,,40,,,6,,,,,51,0.788807325,0.784313725,,,,,,,
decision,178,525626,0.0-56.0-2.0,"""event"",""trial"",""time""
""blur"",""0"",""0""
""focus"",""0"",""0""
""fullscreenenter"",""1"",""3052""
","""event"",""trial"",""time""
""blur"",""0"",""0""
","""event"",""trial"",""time""
""focus"",""0"",""0""
","""event"",""trial"",""time""
""fullscreenenter"",""1"",""3052""
","
",,322.1,run_exp/static/images/task_images/land.jpg,65,,,,,,,40,,,6,,,,,,,,214208,1,3,FALSE,,,
dig,179,528307,0.0-57.0-0.0,"""event"",""trial"",""time""
""blur"",""0"",""0""
""focus"",""0"",""0""
""fullscreenenter"",""1"",""3052""
","""event"",""trial"",""time""
""blur"",""0"",""0""
","""event"",""trial"",""time""
""focus"",""0"",""0""
","""event"",""trial"",""time""
""fullscreenenter"",""1"",""3052""
","
",,,,,,,,,,,,"[{""stimulus"":""run_exp/static/images/task_images/dig.jpg"",""time"":0.10000002384185791},{""stimulus"":""run_exp/static/images/task_images/land.jpg"",""time"":899.3000000715256},{""stimulus"":""run_exp/static/images/task_images/dig.jpg"",""time"":1787.6000000238419}]",[],6,,,,,,,,,,,,,,
harvest,180,529315,0.0-57.0-1.0,"""event"",""trial"",""time""
""blur"",""0"",""0""
""focus"",""0"",""0""
""fullscreenenter"",""1"",""3052""
","""event"",""trial"",""time""
""blur"",""0"",""0""
","""event"",""trial"",""time""
""focus"",""0"",""0""
","""event"",""trial"",""time""
""fullscreenenter"",""1"",""3052""
","
",,null,run_exp/static/images/task_images/gems/40.jpg,null,,,,,,,35,,,6,,,,,40,0.868452685,0.875,,,,,,,
decision,181,529646,0.0-57.0-2.0,"""event"",""trial"",""time""
""blur"",""0"",""0""
""focus"",""0"",""0""
""fullscreenenter"",""1"",""3052""
","""event"",""trial"",""time""
""blur"",""0"",""0""
","""event"",""trial"",""time""
""focus"",""0"",""0""
","""event"",""trial"",""time""
""fullscreenenter"",""1"",""3052""
","
",,329.6,run_exp/static/images/task_images/land.jpg,65,,,,,,,35,,,6,,,,,,,,218228,1,4,FALSE,,,
dig,182,532325,0.0-58.0-0.0,"""event"",""trial"",""time""
""blur"",""0"",""0""
""focus"",""0"",""0""
""fullscreenenter"",""1"",""3052""
","""event"",""trial"",""time""
""blur"",""0"",""0""
","""event"",""trial"",""time""
""focus"",""0"",""0""
","""event"",""trial"",""time""
