trial_type,trial_index,time_elapsed,internal_node_id,interactions,blur_events,focus_events,fullscreenenter_events,fullscreenexit_events,success,rt,stimulus,key_press,prompt,subject_id,participant_id,age,gender,button_pressed,next_reward,animation_sequence,responses,planet,curr_prac_trial,n_prac_rounds,alien,aliens,reward_received,decay_rate_actual,decay_rate_exp,time_in_block,block_num,prt,last_trial_on_planet,button_html,bonus,num_failures
pavlovia,0,11,0.0-0.0,"""event"",""trial"",""time""
""fullscreenenter"",""1"",""3432""
","
","
","""event"",""trial"",""time""
""fullscreenenter"",""1"",""3432""
","
",,,,,,,,,,,,,,,,,,,,,,,,,,,,
fullscreen,1,4397,0.0-1.0,"""event"",""trial"",""time""
""fullscreenenter"",""1"",""3432""
","
","
","""event"",""trial"",""time""
""fullscreenenter"",""1"",""3432""
","
",TRUE,,,,,,,,,,,,,,,,,,,,,,,,,,,
instruc_welcome,2,14186,0.0-2.0,"""event"",""trial"",""time""
""fullscreenenter"",""1"",""3432""
","
","
","""event"",""trial"",""time""
""fullscreenenter"",""1"",""3432""
","
",,null,run_exp/static/audio/clip_1_welcome.m4a,null,"<p>Howdy! In this experiment, you’ll be an explorer traveling through space to collect space treasure.</p><p>Your mission is to collect as much treasure as possible.</p><br><br><p><img src='run_exp/static/images/task_images/opening_img-01.jpg' height='300' width='auto'></p>",7830,3934,24.69,Male,,,,,,,,,,,,,,,,,,,
audio-keyboard-response,3,30824,0.0-3.0,"""event"",""trial"",""time""
""fullscreenenter"",""1"",""3432""
","
","
","""event"",""trial"",""time""
""fullscreenenter"",""1"",""3432""
","
",,null,run_exp/static/audio/clip_2_move.m4a,null,,,,,,,,,,,,,,,,,,,,,,,,
welcome_dec,4,33512,0.0-4.0,"""event"",""trial"",""time""
""fullscreenenter"",""1"",""3432""
","
","
","""event"",""trial"",""time""
""fullscreenenter"",""1"",""3432""
","
",,2681.9,"<p>Howdy! In this experiment, you’ll be an explorer traveling through space to collect space treasure.</p><p>Your mission is to collect as much treasure as possible.</p><br><br><p><img src='run_exp/static/images/task_images/opening_img-01.jpg' height='300' width='auto'></p>",,,,,,,1,,,,,,,,,,,,,,,,,,
html-keyboard-response,5,36102,0.0-5.0,"""event"",""trial"",""time""
""fullscreenenter"",""1"",""3432""
","
","
","""event"",""trial"",""time""
""fullscreenenter"",""1"",""3432""
","
",,2587.3,"<p>Howdy! In this experiment, you’ll be an explorer traveling through space to collect space treasure.</p><p>Your mission is to collect as much treasure as possible.</p><br><br><p><img src='run_exp/static/images/task_images/opening_img-01.jpg' height='300' width='auto'></p><button class=""jspsych-html-btn-unchosen""><img src=""run_exp/static/images/task_images/planet-01.jpg"" height=""50""></button><button class=""jspsych-html-btn-chosen""><img src=""run_exp/static/images/task_images/planet-02.jpg"" height=""50""></button><p><b>[press the space bar to lock in your answer]<b><br></p>",32,,,,,,,,,,,,,,,,,,,,,,,,
instruc_goal,6,46205,0.0-6.0-0.0,"""event"",""trial"",""time""
""fullscreenenter"",""1"",""3432""
","
","
","""event"",""trial"",""time""
""fullscreenenter"",""1"",""3432""
","
",,null,run_exp/static/audio/clip_3_goal.m4a,null,"<p> As a space explorer, you’ll visit different planets to dig for space treasure, these pink gems.</p> <p> The more treasure you dig up, the more bonus money you’ll win! </p><br><br><p><img src='run_exp/static/images/task_images/pink_gem.jpg' height='300' width='auto'></p>",,,,,,,,,,,,,,,,,,,,,,,
instruc_goal,7,48733,0.0-6.0-1.0,"""event"",""trial"",""time""
""fullscreenenter"",""1"",""3432""
","
","
","""event"",""trial"",""time""
""fullscreenenter"",""1"",""3432""
","
",,2523.1,"<p> As a space explorer, you’ll visit different planets to dig for space treasure, these pink gems.</p> <p> The more treasure you dig up, the more bonus money you’ll win! </p><br><br><p><img src='run_exp/static/images/task_images/pink_gem.jpg' height='300' width='auto'></p>",,,,,,,1,,,,,,,,,,,,,,,,,,
html-keyboard-response,8,49273,0.0-6.0-2.0,"""event"",""trial"",""time""
""fullscreenenter"",""1"",""3432""
","
","
","""event"",""trial"",""time""
""fullscreenenter"",""1"",""3432""
","
",,537.7,"<p> As a space explorer, you’ll visit different planets to dig for space treasure, these pink gems.</p> <p> The more treasure you dig up, the more bonus money you’ll win! </p><br><br><p><img src='run_exp/static/images/task_images/pink_gem.jpg' height='300' width='auto'></p><button class=""jspsych-html-btn-unchosen""><img src=""run_exp/static/images/task_images/planet-01.jpg"" height=""50""></button><button class=""jspsych-html-btn-chosen""><img src=""run_exp/static/images/task_images/planet-02.jpg"" height=""50""></button><p><b>[press the space bar to lock in your answer]<b><br></p>",32,,,,,,,,,,,,,,,,,,,,,,,,
instruc_dig,9,65306,0.0-7.0-0.0,"""event"",""trial"",""time""
""fullscreenenter"",""1"",""3432""
","
","
","""event"",""trial"",""time""
""fullscreenenter"",""1"",""3432""
","
",,null,run_exp/static/audio/clip_4_dig.m4a,null,,,,,,,100,,,,,,,,,,,,,,,,,
instruc_dig_try,10,65338,0.0-7.0-1.0,"""event"",""trial"",""time""
""fullscreenenter"",""1"",""3432""
","
","
","""event"",""trial"",""time""
""fullscreenenter"",""1"",""3432""
","
",,27.5,"<p> When you’ve arrived at a new planet, you will dig once. </p> <p>Then, you get to decide if you want to stay on the planet and dig again or travel to a new planet and dig there.</p> <p> To stay and dig, press the letter <strong>‘A’</strong> on your keyboard. Try pressing it now! </p><p><img src='run_exp/static/images/task_images/land.jpg'  height='700' width='auto'></p>",65,"<p> When you’ve arrived at a new planet, you will dig once. </p> <p>Then, you get to decide if you want to stay on the planet and dig again or travel to a new planet and dig there.</p> <p> To stay and dig, press the letter <strong>‘A’</strong> on your keyboard. Try pressing it now! </p><p><img src='run_exp/static/images/task_images/land.jpg'  height='700' width='auto'></p>",,,,,,100,,,,,,,,,,,,,,,,,
dig_prac,11,67359,0.0-7.0-2.0,"""event"",""trial"",""time""
""fullscreenenter"",""1"",""3432""
","
","
","""event"",""trial"",""time""
""fullscreenenter"",""1"",""3432""
","
",,,,,,,,,,,,"[{""stimulus"":""run_exp/static/images/task_images/dig.jpg"",""time"":0.7999999821186066},{""stimulus"":""run_exp/static/images/task_images/land.jpg"",""time"":671},{""stimulus"":""run_exp/static/images/task_images/dig.jpg"",""time"":1342.199999988079}]",[],,,,,,,,,,,,,,,
instruc_travel,12,103646,0.0-7.0-3.0,"""event"",""trial"",""time""
""fullscreenenter"",""1"",""3432""
","
","
","""event"",""trial"",""time""
""fullscreenenter"",""1"",""3432""
","
",,null,run_exp/static/audio/clip_5_travel.m4a,null,"<p>Every time you dig up gems, there are less gems on the planet, so the more you dig on a planet the fewer gems you’ll get with each dig.</p><p>When gems are running low, you may want to travel to a new planet. </p> <p>  Planets are very far apart in this galaxy, so it will take some time to travel between them. </p> <br><p>There are lots and lots of planets for you to visit, so you won’t be able to return to any planets you’ve seen before. </p><br><p>To leave this planet and travel to a new one, press the letter <strong>‘L’</strong> on your keyboard. Try pressing it now! </p><p><img src='run_exp/static/images/task_images/rocket-01.jpg'  height='600' width='auto'></p>",,,,,,,,,,,,,,,,,,,,,,,
instruc_travel_try,13,105119,0.0-7.0-4.0,"""event"",""trial"",""time""
""fullscreenenter"",""1"",""3432""
","
","
","""event"",""trial"",""time""
""fullscreenenter"",""1"",""3432""
","
",,1469.4,"<p>Every time you dig up gems, there are less gems on the planet, so the more you dig on a planet the fewer gems you’ll get with each dig.</p><p>When gems are running low, you may want to travel to a new planet. </p> <p>  Planets are very far apart in this galaxy, so it will take some time to travel between them. </p> <br><p>There are lots and lots of planets for you to visit, so you won’t be able to return to any planets you’ve seen before. </p><br><p>To leave this planet and travel to a new one, press the letter <strong>‘L’</strong> on your keyboard. Try pressing it now! </p><p><img src='run_exp/static/images/task_images/rocket-01.jpg'  height='600' width='auto'></p>",76,"<p>Every time you dig up gems, there are less gems on the planet, so the more you dig on a planet the fewer gems you’ll get with each dig.</p><p>When gems are running low, you may want to travel to a new planet. </p> <p>  Planets are very far apart in this galaxy, so it will take some time to travel between them. </p> <br><p>There are lots and lots of planets for you to visit, so you won’t be able to return to any planets you’ve seen before. </p><br><p>To leave this planet and travel to a new one, press the letter <strong>‘L’</strong> on your keyboard. Try pressing it now! </p><p><img src='run_exp/static/images/task_images/rocket-01.jpg'  height='600' width='auto'></p>",,,,,,,,,,,,,,,,,,,,,,,
travel_prac,14,115123,0.0-7.0-5.0,"""event"",""trial"",""time""
""fullscreenenter"",""1"",""3432""
","
","
","""event"",""trial"",""time""
""fullscreenenter"",""1"",""3432""
","
",,,,,,,,,,,,"[{""stimulus"":""run_exp/static/images/task_images/rocket-01.jpg"",""time"":0.5},{""stimulus"":""run_exp/static/images/task_images/rocket-02.jpg"",""time"":1133.5999999940395},{""stimulus"":""run_exp/static/images/task_images/rocket-03.jpg"",""time"":2233},{""stimulus"":""run_exp/static/images/task_images/rocket-04.jpg"",""time"":3343.4000000059605},{""stimulus"":""run_exp/static/images/task_images/rocket-05.jpg"",""time"":4453.0999999940395},{""stimulus"":""run_exp/static/images/task_images/rocket-06.jpg"",""time"":5565.199999988079},{""stimulus"":""run_exp/static/images/task_images/rocket-07.jpg"",""time"":6683.5999999940395},{""stimulus"":""run_exp/static/images/task_images/rocket-08.jpg"",""time"":7783.0999999940395},{""stimulus"":""run_exp/static/images/task_images/rocket-09.jpg"",""time"":8902.90000000596}]",[],0,,,,,,,,,,,,,,
instruc_alien_greet,15,142335,0.0-7.0-6.0,"""event"",""trial"",""time""
""fullscreenenter"",""1"",""3432""
","
","
","""event"",""trial"",""time""
""fullscreenenter"",""1"",""3432""
","
",,null,run_exp/static/audio/clip_6_alien.m4a,null,"<p>When you arrive at a new planet, the alien who owns the treasure mine on that planet will greet you!</p><p>The better an alien takes care of their mine the easier it is to dig for gems. Some aliens take better care of their mine than others. So, you won’t get exactly the same amount of gems on each planet.</p><p>What the alien looks like does not tell you anything about how many gems there are on the planet.</p><br><p><img src=""run_exp/static/images/task_images/aliens/instructions_aliens/planet/alien_planet-1.jpg""  height=""600"" width=""auto""></p>",,,,,,,,,,,,,,,,,,,,,,,
instruc_alien_greet,16,147447,0.0-7.0-7.0,"""event"",""trial"",""time""
""fullscreenenter"",""1"",""3432""
","
","
","""event"",""trial"",""time""
""fullscreenenter"",""1"",""3432""
","
",,5107,"<p>When you arrive at a new planet, the alien who owns the treasure mine on that planet will greet you!</p><p>The better an alien takes care of their mine the easier it is to dig for gems. Some aliens take better care of their mine than others. So, you won’t get exactly the same amount of gems on each planet.</p><p>What the alien looks like does not tell you anything about how many gems there are on the planet.</p><br><p><img src=""run_exp/static/images/task_images/aliens/instructions_aliens/planet/alien_planet-1.jpg""  height=""600"" width=""auto""></p>",,,,,,,1,,,,,,,,,,,,,,,,,,
html-keyboard-response,17,151710,0.0-7.0-8.0,"""event"",""trial"",""time""
""fullscreenenter"",""1"",""3432""
","
","
","""event"",""trial"",""time""
""fullscreenenter"",""1"",""3432""
","
",,4259.2,"<p>When you arrive at a new planet, the alien who owns the treasure mine on that planet will greet you!</p><p>The better an alien takes care of their mine the easier it is to dig for gems. Some aliens take better care of their mine than others. So, you won’t get exactly the same amount of gems on each planet.</p><p>What the alien looks like does not tell you anything about how many gems there are on the planet.</p><br><p><img src=""run_exp/static/images/task_images/aliens/instructions_aliens/planet/alien_planet-1.jpg""  height=""600"" width=""auto""></p><button class=""jspsych-html-btn-unchosen""><img src=""run_exp/static/images/task_images/planet-01.jpg"" height=""50""></button><button class=""jspsych-html-btn-chosen""><img src=""run_exp/static/images/task_images/planet-02.jpg"" height=""50""></button><p><b>[press the space bar to lock in your answer]<b><br></p>",32,,,,,,,,,,,,,,,,,,,,,,,,
time_out,18,162835,0.0-8.0-0.0,"""event"",""trial"",""time""
""fullscreenenter"",""1"",""3432""
","
","
","""event"",""trial"",""time""
""fullscreenenter"",""1"",""3432""
","
",,null,run_exp/static/audio/clip_7_timeout.m4a,null,"<p>If you don't make your choice fast enough, you’ll have to wait a few seconds before you can make another one.</p><p>You can’t dig for more gems or travel to new planets. You just have to sit and wait.</p><br><p><img src='run_exp/static/images/task_images/time_out.jpg'  height='600' width='auto'></p>",,,,,,,,,,,,,,,,,,,,,,,
time_out,19,170341,0.0-8.0-1.0,"""event"",""trial"",""time""
""fullscreenenter"",""1"",""3432""
","
","
","""event"",""trial"",""time""
""fullscreenenter"",""1"",""3432""
","
",,7501.5,"<p>If you don't make your choice fast enough, you’ll have to wait a few seconds before you can make another one.</p><p>You can’t dig for more gems or travel to new planets. You just have to sit and wait.</p><br><p><img src='run_exp/static/images/task_images/time_out.jpg'  height='600' width='auto'></p>",,,,,,,1,,,,,,,,,,,,,,,,,,
html-keyboard-response,20,172117,0.0-8.0-2.0,"""event"",""trial"",""time""
""fullscreenenter"",""1"",""3432""
","
","
","""event"",""trial"",""time""
""fullscreenenter"",""1"",""3432""
","
",,1770.3,"<p>If you don't make your choice fast enough, you’ll have to wait a few seconds before you can make another one.</p><p>You can’t dig for more gems or travel to new planets. You just have to sit and wait.</p><br><p><img src='run_exp/static/images/task_images/time_out.jpg'  height='600' width='auto'></p><button class=""jspsych-html-btn-unchosen""><img src=""run_exp/static/images/task_images/planet-01.jpg"" height=""50""></button><button class=""jspsych-html-btn-chosen""><img src=""run_exp/static/images/task_images/planet-02.jpg"" height=""50""></button><p><b>[press the space bar to lock in your answer]<b><br></p>",32,,,,,,,,,,,,,,,,,,,,,,,,
instruc_break,21,187815,0.0-9.0-0.0,"""event"",""trial"",""time""
""fullscreenenter"",""1"",""3432""
","
","
","""event"",""trial"",""time""
""fullscreenenter"",""1"",""3432""
","
",,null,run_exp/static/audio/clip_8_break.m4a,null,"<p> After digging and traveling for a while, you’ll be able to take a break at home base. </p><p>The game will last 20 minutes no matter what.</p><p>You will visit home base every 5 minutes, so, you will visit home base three times during the game.</p><br><p><img src='run_exp/static/images/task_images/home_base.jpg' height='600' width='auto'></p>",,,,,,,,,,,,,,,,,,,,,,,
instruc_break,22,190855,0.0-9.0-1.0,"""event"",""trial"",""time""
""fullscreenenter"",""1"",""3432""
","
","
","""event"",""trial"",""time""
""fullscreenenter"",""1"",""3432""
","
",,3035.6,"<p> After digging and traveling for a while, you’ll be able to take a break at home base. </p><p>The game will last 20 minutes no matter what.</p><p>You will visit home base every 5 minutes, so, you will visit home base three times during the game.</p><br><p><img src='run_exp/static/images/task_images/home_base.jpg' height='600' width='auto'></p>",,,,,,,1,,,,,,,,,,,,,,,,,,
html-keyboard-response,23,192366,0.0-9.0-2.0,"""event"",""trial"",""time""
""fullscreenenter"",""1"",""3432""
","
","
","""event"",""trial"",""time""
""fullscreenenter"",""1"",""3432""
","
",,1509.8,"<p> After digging and traveling for a while, you’ll be able to take a break at home base. </p><p>The game will last 20 minutes no matter what.</p><p>You will visit home base every 5 minutes, so, you will visit home base three times during the game.</p><br><p><img src='run_exp/static/images/task_images/home_base.jpg' height='600' width='auto'></p><button class=""jspsych-html-btn-unchosen""><img src=""run_exp/static/images/task_images/planet-01.jpg"" height=""50""></button><button class=""jspsych-html-btn-chosen""><img src=""run_exp/static/images/task_images/planet-02.jpg"" height=""50""></button><p><b>[press the space bar to lock in your answer]<b><br></p>",32,,,,,,,,,,,,,,,,,,,,,,,,
instruc_prac_game,24,202513,0.0-10.0-0.0,"""event"",""trial"",""time""
""fullscreenenter"",""1"",""3432""
","
","
","""event"",""trial"",""time""
""fullscreenenter"",""1"",""3432""
","
",,null,run_exp/static/audio/clip_9_practice.m4a,null,"<p> Are you ready to play a practice game? </p> <p>In this practice game, you'll be digging up barrels of gems. But, in the real game, you'll be digging up the gems themselves. </p>",,,,,,,,,,,,,,,,,,,,,,,
html-button-response,25,205861,0.0-10.0-1.0,"""event"",""trial"",""time""
""fullscreenenter"",""1"",""3432""
","
","
","""event"",""trial"",""time""
""fullscreenenter"",""1"",""3432""
","
",,3346.6,"<p> Are you ready to play a practice game? </p> <p>In this practice game, you'll be digging up barrels of gems. But, in the real game, you'll be digging up the gems themselves. </p>",,,,,,,0,,,,,,,,,,,,,,,,,,
alien_welcome_prac,26,210872,0.0-11.0-0.0,"""event"",""trial"",""time""
""fullscreenenter"",""1"",""3432""
","
","
","""event"",""trial"",""time""
""fullscreenenter"",""1"",""3432""
","
",,null,run_exp/static/images/task_images/aliens/practice_aliens/planet/alien_planet-5.jpg,null,,,,,,,,,,,,,,,,,,,,,,,,
land_prac,27,211382,0.0-11.0-1.0,"""event"",""trial"",""time""
""fullscreenenter"",""1"",""3432""
","
","
","""event"",""trial"",""time""
""fullscreenenter"",""1"",""3432""
","
",,null,run_exp/static/images/task_images/land.jpg,null,,,,,,,104,,,0,,,,,,,,,,,,,,
dig_prac,28,213403,0.0-11.0-2.0,"""event"",""trial"",""time""
""fullscreenenter"",""1"",""3432""
","
","
","""event"",""trial"",""time""
""fullscreenenter"",""1"",""3432""
","
",,,,,,,,,,,,"[{""stimulus"":""run_exp/static/images/task_images/dig.jpg"",""time"":0.10000002384185791},{""stimulus"":""run_exp/static/images/task_images/land.jpg"",""time"":682.3000000119209},{""stimulus"":""run_exp/static/images/task_images/dig.jpg"",""time"":1341.300000011921}]",[],,,,,,,,,,,,,,,
harvest_prac,29,214423,0.0-11.0-3.0,"""event"",""trial"",""time""
""fullscreenenter"",""1"",""3432""
","
","
","""event"",""trial"",""time""
""fullscreenenter"",""1"",""3432""
","
",,null,run_exp/static/images/task_images/barrel_text.jpg,null,,,,,,,,,,,,,,,,,,,,,,,,
decision_prac,30,217432,0.0-11.0-4.0,"""event"",""trial"",""time""
""fullscreenenter"",""1"",""3432""
","
","
","""event"",""trial"",""time""
""fullscreenenter"",""1"",""3432""
","
",,null,run_exp/static/images/task_images/land.jpg,null,,,,,,,,,,,1,,,,,,,,,,,,,
time_out,31,219453,0.0-12.0-0.0,"""event"",""trial"",""time""
""fullscreenenter"",""1"",""3432""
","
","
","""event"",""trial"",""time""
""fullscreenenter"",""1"",""3432""
","
",,null,run_exp/static/images/task_images/time_out.jpg,null,,,,,,,,,,,,,,,,,,,,,,,,
decision_prac,32,220156,0.0-12.0-1.0,"""event"",""trial"",""time""
""fullscreenenter"",""1"",""3432""
","
","
","""event"",""trial"",""time""
""fullscreenenter"",""1"",""3432""
","
",,701.4,run_exp/static/images/task_images/land.jpg,65,,,,,,,,,,,2,,,,,,,,,,,,,
dig_prac,33,222182,0.0-13.0-0.0,"""event"",""trial"",""time""
""fullscreenenter"",""1"",""3432""
","
","
","""event"",""trial"",""time""
""fullscreenenter"",""1"",""3432""
","
",,,,,,,,,,,,"[{""stimulus"":""run_exp/static/images/task_images/dig.jpg"",""time"":0.19999998807907104},{""stimulus"":""run_exp/static/images/task_images/land.jpg"",""time"":672.8000000119209},{""stimulus"":""run_exp/static/images/task_images/dig.jpg"",""time"":1343.0999999940395}]",[],,,,,,,,,,,,,,,
harvest_prac,34,223203,0.0-13.0-1.0,"""event"",""trial"",""time""
""fullscreenenter"",""1"",""3432""
","
","
","""event"",""trial"",""time""
""fullscreenenter"",""1"",""3432""
","
",,null,run_exp/static/images/task_images/barrel_text.jpg,null,,,,,,,,,,,,,,,,,,,,,,,,
decision_prac,35,223844,0.0-13.0-2.0,"""event"",""trial"",""time""
""fullscreenenter"",""1"",""3432""
","
","
","""event"",""trial"",""time""
""fullscreenenter"",""1"",""3432""
","
",,640.1,run_exp/static/images/task_images/land.jpg,65,,,,,,,,,,,3,,,,,,,,,,,,,
dig_prac,36,225852,0.0-14.0-0.0,"""event"",""trial"",""time""
""fullscreenenter"",""1"",""3432""
","
","
","""event"",""trial"",""time""
""fullscreenenter"",""1"",""3432""
","
",,,,,,,,,,,,"[{""stimulus"":""run_exp/static/images/task_images/dig.jpg"",""time"":0.20000001788139343},{""stimulus"":""run_exp/static/images/task_images/land.jpg"",""time"":683.9000000059605},{""stimulus"":""run_exp/static/images/task_images/dig.jpg"",""time"":1353.7000000178814}]",[],,,,,,,,,,,,,,,
harvest_prac,37,226862,0.0-14.0-1.0,"""event"",""trial"",""time""
""fullscreenenter"",""1"",""3432""
","
","
","""event"",""trial"",""time""
""fullscreenenter"",""1"",""3432""
","
",,null,run_exp/static/images/task_images/barrel_text.jpg,null,,,,,,,,,,,,,,,,,,,,,,,,
decision_prac,38,226898,0.0-14.0-2.0,"""event"",""trial"",""time""
""fullscreenenter"",""1"",""3432""
","
","
","""event"",""trial"",""time""
""fullscreenenter"",""1"",""3432""
","
",,34.80000001,run_exp/static/images/task_images/land.jpg,65,,,,,,,,,,,4,,,,,,,,,,,,,
dig_prac,39,228913,0.0-15.0-0.0,"""event"",""trial"",""time""
""fullscreenenter"",""1"",""3432""
","
","
","""event"",""trial"",""time""
""fullscreenenter"",""1"",""3432""
","
",,,,,,,,,,,,"[{""stimulus"":""run_exp/static/images/task_images/dig.jpg"",""time"":0.09999999403953552},{""stimulus"":""run_exp/static/images/task_images/land.jpg"",""time"":671.4000000059605},{""stimulus"":""run_exp/static/images/task_images/dig.jpg"",""time"":1351.4000000059605}]",[],,,,,,,,,,,,,,,
harvest_prac,40,229925,0.0-15.0-1.0,"""event"",""trial"",""time""
""fullscreenenter"",""1"",""3432""
","
","
","""event"",""trial"",""time""
""fullscreenenter"",""1"",""3432""
","
",,null,run_exp/static/images/task_images/barrel_text.jpg,null,,,,,,,,,,,,,,,,,,,,,,,,
decision_prac,41,230659,0.0-15.0-2.0,"""event"",""trial"",""time""
""fullscreenenter"",""1"",""3432""
","
","
","""event"",""trial"",""time""
""fullscreenenter"",""1"",""3432""
","
",,731.7,run_exp/static/images/task_images/land.jpg,65,,,,,,,,,,,,1,,,,,,,,,,,,
quiz_instruc,42,232771,0.0-16.0-0.0,"""event"",""trial"",""time""
""fullscreenenter"",""1"",""3432""
","
","
","""event"",""trial"",""time""
""fullscreenenter"",""1"",""3432""
","
",,2105.2,run_exp/static/audio/clip_10_quiz.m4a,,,,,,,0,,,,,,,,,,,,,,,,,,
instruc_repeat,43,275567,0.0-16.0-1.0,"""event"",""trial"",""time""
""fullscreenenter"",""1"",""3432""
","
","
","""event"",""trial"",""time""
""fullscreenenter"",""1"",""3432""
","
",,null,"<p> Are you ready to play a practice game? </p> <p>In this practice game, you'll be digging up barrels of gems. But, in the real game, you'll be digging up the gems themselves. </p>",null,"<p>In this game, your goal is to collect as many gems as you can. That’s how you will win bonus money. </p> <p>The entire game will last 20 minutes no matter how many gems you collect or how many planets you visit. </p><p>To stay on a planet and dig again, press the letter A on your keyboard. To leave for a new planet, press the letter L.</p><p>The more you dig on a planet, the fewer gems you’ll get with each dig which is why you might consider leaving for a new planet. </p><p>When you arrive at a new planet, you’ll be greeted by an alien. What the alien looks like does not tell you anything about how much treasure is on the planet. </p>",,,,,,,,,,,,,,,,,,,,,,,
instruc_repeat_continue,44,277369,0.0-16.0-2.0,"""event"",""trial"",""time""
""fullscreenenter"",""1"",""3432""
","
","
","""event"",""trial"",""time""
""fullscreenenter"",""1"",""3432""
","
",,1799.5,"<p> Are you ready to play a practice game? </p> <p>In this practice game, you'll be digging up barrels of gems. But, in the real game, you'll be digging up the gems themselves. </p>",,,,,,,0,,,,,,,,,,,,,,,,,,
quiz_q_1_ask,45,283396,0.0-16.0-3.0,"""event"",""trial"",""time""
""fullscreenenter"",""1"",""3432""
","
","
","""event"",""trial"",""time""
""fullscreenenter"",""1"",""3432""
","
",,6024.4,run_exp/static/audio/clip_11_q1_ask.m4a,,,,,,,2,,,,,,,,,,,,,,,,,,
quiz_q_1_fb_correct,46,287267,0.0-17.0-0.0,"""event"",""trial"",""time""
""fullscreenenter"",""1"",""3432""
","
","
","""event"",""trial"",""time""
""fullscreenenter"",""1"",""3432""
","
",,null,run_exp/static/audio/clip_12_q1_correct.m4a,null,<p>That’s correct. You win extra money by collecting more gems.</p>,,,,,,,,,,,,,,,,,,,,,,,
quiz_q_2_ask,47,291098,0.0-17.0-1.0,"""event"",""trial"",""time""
""fullscreenenter"",""1"",""3432""
","
","
","""event"",""trial"",""time""
""fullscreenenter"",""1"",""3432""
","
",,3828.3,run_exp/static/audio/clip_14_q2_ask.m4a,,,,,,,1,,,,,,,,,,,,,,,,,,
quiz_q_2_fb_correct,48,295146,0.0-18.0-0.0,"""event"",""trial"",""time""
""fullscreenenter"",""1"",""3432""
","
","
","""event"",""trial"",""time""
""fullscreenenter"",""1"",""3432""
","
",,null,run_exp/static/audio/clip_15_q2_correct.m4a,null,<p>That’s correct. The experiment is 20 minutes no matter what.</p>,,,,,,,,,,,,,,,,,,,,,,,
quiz_q_3_ask,49,298477,0.0-18.0-1.0,"""event"",""trial"",""time""
""fullscreenenter"",""1"",""3432""
","
","
","""event"",""trial"",""time""
""fullscreenenter"",""1"",""3432""
","
",,3327.9,run_exp/static/audio/clip_17_q3_ask.m4a,,,,,,,1,,,,,,,,,,,,,,,,,,
quiz_q_3_fb_correct,50,302486,0.0-19.0-0.0,"""event"",""trial"",""time""
""fullscreenenter"",""1"",""3432""
","
","
","""event"",""trial"",""time""
""fullscreenenter"",""1"",""3432""
","
",,null,run_exp/static/audio/clip_18_q3_correct.m4a,null,<p> That’s correct. You press the letter L to travel to a new planet.</p>,,,,,,,,,,,,,,,,,,,,,,,
quiz_q_4_ask,51,305958,0.0-19.0-1.0,"""event"",""trial"",""time""
""fullscreenenter"",""1"",""3432""
","
","
","""event"",""trial"",""time""
""fullscreenenter"",""1"",""3432""
","
",,3468.9,run_exp/static/audio/clip_20_q4_ask.m4a,,,,,,,0,,,,,,,,,,,,,,,,,,
quiz_q_4_fb_correct,52,311307,0.0-20.0-0.0,"""event"",""trial"",""time""
""fullscreenenter"",""1"",""3432""
","
","
","""event"",""trial"",""time""
""fullscreenenter"",""1"",""3432""
","
",,null,run_exp/static/audio/clip_21_q4_correct.m4a,null,<p> That’s correct. The more you dig on a planet the fewer gems you’ll get with each dig. </p>,,,,,,,,,,,,,,,,,,,,,,,
quiz_q_5_ask,53,314649,0.0-20.0-1.0,"""event"",""trial"",""time""
""fullscreenenter"",""1"",""3432""
","
","
","""event"",""trial"",""time""
""fullscreenenter"",""1"",""3432""
","
",,3338.1,run_exp/static/audio/clip_23_q5_ask.m4a,,,,,,,1,,,,,,,,,,,,,,,,,,
quiz_q_5_fb_correct,54,319687,0.0-21.0-0.0,"""event"",""trial"",""time""
""fullscreenenter"",""1"",""3432""
","
","
","""event"",""trial"",""time""
""fullscreenenter"",""1"",""3432""
","
",,null,run_exp/static/audio/clip_24_q5_correct.m4a,null,<p> That’s correct. The alien tells you nothing about how much treasure is on the planet.</p>,,,,,,,,,,,,,,,,,,,,,,,
quiz_correct,55,323186,0.0-22.0-0.0,"""event"",""trial"",""time""
""fullscreenenter"",""1"",""3432""
","
","
","""event"",""trial"",""time""
""fullscreenenter"",""1"",""3432""
","
",,null,run_exp/static/audio/clip_26_correct_quiz.m4a,null,,,,,,,,,,,,,,,,,,,,,,,,
quiz_correct_continue,56,324123,0.0-22.0-1.0,"""event"",""trial"",""time""
""fullscreenenter"",""1"",""3432""
","
","
","""event"",""trial"",""time""
""fullscreenenter"",""1"",""3432""
","
",,935,<p>Good job! You're now ready to move on to the real game!</p>,,,,,,,0,,,,,,,,,,,,,,,,,,
audio-keyboard-response,57,334267,0.0-22.0-2.0,"""event"",""trial"",""time""
""fullscreenenter"",""1"",""3432""
","
","
","""event"",""trial"",""time""
""fullscreenenter"",""1"",""3432""
","
",,null,run_exp/static/audio/clip_28_real_game.m4a,null,,,,,,,,,,,,,,,,,,,,,,,,
instruc_begin_exp_contine,58,336035,0.0-22.0-3.0,"""event"",""trial"",""time""
""fullscreenenter"",""1"",""3432""
""blur"",""59"",""338711""
""focus"",""59"",""338715""
","""event"",""trial"",""time""
""blur"",""59"",""338711""
","""event"",""trial"",""time""
""focus"",""59"",""338715""
","""event"",""trial"",""time""
""fullscreenenter"",""1"",""3432""
","
",,1764.3,"<p>Now that you know how  to dig for space treasure and travel to new planets,you can start exploring! </p><p>Do you want to go over the instructions again or get started with the real game?</p>",,,,,,,1,,,,,,1,,,,,,,,,,,,
alien_welcome,59,341043,0.0-23.0-0.0,"""event"",""trial"",""time""
""fullscreenenter"",""1"",""3432""
""blur"",""59"",""338711""
""focus"",""59"",""338715""
","""event"",""trial"",""time""
""blur"",""59"",""338711""
","""event"",""trial"",""time""
""focus"",""59"",""338715""
","""event"",""trial"",""time""
""fullscreenenter"",""1"",""3432""
","
",,null,run_exp/static/images/task_images/aliens/old_aliens/planet/alien_planet-5.jpg,null,,,,,,,,,,,,,5,"5,73,42,7,69,77,16,52,28,40,20,47,57,11,19,33,13,49,61,59,55,14,80,65,39,35,53,68,46,34,18,22,58,12,2,30,3,4,44,50",,,,,,,,,,
land,60,341552,0.0-23.0-1.0,"""event"",""trial"",""time""
""fullscreenenter"",""1"",""3432""
""blur"",""59"",""338711""
""focus"",""59"",""338715""
","""event"",""trial"",""time""
""blur"",""59"",""338711""
","""event"",""trial"",""time""
""focus"",""59"",""338715""
","""event"",""trial"",""time""
""fullscreenenter"",""1"",""3432""
","
",,null,run_exp/static/images/task_images/land.jpg,null,,,,,,,100,,,1,,,,,,,,,,,,,,
dig,61,343575,0.0-23.0-2.0,"""event"",""trial"",""time""
""fullscreenenter"",""1"",""3432""
""blur"",""59"",""338711""
""focus"",""59"",""338715""
","""event"",""trial"",""time""
""blur"",""59"",""338711""
","""event"",""trial"",""time""
""focus"",""59"",""338715""
","""event"",""trial"",""time""
""fullscreenenter"",""1"",""3432""
","
",,,,,,,,,,,,"[{""stimulus"":""run_exp/static/images/task_images/dig.jpg"",""time"":0.800000011920929},{""stimulus"":""run_exp/static/images/task_images/land.jpg"",""time"":671.1999999880791},{""stimulus"":""run_exp/static/images/task_images/dig.jpg"",""time"":1341.199999988079}]",[],1,,,,,,,,,,,,,,
harvest,62,344585,0.0-23.0-3.0,"""event"",""trial"",""time""
""fullscreenenter"",""1"",""3432""
""blur"",""59"",""338711""
""focus"",""59"",""338715""
","""event"",""trial"",""time""
""blur"",""59"",""338711""
","""event"",""trial"",""time""
""focus"",""59"",""338715""
","""event"",""trial"",""time""
""fullscreenenter"",""1"",""3432""
","
",,null,run_exp/static/images/task_images/gems/100.jpg,null,,,,,,,33,,,1,,,,,100,0.3334793,0.33,,,,,,,
decision,63,344859,0.0-23.0-4.0,"""event"",""trial"",""time""
""fullscreenenter"",""1"",""3432""
""blur"",""59"",""338711""
""focus"",""59"",""338715""
","""event"",""trial"",""time""
""blur"",""59"",""338711""
","""event"",""trial"",""time""
""focus"",""59"",""338715""
","""event"",""trial"",""time""
""fullscreenenter"",""1"",""3432""
","
",,271.8,run_exp/static/images/task_images/land.jpg,65,,,,,,,33,,,1,,,,,,,,8821,1,0,FALSE,,,
dig,64,347605,0.0-24.0-0.0,"""event"",""trial"",""time""
""fullscreenenter"",""1"",""3432""
""blur"",""59"",""338711""
""focus"",""59"",""338715""
","""event"",""trial"",""time""
""blur"",""59"",""338711""
","""event"",""trial"",""time""
""focus"",""59"",""338715""
","""event"",""trial"",""time""
""fullscreenenter"",""1"",""3432""
","
",,,,,,,,,,,,"[{""stimulus"":""run_exp/static/images/task_images/dig.jpg"",""time"":0.4000000059604645},{""stimulus"":""run_exp/static/images/task_images/land.jpg"",""time"":929.1999999880791},{""stimulus"":""run_exp/static/images/task_images/dig.jpg"",""time"":1820.4000000059605}]",[],1,,,,,,,,,,,,,,
harvest,65,348625,0.0-24.0-1.0,"""event"",""trial"",""time""
""fullscreenenter"",""1"",""3432""
""blur"",""59"",""338711""
""focus"",""59"",""338715""
","""event"",""trial"",""time""
""blur"",""59"",""338711""
","""event"",""trial"",""time""
""focus"",""59"",""338715""
","""event"",""trial"",""time""
""fullscreenenter"",""1"",""3432""
","
",,null,run_exp/static/images/task_images/gems/33.jpg,null,,,,,,,6,,,1,,,,,33,0.172563313,0.181818182,,,,,,,
decision,66,350797,0.0-24.0-2.0,"""event"",""trial"",""time""
""fullscreenenter"",""1"",""3432""
""blur"",""59"",""338711""
""focus"",""59"",""338715""
","""event"",""trial"",""time""
""blur"",""59"",""338711""
","""event"",""trial"",""time""
""focus"",""59"",""338715""
","""event"",""trial"",""time""
""fullscreenenter"",""1"",""3432""
","
",,2169.3,run_exp/static/images/task_images/land.jpg,65,,,,,,,6,,,1,,,,,,,,14758,1,1,FALSE,,,
dig,67,351644,0.0-25.0-0.0,"""event"",""trial"",""time""
""fullscreenenter"",""1"",""3432""
""blur"",""59"",""338711""
""focus"",""59"",""338715""
","""event"",""trial"",""time""
""blur"",""59"",""338711""
","""event"",""trial"",""time""
""focus"",""59"",""338715""
","""event"",""trial"",""time""
""fullscreenenter"",""1"",""3432""
","
",,,,,,,,,,,,"[{""stimulus"":""run_exp/static/images/task_images/dig.jpg"",""time"":0.5},{""stimulus"":""run_exp/static/images/task_images/land.jpg"",""time"":280.40000000596046},{""stimulus"":""run_exp/static/images/task_images/dig.jpg"",""time"":570.5999999940395}]",[],1,,,,,,,,,,,,,,
harvest,68,352652,0.0-25.0-1.0,"""event"",""trial"",""time""
""fullscreenenter"",""1"",""3432""
""blur"",""59"",""338711""
""focus"",""59"",""338715""
","""event"",""trial"",""time""
""blur"",""59"",""338711""
","""event"",""trial"",""time""
""focus"",""59"",""338715""
","""event"",""trial"",""time""
""fullscreenenter"",""1"",""3432""
","
",,null,run_exp/static/images/task_images/gems/6.jpg,null,,,,,,,2,,,1,,,,,6,0.340409597,0.333333333,,,,,,,
decision,69,353007,0.0-25.0-2.0,"""event"",""trial"",""time""
""fullscreenenter"",""1"",""3432""
""blur"",""59"",""338711""
""focus"",""59"",""338715""
","""event"",""trial"",""time""
""blur"",""59"",""338711""
","""event"",""trial"",""time""
""focus"",""59"",""338715""
","""event"",""trial"",""time""
""fullscreenenter"",""1"",""3432""
","
",,351.8,run_exp/static/images/task_images/land.jpg,76,,,,,,,2,,,1,,,,,,,,16968,1,2,TRUE,,,
travel,70,362672,0.0-26.0-0.0,"""event"",""trial"",""time""
""fullscreenenter"",""1"",""3432""
""blur"",""59"",""338711""
""focus"",""59"",""338715""
","""event"",""trial"",""time""
""blur"",""59"",""338711""
","""event"",""trial"",""time""
""focus"",""59"",""338715""
","""event"",""trial"",""time""
""fullscreenenter"",""1"",""3432""
","
",,,,,,,,,,,,"[{""stimulus"":""run_exp/static/images/task_images/rocket-01.jpg"",""time"":0.5},{""stimulus"":""run_exp/static/images/task_images/rocket-02.jpg"",""time"":1092.0999999940395},{""stimulus"":""run_exp/static/images/task_images/rocket-03.jpg"",""time"":2151.2999999821186},{""stimulus"":""run_exp/static/images/task_images/rocket-04.jpg"",""time"":3232},{""stimulus"":""run_exp/static/images/task_images/rocket-05.jpg"",""time"":4301.799999982119},{""stimulus"":""run_exp/static/images/task_images/rocket-06.jpg"",""time"":5381.699999988079},{""stimulus"":""run_exp/static/images/task_images/rocket-07.jpg"",""time"":6450.799999982119},{""stimulus"":""run_exp/static/images/task_images/rocket-08.jpg"",""time"":7515.799999982119},{""stimulus"":""run_exp/static/images/task_images/rocket-09.jpg"",""time"":8579.40000000596}]",[],1,,,,,,,,,,,,,,
alien_welcome,71,367679,0.0-26.0-1.0,"""event"",""trial"",""time""
""fullscreenenter"",""1"",""3432""
""blur"",""59"",""338711""
""focus"",""59"",""338715""
","""event"",""trial"",""time""
""blur"",""59"",""338711""
","""event"",""trial"",""time""
""focus"",""59"",""338715""
","""event"",""trial"",""time""
""fullscreenenter"",""1"",""3432""
","
",,null,run_exp/static/images/task_images/aliens/old_aliens/planet/alien_planet-73.jpg,null,,,,,,,,,,,,,73,"5,73,42,7,69,77,16,52,28,40,20,47,57,11,19,33,13,49,61,59,55,14,80,65,39,35,53,68,46,34,18,22,58,12,2,30,3,4,44,50",,,,,,,,,,
land,72,368185,0.0-26.0-2.0,"""event"",""trial"",""time""
""fullscreenenter"",""1"",""3432""
""blur"",""59"",""338711""
""focus"",""59"",""338715""
","""event"",""trial"",""time""
""blur"",""59"",""338711""
","""event"",""trial"",""time""
""focus"",""59"",""338715""
","""event"",""trial"",""time""
""fullscreenenter"",""1"",""3432""
","
",,null,run_exp/static/images/task_images/land.jpg,null,,,,,,,110,,,2,,,,,,,,,,,,,,
dig,73,370204,0.0-26.0-3.0,"""event"",""trial"",""time""
""fullscreenenter"",""1"",""3432""
""blur"",""59"",""338711""
""focus"",""59"",""338715""
","""event"",""trial"",""time""
""blur"",""59"",""338711""
","""event"",""trial"",""time""
""focus"",""59"",""338715""
","""event"",""trial"",""time""
""fullscreenenter"",""1"",""3432""
","
",,,,,,,,,,,,"[{""stimulus"":""run_exp/static/images/task_images/dig.jpg"",""time"":0.5999999940395355},{""stimulus"":""run_exp/static/images/task_images/land.jpg"",""time"":686.0999999940395},{""stimulus"":""run_exp/static/images/task_images/dig.jpg"",""time"":1336.5999999940395}]",[],2,,,,,,,,,,,,,,
harvest,74,371225,0.0-26.0-4.0,"""event"",""trial"",""time""
""fullscreenenter"",""1"",""3432""
""blur"",""59"",""338711""
""focus"",""59"",""338715""
","""event"",""trial"",""time""
""blur"",""59"",""338711""
","""event"",""trial"",""time""
""focus"",""59"",""338715""
","""event"",""trial"",""time""
""fullscreenenter"",""1"",""3432""
","
",,null,run_exp/static/images/task_images/gems/110.jpg,null,,,,,,,24,,,2,,,,,110,0.216383228,0.218181818,,,,,,,
decision,75,371708,0.0-26.0-5.0,"""event"",""trial"",""time""
""fullscreenenter"",""1"",""3432""
""blur"",""59"",""338711""
""focus"",""59"",""338715""
","""event"",""trial"",""time""
""blur"",""59"",""338711""
","""event"",""trial"",""time""
""focus"",""59"",""338715""
","""event"",""trial"",""time""
""fullscreenenter"",""1"",""3432""
","
",,480.4,run_exp/static/images/task_images/land.jpg,65,,,,,,,24,,,2,,,,,,,,35669,1,0,FALSE,,,
dig,76,374235,0.0-27.0-0.0,"""event"",""trial"",""time""
""fullscreenenter"",""1"",""3432""
""blur"",""59"",""338711""
""focus"",""59"",""338715""
","""event"",""trial"",""time""
""blur"",""59"",""338711""
","""event"",""trial"",""time""
""focus"",""59"",""338715""
","""event"",""trial"",""time""
""fullscreenenter"",""1"",""3432""
","
",,,,,,,,,,,,"[{""stimulus"":""run_exp/static/images/task_images/dig.jpg"",""time"":0.5},{""stimulus"":""run_exp/static/images/task_images/land.jpg"",""time"":841.4000000059605},{""stimulus"":""run_exp/static/images/task_images/dig.jpg"",""time"":1681.699999988079}]",[],2,,,,,,,,,,,,,,
harvest,77,375243,0.0-27.0-1.0,"""event"",""trial"",""time""
""fullscreenenter"",""1"",""3432""
""blur"",""59"",""338711""
""focus"",""59"",""338715""
","""event"",""trial"",""time""
""blur"",""59"",""338711""
","""event"",""trial"",""time""
""focus"",""59"",""338715""
","""event"",""trial"",""time""
""fullscreenenter"",""1"",""3432""
","
",,null,run_exp/static/images/task_images/gems/24.jpg,null,,,,,,,6,,,2,,,,,24,0.268027631,0.25,,,,,,,
decision,78,375276,0.0-27.0-2.0,"""event"",""trial"",""time""
""fullscreenenter"",""1"",""3432""
""blur"",""59"",""338711""
""focus"",""59"",""338715""
","""event"",""trial"",""time""
""blur"",""59"",""338711""
","""event"",""trial"",""time""
""focus"",""59"",""338715""
","""event"",""trial"",""time""
""fullscreenenter"",""1"",""3432""
","
",,30.30000001,run_exp/static/images/task_images/land.jpg,65,,,,,,,6,,,2,,,,,,,,39237,1,1,FALSE,,,
dig,79,378263,0.0-28.0-0.0,"""event"",""trial"",""time""
""fullscreenenter"",""1"",""3432""
""blur"",""59"",""338711""
""focus"",""59"",""338715""
","""event"",""trial"",""time""
""blur"",""59"",""338711""
","""event"",""trial"",""time""
""focus"",""59"",""338715""
","""event"",""trial"",""time""
""fullscreenenter"",""1"",""3432""
","
",,,,,,,,,,,,"[{""stimulus"":""run_exp/static/images/task_images/dig.jpg"",""time"":0.4000000059604645},{""stimulus"":""run_exp/static/images/task_images/land.jpg"",""time"":1011},{""stimulus"":""run_exp/static/images/task_images/dig.jpg"",""time"":1989.5999999940395}]",[],2,,,,,,,,,,,,,,
harvest,80,379285,0.0-28.0-1.0,"""event"",""trial"",""time""
""fullscreenenter"",""1"",""3432""
""blur"",""59"",""338711""
""focus"",""59"",""338715""
","""event"",""trial"",""time""
""blur"",""59"",""338711""
","""event"",""trial"",""time""
""focus"",""59"",""338715""
","""event"",""trial"",""time""
""fullscreenenter"",""1"",""3432""
","
",,null,run_exp/static/images/task_images/gems/6.jpg,null,,,,,,,1,,,2,,,,,6,0.207686053,0.166666667,,,,,,,
decision,81,381982,0.0-28.0-2.0,"""event"",""trial"",""time""
""fullscreenenter"",""1"",""3432""
""blur"",""59"",""338711""
""focus"",""59"",""338715""
","""event"",""trial"",""time""
""blur"",""59"",""338711""
","""event"",""trial"",""time""
""focus"",""59"",""338715""
","""event"",""trial"",""time""
""fullscreenenter"",""1"",""3432""
","
",,2694.2,run_exp/static/images/task_images/land.jpg,76,,,,,,,1,,,2,,,,,,,,45943,1,2,TRUE,,,
travel,82,389302,0.0-29.0-0.0,"""event"",""trial"",""time""
""fullscreenenter"",""1"",""3432""
""blur"",""59"",""338711""
""focus"",""59"",""338715""
","""event"",""trial"",""time""
""blur"",""59"",""338711""
","""event"",""trial"",""time""
""focus"",""59"",""338715""
","""event"",""trial"",""time""
""fullscreenenter"",""1"",""3432""
","
",,,,,,,,,,,,"[{""stimulus"":""run_exp/static/images/task_images/rocket-01.jpg"",""time"":0.4000000059604645},{""stimulus"":""run_exp/static/images/task_images/rocket-02.jpg"",""time"":826.5},{""stimulus"":""run_exp/static/images/task_images/rocket-03.jpg"",""time"":1625.0999999940395},{""stimulus"":""run_exp/static/images/task_images/rocket-04.jpg"",""time"":2443.7999999821186},{""stimulus"":""run_exp/static/images/task_images/rocket-05.jpg"",""time"":3247.0999999940395},{""stimulus"":""run_exp/static/images/task_images/rocket-06.jpg"",""time"":4064.699999988079},{""stimulus"":""run_exp/static/images/task_images/rocket-07.jpg"",""time"":4877},{""stimulus"":""run_exp/static/images/task_images/rocket-08.jpg"",""time"":5684},{""stimulus"":""run_exp/static/images/task_images/rocket-09.jpg"",""time"":6496.5999999940395}]",[],2,,,,,,,,,,,,,,
alien_welcome,83,394312,0.0-29.0-1.0,"""event"",""trial"",""time""
""fullscreenenter"",""1"",""3432""
""blur"",""59"",""338711""
""focus"",""59"",""338715""
","""event"",""trial"",""time""
""blur"",""59"",""338711""
","""event"",""trial"",""time""
""focus"",""59"",""338715""
","""event"",""trial"",""time""
""fullscreenenter"",""1"",""3432""
","
",,null,run_exp/static/images/task_images/aliens/old_aliens/planet/alien_planet-42.jpg,null,,,,,,,,,,,,,42,"5,73,42,7,69,77,16,52,28,40,20,47,57,11,19,33,13,49,61,59,55,14,80,65,39,35,53,68,46,34,18,22,58,12,2,30,3,4,44,50",,,,,,,,,,
land,84,394825,0.0-29.0-2.0,"""event"",""trial"",""time""
""fullscreenenter"",""1"",""3432""
""blur"",""59"",""338711""
""focus"",""59"",""338715""
","""event"",""trial"",""time""
""blur"",""59"",""338711""
","""event"",""trial"",""time""
""focus"",""59"",""338715""
","""event"",""trial"",""time""
""fullscreenenter"",""1"",""3432""
","
",,null,run_exp/static/images/task_images/land.jpg,null,,,,,,,104,,,3,,,,,,,,,,,,,,
dig,85,396834,0.0-29.0-3.0,"""event"",""trial"",""time""
""fullscreenenter"",""1"",""3432""
""blur"",""59"",""338711""
""focus"",""59"",""338715""
","""event"",""trial"",""time""
""blur"",""59"",""338711""
","""event"",""trial"",""time""
""focus"",""59"",""338715""
","""event"",""trial"",""time""
""fullscreenenter"",""1"",""3432""
","
",,,,,,,,,,,,"[{""stimulus"":""run_exp/static/images/task_images/dig.jpg"",""time"":0.5},{""stimulus"":""run_exp/static/images/task_images/land.jpg"",""time"":673},{""stimulus"":""run_exp/static/images/task_images/dig.jpg"",""time"":1337.1000000238419}]",[],3,,,,,,,,,,,,,,
harvest,86,397853,0.0-29.0-4.0,"""event"",""trial"",""time""
""fullscreenenter"",""1"",""3432""
""blur"",""59"",""338711""
""focus"",""59"",""338715""
","""event"",""trial"",""time""
""blur"",""59"",""338711""
","""event"",""trial"",""time""
""focus"",""59"",""338715""
","""event"",""trial"",""time""
""fullscreenenter"",""1"",""3432""
","
",,null,run_exp/static/images/task_images/gems/104.jpg,null,,,,,,,48,,,3,,,,,104,0.465631261,0.461538462,,,,,,,
decision,87,398273,0.0-29.0-5.0,"""event"",""trial"",""time""
""fullscreenenter"",""1"",""3432""
""blur"",""59"",""338711""
""focus"",""59"",""338715""
","""event"",""trial"",""time""
""blur"",""59"",""338711""
","""event"",""trial"",""time""
""focus"",""59"",""338715""
","""event"",""trial"",""time""
""fullscreenenter"",""1"",""3432""
","
",,416.6,run_exp/static/images/task_images/land.jpg,65,,,,,,,48,,,3,,,,,,,,62234,1,0,FALSE,,,
dig,88,400884,0.0-30.0-0.0,"""event"",""trial"",""time""
""fullscreenenter"",""1"",""3432""
""blur"",""59"",""338711""
""focus"",""59"",""338715""
","""event"",""trial"",""time""
""blur"",""59"",""338711""
","""event"",""trial"",""time""
""focus"",""59"",""338715""
","""event"",""trial"",""time""
""fullscreenenter"",""1"",""3432""
","
",,,,,,,,,,,,"[{""stimulus"":""run_exp/static/images/task_images/dig.jpg"",""time"":0.30000001192092896},{""stimulus"":""run_exp/static/images/task_images/land.jpg"",""time"":865.4000000059605},{""stimulus"":""run_exp/static/images/task_images/dig.jpg"",""time"":1730.300000011921}]",[],3,,,,,,,,,,,,,,
harvest,89,401895,0.0-30.0-1.0,"""event"",""trial"",""time""
""fullscreenenter"",""1"",""3432""
""blur"",""59"",""338711""
""focus"",""59"",""338715""
","""event"",""trial"",""time""
""blur"",""59"",""338711""
","""event"",""trial"",""time""
""focus"",""59"",""338715""
","""event"",""trial"",""time""
""fullscreenenter"",""1"",""3432""
","
",,null,run_exp/static/images/task_images/gems/48.jpg,null,,,,,,,23,,,3,,,,,48,0.480645112,0.479166667,,,,,,,
decision,90,401915,0.0-30.0-2.0,"""event"",""trial"",""time""
""fullscreenenter"",""1"",""3432""
""blur"",""59"",""338711""
""focus"",""59"",""338715""
","""event"",""trial"",""time""
""blur"",""59"",""338711""
","""event"",""trial"",""time""
""focus"",""59"",""338715""
","""event"",""trial"",""time""
""fullscreenenter"",""1"",""3432""
","
",,17.20000002,run_exp/static/images/task_images/land.jpg,65,,,,,,,23,,,3,,,,,,,,65876,1,1,FALSE,,,
dig,91,404914,0.0-31.0-0.0,"""event"",""trial"",""time""
""fullscreenenter"",""1"",""3432""
""blur"",""59"",""338711""
""focus"",""59"",""338715""
","""event"",""trial"",""time""
""blur"",""59"",""338711""
","""event"",""trial"",""time""
""focus"",""59"",""338715""
","""event"",""trial"",""time""
""fullscreenenter"",""1"",""3432""
","
",,,,,,,,,,,,"[{""stimulus"":""run_exp/static/images/task_images/dig.jpg"",""time"":0.5},{""stimulus"":""run_exp/static/images/task_images/land.jpg"",""time"":998.8000000119209},{""stimulus"":""run_exp/static/images/task_images/dig.jpg"",""time"":1992.800000011921}]",[],3,,,,,,,,,,,,,,
harvest,92,405924,0.0-31.0-1.0,"""event"",""trial"",""time""
""fullscreenenter"",""1"",""3432""
""blur"",""59"",""338711""
""focus"",""59"",""338715""
","""event"",""trial"",""time""
""blur"",""59"",""338711""
","""event"",""trial"",""time""
""focus"",""59"",""338715""
","""event"",""trial"",""time""
""fullscreenenter"",""1"",""3432""
","
",,null,run_exp/static/images/task_images/gems/23.jpg,null,,,,,,,14,,,3,,,,,23,0.615599372,0.608695652,,,,,,,
decision,93,408936,0.0-31.0-2.0,"""event"",""trial"",""time""
""fullscreenenter"",""1"",""3432""
""blur"",""59"",""338711""
""focus"",""59"",""338715""
","""event"",""trial"",""time""
""blur"",""59"",""338711""
","""event"",""trial"",""time""
""focus"",""59"",""338715""
","""event"",""trial"",""time""
""fullscreenenter"",""1"",""3432""
","
",,null,run_exp/static/images/task_images/land.jpg,null,,,,,,,14,,,3,,,,,,,,72897,1,2,FALSE,,,
time_out,94,410955,0.0-32.0-0.0,"""event"",""trial"",""time""
""fullscreenenter"",""1"",""3432""
""blur"",""59"",""338711""
""focus"",""59"",""338715""
","""event"",""trial"",""time""
""blur"",""59"",""338711""
","""event"",""trial"",""time""
""focus"",""59"",""338715""
","""event"",""trial"",""time""
""fullscreenenter"",""1"",""3432""
","
",,null,run_exp/static/images/task_images/time_out.jpg,null,,,,,,,14,,,,,,,,,,,,,,,,,
decision,95,412535,0.0-32.0-1.0,"""event"",""trial"",""time""
""fullscreenenter"",""1"",""3432""
""blur"",""59"",""338711""
""focus"",""59"",""338715""
","""event"",""trial"",""time""
""blur"",""59"",""338711""
","""event"",""trial"",""time""
""focus"",""59"",""338715""
","""event"",""trial"",""time""
""fullscreenenter"",""1"",""3432""
","
",,1579.3,run_exp/static/images/task_images/land.jpg,76,,,,,,,14,,,3,,,,,,,,76496,1,2,TRUE,,,
travel,96,420963,0.0-33.0-0.0,"""event"",""trial"",""time""
""fullscreenenter"",""1"",""3432""
""blur"",""59"",""338711""
""focus"",""59"",""338715""
","""event"",""trial"",""time""
""blur"",""59"",""338711""
","""event"",""trial"",""time""
""focus"",""59"",""338715""
","""event"",""trial"",""time""
""fullscreenenter"",""1"",""3432""
","
",,,,,,,,,,,,"[{""stimulus"":""run_exp/static/images/task_images/rocket-01.jpg"",""time"":0.4000000059604645},{""stimulus"":""run_exp/static/images/task_images/rocket-02.jpg"",""time"":940.9000000059605},{""stimulus"":""run_exp/static/images/task_images/rocket-03.jpg"",""time"":1881.2999999821186},{""stimulus"":""run_exp/static/images/task_images/rocket-04.jpg"",""time"":2820.5999999940395},{""stimulus"":""run_exp/static/images/task_images/rocket-05.jpg"",""time"":3761.7999999821186},{""stimulus"":""run_exp/static/images/task_images/rocket-06.jpg"",""time"":4681.299999982119},{""stimulus"":""run_exp/static/images/task_images/rocket-07.jpg"",""time"":5617.0999999940395},{""stimulus"":""run_exp/static/images/task_images/rocket-08.jpg"",""time"":6559.799999982119},{""stimulus"":""run_exp/static/images/task_images/rocket-09.jpg"",""time"":7501.199999988079}]",[],3,,,,,,,,,,,,,,
alien_welcome,97,425983,0.0-33.0-1.0,"""event"",""trial"",""time""
""fullscreenenter"",""1"",""3432""
""blur"",""59"",""338711""
""focus"",""59"",""338715""
","""event"",""trial"",""time""
""blur"",""59"",""338711""
","""event"",""trial"",""time""
""focus"",""59"",""338715""
","""event"",""trial"",""time""
""fullscreenenter"",""1"",""3432""
","
",,null,run_exp/static/images/task_images/aliens/old_aliens/planet/alien_planet-7.jpg,null,,,,,,,,,,,,,7,"5,73,42,7,69,77,16,52,28,40,20,47,57,11,19,33,13,49,61,59,55,14,80,65,39,35,53,68,46,34,18,22,58,12,2,30,3,4,44,50",,,,,,,,,,
land,98,426492,0.0-33.0-2.0,"""event"",""trial"",""time""
""fullscreenenter"",""1"",""3432""
""blur"",""59"",""338711""
""focus"",""59"",""338715""
","""event"",""trial"",""time""
""blur"",""59"",""338711""
","""event"",""trial"",""time""
""focus"",""59"",""338715""
","""event"",""trial"",""time""
""fullscreenenter"",""1"",""3432""
","
",,null,run_exp/static/images/task_images/land.jpg,null,,,,,,,96,,,4,,,,,,,,,,,,,,
dig,99,428502,0.0-33.0-3.0,"""event"",""trial"",""time""
""fullscreenenter"",""1"",""3432""
""blur"",""59"",""338711""
""focus"",""59"",""338715""
","""event"",""trial"",""time""
""blur"",""59"",""338711""
","""event"",""trial"",""time""
""focus"",""59"",""338715""
","""event"",""trial"",""time""
""fullscreenenter"",""1"",""3432""
","
",,,,,,,,,,,,"[{""stimulus"":""run_exp/static/images/task_images/dig.jpg"",""time"":0.5},{""stimulus"":""run_exp/static/images/task_images/land.jpg"",""time"":684.8000000119209},{""stimulus"":""run_exp/static/images/task_images/dig.jpg"",""time"":1352.2000000178814}]",[],4,,,,,,,,,,,,,,
harvest,100,429523,0.0-33.0-4.0,"""event"",""trial"",""time""
""fullscreenenter"",""1"",""3432""
""blur"",""59"",""338711""
""focus"",""59"",""338715""
","""event"",""trial"",""time""
""blur"",""59"",""338711""
","""event"",""trial"",""time""
""focus"",""59"",""338715""
","""event"",""trial"",""time""
""fullscreenenter"",""1"",""3432""
","
",,null,run_exp/static/images/task_images/gems/96.jpg,null,,,,,,,53,,,4,,,,,96,0.546921893,0.552083333,,,,,,,
decision,101,430525,0.0-33.0-5.0,"""event"",""trial"",""time""
""fullscreenenter"",""1"",""3432""
""blur"",""59"",""338711""
""focus"",""59"",""338715""
","""event"",""trial"",""time""
""blur"",""59"",""338711""
","""event"",""trial"",""time""
""focus"",""59"",""338715""
","""event"",""trial"",""time""
""fullscreenenter"",""1"",""3432""
","
",,998.8,run_exp/static/images/task_images/land.jpg,65,,,,,,,53,,,4,,,,,,,,94486,1,0,FALSE,,,
dig,102,432541,0.0-34.0-0.0,"""event"",""trial"",""time""
""fullscreenenter"",""1"",""3432""
""blur"",""59"",""338711""
""focus"",""59"",""338715""
","""event"",""trial"",""time""
""blur"",""59"",""338711""
","""event"",""trial"",""time""
""focus"",""59"",""338715""
","""event"",""trial"",""time""
""fullscreenenter"",""1"",""3432""
","
",,,,,,,,,,,,"[{""stimulus"":""run_exp/static/images/task_images/dig.jpg"",""time"":0.5},{""stimulus"":""run_exp/static/images/task_images/land.jpg"",""time"":682.8000000119209},{""stimulus"":""run_exp/static/images/task_images/dig.jpg"",""time"":1351.4000000059605}]",[],4,,,,,,,,,,,,,,
harvest,103,433552,0.0-34.0-1.0,"""event"",""trial"",""time""
""fullscreenenter"",""1"",""3432""
""blur"",""59"",""338711""
""focus"",""59"",""338715""
","""event"",""trial"",""time""
""blur"",""59"",""338711""
","""event"",""trial"",""time""
""focus"",""59"",""338715""
","""event"",""trial"",""time""
""fullscreenenter"",""1"",""3432""
","
",,null,run_exp/static/images/task_images/gems/53.jpg,null,,,,,,,32,,,4,,,,,53,0.604793798,0.603773585,,,,,,,
decision,104,434952,0.0-34.0-2.0,"""event"",""trial"",""time""
""fullscreenenter"",""1"",""3432""
""blur"",""59"",""338711""
""focus"",""59"",""338715""
","""event"",""trial"",""time""
""blur"",""59"",""338711""
","""event"",""trial"",""time""
""focus"",""59"",""338715""
","""event"",""trial"",""time""
""fullscreenenter"",""1"",""3432""
","
",,1398.1,run_exp/static/images/task_images/land.jpg,65,,,,,,,32,,,4,,,,,,,,98914,1,1,FALSE,,,
dig,105,436563,0.0-35.0-0.0,"""event"",""trial"",""time""
""fullscreenenter"",""1"",""3432""
""blur"",""59"",""338711""
""focus"",""59"",""338715""
","""event"",""trial"",""time""
""blur"",""59"",""338711""
","""event"",""trial"",""time""
""focus"",""59"",""338715""
","""event"",""trial"",""time""
""fullscreenenter"",""1"",""3432""
","
",,,,,,,,,,,,"[{""stimulus"":""run_exp/static/images/task_images/dig.jpg"",""time"":0.5},{""stimulus"":""run_exp/static/images/task_images/land.jpg"",""time"":544.1999999880791},{""stimulus"":""run_exp/static/images/task_images/dig.jpg"",""time"":1084.699999988079}]",[],4,,,,,,,,,,,,,,
harvest,106,437571,0.0-35.0-1.0,"""event"",""trial"",""time""
""fullscreenenter"",""1"",""3432""
""blur"",""59"",""338711""
""focus"",""59"",""338715""
","""event"",""trial"",""time""
""blur"",""59"",""338711""
","""event"",""trial"",""time""
""focus"",""59"",""338715""
","""event"",""trial"",""time""
""fullscreenenter"",""1"",""3432""
","
",,null,run_exp/static/images/task_images/gems/32.jpg,null,,,,,,,15,,,4,,,,,32,0.482481417,0.46875,,,,,,,
decision,107,438127,0.0-35.0-2.0,"""event"",""trial"",""time""
""fullscreenenter"",""1"",""3432""
""blur"",""59"",""338711""
""focus"",""59"",""338715""
","""event"",""trial"",""time""
""blur"",""59"",""338711""
","""event"",""trial"",""time""
""focus"",""59"",""338715""
","""event"",""trial"",""time""
""fullscreenenter"",""1"",""3432""
","
",,553,run_exp/static/images/task_images/land.jpg,65,,,,,,,15,,,4,,,,,,,,102088,1,2,FALSE,,,
dig,108,440584,0.0-36.0-0.0,"""event"",""trial"",""time""
""fullscreenenter"",""1"",""3432""
""blur"",""59"",""338711""
""focus"",""59"",""338715""
","""event"",""trial"",""time""
""blur"",""59"",""338711""
","""event"",""trial"",""time""
""focus"",""59"",""338715""
","""event"",""trial"",""time""
""fullscreenenter"",""1"",""3432""
","
",,,,,,,,,,,,"[{""stimulus"":""run_exp/static/images/task_images/dig.jpg"",""time"":0.5},{""stimulus"":""run_exp/static/images/task_images/land.jpg"",""time"":817.6999999880791},{""stimulus"":""run_exp/static/images/task_images/dig.jpg"",""time"":1633}]",[],4,,,,,,,,,,,,,,
harvest,109,441602,0.0-36.0-1.0,"""event"",""trial"",""time""
""fullscreenenter"",""1"",""3432""
""blur"",""59"",""338711""
""focus"",""59"",""338715""
","""event"",""trial"",""time""
""blur"",""59"",""338711""
","""event"",""trial"",""time""
""focus"",""59"",""338715""
","""event"",""trial"",""time""
""fullscreenenter"",""1"",""3432""
","
",,null,run_exp/static/images/task_images/gems/15.jpg,null,,,,,,,8,,,4,,,,,15,0.542857317,0.533333333,,,,,,,
decision,110,441796,0.0-36.0-2.0,"""event"",""trial"",""time""
""fullscreenenter"",""1"",""3432""
""blur"",""59"",""338711""
""focus"",""59"",""338715""
","""event"",""trial"",""time""
""blur"",""59"",""338711""
","""event"",""trial"",""time""
""focus"",""59"",""338715""
","""event"",""trial"",""time""
""fullscreenenter"",""1"",""3432""
","
",,191.7,run_exp/static/images/task_images/land.jpg,65,,,,,,,8,,,4,,,,,,,,105757,1,3,FALSE,,,
dig,111,444629,0.0-37.0-0.0,"""event"",""trial"",""time""
""fullscreenenter"",""1"",""3432""
""blur"",""59"",""338711""
""focus"",""59"",""338715""
","""event"",""trial"",""time""
""blur"",""59"",""338711""
","""event"",""trial"",""time""
""focus"",""59"",""338715""
","""event"",""trial"",""time""
""fullscreenenter"",""1"",""3432""
","
",,,,,,,,,,,,"[{""stimulus"":""run_exp/static/images/task_images/dig.jpg"",""time"":0.5},{""stimulus"":""run_exp/static/images/task_images/land.jpg"",""time"":948.8000000119209},{""stimulus"":""run_exp/static/images/task_images/dig.jpg"",""time"":1875.6000000238419}]",[],4,,,,,,,,,,,,,,
harvest,112,445634,0.0-37.0-1.0,"""event"",""trial"",""time""
""fullscreenenter"",""1"",""3432""
""blur"",""59"",""338711""
""focus"",""59"",""338715""
","""event"",""trial"",""time""
""blur"",""59"",""338711""
","""event"",""trial"",""time""
""focus"",""59"",""338715""
","""event"",""trial"",""time""
""fullscreenenter"",""1"",""3432""
","
",,null,run_exp/static/images/task_images/gems/8.jpg,null,,,,,,,5,,,4,,,,,8,0.56830494,0.625,,,,,,,
decision,113,446506,0.0-37.0-2.0,"""event"",""trial"",""time""
""fullscreenenter"",""1"",""3432""
""blur"",""59"",""338711""
""focus"",""59"",""338715""
","""event"",""trial"",""time""
""blur"",""59"",""338711""
","""event"",""trial"",""time""
""focus"",""59"",""338715""
","""event"",""trial"",""time""
""fullscreenenter"",""1"",""3432""
","
",,869.4,run_exp/static/images/task_images/land.jpg,76,,,,,,,5,,,4,,,,,,,,110468,1,4,TRUE,,,
travel,114,455649,0.0-38.0-0.0,"""event"",""trial"",""time""
""fullscreenenter"",""1"",""3432""
""blur"",""59"",""338711""
""focus"",""59"",""338715""
","""event"",""trial"",""time""
""blur"",""59"",""338711""
","""event"",""trial"",""time""
""focus"",""59"",""338715""
","""event"",""trial"",""time""
""fullscreenenter"",""1"",""3432""
","
",,,,,,,,,,,,"[{""stimulus"":""run_exp/static/images/task_images/rocket-01.jpg"",""time"":0.5},{""stimulus"":""run_exp/static/images/task_images/rocket-02.jpg"",""time"":1020.0999999940395},{""stimulus"":""run_exp/static/images/task_images/rocket-03.jpg"",""time"":2039.9000000059605},{""stimulus"":""run_exp/static/images/task_images/rocket-04.jpg"",""time"":3055.800000011921},{""stimulus"":""run_exp/static/images/task_images/rocket-05.jpg"",""time"":4069.5999999940395},{""stimulus"":""run_exp/static/images/task_images/rocket-06.jpg"",""time"":5089},{""stimulus"":""run_exp/static/images/task_images/rocket-07.jpg"",""time"":6089.800000011921},{""stimulus"":""run_exp/static/images/task_images/rocket-08.jpg"",""time"":7109.9000000059605},{""stimulus"":""run_exp/static/images/task_images/rocket-09.jpg"",""time"":8119.699999988079}]",[],4,,,,,,,,,,,,,,
alien_welcome,115,460663,0.0-38.0-1.0,"""event"",""trial"",""time""
""fullscreenenter"",""1"",""3432""
""blur"",""59"",""338711""
""focus"",""59"",""338715""
","""event"",""trial"",""time""
""blur"",""59"",""338711""
","""event"",""trial"",""time""
""focus"",""59"",""338715""
","""event"",""trial"",""time""
""fullscreenenter"",""1"",""3432""
","
",,null,run_exp/static/images/task_images/aliens/old_aliens/planet/alien_planet-69.jpg,null,,,,,,,,,,,,,69,"5,73,42,7,69,77,16,52,28,40,20,47,57,11,19,33,13,49,61,59,55,14,80,65,39,35,53,68,46,34,18,22,58,12,2,30,3,4,44,50",,,,,,,,,,
land,116,461167,0.0-38.0-2.0,"""event"",""trial"",""time""
""fullscreenenter"",""1"",""3432""
""blur"",""59"",""338711""
""focus"",""59"",""338715""
","""event"",""trial"",""time""
""blur"",""59"",""338711""
","""event"",""trial"",""time""
""focus"",""59"",""338715""
","""event"",""trial"",""time""
""fullscreenenter"",""1"",""3432""
","
",,null,run_exp/static/images/task_images/land.jpg,null,,,,,,,100,,,5,,,,,,,,,,,,,,
dig,117,463183,0.0-38.0-3.0,"""event"",""trial"",""time""
""fullscreenenter"",""1"",""3432""
""blur"",""59"",""338711""
""focus"",""59"",""338715""
","""event"",""trial"",""time""
""blur"",""59"",""338711""
","""event"",""trial"",""time""
""focus"",""59"",""338715""
","""event"",""trial"",""time""
""fullscreenenter"",""1"",""3432""
","
",,,,,,,,,,,,"[{""stimulus"":""run_exp/static/images/task_images/dig.jpg"",""time"":0.4000000059604645},{""stimulus"":""run_exp/static/images/task_images/land.jpg"",""time"":673.7000000178814},{""stimulus"":""run_exp/static/images/task_images/dig.jpg"",""time"":1345.9000000059605}]",[],5,,,,,,,,,,,,,,
harvest,118,464197,0.0-38.0-4.0,"""event"",""trial"",""time""
""fullscreenenter"",""1"",""3432""
""blur"",""59"",""338711""
""focus"",""59"",""338715""
","""event"",""trial"",""time""
""blur"",""59"",""338711""
","""event"",""trial"",""time""
""focus"",""59"",""338715""
","""event"",""trial"",""time""
""fullscreenenter"",""1"",""3432""
","
",,null,run_exp/static/images/task_images/gems/100.jpg,null,,,,,,,48,,,5,,,,,100,0.478797563,0.48,,,,,,,
decision,119,464368,0.0-38.0-5.0,"""event"",""trial"",""time""
""fullscreenenter"",""1"",""3432""
""blur"",""59"",""338711""
""focus"",""59"",""338715""
","""event"",""trial"",""time""
""blur"",""59"",""338711""
","""event"",""trial"",""time""
""focus"",""59"",""338715""
","""event"",""trial"",""time""
""fullscreenenter"",""1"",""3432""
","
",,168,run_exp/static/images/task_images/land.jpg,65,,,,,,,48,,,5,,,,,,,,128329,1,0,FALSE,,,
dig,120,467224,0.0-39.0-0.0,"""event"",""trial"",""time""
""fullscreenenter"",""1"",""3432""
""blur"",""59"",""338711""
""focus"",""59"",""338715""
","""event"",""trial"",""time""
""blur"",""59"",""338711""
","""event"",""trial"",""time""
""focus"",""59"",""338715""
","""event"",""trial"",""time""
""fullscreenenter"",""1"",""3432""
","
",,,,,,,,,,,,"[{""stimulus"":""run_exp/static/images/task_images/dig.jpg"",""time"":0.30000001192092896},{""stimulus"":""run_exp/static/images/task_images/land.jpg"",""time"":950.5},{""stimulus"":""run_exp/static/images/task_images/dig.jpg"",""time"":1900}]",[],5,,,,,,,,,,,,,,
harvest,121,468244,0.0-39.0-1.0,"""event"",""trial"",""time""
""fullscreenenter"",""1"",""3432""
""blur"",""59"",""338711""
""focus"",""59"",""338715""
","""event"",""trial"",""time""
""blur"",""59"",""338711""
","""event"",""trial"",""time""
""focus"",""59"",""338715""
","""event"",""trial"",""time""
""fullscreenenter"",""1"",""3432""
","
",,null,run_exp/static/images/task_images/gems/48.jpg,null,,,,,,,28,,,5,,,,,48,0.575318114,0.583333333,,,,,,,
decision,122,468594,0.0-39.0-2.0,"""event"",""trial"",""time""
""fullscreenenter"",""1"",""3432""
""blur"",""59"",""338711""
""focus"",""59"",""338715""
","""event"",""trial"",""time""
""blur"",""59"",""338711""
","""event"",""trial"",""time""
""focus"",""59"",""338715""
","""event"",""trial"",""time""
""fullscreenenter"",""1"",""3432""
","
",,348.1,run_exp/static/images/task_images/land.jpg,65,,,,,,,28,,,5,,,,,,,,132556,1,1,FALSE,,,
dig,123,471252,0.0-40.0-0.0,"""event"",""trial"",""time""
""fullscreenenter"",""1"",""3432""
""blur"",""59"",""338711""
""focus"",""59"",""338715""
","""event"",""trial"",""time""
""blur"",""59"",""338711""
","""event"",""trial"",""time""
""focus"",""59"",""338715""
","""event"",""trial"",""time""
""fullscreenenter"",""1"",""3432""
","
",,,,,,,,,,,,"[{""stimulus"":""run_exp/static/images/task_images/dig.jpg"",""time"":0.29999998211860657},{""stimulus"":""run_exp/static/images/task_images/land.jpg"",""time"":892.1999999880791},{""stimulus"":""run_exp/static/images/task_images/dig.jpg"",""time"":1782.0999999940395}]",[],5,,,,,,,,,,,,,,
harvest,124,472273,0.0-40.0-1.0,"""event"",""trial"",""time""
""fullscreenenter"",""1"",""3432""
""blur"",""59"",""338711""
""focus"",""59"",""338715""
","""event"",""trial"",""time""
""blur"",""59"",""338711""
","""event"",""trial"",""time""
""focus"",""59"",""338715""
","""event"",""trial"",""time""
""fullscreenenter"",""1"",""3432""
","
",,null,run_exp/static/images/task_images/gems/28.jpg,null,,,,,,,13,,,5,,,,,28,0.475059141,0.464285714,,,,,,,
decision,125,472534,0.0-40.0-2.0,"""event"",""trial"",""time""
""fullscreenenter"",""1"",""3432""
""blur"",""59"",""338711""
""focus"",""59"",""338715""
","""event"",""trial"",""time""
""blur"",""59"",""338711""
","""event"",""trial"",""time""
""focus"",""59"",""338715""
","""event"",""trial"",""time""
""fullscreenenter"",""1"",""3432""
","
",,259.4,run_exp/static/images/task_images/land.jpg,65,,,,,,,13,,,5,,,,,,,,136496,1,2,FALSE,,,
dig,126,475293,0.0-41.0-0.0,"""event"",""trial"",""time""
""fullscreenenter"",""1"",""3432""
""blur"",""59"",""338711""
""focus"",""59"",""338715""
","""event"",""trial"",""time""
""blur"",""59"",""338711""
","""event"",""trial"",""time""
""focus"",""59"",""338715""
","""event"",""trial"",""time""
""fullscreenenter"",""1"",""3432""
","
",,,,,,,,,,,,"[{""stimulus"":""run_exp/static/images/task_images/dig.jpg"",""time"":0.5},{""stimulus"":""run_exp/static/images/task_images/land.jpg"",""time"":921.8000000119209},{""stimulus"":""run_exp/static/images/task_images/dig.jpg"",""time"":1843}]",[],5,,,,,,,,,,,,,,
harvest,127,476311,0.0-41.0-1.0,"""event"",""trial"",""time""
""fullscreenenter"",""1"",""3432""
""blur"",""59"",""338711""
""focus"",""59"",""338715""
","""event"",""trial"",""time""
""blur"",""59"",""338711""
","""event"",""trial"",""time""
""focus"",""59"",""338715""
","""event"",""trial"",""time""
""fullscreenenter"",""1"",""3432""
","
",,null,run_exp/static/images/task_images/gems/13.jpg,null,,,,,,,7,,,5,,,,,13,0.53731258,0.538461538,,,,,,,
decision,128,476352,0.0-41.0-2.0,"""event"",""trial"",""time""
""fullscreenenter"",""1"",""3432""
""blur"",""59"",""338711""
""focus"",""59"",""338715""
","""event"",""trial"",""time""
""blur"",""59"",""338711""
","""event"",""trial"",""time""
""focus"",""59"",""338715""
","""event"",""trial"",""time""
""fullscreenenter"",""1"",""3432""
","
",,38.19999999,run_exp/static/images/task_images/land.jpg,76,,,,,,,7,,,5,,,,,,,,140313,1,3,TRUE,,,
travel,129,486323,0.0-42.0-0.0,"""event"",""trial"",""time""
""fullscreenenter"",""1"",""3432""
""blur"",""59"",""338711""
""focus"",""59"",""338715""
","""event"",""trial"",""time""
""blur"",""59"",""338711""
","""event"",""trial"",""time""
""focus"",""59"",""338715""
","""event"",""trial"",""time""
""fullscreenenter"",""1"",""3432""
","
",,,,,,,,,,,,"[{""stimulus"":""run_exp/static/images/task_images/rocket-01.jpg"",""time"":0.4000000059604645},{""stimulus"":""run_exp/static/images/task_images/rocket-02.jpg"",""time"":1124.5},{""stimulus"":""run_exp/static/images/task_images/rocket-03.jpg"",""time"":2225.2999999821186},{""stimulus"":""run_exp/static/images/task_images/rocket-04.jpg"",""time"":3327.199999988079},{""stimulus"":""run_exp/static/images/task_images/rocket-05.jpg"",""time"":4438.699999988079},{""stimulus"":""run_exp/static/images/task_images/rocket-06.jpg"",""time"":5541.799999982119},{""stimulus"":""run_exp/static/images/task_images/rocket-07.jpg"",""time"":6644.699999988079},{""stimulus"":""run_exp/static/images/task_images/rocket-08.jpg"",""time"":7744.699999988079},{""stimulus"":""run_exp/static/images/task_images/rocket-09.jpg"",""time"":8857}]",[],5,,,,,,,,,,,,,,
alien_welcome,130,491344,0.0-42.0-1.0,"""event"",""trial"",""time""
""fullscreenenter"",""1"",""3432""
""blur"",""59"",""338711""
""focus"",""59"",""338715""
","""event"",""trial"",""time""
""blur"",""59"",""338711""
","""event"",""trial"",""time""
""focus"",""59"",""338715""
","""event"",""trial"",""time""
""fullscreenenter"",""1"",""3432""
","
",,null,run_exp/static/images/task_images/aliens/old_aliens/planet/alien_planet-77.jpg,null,,,,,,,,,,,,,77,"5,73,42,7,69,77,16,52,28,40,20,47,57,11,19,33,13,49,61,59,55,14,80,65,39,35,53,68,46,34,18,22,58,12,2,30,3,4,44,50",,,,,,,,,,
land,131,491864,0.0-42.0-2.0,"""event"",""trial"",""time""
""fullscreenenter"",""1"",""3432""
""blur"",""59"",""338711""
""focus"",""59"",""338715""
","""event"",""trial"",""time""
""blur"",""59"",""338711""
","""event"",""trial"",""time""
""focus"",""59"",""338715""
","""event"",""trial"",""time""
""fullscreenenter"",""1"",""3432""
","
",,null,run_exp/static/images/task_images/land.jpg,null,,,,,,,99,,,6,,,,,,,,,,,,,,
dig,132,493873,0.0-42.0-3.0,"""event"",""trial"",""time""
""fullscreenenter"",""1"",""3432""
""blur"",""59"",""338711""
""focus"",""59"",""338715""
","""event"",""trial"",""time""
""blur"",""59"",""338711""
","""event"",""trial"",""time""
""focus"",""59"",""338715""
","""event"",""trial"",""time""
""fullscreenenter"",""1"",""3432""
","
",,,,,,,,,,,,"[{""stimulus"":""run_exp/static/images/task_images/dig.jpg"",""time"":0.6000000238418579},{""stimulus"":""run_exp/static/images/task_images/land.jpg"",""time"":677.1000000238419},{""stimulus"":""run_exp/static/images/task_images/dig.jpg"",""time"":1339.1000000238419}]",[],6,,,,,,,,,,,,,,
harvest,133,494890,0.0-42.0-4.0,"""event"",""trial"",""time""
""fullscreenenter"",""1"",""3432""
""blur"",""59"",""338711""
""focus"",""59"",""338715""
","""event"",""trial"",""time""
""blur"",""59"",""338711""
","""event"",""trial"",""time""
""focus"",""59"",""338715""
","""event"",""trial"",""time""
""fullscreenenter"",""1"",""3432""
","
",,null,run_exp/static/images/task_images/gems/99.jpg,null,,,,,,,78,,,6,,,,,99,0.787548883,0.787878788,,,,,,,
decision,134,496308,0.0-42.0-5.0,"""event"",""trial"",""time""
""fullscreenenter"",""1"",""3432""
""blur"",""59"",""338711""
""focus"",""59"",""338715""
","""event"",""trial"",""time""
""blur"",""59"",""338711""
","""event"",""trial"",""time""
""focus"",""59"",""338715""
","""event"",""trial"",""time""
""fullscreenenter"",""1"",""3432""
","
",,1414.7,run_exp/static/images/task_images/land.jpg,65,,,,,,,78,,,6,,,,,,,,160270,1,0,FALSE,,,
dig,135,497913,0.0-43.0-0.0,"""event"",""trial"",""time""
""fullscreenenter"",""1"",""3432""
""blur"",""59"",""338711""
""focus"",""59"",""338715""
","""event"",""trial"",""time""
""blur"",""59"",""338711""
","""event"",""trial"",""time""
""focus"",""59"",""338715""
","""event"",""trial"",""time""
""fullscreenenter"",""1"",""3432""
","
",,,,,,,,,,,,"[{""stimulus"":""run_exp/static/images/task_images/dig.jpg"",""time"":0.5},{""stimulus"":""run_exp/static/images/task_images/land.jpg"",""time"":537.9000000059605},{""stimulus"":""run_exp/static/images/task_images/dig.jpg"",""time"":1068.199999988079}]",[],6,,,,,,,,,,,,,,
harvest,136,498927,0.0-43.0-1.0,"""event"",""trial"",""time""
""fullscreenenter"",""1"",""3432""
""blur"",""59"",""338711""
""focus"",""59"",""338715""
","""event"",""trial"",""time""
""blur"",""59"",""338711""
","""event"",""trial"",""time""
""focus"",""59"",""338715""
","""event"",""trial"",""time""
""fullscreenenter"",""1"",""3432""
","
",,null,run_exp/static/images/task_images/gems/78.jpg,null,,,,,,,59,,,6,,,,,78,0.756416137,0.756410256,,,,,,,
decision,137,499383,0.0-43.0-2.0,"""event"",""trial"",""time""
""fullscreenenter"",""1"",""3432""
""blur"",""59"",""338711""
""focus"",""59"",""338715""
","""event"",""trial"",""time""
""blur"",""59"",""338711""
","""event"",""trial"",""time""
""focus"",""59"",""338715""
","""event"",""trial"",""time""
""fullscreenenter"",""1"",""3432""
","
",,454,run_exp/static/images/task_images/land.jpg,65,,,,,,,59,,,6,,,,,,,,163344,1,1,FALSE,,,
dig,138,501953,0.0-44.0-0.0,"""event"",""trial"",""time""
""fullscreenenter"",""1"",""3432""
""blur"",""59"",""338711""
""focus"",""59"",""338715""
","""event"",""trial"",""time""
""blur"",""59"",""338711""
","""event"",""trial"",""time""
""focus"",""59"",""338715""
","""event"",""trial"",""time""
""fullscreenenter"",""1"",""3432""
","
",,,,,,,,,,,,"[{""stimulus"":""run_exp/static/images/task_images/dig.jpg"",""time"":0.7000000178813934},{""stimulus"":""run_exp/static/images/task_images/land.jpg"",""time"":859.3000000119209},{""stimulus"":""run_exp/static/images/task_images/dig.jpg"",""time"":1707.1000000238419}]",[],6,,,,,,,,,,,,,,
harvest,139,502973,0.0-44.0-1.0,"""event"",""trial"",""time""
""fullscreenenter"",""1"",""3432""
""blur"",""59"",""338711""
""focus"",""59"",""338715""
","""event"",""trial"",""time""
""blur"",""59"",""338711""
","""event"",""trial"",""time""
""focus"",""59"",""338715""
","""event"",""trial"",""time""
""fullscreenenter"",""1"",""3432""
","
",,null,run_exp/static/images/task_images/gems/59.jpg,null,,,,,,,49,,,6,,,,,59,0.836366743,0.830508475,,,,,,,
decision,140,503102,0.0-44.0-2.0,"""event"",""trial"",""time""
""fullscreenenter"",""1"",""3432""
""blur"",""59"",""338711""
""focus"",""59"",""338715""
","""event"",""trial"",""time""
""blur"",""59"",""338711""
","""event"",""trial"",""time""
""focus"",""59"",""338715""
","""event"",""trial"",""time""
""fullscreenenter"",""1"",""3432""
","
",,126.5,run_exp/static/images/task_images/land.jpg,65,,,,,,,49,,,6,,,,,,,,167063,1,2,FALSE,,,
dig,141,505983,0.0-45.0-0.0,"""event"",""trial"",""time""
""fullscreenenter"",""1"",""3432""
""blur"",""59"",""338711""
""focus"",""59"",""338715""
","""event"",""trial"",""time""
""blur"",""59"",""338711""
","""event"",""trial"",""time""
""focus"",""59"",""338715""
","""event"",""trial"",""time""
""fullscreenenter"",""1"",""3432""
","
",,,,,,,,,,,,"[{""stimulus"":""run_exp/static/images/task_images/dig.jpg"",""time"":0.4000000059604645},{""stimulus"":""run_exp/static/images/task_images/land.jpg"",""time"":969.9000000059605},{""stimulus"":""run_exp/static/images/task_images/dig.jpg"",""time"":1917.800000011921}]",[],6,,,,,,,,,,,,,,
harvest,142,507004,0.0-45.0-1.0,"""event"",""trial"",""time""
""fullscreenenter"",""1"",""3432""
""blur"",""59"",""338711""
""focus"",""59"",""338715""
","""event"",""trial"",""time""
""blur"",""59"",""338711""
","""event"",""trial"",""time""
""focus"",""59"",""338715""
","""event"",""trial"",""time""
""fullscreenenter"",""1"",""3432""
","
",,null,run_exp/static/images/task_images/gems/49.jpg,null,,,,,,,43,,,6,,,,,49,0.878251213,0.87755102,,,,,,,
decision,143,507297,0.0-45.0-2.0,"""event"",""trial"",""time""
""fullscreenenter"",""1"",""3432""
""blur"",""59"",""338711""
""focus"",""59"",""338715""
","""event"",""trial"",""time""
""blur"",""59"",""338711""
","""event"",""trial"",""time""
""focus"",""59"",""338715""
","""event"",""trial"",""time""
""fullscreenenter"",""1"",""3432""
","
",,290.2,run_exp/static/images/task_images/land.jpg,65,,,,,,,43,,,6,,,,,,,,171258,1,3,FALSE,,,
dig,144,510029,0.0-46.0-0.0,"""event"",""trial"",""time""
""fullscreenenter"",""1"",""3432""
""blur"",""59"",""338711""
""focus"",""59"",""338715""
","""event"",""trial"",""time""
""blur"",""59"",""338711""
","""event"",""trial"",""time""
""focus"",""59"",""338715""
","""event"",""trial"",""time""
""fullscreenenter"",""1"",""3432""
","
",,,,,,,,,,,,"[{""stimulus"":""run_exp/static/images/task_images/dig.jpg"",""time"":0.4000000059604645},{""stimulus"":""run_exp/static/images/task_images/land.jpg"",""time"":919.7000000178814},{""stimulus"":""run_exp/static/images/task_images/dig.jpg"",""time"":1819.5}]",[],6,,,,,,,,,,,,,,
harvest,145,511032,0.0-46.0-1.0,"""event"",""trial"",""time""
""fullscreenenter"",""1"",""3432""
""blur"",""59"",""338711""
""focus"",""59"",""338715""
","""event"",""trial"",""time""
""blur"",""59"",""338711""
","""event"",""trial"",""time""
""focus"",""59"",""338715""
","""event"",""trial"",""time""
""fullscreenenter"",""1"",""3432""
","
",,null,run_exp/static/images/task_images/gems/43.jpg,null,,,,,,,35,,,6,,,,,43,0.806463851,0.813953488,,,,,,,
decision,146,511154,0.0-46.0-2.0,"""event"",""trial"",""time""
""fullscreenenter"",""1"",""3432""
""blur"",""59"",""338711""
""focus"",""59"",""338715""
","""event"",""trial"",""time""
""blur"",""59"",""338711""
","""event"",""trial"",""time""
""focus"",""59"",""338715""
","""event"",""trial"",""time""
""fullscreenenter"",""1"",""3432""
","
",,119.2,run_exp/static/images/task_images/land.jpg,65,,,,,,,35,,,6,,,,,,,,175115,1,4,FALSE,,,
dig,147,514058,0.0-47.0-0.0,"""event"",""trial"",""time""
""fullscreenenter"",""1"",""3432""
""blur"",""59"",""338711""
""focus"",""59"",""338715""
","""event"",""trial"",""time""
""blur"",""59"",""338711""
","""event"",""trial"",""time""
""focus"",""59"",""338715""
","""event"",""trial"",""time""
""fullscreenenter"",""1"",""3432""
","
",,,,,,,,,,,,"[{""stimulus"":""run_exp/static/images/task_images/dig.jpg"",""time"":0.4000000059604645},{""stimulus"":""run_exp/static/images/task_images/land.jpg"",""time"":962.1000000238419},{""stimulus"":""run_exp/static/images/task_images/dig.jpg"",""time"":1924.1000000238419}]",[],6,,,,,,,,,,,,,,
harvest,148,515069,0.0-47.0-1.0,"""event"",""trial"",""time""
""fullscreenenter"",""1"",""3432""
""blur"",""59"",""338711""
""focus"",""59"",""338715""
","""event"",""trial"",""time""
""blur"",""59"",""338711""
","""event"",""trial"",""time""
""focus"",""59"",""338715""
","""event"",""trial"",""time""
""fullscreenenter"",""1"",""3432""
","
",,null,run_exp/static/images/task_images/gems/35.jpg,null,,,,,,,30,,,6,,,,,35,0.859147996,0.857142857,,,,,,,
decision,149,516292,0.0-47.0-2.0,"""event"",""trial"",""time""
""fullscreenenter"",""1"",""3432""
""blur"",""59"",""338711""
""focus"",""59"",""338715""
","""event"",""trial"",""time""
""blur"",""59"",""338711""
","""event"",""trial"",""time""
""focus"",""59"",""338715""
","""event"",""trial"",""time""
""fullscreenenter"",""1"",""3432""
","
",,1221.2,run_exp/static/images/task_images/land.jpg,65,,,,,,,30,,,6,,,,,,,,180253,1,5,FALSE,,,
dig,150,518083,0.0-48.0-0.0,"""event"",""trial"",""time""
""fullscreenenter"",""1"",""3432""
""blur"",""59"",""338711""
""focus"",""59"",""338715""
","""event"",""trial"",""time""
""blur"",""59"",""338711""
","""event"",""trial"",""time""
""focus"",""59"",""338715""
","""event"",""trial"",""time""
""fullscreenenter"",""1"",""3432""
","
",,,,,,,,,,,,"[{""stimulus"":""run_exp/static/images/task_images/dig.jpg"",""time"":0.4000000059604645},{""stimulus"":""run_exp/static/images/task_images/land.jpg"",""time"":601.7000000178814},{""stimulus"":""run_exp/static/images/task_images/dig.jpg"",""time"":1194.4000000059605}]",[],6,,,,,,,,,,,,,,
harvest,151,519098,0.0-48.0-1.0,"""event"",""trial"",""time""
""fullscreenenter"",""1"",""3432""
""blur"",""59"",""338711""
""focus"",""59"",""338715""
","""event"",""trial"",""time""
""blur"",""59"",""338711""
","""event"",""trial"",""time""
""focus"",""59"",""338715""
","""event"",""trial"",""time""
""fullscreenenter"",""1"",""3432""
","
",,null,run_exp/static/images/task_images/gems/30.jpg,null,,,,,,,24,,,6,,,,,30,0.783992291,0.8,,,,,,,
decision,152,519290,0.0-48.0-2.0,"""event"",""trial"",""time""
""fullscreenenter"",""1"",""3432""
""blur"",""59"",""338711""
""focus"",""59"",""338715""
","""event"",""trial"",""time""
""blur"",""59"",""338711""
","""event"",""trial"",""time""
""focus"",""59"",""338715""
","""event"",""trial"",""time""
""fullscreenenter"",""1"",""3432""
","
",,189.6,run_exp/static/images/task_images/land.jpg,65,,,,,,,24,,,6,,,,,,,,183252,1,6,FALSE,,,
dig,153,522123,0.0-49.0-0.0,"""event"",""trial"",""time""
""fullscreenenter"",""1"",""3432""
""blur"",""59"",""338711""
""focus"",""59"",""338715""
","""event"",""trial"",""time""
""blur"",""59"",""338711""
","""event"",""trial"",""time""
""focus"",""59"",""338715""
","""event"",""trial"",""time""
""fullscreenenter"",""1"",""3432""
","
",,,,,,,,,,,,"[{""stimulus"":""run_exp/static/images/task_images/dig.jpg"",""time"":0.5},{""stimulus"":""run_exp/static/images/task_images/land.jpg"",""time"":945.4000000059605},{""stimulus"":""run_exp/static/images/task_images/dig.jpg"",""time"":1879.699999988079}]",[],6,,,,,,,,,,,,,,
harvest,154,523144,0.0-49.0-1.0,"""event"",""trial"",""time""
""fullscreenenter"",""1"",""3432""
""blur"",""59"",""338711""
""focus"",""59"",""338715""
","""event"",""trial"",""time""
""blur"",""59"",""338711""
","""event"",""trial"",""time""
""focus"",""59"",""338715""
","""event"",""trial"",""time""
""fullscreenenter"",""1"",""3432""
","
",,null,run_exp/static/images/task_images/gems/24.jpg,null,,,,,,,17,,,6,,,,,24,0.704794333,0.708333333,,,,,,,
decision,155,523307,0.0-49.0-2.0,"""event"",""trial"",""time""
""fullscreenenter"",""1"",""3432""
""blur"",""59"",""338711""
""focus"",""59"",""338715""
","""event"",""trial"",""time""
""blur"",""59"",""338711""
","""event"",""trial"",""time""
""focus"",""59"",""338715""
","""event"",""trial"",""time""
""fullscreenenter"",""1"",""3432""
","
",,160,run_exp/static/images/task_images/land.jpg,65,,,,,,,17,,,6,,,,,,,,187268,1,7,FALSE,,,
dig,156,526170,0.0-50.0-0.0,"""event"",""trial"",""time""
""fullscreenenter"",""1"",""3432""
""blur"",""59"",""338711""
""focus"",""59"",""338715""
","""event"",""trial"",""time""
""blur"",""59"",""338711""
","""event"",""trial"",""time""
""focus"",""59"",""338715""
","""event"",""trial"",""time""
""fullscreenenter"",""1"",""3432""
","
",,,,,,,,,,,,"[{""stimulus"":""run_exp/static/images/task_images/dig.jpg"",""time"":0.5},{""stimulus"":""run_exp/static/images/task_images/land.jpg"",""time"":948.7999999821186},{""stimulus"":""run_exp/static/images/task_images/dig.jpg"",""time"":1908.699999988079}]",[],6,,,,,,,,,,,,,,
harvest,157,527173,0.0-50.0-1.0,"""event"",""trial"",""time""
""fullscreenenter"",""1"",""3432""
""blur"",""59"",""338711""
""focus"",""59"",""338715""
","""event"",""trial"",""time""
""blur"",""59"",""338711""
","""event"",""trial"",""time""
""focus"",""59"",""338715""
","""event"",""trial"",""time""
""fullscreenenter"",""1"",""3432""
","
",,null,run_exp/static/images/task_images/gems/17.jpg,null,,,,,,,14,,,6,,,,,17,0.845863687,0.823529412,,,,,,,
decision,158,528736,0.0-50.0-2.0,"""event"",""trial"",""time""
""fullscreenenter"",""1"",""3432""
""blur"",""59"",""338711""
""focus"",""59"",""338715""
","""event"",""trial"",""time""
""blur"",""59"",""338711""
","""event"",""trial"",""time""
""focus"",""59"",""338715""
","""event"",""trial"",""time""
""fullscreenenter"",""1"",""3432""
","
",,1559.7,run_exp/static/images/task_images/land.jpg,65,,,,,,,14,,,6,,,,,,,,192697,1,8,FALSE,,,
dig,159,530199,0.0-51.0-0.0,"""event"",""trial"",""time""
""fullscreenenter"",""1"",""3432""
""blur"",""59"",""338711""
""focus"",""59"",""338715""
","""event"",""trial"",""time""
""blur"",""59"",""338711""
","""event"",""trial"",""time""
""focus"",""59"",""338715""
","""event"",""trial"",""time""
""fullscreenenter"",""1"",""3432""
","
",,,,,,,,,,,,"[{""stimulus"":""run_exp/static/images/task_images/dig.jpg"",""time"":0.3999999761581421},{""stimulus"":""run_exp/static/images/task_images/land.jpg"",""time"":491.89999997615814},{""stimulus"":""run_exp/static/images/task_images/dig.jpg"",""time"":971}]",[],6,,,,,,,,,,,,,,
harvest,160,531204,0.0-51.0-1.0,"""event"",""trial"",""time""
""fullscreenenter"",""1"",""3432""
""blur"",""59"",""338711""
""focus"",""59"",""338715""
","""event"",""trial"",""time""
""blur"",""59"",""338711""
","""event"",""trial"",""time""
""focus"",""59"",""338715""
","""event"",""trial"",""time""
""fullscreenenter"",""1"",""3432""
","
",,null,run_exp/static/images/task_images/gems/14.jpg,null,,,,,,,11,,,6,,,,,14,0.815420387,0.785714286,,,,,,,
decision,161,531237,0.0-51.0-2.0,"""event"",""trial"",""time""
""fullscreenenter"",""1"",""3432""
""blur"",""59"",""338711""
""focus"",""59"",""338715""
","""event"",""trial"",""time""
""blur"",""59"",""338711""
","""event"",""trial"",""time""
""focus"",""59"",""338715""
","""event"",""trial"",""time""
""fullscreenenter"",""1"",""3432""
","
",,30.70000002,run_exp/static/images/task_images/land.jpg,76,,,,,,,11,,,6,,,,,,,,195198,1,9,TRUE,,,
travel,162,541214,0.0-52.0-0.0,"""event"",""trial"",""time""
""fullscreenenter"",""1"",""3432""
""blur"",""59"",""338711""
""focus"",""59"",""338715""
","""event"",""trial"",""time""
""blur"",""59"",""338711""
","""event"",""trial"",""time""
""focus"",""59"",""338715""
","""event"",""trial"",""time""
""fullscreenenter"",""1"",""3432""
","
",,,,,,,,,,,,"[{""stimulus"":""run_exp/static/images/task_images/rocket-01.jpg"",""time"":0.4000000059604645},{""stimulus"":""run_exp/static/images/task_images/rocket-02.jpg"",""time"":1119.5},{""stimulus"":""run_exp/static/images/task_images/rocket-03.jpg"",""time"":2229.4000000059605},{""stimulus"":""run_exp/static/images/task_images/rocket-04.jpg"",""time"":3328.800000011921},{""stimulus"":""run_exp/static/images/task_images/rocket-05.jpg"",""time"":4448.800000011921},{""stimulus"":""run_exp/static/images/task_images/rocket-06.jpg"",""time"":5539.100000023842},{""stimulus"":""run_exp/static/images/task_images/rocket-07.jpg"",""time"":6658.9000000059605},{""stimulus"":""run_exp/static/images/task_images/rocket-08.jpg"",""time"":7758.9000000059605},{""stimulus"":""run_exp/static/images/task_images/rocket-09.jpg"",""time"":8859}]",[],6,,,,,,,,,,,,,,
alien_welcome,163,546225,0.0-52.0-1.0,"""event"",""trial"",""time""
""fullscreenenter"",""1"",""3432""
""blur"",""59"",""338711""
""focus"",""59"",""338715""
","""event"",""trial"",""time""
""blur"",""59"",""338711""
","""event"",""trial"",""time""
""focus"",""59"",""338715""
","""event"",""trial"",""time""
""fullscreenenter"",""1"",""3432""
","
",,null,run_exp/static/images/task_images/aliens/old_aliens/planet/alien_planet-16.jpg,null,,,,,,,,,,,,,16,"5,73,42,7,69,77,16,52,28,40,20,47,57,11,19,33,13,49,61,59,55,14,80,65,39,35,53,68,46,34,18,22,58,12,2,30,3,4,44,50",,,,,,,,,,
land,164,546744,0.0-52.0-2.0,"""event"",""trial"",""time""
""fullscreenenter"",""1"",""3432""
""blur"",""59"",""338711""
""focus"",""59"",""338715""
","""event"",""trial"",""time""
""blur"",""59"",""338711""
","""event"",""trial"",""time""
""focus"",""59"",""338715""
","""event"",""trial"",""time""
""fullscreenenter"",""1"",""3432""
","
",,null,run_exp/static/images/task_images/land.jpg,null,,,,,,,97,,,7,,,,,,,,,,,,,,
dig,165,548754,0.0-52.0-3.0,"""event"",""trial"",""time""
""fullscreenenter"",""1"",""3432""
""blur"",""59"",""338711""
""focus"",""59"",""338715""
","""event"",""trial"",""time""
""blur"",""59"",""338711""
","""event"",""trial"",""time""
""focus"",""59"",""338715""
","""event"",""trial"",""time""
""fullscreenenter"",""1"",""3432""
","
",,,,,,,,,,,,"[{""stimulus"":""run_exp/static/images/task_images/dig.jpg"",""time"":0.4000000059604645},{""stimulus"":""run_exp/static/images/task_images/land.jpg"",""time"":676.8000000119209},{""stimulus"":""run_exp/static/images/task_images/dig.jpg"",""time"":1346.5}]",[],7,,,,,,,,,,,,,,
harvest,166,549769,0.0-52.0-4.0,"""event"",""trial"",""time""
""fullscreenenter"",""1"",""3432""
""blur"",""59"",""338711""
""focus"",""59"",""338715""
","""event"",""trial"",""time""
""blur"",""59"",""338711""
","""event"",""trial"",""time""
""focus"",""59"",""338715""
","""event"",""trial"",""time""
""fullscreenenter"",""1"",""3432""
","
",,null,run_exp/static/images/task_images/gems/97.jpg,null,,,,,,,76,,,7,,,,,97,0.782544291,0.783505155,,,,,,,
decision,167,549905,0.0-52.0-5.0,"""event"",""trial"",""time""
""fullscreenenter"",""1"",""3432""
""blur"",""59"",""338711""
""focus"",""59"",""338715""
","""event"",""trial"",""time""
""blur"",""59"",""338711""
","""event"",""trial"",""time""
""focus"",""59"",""338715""
","""event"",""trial"",""time""
""fullscreenenter"",""1"",""3432""
","
",,133,run_exp/static/images/task_images/land.jpg,65,,,,,,,76,,,7,,,,,,,,213866,1,0,FALSE,,,
dig,168,552780,0.0-53.0-0.0,"""event"",""trial"",""time""
""fullscreenenter"",""1"",""3432""
""blur"",""59"",""338711""
""focus"",""59"",""338715""
","""event"",""trial"",""time""
""blur"",""59"",""338711""
","""event"",""trial"",""time""
""focus"",""59"",""338715""
","""event"",""trial"",""time""
""fullscreenenter"",""1"",""3432""
","
",,,,,,,,,,,,"[{""stimulus"":""run_exp/static/images/task_images/dig.jpg"",""time"":0.5999999940395355},{""stimulus"":""run_exp/static/images/task_images/land.jpg"",""time"":971.8999999761581},{""stimulus"":""run_exp/static/images/task_images/dig.jpg"",""time"":1924.8999999761581}]",[],7,,,,,,,,,,,,,,
harvest,169,553791,0.0-53.0-1.0,"""event"",""trial"",""time""
""fullscreenenter"",""1"",""3432""
""blur"",""59"",""338711""
""focus"",""59"",""338715""
","""event"",""trial"",""time""
""blur"",""59"",""338711""
","""event"",""trial"",""time""
""focus"",""59"",""338715""
","""event"",""trial"",""time""
""fullscreenenter"",""1"",""3432""
","
",,null,run_exp/static/images/task_images/gems/76.jpg,null,,,,,,,62,,,7,,,,,76,0.822217267,0.815789474,,,,,,,
decision,170,553936,0.0-53.0-2.0,"""event"",""trial"",""time""
""fullscreenenter"",""1"",""3432""
""blur"",""59"",""338711""
""focus"",""59"",""338715""
","""event"",""trial"",""time""
""blur"",""59"",""338711""
","""event"",""trial"",""time""
""focus"",""59"",""338715""
","""event"",""trial"",""time""
""fullscreenenter"",""1"",""3432""
","
",,142.9,run_exp/static/images/task_images/land.jpg,65,,,,,,,62,,,7,,,,,,,,217898,1,1,FALSE,,,
dig,171,556816,0.0-54.0-0.0,"""event"",""trial"",""time""
""fullscreenenter"",""1"",""3432""
""blur"",""59"",""338711""
""focus"",""59"",""338715""
","""event"",""trial"",""time""
""blur"",""59"",""338711""
","""event"",""trial"",""time""
""focus"",""59"",""338715""
","""event"",""trial"",""time""
""fullscreenenter"",""1"",""3432""
","
",,,,,,,,,,,,"[{""stimulus"":""run_exp/static/images/task_images/dig.jpg"",""time"":0.30000001192092896},{""stimulus"":""run_exp/static/images/task_images/land.jpg"",""time"":971},{""stimulus"":""run_exp/static/images/task_images/dig.jpg"",""time"":1909.0999999940395}]",[],7,,,,,,,,,,,,,,
harvest,172,557819,0.0-54.0-1.0,"""event"",""trial"",""time""
""fullscreenenter"",""1"",""3432""
""blur"",""59"",""338711""
""focus"",""59"",""338715""
","""event"",""trial"",""time""
""blur"",""59"",""338711""
","""event"",""trial"",""time""
""focus"",""59"",""338715""
","""event"",""trial"",""time""
""fullscreenenter"",""1"",""3432""
","
",,null,run_exp/static/images/task_images/gems/62.jpg,null,,,,,,,49,,,7,,,,,62,0.788551845,0.790322581,,,,,,,
decision,173,557847,0.0-54.0-2.0,"""event"",""trial"",""time""
""fullscreenenter"",""1"",""3432""
""blur"",""59"",""338711""
""focus"",""59"",""338715""
","""event"",""trial"",""time""
""blur"",""59"",""338711""
","""event"",""trial"",""time""
""focus"",""59"",""338715""
","""event"",""trial"",""time""
""fullscreenenter"",""1"",""3432""
","
",,25.19999999,run_exp/static/images/task_images/land.jpg,65,,,,,,,49,,,7,,,,,,,,221808,1,2,FALSE,,,
dig,174,560834,0.0-55.0-0.0,"""event"",""trial"",""time""
""fullscreenenter"",""1"",""3432""
""blur"",""59"",""338711""
""focus"",""59"",""338715""
","""event"",""trial"",""time""
""blur"",""59"",""338711""
","""event"",""trial"",""time""
""focus"",""59"",""338715""
","""event"",""trial"",""time""
""fullscreenenter"",""1"",""3432""
","
",,,,,,,,,,,,"[{""stimulus"":""run_exp/static/images/task_images/dig.jpg"",""time"":0.3999999761581421},{""stimulus"":""run_exp/static/images/task_images/land.jpg"",""time"":1011.0999999940395},{""stimulus"":""run_exp/static/images/task_images/dig.jpg"",""time"":1990.7999999821186}]",[],7,,,,,,,,,,,,,,
harvest,175,561847,0.0-55.0-1.0,"""event"",""trial"",""time""
""fullscreenenter"",""1"",""3432""
""blur"",""59"",""338711""
""focus"",""59"",""338715""
","""event"",""trial"",""time""
""blur"",""59"",""338711""
","""event"",""trial"",""time""
""focus"",""59"",""338715""
","""event"",""trial"",""time""
""fullscreenenter"",""1"",""3432""
","
",,null,run_exp/static/images/task_images/gems/49.jpg,null,,,,,,,43,,,7,,,,,49,0.873583964,0.87755102,,,,,,,
decision,176,564009,0.0-55.0-2.0,"""event"",""trial"",""time""
""fullscreenenter"",""1"",""3432""
""blur"",""59"",""338711""
""focus"",""59"",""338715""
","""event"",""trial"",""time""
""blur"",""59"",""338711""
","""event"",""trial"",""time""
""focus"",""59"",""338715""
","""event"",""trial"",""time""
""fullscreenenter"",""1"",""3432""
","
",,2160.1,run_exp/static/images/task_images/land.jpg,76,,,,,,,43,,,7,,,,,,,,227970,1,3,TRUE,,,
travel,177,571864,0.0-56.0-0.0,"""event"",""trial"",""time""
""fullscreenenter"",""1"",""3432""
""blur"",""59"",""338711""
""focus"",""59"",""338715""
","""event"",""trial"",""time""
""blur"",""59"",""338711""
","""event"",""trial"",""time""
""focus"",""59"",""338715""
","""event"",""trial"",""time""
""fullscreenenter"",""1"",""3432""
","
",,,,,,,,,,,,"[{""stimulus"":""run_exp/static/images/task_images/rocket-01.jpg"",""time"":0.5},{""stimulus"":""run_exp/static/images/task_images/rocket-02.jpg"",""time"":875.1999999880791},{""stimulus"":""run_exp/static/images/task_images/rocket-03.jpg"",""time"":1751.2999999821186},{""stimulus"":""run_exp/static/images/task_images/rocket-04.jpg"",""time"":2628.2999999821186},{""stimulus"":""run_exp/static/images/task_images/rocket-05.jpg"",""time"":3488.4000000059605},{""stimulus"":""run_exp/static/images/task_images/rocket-06.jpg"",""time"":4368.4000000059605},{""stimulus"":""run_exp/static/images/task_images/rocket-07.jpg"",""time"":5237.5999999940395},{""stimulus"":""run_exp/static/images/task_images/rocket-08.jpg"",""time"":6110},{""stimulus"":""run_exp/static/images/task_images/rocket-09.jpg"",""time"":6978.799999982119}]",[],7,,,,,,,,,,,,,,
alien_welcome,178,576876,0.0-56.0-1.0,"""event"",""trial"",""time""
""fullscreenenter"",""1"",""3432""
""blur"",""59"",""338711""
""focus"",""59"",""338715""
","""event"",""trial"",""time""
""blur"",""59"",""338711""
","""event"",""trial"",""time""
""focus"",""59"",""338715""
","""event"",""trial"",""time""
""fullscreenenter"",""1"",""3432""
","
",,null,run_exp/static/images/task_images/aliens/old_aliens/planet/alien_planet-52.jpg,null,,,,,,,,,,,,,52,"5,73,42,7,69,77,16,52,28,40,20,47,57,11,19,33,13,49,61,59,55,14,80,65,39,35,53,68,46,34,18,22,58,12,2,30,3,4,44,50",,,,,,,,,,
land,179,577384,0.0-56.0-2.0,"""event"",""trial"",""time""
""fullscreenenter"",""1"",""3432""
""blur"",""59"",""338711""
""focus"",""59"",""338715""
","""event"",""trial"",""time""
""blur"",""59"",""338711""
","""event"",""trial"",""time""
""focus"",""59"",""338715""
","""event"",""trial"",""time""
""fullscreenenter"",""1"",""3432""
","
",,null,run_exp/static/images/task_images/land.jpg,null,,,,,,,101,,,8,,,,,,,,,,,,,,
dig,180,579404,0.0-56.0-3.0,"""event"",""trial"",""time""
""fullscreenenter"",""1"",""3432""
""blur"",""59"",""338711""
""focus"",""59"",""338715""
","""event"",""trial"",""time""
""blur"",""59"",""338711""
","""event"",""trial"",""time""
""focus"",""59"",""338715""
","""event"",""trial"",""time""
""fullscreenenter"",""1"",""3432""
","
",,,,,,,,,,,,"[{""stimulus"":""run_exp/static/images/task_images/dig.jpg"",""time"":0.5},{""stimulus"":""run_exp/static/images/task_images/land.jpg"",""time"":687.5},{""stimulus"":""run_exp/static/images/task_images/dig.jpg"",""time"":1348.2999999821186}]",[],8,,,,,,,,,,,,,,
harvest,181,580424,0.0-56.0-4.0,"""event"",""trial"",""time""
""fullscreenenter"",""1"",""3432""
""blur"",""59"",""338711""
""focus"",""59"",""338715""
","""event"",""trial"",""time""
""blur"",""59"",""338711""
","""event"",""trial"",""time""
""focus"",""59"",""338715""
","""event"",""trial"",""time""
""fullscreenenter"",""1"",""3432""
","
",,null,run_exp/static/images/task_images/gems/101.jpg,null,,,,,,,87,,,8,,,,,101,0.856511307,0.861386139,,,,,,,
decision,182,580790,0.0-56.0-5.0,"""event"",""trial"",""time""
""fullscreenenter"",""1"",""3432""
""blur"",""59"",""338711""
""focus"",""59"",""338715""
","""event"",""trial"",""time""
""blur"",""59"",""338711""
","""event"",""trial"",""time""
""focus"",""59"",""338715""
","""event"",""trial"",""time""
""fullscreenenter"",""1"",""3432""
","
",,363,run_exp/static/images/task_images/land.jpg,65,,,,,,,87,,,8,,,,,,,,244751,1,0,FALSE,,,
dig,183,583446,0.0-57.0-0.0,"""event"",""trial"",""time""
""fullscreenenter"",""1"",""3432""
""blur"",""59"",""338711""
""focus"",""59"",""338715""
","""event"",""trial"",""time""
""blur"",""59"",""338711""
","""event"",""trial"",""time""
""focus"",""59"",""338715""
","""event"",""trial"",""time""
""fullscreenenter"",""1"",""3432""
","
",,,,,,,,,,,,"[{""stimulus"":""run_exp/static/images/task_images/dig.jpg"",""time"":0.4000000059604645},{""stimulus"":""run_exp/static/images/task_images/land.jpg"",""time"":883.5},{""stimulus"":""run_exp/static/images/task_images/dig.jpg"",""time"":1764.300000011921}]",[],8,,,,,,,,,,,,,,
harvest,184,584455,0.0-57.0-1.0,"""event"",""trial"",""time""
""fullscreenenter"",""1"",""3432""
""blur"",""59"",""338711""
""focus"",""59"",""338715""
","""event"",""trial"",""time""
""blur"",""59"",""338711""
","""event"",""trial"",""time""
""focus"",""59"",""338715""
","""event"",""trial"",""time""
""fullscreenenter"",""1"",""3432""
","
",,null,run_exp/static/images/task_images/gems/87.jpg,null,,,,,,,70,,,8,,,,,87,0.804833418,0.804597701,,,,,,,
decision,185,584492,0.0-57.0-2.0,"""event"",""trial"",""time""
""fullscreenenter"",""1"",""3432""
""blur"",""59"",""338711""
""focus"",""59"",""338715""
","""event"",""trial"",""time""
""blur"",""59"",""338711""
","""event"",""trial"",""time""
""focus"",""59"",""338715""
","""event"",""trial"",""time""
""fullscreenenter"",""1"",""3432""
","
",,35.10000002,run_exp/static/images/task_images/land.jpg,65,,,,,,,70,,,8,,,,,,,,248454,1,1,FALSE,,,
dig,186,587467,0.0-58.0-0.0,"""event"",""trial"",""time""
""fullscreenenter"",""1"",""3432""
""blur"",""59"",""338711""
""focus"",""59"",""338715""
","""event"",""trial"",""time""
""blur"",""59"",""338711""
","""event"",""trial"",""time""
""focus"",""59"",""338715""
","""event"",""trial"",""time""
""fullscreenenter"",""1"",""3432""
","
",,,,,,,,,,,,"[{""stimulus"":""run_exp/static/images/task_images/dig.jpg"",""time"":0.5},{""stimulus"":""run_exp/static/images/task_images/land.jpg"",""time"":995},{""stimulus"":""run_exp/static/images/task_images/dig.jpg"",""time"":1995.5}]",[],8,,,,,,,,,,,,,,
harvest,187,588477,0.0-58.0-1.0,"""event"",""trial"",""time""
""fullscreenenter"",""1"",""3432""
""blur"",""59"",""338711""
""focus"",""59"",""338715""
","""event"",""trial"",""time""
""blur"",""59"",""338711""
","""event"",""trial"",""time""
""focus"",""59"",""338715""
","""event"",""trial"",""time""
""fullscreenenter"",""1"",""3432""
","
",,null,run_exp/static/images/task_images/gems/70.jpg,null,,,,,,,53,,,8,,,,,70,0.75707246,0.757142857,,,,,,,
decision,188,588668,0.0-58.0-2.0,"""event"",""trial"",""time""
""fullscreenenter"",""1"",""3432""
""blur"",""59"",""338711""
""focus"",""59"",""338715""
","""event"",""trial"",""time""
""blur"",""59"",""338711""
","""event"",""trial"",""time""
""focus"",""59"",""338715""
","""event"",""trial"",""time""
""fullscreenenter"",""1"",""3432""
","
",,188.8,run_exp/static/images/task_images/land.jpg,65,,,,,,,53,,,8,,,,,,,,252629,1,2,FALSE,,,
dig,189,591504,0.0-59.0-0.0,"""event"",""trial"",""time""
""fullscreenenter"",""1"",""3432""
""blur"",""59"",""338711""
""focus"",""59"",""338715""
","""event"",""trial"",""time""
""blur"",""59"",""338711""
","""event"",""trial"",""time""
""focus"",""59"",""338715""
","""event"",""trial"",""time""
""fullscreenenter"",""1"",""3432""
","
",,,,,,,,,,,,"[{""stimulus"":""run_exp/static/images/task_images/dig.jpg"",""time"":0.4000000059604645},{""stimulus"":""run_exp/static/images/task_images/land.jpg"",""time"":949},{""stimulus"":""run_exp/static/images/task_images/dig.jpg"",""time"":1890}]",[],8,,,,,,,,,,,,,,
harvest,190,592515,0.0-59.0-1.0,"""event"",""trial"",""time""
""fullscreenenter"",""1"",""3432""
""blur"",""59"",""338711""
