trial_type,trial_index,time_elapsed,internal_node_id,interactions,blur_events,focus_events,fullscreenenter_events,fullscreenexit_events,success,rt,stimulus,key_press,prompt,subject_id,participant_id,age,gender,button_pressed,next_reward,animation_sequence,responses,planet,curr_prac_trial,n_prac_rounds,alien,aliens,reward_received,decay_rate_actual,decay_rate_exp,time_in_block,block_num,prt,last_trial_on_planet,button_html,bonus,num_failures
pavlovia,0,2,0.0-0.0,"""event"",""trial"",""time""
""fullscreenenter"",""1"",""2186""
","
","
","""event"",""trial"",""time""
""fullscreenenter"",""1"",""2186""
","
",,,,,,,,,,,,,,,,,,,,,,,,,,,,
fullscreen,1,3190,0.0-1.0,"""event"",""trial"",""time""
""fullscreenenter"",""1"",""2186""
","
","
","""event"",""trial"",""time""
""fullscreenenter"",""1"",""2186""
","
",TRUE,,,,,,,,,,,,,,,,,,,,,,,,,,,
instruc_welcome,2,12941,0.0-2.0,"""event"",""trial"",""time""
""fullscreenenter"",""1"",""2186""
","
","
","""event"",""trial"",""time""
""fullscreenenter"",""1"",""2186""
","
",,null,run_exp/static/audio/clip_1_welcome.m4a,null,"<p>Howdy! In this experiment, you’ll be an explorer traveling through space to collect space treasure.</p><p>Your mission is to collect as much treasure as possible.</p><br><br><p><img src='run_exp/static/images/task_images/opening_img-01.jpg' height='300' width='auto'></p>",10016,957,16,Male,,,,,,,,,,,,,,,,,,,
audio-keyboard-response,3,29590,0.0-3.0,"""event"",""trial"",""time""
""fullscreenenter"",""1"",""2186""
","
","
","""event"",""trial"",""time""
""fullscreenenter"",""1"",""2186""
","
",,null,run_exp/static/audio/clip_2_move.m4a,null,,,,,,,,,,,,,,,,,,,,,,,,
welcome_dec,4,30520,0.0-4.0,"""event"",""trial"",""time""
""fullscreenenter"",""1"",""2186""
","
","
","""event"",""trial"",""time""
""fullscreenenter"",""1"",""2186""
","
",,927.7,"<p>Howdy! In this experiment, you’ll be an explorer traveling through space to collect space treasure.</p><p>Your mission is to collect as much treasure as possible.</p><br><br><p><img src='run_exp/static/images/task_images/opening_img-01.jpg' height='300' width='auto'></p>",,,,,,,1,,,,,,,,,,,,,,,,,,
html-keyboard-response,5,32284,0.0-5.0,"""event"",""trial"",""time""
""fullscreenenter"",""1"",""2186""
","
","
","""event"",""trial"",""time""
""fullscreenenter"",""1"",""2186""
","
",,1761.2,"<p>Howdy! In this experiment, you’ll be an explorer traveling through space to collect space treasure.</p><p>Your mission is to collect as much treasure as possible.</p><br><br><p><img src='run_exp/static/images/task_images/opening_img-01.jpg' height='300' width='auto'></p><button class=""jspsych-html-btn-unchosen""><img src=""run_exp/static/images/task_images/planet-01.jpg"" height=""50""></button><button class=""jspsych-html-btn-chosen""><img src=""run_exp/static/images/task_images/planet-02.jpg"" height=""50""></button><p><b>[press the space bar to lock in your answer]<b><br></p>",32,,,,,,,,,,,,,,,,,,,,,,,,
instruc_goal,6,42385,0.0-6.0-0.0,"""event"",""trial"",""time""
""fullscreenenter"",""1"",""2186""
","
","
","""event"",""trial"",""time""
""fullscreenenter"",""1"",""2186""
","
",,null,run_exp/static/audio/clip_3_goal.m4a,null,"<p> As a space explorer, you’ll visit different planets to dig for space treasure, these pink gems.</p> <p> The more treasure you dig up, the more bonus money you’ll win! </p><br><br><p><img src='run_exp/static/images/task_images/pink_gem.jpg' height='300' width='auto'></p>",,,,,,,,,,,,,,,,,,,,,,,
instruc_goal,7,43236,0.0-6.0-1.0,"""event"",""trial"",""time""
""fullscreenenter"",""1"",""2186""
","
","
","""event"",""trial"",""time""
""fullscreenenter"",""1"",""2186""
","
",,848.4,"<p> As a space explorer, you’ll visit different planets to dig for space treasure, these pink gems.</p> <p> The more treasure you dig up, the more bonus money you’ll win! </p><br><br><p><img src='run_exp/static/images/task_images/pink_gem.jpg' height='300' width='auto'></p>",,,,,,,1,,,,,,,,,,,,,,,,,,
html-keyboard-response,8,43523,0.0-6.0-2.0,"""event"",""trial"",""time""
""fullscreenenter"",""1"",""2186""
","
","
","""event"",""trial"",""time""
""fullscreenenter"",""1"",""2186""
","
",,285.4,"<p> As a space explorer, you’ll visit different planets to dig for space treasure, these pink gems.</p> <p> The more treasure you dig up, the more bonus money you’ll win! </p><br><br><p><img src='run_exp/static/images/task_images/pink_gem.jpg' height='300' width='auto'></p><button class=""jspsych-html-btn-unchosen""><img src=""run_exp/static/images/task_images/planet-01.jpg"" height=""50""></button><button class=""jspsych-html-btn-chosen""><img src=""run_exp/static/images/task_images/planet-02.jpg"" height=""50""></button><p><b>[press the space bar to lock in your answer]<b><br></p>",32,,,,,,,,,,,,,,,,,,,,,,,,
instruc_dig,9,59568,0.0-7.0-0.0,"""event"",""trial"",""time""
""fullscreenenter"",""1"",""2186""
","
","
","""event"",""trial"",""time""
""fullscreenenter"",""1"",""2186""
","
",,null,run_exp/static/audio/clip_4_dig.m4a,null,,,,,,,100,,,,,,,,,,,,,,,,,
instruc_dig_try,10,60481,0.0-7.0-1.0,"""event"",""trial"",""time""
""fullscreenenter"",""1"",""2186""
","
","
","""event"",""trial"",""time""
""fullscreenenter"",""1"",""2186""
","
",,911.5,"<p> When you’ve arrived at a new planet, you will dig once. </p> <p>Then, you get to decide if you want to stay on the planet and dig again or travel to a new planet and dig there.</p> <p> To stay and dig, press the letter <strong>‘A’</strong> on your keyboard. Try pressing it now! </p><p><img src='run_exp/static/images/task_images/land.jpg'  height='700' width='auto'></p>",65,"<p> When you’ve arrived at a new planet, you will dig once. </p> <p>Then, you get to decide if you want to stay on the planet and dig again or travel to a new planet and dig there.</p> <p> To stay and dig, press the letter <strong>‘A’</strong> on your keyboard. Try pressing it now! </p><p><img src='run_exp/static/images/task_images/land.jpg'  height='700' width='auto'></p>",,,,,,100,,,,,,,,,,,,,,,,,
dig_prac,11,62493,0.0-7.0-2.0,"""event"",""trial"",""time""
""fullscreenenter"",""1"",""2186""
","
","
","""event"",""trial"",""time""
""fullscreenenter"",""1"",""2186""
","
",,,,,,,,,,,,"[{""stimulus"":""run_exp/static/images/task_images/dig.jpg"",""time"":0.20000004768371582},{""stimulus"":""run_exp/static/images/task_images/land.jpg"",""time"":679.8000000119209},{""stimulus"":""run_exp/static/images/task_images/dig.jpg"",""time"":1341.300000011921}]",[],,,,,,,,,,,,,,,
instruc_travel,12,98764,0.0-7.0-3.0,"""event"",""trial"",""time""
""fullscreenenter"",""1"",""2186""
","
","
","""event"",""trial"",""time""
""fullscreenenter"",""1"",""2186""
","
",,null,run_exp/static/audio/clip_5_travel.m4a,null,"<p>Every time you dig up gems, there are less gems on the planet, so the more you dig on a planet the fewer gems you’ll get with each dig.</p><p>When gems are running low, you may want to travel to a new planet. </p> <p>  Planets are very far apart in this galaxy, so it will take some time to travel between them. </p> <br><p>There are lots and lots of planets for you to visit, so you won’t be able to return to any planets you’ve seen before. </p><br><p>To leave this planet and travel to a new one, press the letter <strong>‘L’</strong> on your keyboard. Try pressing it now! </p><p><img src='run_exp/static/images/task_images/rocket-01.jpg'  height='600' width='auto'></p>",,,,,,,,,,,,,,,,,,,,,,,
instruc_travel_try,13,100092,0.0-7.0-4.0,"""event"",""trial"",""time""
""fullscreenenter"",""1"",""2186""
","
","
","""event"",""trial"",""time""
""fullscreenenter"",""1"",""2186""
","
",,1325.9,"<p>Every time you dig up gems, there are less gems on the planet, so the more you dig on a planet the fewer gems you’ll get with each dig.</p><p>When gems are running low, you may want to travel to a new planet. </p> <p>  Planets are very far apart in this galaxy, so it will take some time to travel between them. </p> <br><p>There are lots and lots of planets for you to visit, so you won’t be able to return to any planets you’ve seen before. </p><br><p>To leave this planet and travel to a new one, press the letter <strong>‘L’</strong> on your keyboard. Try pressing it now! </p><p><img src='run_exp/static/images/task_images/rocket-01.jpg'  height='600' width='auto'></p>",76,"<p>Every time you dig up gems, there are less gems on the planet, so the more you dig on a planet the fewer gems you’ll get with each dig.</p><p>When gems are running low, you may want to travel to a new planet. </p> <p>  Planets are very far apart in this galaxy, so it will take some time to travel between them. </p> <br><p>There are lots and lots of planets for you to visit, so you won’t be able to return to any planets you’ve seen before. </p><br><p>To leave this planet and travel to a new one, press the letter <strong>‘L’</strong> on your keyboard. Try pressing it now! </p><p><img src='run_exp/static/images/task_images/rocket-01.jpg'  height='600' width='auto'></p>",,,,,,,,,,,,,,,,,,,,,,,
travel_prac,14,110105,0.0-7.0-5.0,"""event"",""trial"",""time""
""fullscreenenter"",""1"",""2186""
","
","
","""event"",""trial"",""time""
""fullscreenenter"",""1"",""2186""
","
",,,,,,,,,,,,"[{""stimulus"":""run_exp/static/images/task_images/rocket-01.jpg"",""time"":0.30000001192092896},{""stimulus"":""run_exp/static/images/task_images/rocket-02.jpg"",""time"":1120.5999999642372},{""stimulus"":""run_exp/static/images/task_images/rocket-03.jpg"",""time"":2224.399999976158},{""stimulus"":""run_exp/static/images/task_images/rocket-04.jpg"",""time"":3338},{""stimulus"":""run_exp/static/images/task_images/rocket-05.jpg"",""time"":4449.099999964237},{""stimulus"":""run_exp/static/images/task_images/rocket-06.jpg"",""time"":5562.099999964237},{""stimulus"":""run_exp/static/images/task_images/rocket-07.jpg"",""time"":6677.5},{""stimulus"":""run_exp/static/images/task_images/rocket-08.jpg"",""time"":7786.699999988079},{""stimulus"":""run_exp/static/images/task_images/rocket-09.jpg"",""time"":8899.899999976158}]",[],0,,,,,,,,,,,,,,
instruc_alien_greet,15,137335,0.0-7.0-6.0,"""event"",""trial"",""time""
""fullscreenenter"",""1"",""2186""
","
","
","""event"",""trial"",""time""
""fullscreenenter"",""1"",""2186""
","
",,null,run_exp/static/audio/clip_6_alien.m4a,null,"<p>When you arrive at a new planet, the alien who owns the treasure mine on that planet will greet you!</p><p>The better an alien takes care of their mine the easier it is to dig for gems. Some aliens take better care of their mine than others. So, you won’t get exactly the same amount of gems on each planet.</p><p>What the alien looks like does not tell you anything about how many gems there are on the planet.</p><br><p><img src=""run_exp/static/images/task_images/aliens/instructions_aliens/planet/alien_planet-1.jpg""  height=""600"" width=""auto""></p>",,,,,,,,,,,,,,,,,,,,,,,
instruc_alien_greet,16,138466,0.0-7.0-7.0,"""event"",""trial"",""time""
""fullscreenenter"",""1"",""2186""
","
","
","""event"",""trial"",""time""
""fullscreenenter"",""1"",""2186""
","
",,1128.5,"<p>When you arrive at a new planet, the alien who owns the treasure mine on that planet will greet you!</p><p>The better an alien takes care of their mine the easier it is to dig for gems. Some aliens take better care of their mine than others. So, you won’t get exactly the same amount of gems on each planet.</p><p>What the alien looks like does not tell you anything about how many gems there are on the planet.</p><br><p><img src=""run_exp/static/images/task_images/aliens/instructions_aliens/planet/alien_planet-1.jpg""  height=""600"" width=""auto""></p>",,,,,,,1,,,,,,,,,,,,,,,,,,
html-keyboard-response,17,138706,0.0-7.0-8.0,"""event"",""trial"",""time""
""fullscreenenter"",""1"",""2186""
","
","
","""event"",""trial"",""time""
""fullscreenenter"",""1"",""2186""
","
",,238.1,"<p>When you arrive at a new planet, the alien who owns the treasure mine on that planet will greet you!</p><p>The better an alien takes care of their mine the easier it is to dig for gems. Some aliens take better care of their mine than others. So, you won’t get exactly the same amount of gems on each planet.</p><p>What the alien looks like does not tell you anything about how many gems there are on the planet.</p><br><p><img src=""run_exp/static/images/task_images/aliens/instructions_aliens/planet/alien_planet-1.jpg""  height=""600"" width=""auto""></p><button class=""jspsych-html-btn-unchosen""><img src=""run_exp/static/images/task_images/planet-01.jpg"" height=""50""></button><button class=""jspsych-html-btn-chosen""><img src=""run_exp/static/images/task_images/planet-02.jpg"" height=""50""></button><p><b>[press the space bar to lock in your answer]<b><br></p>",32,,,,,,,,,,,,,,,,,,,,,,,,
time_out,18,149828,0.0-8.0-0.0,"""event"",""trial"",""time""
""fullscreenenter"",""1"",""2186""
","
","
","""event"",""trial"",""time""
""fullscreenenter"",""1"",""2186""
","
",,null,run_exp/static/audio/clip_7_timeout.m4a,null,"<p>If you don't make your choice fast enough, you’ll have to wait a few seconds before you can make another one.</p><p>You can’t dig for more gems or travel to new planets. You just have to sit and wait.</p><br><p><img src='run_exp/static/images/task_images/time_out.jpg'  height='600' width='auto'></p>",,,,,,,,,,,,,,,,,,,,,,,
time_out,19,151385,0.0-8.0-1.0,"""event"",""trial"",""time""
""fullscreenenter"",""1"",""2186""
","
","
","""event"",""trial"",""time""
""fullscreenenter"",""1"",""2186""
","
",,1553.7,"<p>If you don't make your choice fast enough, you’ll have to wait a few seconds before you can make another one.</p><p>You can’t dig for more gems or travel to new planets. You just have to sit and wait.</p><br><p><img src='run_exp/static/images/task_images/time_out.jpg'  height='600' width='auto'></p>",,,,,,,1,,,,,,,,,,,,,,,,,,
html-keyboard-response,20,151895,0.0-8.0-2.0,"""event"",""trial"",""time""
""fullscreenenter"",""1"",""2186""
","
","
","""event"",""trial"",""time""
""fullscreenenter"",""1"",""2186""
","
",,509.2,"<p>If you don't make your choice fast enough, you’ll have to wait a few seconds before you can make another one.</p><p>You can’t dig for more gems or travel to new planets. You just have to sit and wait.</p><br><p><img src='run_exp/static/images/task_images/time_out.jpg'  height='600' width='auto'></p><button class=""jspsych-html-btn-unchosen""><img src=""run_exp/static/images/task_images/planet-01.jpg"" height=""50""></button><button class=""jspsych-html-btn-chosen""><img src=""run_exp/static/images/task_images/planet-02.jpg"" height=""50""></button><p><b>[press the space bar to lock in your answer]<b><br></p>",32,,,,,,,,,,,,,,,,,,,,,,,,
instruc_break,21,167591,0.0-9.0-0.0,"""event"",""trial"",""time""
""fullscreenenter"",""1"",""2186""
","
","
","""event"",""trial"",""time""
""fullscreenenter"",""1"",""2186""
","
",,null,run_exp/static/audio/clip_8_break.m4a,null,"<p> After digging and traveling for a while, you’ll be able to take a break at home base. </p><p>The game will last 20 minutes no matter what.</p><p>You will visit home base every 5 minutes, so, you will visit home base three times during the game.</p><br><p><img src='run_exp/static/images/task_images/home_base.jpg' height='600' width='auto'></p>",,,,,,,,,,,,,,,,,,,,,,,
instruc_break,22,168622,0.0-9.0-1.0,"""event"",""trial"",""time""
""fullscreenenter"",""1"",""2186""
","
","
","""event"",""trial"",""time""
""fullscreenenter"",""1"",""2186""
","
",,1027,"<p> After digging and traveling for a while, you’ll be able to take a break at home base. </p><p>The game will last 20 minutes no matter what.</p><p>You will visit home base every 5 minutes, so, you will visit home base three times during the game.</p><br><p><img src='run_exp/static/images/task_images/home_base.jpg' height='600' width='auto'></p>",,,,,,,1,,,,,,,,,,,,,,,,,,
html-keyboard-response,23,169730,0.0-9.0-2.0,"""event"",""trial"",""time""
""fullscreenenter"",""1"",""2186""
","
","
","""event"",""trial"",""time""
""fullscreenenter"",""1"",""2186""
","
",,1106,"<p> After digging and traveling for a while, you’ll be able to take a break at home base. </p><p>The game will last 20 minutes no matter what.</p><p>You will visit home base every 5 minutes, so, you will visit home base three times during the game.</p><br><p><img src='run_exp/static/images/task_images/home_base.jpg' height='600' width='auto'></p><button class=""jspsych-html-btn-unchosen""><img src=""run_exp/static/images/task_images/planet-01.jpg"" height=""50""></button><button class=""jspsych-html-btn-chosen""><img src=""run_exp/static/images/task_images/planet-02.jpg"" height=""50""></button><p><b>[press the space bar to lock in your answer]<b><br></p>",32,,,,,,,,,,,,,,,,,,,,,,,,
instruc_prac_game,24,179874,0.0-10.0-0.0,"""event"",""trial"",""time""
""fullscreenenter"",""1"",""2186""
","
","
","""event"",""trial"",""time""
""fullscreenenter"",""1"",""2186""
","
",,null,run_exp/static/audio/clip_9_practice.m4a,null,"<p> Are you ready to play a practice game? </p> <p>In this practice game, you'll be digging up barrels of gems. But, in the real game, you'll be digging up the gems themselves. </p>",,,,,,,,,,,,,,,,,,,,,,,
html-button-response,25,182768,0.0-10.0-1.0,"""event"",""trial"",""time""
""fullscreenenter"",""1"",""2186""
","
","
","""event"",""trial"",""time""
""fullscreenenter"",""1"",""2186""
","
",,2891.9,"<p> Are you ready to play a practice game? </p> <p>In this practice game, you'll be digging up barrels of gems. But, in the real game, you'll be digging up the gems themselves. </p>",,,,,,,0,,,,,,,,,,,,,,,,,,
alien_welcome_prac,26,187774,0.0-11.0-0.0,"""event"",""trial"",""time""
""fullscreenenter"",""1"",""2186""
","
","
","""event"",""trial"",""time""
""fullscreenenter"",""1"",""2186""
","
",,null,run_exp/static/images/task_images/aliens/practice_aliens/planet/alien_planet-5.jpg,null,,,,,,,,,,,,,,,,,,,,,,,,
land_prac,27,188281,0.0-11.0-1.0,"""event"",""trial"",""time""
""fullscreenenter"",""1"",""2186""
","
","
","""event"",""trial"",""time""
""fullscreenenter"",""1"",""2186""
","
",,null,run_exp/static/images/task_images/land.jpg,null,,,,,,,107,,,0,,,,,,,,,,,,,,
dig_prac,28,190286,0.0-11.0-2.0,"""event"",""trial"",""time""
""fullscreenenter"",""1"",""2186""
","
","
","""event"",""trial"",""time""
""fullscreenenter"",""1"",""2186""
","
",,,,,,,,,,,,"[{""stimulus"":""run_exp/static/images/task_images/dig.jpg"",""time"":0.699999988079071},{""stimulus"":""run_exp/static/images/task_images/land.jpg"",""time"":670.5},{""stimulus"":""run_exp/static/images/task_images/dig.jpg"",""time"":1341.699999988079}]",[],,,,,,,,,,,,,,,
harvest_prac,29,191288,0.0-11.0-3.0,"""event"",""trial"",""time""
""fullscreenenter"",""1"",""2186""
","
","
","""event"",""trial"",""time""
""fullscreenenter"",""1"",""2186""
","
",,null,run_exp/static/images/task_images/barrel_text.jpg,null,,,,,,,,,,,,,,,,,,,,,,,,
decision_prac,30,194296,0.0-11.0-4.0,"""event"",""trial"",""time""
""fullscreenenter"",""1"",""2186""
","
","
","""event"",""trial"",""time""
""fullscreenenter"",""1"",""2186""
","
",,null,run_exp/static/images/task_images/land.jpg,null,,,,,,,,,,,1,,,,,,,,,,,,,
time_out,31,196308,0.0-12.0-0.0,"""event"",""trial"",""time""
""fullscreenenter"",""1"",""2186""
","
","
","""event"",""trial"",""time""
""fullscreenenter"",""1"",""2186""
","
",,null,run_exp/static/images/task_images/time_out.jpg,null,,,,,,,,,,,,,,,,,,,,,,,,
decision_prac,32,197463,0.0-12.0-1.0,"""event"",""trial"",""time""
""fullscreenenter"",""1"",""2186""
","
","
","""event"",""trial"",""time""
""fullscreenenter"",""1"",""2186""
","
",,1152.8,run_exp/static/images/task_images/land.jpg,65,,,,,,,,,,,2,,,,,,,,,,,,,
dig_prac,33,199475,0.0-13.0-0.0,"""event"",""trial"",""time""
""fullscreenenter"",""1"",""2186""
","
","
","""event"",""trial"",""time""
""fullscreenenter"",""1"",""2186""
","
",,,,,,,,,,,,"[{""stimulus"":""run_exp/static/images/task_images/dig.jpg"",""time"":0.19999998807907104},{""stimulus"":""run_exp/static/images/task_images/land.jpg"",""time"":674.5999999642372},{""stimulus"":""run_exp/static/images/task_images/dig.jpg"",""time"":1341.699999988079}]",[],,,,,,,,,,,,,,,
harvest_prac,34,200486,0.0-13.0-1.0,"""event"",""trial"",""time""
""fullscreenenter"",""1"",""2186""
","
","
","""event"",""trial"",""time""
""fullscreenenter"",""1"",""2186""
","
",,null,run_exp/static/images/task_images/barrel_text.jpg,null,,,,,,,,,,,,,,,,,,,,,,,,
decision_prac,35,201522,0.0-13.0-2.0,"""event"",""trial"",""time""
""fullscreenenter"",""1"",""2186""
","
","
","""event"",""trial"",""time""
""fullscreenenter"",""1"",""2186""
","
",,1034.7,run_exp/static/images/task_images/land.jpg,65,,,,,,,,,,,3,,,,,,,,,,,,,
dig_prac,36,203530,0.0-14.0-0.0,"""event"",""trial"",""time""
""fullscreenenter"",""1"",""2186""
","
","
","""event"",""trial"",""time""
""fullscreenenter"",""1"",""2186""
","
",,,,,,,,,,,,"[{""stimulus"":""run_exp/static/images/task_images/dig.jpg"",""time"":0.30000001192092896},{""stimulus"":""run_exp/static/images/task_images/land.jpg"",""time"":677.5},{""stimulus"":""run_exp/static/images/task_images/dig.jpg"",""time"":1340.800000011921}]",[],,,,,,,,,,,,,,,
harvest_prac,37,204542,0.0-14.0-1.0,"""event"",""trial"",""time""
""fullscreenenter"",""1"",""2186""
","
","
","""event"",""trial"",""time""
""fullscreenenter"",""1"",""2186""
","
",,null,run_exp/static/images/task_images/barrel_text.jpg,null,,,,,,,,,,,,,,,,,,,,,,,,
decision_prac,38,207290,0.0-14.0-2.0,"""event"",""trial"",""time""
""fullscreenenter"",""1"",""2186""
","
","
","""event"",""trial"",""time""
""fullscreenenter"",""1"",""2186""
","
",,2746.8,run_exp/static/images/task_images/land.jpg,65,,,,,,,,,,,4,,,,,,,,,,,,,
dig_prac,39,209301,0.0-15.0-0.0,"""event"",""trial"",""time""
""fullscreenenter"",""1"",""2186""
","
","
","""event"",""trial"",""time""
""fullscreenenter"",""1"",""2186""
","
",,,,,,,,,,,,"[{""stimulus"":""run_exp/static/images/task_images/dig.jpg"",""time"":0.19999998807907104},{""stimulus"":""run_exp/static/images/task_images/land.jpg"",""time"":670.9000000357628},{""stimulus"":""run_exp/static/images/task_images/dig.jpg"",""time"":1340.4000000357628}]",[],,,,,,,,,,,,,,,
harvest_prac,40,210308,0.0-15.0-1.0,"""event"",""trial"",""time""
""fullscreenenter"",""1"",""2186""
","
","
","""event"",""trial"",""time""
""fullscreenenter"",""1"",""2186""
","
",,null,run_exp/static/images/task_images/barrel_text.jpg,null,,,,,,,,,,,,,,,,,,,,,,,,
decision_prac,41,211116,0.0-15.0-2.0,"""event"",""trial"",""time""
""fullscreenenter"",""1"",""2186""
","
","
","""event"",""trial"",""time""
""fullscreenenter"",""1"",""2186""
","
",,806.6,run_exp/static/images/task_images/land.jpg,65,,,,,,,,,,,,1,,,,,,,,,,,,
quiz_instruc,42,213295,0.0-16.0-0.0,"""event"",""trial"",""time""
""fullscreenenter"",""1"",""2186""
","
","
","""event"",""trial"",""time""
""fullscreenenter"",""1"",""2186""
","
",,2174.2,run_exp/static/audio/clip_10_quiz.m4a,,,,,,,0,,,,,,,,,,,,,,,,,,
instruc_repeat,43,256061,0.0-16.0-1.0,"""event"",""trial"",""time""
""fullscreenenter"",""1"",""2186""
","
","
","""event"",""trial"",""time""
""fullscreenenter"",""1"",""2186""
","
",,null,"<p> Are you ready to play a practice game? </p> <p>In this practice game, you'll be digging up barrels of gems. But, in the real game, you'll be digging up the gems themselves. </p>",null,"<p>In this game, your goal is to collect as many gems as you can. That’s how you will win bonus money. </p> <p>The entire game will last 20 minutes no matter how many gems you collect or how many planets you visit. </p><p>To stay on a planet and dig again, press the letter A on your keyboard. To leave for a new planet, press the letter L.</p><p>The more you dig on a planet, the fewer gems you’ll get with each dig which is why you might consider leaving for a new planet. </p><p>When you arrive at a new planet, you’ll be greeted by an alien. What the alien looks like does not tell you anything about how much treasure is on the planet. </p>",,,,,,,,,,,,,,,,,,,,,,,
instruc_repeat_continue,44,257257,0.0-16.0-2.0,"""event"",""trial"",""time""
""fullscreenenter"",""1"",""2186""
","
","
","""event"",""trial"",""time""
""fullscreenenter"",""1"",""2186""
","
",,1192.3,"<p> Are you ready to play a practice game? </p> <p>In this practice game, you'll be digging up barrels of gems. But, in the real game, you'll be digging up the gems themselves. </p>",,,,,,,0,,,,,,,,,,,,,,,,,,
quiz_q_1_ask,45,262565,0.0-16.0-3.0,"""event"",""trial"",""time""
""fullscreenenter"",""1"",""2186""
","
","
","""event"",""trial"",""time""
""fullscreenenter"",""1"",""2186""
","
",,5304.4,run_exp/static/audio/clip_11_q1_ask.m4a,,,,,,,2,,,,,,,,,,,,,,,,,,
quiz_q_1_fb_correct,46,266464,0.0-17.0-0.0,"""event"",""trial"",""time""
""fullscreenenter"",""1"",""2186""
","
","
","""event"",""trial"",""time""
""fullscreenenter"",""1"",""2186""
","
",,null,run_exp/static/audio/clip_12_q1_correct.m4a,null,<p>That’s correct. You win extra money by collecting more gems.</p>,,,,,,,,,,,,,,,,,,,,,,,
quiz_q_2_ask,47,269091,0.0-17.0-1.0,"""event"",""trial"",""time""
""fullscreenenter"",""1"",""2186""
","
","
","""event"",""trial"",""time""
""fullscreenenter"",""1"",""2186""
","
",,2622.5,run_exp/static/audio/clip_14_q2_ask.m4a,,,,,,,1,,,,,,,,,,,,,,,,,,
quiz_q_2_fb_correct,48,273105,0.0-18.0-0.0,"""event"",""trial"",""time""
""fullscreenenter"",""1"",""2186""
","
","
","""event"",""trial"",""time""
""fullscreenenter"",""1"",""2186""
","
",,null,run_exp/static/audio/clip_15_q2_correct.m4a,null,<p>That’s correct. The experiment is 20 minutes no matter what.</p>,,,,,,,,,,,,,,,,,,,,,,,
quiz_q_3_ask,49,275795,0.0-18.0-1.0,"""event"",""trial"",""time""
""fullscreenenter"",""1"",""2186""
","
","
","""event"",""trial"",""time""
""fullscreenenter"",""1"",""2186""
","
",,2688.1,run_exp/static/audio/clip_17_q3_ask.m4a,,,,,,,1,,,,,,,,,,,,,,,,,,
quiz_q_3_fb_correct,50,279793,0.0-19.0-0.0,"""event"",""trial"",""time""
""fullscreenenter"",""1"",""2186""
","
","
","""event"",""trial"",""time""
""fullscreenenter"",""1"",""2186""
","
",,null,run_exp/static/audio/clip_18_q3_correct.m4a,null,<p> That’s correct. You press the letter L to travel to a new planet.</p>,,,,,,,,,,,,,,,,,,,,,,,
quiz_q_4_ask,51,282970,0.0-19.0-1.0,"""event"",""trial"",""time""
""fullscreenenter"",""1"",""2186""
","
","
","""event"",""trial"",""time""
""fullscreenenter"",""1"",""2186""
","
",,3175.1,run_exp/static/audio/clip_20_q4_ask.m4a,,,,,,,0,,,,,,,,,,,,,,,,,,
quiz_q_4_fb_correct,52,288291,0.0-20.0-0.0,"""event"",""trial"",""time""
""fullscreenenter"",""1"",""2186""
","
","
","""event"",""trial"",""time""
""fullscreenenter"",""1"",""2186""
","
",,null,run_exp/static/audio/clip_21_q4_correct.m4a,null,<p> That’s correct. The more you dig on a planet the fewer gems you’ll get with each dig. </p>,,,,,,,,,,,,,,,,,,,,,,,
quiz_q_5_ask,53,290781,0.0-20.0-1.0,"""event"",""trial"",""time""
""fullscreenenter"",""1"",""2186""
","
","
","""event"",""trial"",""time""
""fullscreenenter"",""1"",""2186""
","
",,2486.3,run_exp/static/audio/clip_23_q5_ask.m4a,,,,,,,1,,,,,,,,,,,,,,,,,,
quiz_q_5_fb_correct,54,295791,0.0-21.0-0.0,"""event"",""trial"",""time""
""fullscreenenter"",""1"",""2186""
","
","
","""event"",""trial"",""time""
""fullscreenenter"",""1"",""2186""
","
",,null,run_exp/static/audio/clip_24_q5_correct.m4a,null,<p> That’s correct. The alien tells you nothing about how much treasure is on the planet.</p>,,,,,,,,,,,,,,,,,,,,,,,
quiz_correct,55,299251,0.0-22.0-0.0,"""event"",""trial"",""time""
""fullscreenenter"",""1"",""2186""
","
","
","""event"",""trial"",""time""
""fullscreenenter"",""1"",""2186""
","
",,null,run_exp/static/audio/clip_26_correct_quiz.m4a,null,,,,,,,,,,,,,,,,,,,,,,,,
quiz_correct_continue,56,300158,0.0-22.0-1.0,"""event"",""trial"",""time""
""fullscreenenter"",""1"",""2186""
","
","
","""event"",""trial"",""time""
""fullscreenenter"",""1"",""2186""
","
",,904.9,<p>Good job! You're now ready to move on to the real game!</p>,,,,,,,0,,,,,,,,,,,,,,,,,,
audio-keyboard-response,57,310305,0.0-22.0-2.0,"""event"",""trial"",""time""
""fullscreenenter"",""1"",""2186""
","
","
","""event"",""trial"",""time""
""fullscreenenter"",""1"",""2186""
","
",,null,run_exp/static/audio/clip_28_real_game.m4a,null,,,,,,,,,,,,,,,,,,,,,,,,
instruc_begin_exp_contine,58,311297,0.0-22.0-3.0,"""event"",""trial"",""time""
""fullscreenenter"",""1"",""2186""
","
","
","""event"",""trial"",""time""
""fullscreenenter"",""1"",""2186""
","
",,989.9,"<p>Now that you know how  to dig for space treasure and travel to new planets,you can start exploring! </p><p>Do you want to go over the instructions again or get started with the real game?</p>",,,,,,,1,,,,,,1,,,,,,,,,,,,
alien_welcome,59,316309,0.0-23.0-0.0,"""event"",""trial"",""time""
""fullscreenenter"",""1"",""2186""
","
","
","""event"",""trial"",""time""
""fullscreenenter"",""1"",""2186""
","
",,null,run_exp/static/images/task_images/aliens/old_aliens/planet/alien_planet-63.jpg,null,,,,,,,,,,,,,63,"63,60,80,36,48,17,66,39,52,40,70,31,7,30,61,38,19,26,51,8,42,49,65,20,15,9,68,54,24,77,10,4,3,13,1,18,59,11,73,29,22,47,27",,,,,,,,,,
land,60,316821,0.0-23.0-1.0,"""event"",""trial"",""time""
""fullscreenenter"",""1"",""2186""
","
","
","""event"",""trial"",""time""
""fullscreenenter"",""1"",""2186""
","
",,null,run_exp/static/images/task_images/land.jpg,null,,,,,,,103,,,1,,,,,,,,,,,,,,
dig,61,318828,0.0-23.0-2.0,"""event"",""trial"",""time""
""fullscreenenter"",""1"",""2186""
","
","
","""event"",""trial"",""time""
""fullscreenenter"",""1"",""2186""
","
",,,,,,,,,,,,"[{""stimulus"":""run_exp/static/images/task_images/dig.jpg"",""time"":0.40000003576278687},{""stimulus"":""run_exp/static/images/task_images/land.jpg"",""time"":669.8000000119209},{""stimulus"":""run_exp/static/images/task_images/dig.jpg"",""time"":1342.9000000357628}]",[],1,,,,,,,,,,,,,,
harvest,62,319837,0.0-23.0-3.0,"""event"",""trial"",""time""
""fullscreenenter"",""1"",""2186""
","
","
","""event"",""trial"",""time""
""fullscreenenter"",""1"",""2186""
","
",,null,run_exp/static/images/task_images/gems/103.jpg,null,,,,,,,11,,,1,,,,,103,0.104402261,0.106796117,,,,,,,
decision,63,321060,0.0-23.0-4.0,"""event"",""trial"",""time""
""fullscreenenter"",""1"",""2186""
","
","
","""event"",""trial"",""time""
""fullscreenenter"",""1"",""2186""
","
",,1221.2,run_exp/static/images/task_images/land.jpg,65,,,,,,,11,,,1,,,,,,,,9761,1,0,FALSE,,,
dig,64,322845,0.0-24.0-0.0,"""event"",""trial"",""time""
""fullscreenenter"",""1"",""2186""
","
","
","""event"",""trial"",""time""
""fullscreenenter"",""1"",""2186""
","
",,,,,,,,,,,,"[{""stimulus"":""run_exp/static/images/task_images/dig.jpg"",""time"":0.19999998807907104},{""stimulus"":""run_exp/static/images/task_images/land.jpg"",""time"":598.3000000119209},{""stimulus"":""run_exp/static/images/task_images/dig.jpg"",""time"":1188.8999999761581}]",[],1,,,,,,,,,,,,,,
harvest,65,323852,0.0-24.0-1.0,"""event"",""trial"",""time""
""fullscreenenter"",""1"",""2186""
","
","
","""event"",""trial"",""time""
""fullscreenenter"",""1"",""2186""
","
",,null,run_exp/static/images/task_images/gems/11.jpg,null,,,,,,,3,,,1,,,,,11,0.232438484,0.272727273,,,,,,,
decision,66,325772,0.0-24.0-2.0,"""event"",""trial"",""time""
""fullscreenenter"",""1"",""2186""
","
","
","""event"",""trial"",""time""
""fullscreenenter"",""1"",""2186""
","
",,1918.6,run_exp/static/images/task_images/land.jpg,65,,,,,,,3,,,1,,,,,,,,14473,1,1,FALSE,,,
dig,67,326862,0.0-25.0-0.0,"""event"",""trial"",""time""
""fullscreenenter"",""1"",""2186""
","
","
","""event"",""trial"",""time""
""fullscreenenter"",""1"",""2186""
","
",,,,,,,,,,,,"[{""stimulus"":""run_exp/static/images/task_images/dig.jpg"",""time"":0.10000002384185791},{""stimulus"":""run_exp/static/images/task_images/land.jpg"",""time"":365.30000001192093},{""stimulus"":""run_exp/static/images/task_images/dig.jpg"",""time"":728.7000000476837}]",[],1,,,,,,,,,,,,,,
harvest,68,327869,0.0-25.0-1.0,"""event"",""trial"",""time""
""fullscreenenter"",""1"",""2186""
","
","
","""event"",""trial"",""time""
""fullscreenenter"",""1"",""2186""
","
",,null,run_exp/static/images/task_images/gems/3.jpg,null,,,,,,,0,,,1,,,,,3,0.117232595,0,,,,,,,
decision,69,329194,0.0-25.0-2.0,"""event"",""trial"",""time""
""fullscreenenter"",""1"",""2186""
","
","
","""event"",""trial"",""time""
""fullscreenenter"",""1"",""2186""
","
",,1323.5,run_exp/static/images/task_images/land.jpg,76,,,,,,,0,,,1,,,,,,,,17895,1,2,TRUE,,,
travel,70,337878,0.0-26.0-0.0,"""event"",""trial"",""time""
""fullscreenenter"",""1"",""2186""
","
","
","""event"",""trial"",""time""
""fullscreenenter"",""1"",""2186""
","
",,,,,,,,,,,,"[{""stimulus"":""run_exp/static/images/task_images/rocket-01.jpg"",""time"":0.20000004768371582},{""stimulus"":""run_exp/static/images/task_images/rocket-02.jpg"",""time"":968.3000000119209},{""stimulus"":""run_exp/static/images/task_images/rocket-03.jpg"",""time"":1937},{""stimulus"":""run_exp/static/images/task_images/rocket-04.jpg"",""time"":2898.400000035763},{""stimulus"":""run_exp/static/images/task_images/rocket-05.jpg"",""time"":3865.400000035763},{""stimulus"":""run_exp/static/images/task_images/rocket-06.jpg"",""time"":4828.700000047684},{""stimulus"":""run_exp/static/images/task_images/rocket-07.jpg"",""time"":5788.200000047684},{""stimulus"":""run_exp/static/images/task_images/rocket-08.jpg"",""time"":6756.5},{""stimulus"":""run_exp/static/images/task_images/rocket-09.jpg"",""time"":7715.5}]",[],1,,,,,,,,,,,,,,
alien_welcome,71,342890,0.0-26.0-1.0,"""event"",""trial"",""time""
""fullscreenenter"",""1"",""2186""
","
","
","""event"",""trial"",""time""
""fullscreenenter"",""1"",""2186""
","
",,null,run_exp/static/images/task_images/aliens/old_aliens/planet/alien_planet-60.jpg,null,,,,,,,,,,,,,60,"63,60,80,36,48,17,66,39,52,40,70,31,7,30,61,38,19,26,51,8,42,49,65,20,15,9,68,54,24,77,10,4,3,13,1,18,59,11,73,29,22,47,27",,,,,,,,,,
land,72,343399,0.0-26.0-2.0,"""event"",""trial"",""time""
""fullscreenenter"",""1"",""2186""
","
","
","""event"",""trial"",""time""
""fullscreenenter"",""1"",""2186""
","
",,null,run_exp/static/images/task_images/land.jpg,null,,,,,,,107,,,2,,,,,,,,,,,,,,
dig,73,345406,0.0-26.0-3.0,"""event"",""trial"",""time""
""fullscreenenter"",""1"",""2186""
","
","
","""event"",""trial"",""time""
""fullscreenenter"",""1"",""2186""
","
",,,,,,,,,,,,"[{""stimulus"":""run_exp/static/images/task_images/dig.jpg"",""time"":0.30000001192092896},{""stimulus"":""run_exp/static/images/task_images/land.jpg"",""time"":674.3999999761581},{""stimulus"":""run_exp/static/images/task_images/dig.jpg"",""time"":1338.3999999761581}]",[],2,,,,,,,,,,,,,,
harvest,74,346413,0.0-26.0-4.0,"""event"",""trial"",""time""
""fullscreenenter"",""1"",""2186""
","
","
","""event"",""trial"",""time""
""fullscreenenter"",""1"",""2186""
","
",,null,run_exp/static/images/task_images/gems/107.jpg,null,,,,,,,17,,,2,,,,,107,0.15895364,0.158878505,,,,,,,
decision,75,347254,0.0-26.0-5.0,"""event"",""trial"",""time""
""fullscreenenter"",""1"",""2186""
","
","
","""event"",""trial"",""time""
""fullscreenenter"",""1"",""2186""
","
",,839.3,run_exp/static/images/task_images/land.jpg,65,,,,,,,17,,,2,,,,,,,,35955,1,0,FALSE,,,
dig,76,349421,0.0-27.0-0.0,"""event"",""trial"",""time""
""fullscreenenter"",""1"",""2186""
","
","
","""event"",""trial"",""time""
""fullscreenenter"",""1"",""2186""
","
",,,,,,,,,,,,"[{""stimulus"":""run_exp/static/images/task_images/dig.jpg"",""time"":0.19999998807907104},{""stimulus"":""run_exp/static/images/task_images/land.jpg"",""time"":729.5},{""stimulus"":""run_exp/static/images/task_images/dig.jpg"",""time"":1447.699999988079}]",[],2,,,,,,,,,,,,,,
harvest,77,350429,0.0-27.0-1.0,"""event"",""trial"",""time""
""fullscreenenter"",""1"",""2186""
","
","
","""event"",""trial"",""time""
""fullscreenenter"",""1"",""2186""
","
",,null,run_exp/static/images/task_images/gems/17.jpg,null,,,,,,,4,,,2,,,,,17,0.252010945,0.235294118,,,,,,,
decision,78,350554,0.0-27.0-2.0,"""event"",""trial"",""time""
""fullscreenenter"",""1"",""2186""
","
","
","""event"",""trial"",""time""
""fullscreenenter"",""1"",""2186""
","
",,123.6,run_exp/static/images/task_images/land.jpg,65,,,,,,,4,,,2,,,,,,,,39255,1,1,FALSE,,,
dig,79,353442,0.0-28.0-0.0,"""event"",""trial"",""time""
""fullscreenenter"",""1"",""2186""
","
","
","""event"",""trial"",""time""
""fullscreenenter"",""1"",""2186""
","
",,,,,,,,,,,,"[{""stimulus"":""run_exp/static/images/task_images/dig.jpg"",""time"":0.30000001192092896},{""stimulus"":""run_exp/static/images/task_images/land.jpg"",""time"":962.8999999761581},{""stimulus"":""run_exp/static/images/task_images/dig.jpg"",""time"":1922}]",[],2,,,,,,,,,,,,,,
harvest,80,354446,0.0-28.0-1.0,"""event"",""trial"",""time""
""fullscreenenter"",""1"",""2186""
","
","
","""event"",""trial"",""time""
""fullscreenenter"",""1"",""2186""
","
",,null,run_exp/static/images/task_images/gems/4.jpg,null,,,,,,,1,,,2,,,,,4,0.242314928,0.25,,,,,,,
decision,81,354707,0.0-28.0-2.0,"""event"",""trial"",""time""
""fullscreenenter"",""1"",""2186""
","
","
","""event"",""trial"",""time""
""fullscreenenter"",""1"",""2186""
","
",,259.9,run_exp/static/images/task_images/land.jpg,76,,,,,,,1,,,2,,,,,,,,43408,1,2,TRUE,,,
travel,82,364454,0.0-29.0-0.0,"""event"",""trial"",""time""
""fullscreenenter"",""1"",""2186""
","
","
","""event"",""trial"",""time""
""fullscreenenter"",""1"",""2186""
","
",,,,,,,,,,,,"[{""stimulus"":""run_exp/static/images/task_images/rocket-01.jpg"",""time"":0.19999998807907104},{""stimulus"":""run_exp/static/images/task_images/rocket-02.jpg"",""time"":1087.5},{""stimulus"":""run_exp/static/images/task_images/rocket-03.jpg"",""time"":2167.399999976158},{""stimulus"":""run_exp/static/images/task_images/rocket-04.jpg"",""time"":3259.800000011921},{""stimulus"":""run_exp/static/images/task_images/rocket-05.jpg"",""time"":4335.399999976158},{""stimulus"":""run_exp/static/images/task_images/rocket-06.jpg"",""time"":5419.399999976158},{""stimulus"":""run_exp/static/images/task_images/rocket-07.jpg"",""time"":6495.5},{""stimulus"":""run_exp/static/images/task_images/rocket-08.jpg"",""time"":7579.899999976158},{""stimulus"":""run_exp/static/images/task_images/rocket-09.jpg"",""time"":8668}]",[],2,,,,,,,,,,,,,,
alien_welcome,83,369462,0.0-29.0-1.0,"""event"",""trial"",""time""
""fullscreenenter"",""1"",""2186""
","
","
","""event"",""trial"",""time""
""fullscreenenter"",""1"",""2186""
","
",,null,run_exp/static/images/task_images/aliens/old_aliens/planet/alien_planet-80.jpg,null,,,,,,,,,,,,,80,"63,60,80,36,48,17,66,39,52,40,70,31,7,30,61,38,19,26,51,8,42,49,65,20,15,9,68,54,24,77,10,4,3,13,1,18,59,11,73,29,22,47,27",,,,,,,,,,
land,84,369970,0.0-29.0-2.0,"""event"",""trial"",""time""
""fullscreenenter"",""1"",""2186""
","
","
","""event"",""trial"",""time""
""fullscreenenter"",""1"",""2186""
","
",,null,run_exp/static/images/task_images/land.jpg,null,,,,,,,107,,,3,,,,,,,,,,,,,,
dig,85,371983,0.0-29.0-3.0,"""event"",""trial"",""time""
""fullscreenenter"",""1"",""2186""
","
","
","""event"",""trial"",""time""
""fullscreenenter"",""1"",""2186""
","
",,,,,,,,,,,,"[{""stimulus"":""run_exp/static/images/task_images/dig.jpg"",""time"":0.30000001192092896},{""stimulus"":""run_exp/static/images/task_images/land.jpg"",""time"":669.8999999761581},{""stimulus"":""run_exp/static/images/task_images/dig.jpg"",""time"":1337.8999999761581}]",[],3,,,,,,,,,,,,,,
harvest,86,372987,0.0-29.0-4.0,"""event"",""trial"",""time""
""fullscreenenter"",""1"",""2186""
","
","
","""event"",""trial"",""time""
""fullscreenenter"",""1"",""2186""
","
",,null,run_exp/static/images/task_images/gems/107.jpg,null,,,,,,,57,,,3,,,,,107,0.532702483,0.53271028,,,,,,,
decision,87,373871,0.0-29.0-5.0,"""event"",""trial"",""time""
""fullscreenenter"",""1"",""2186""
","
","
","""event"",""trial"",""time""
""fullscreenenter"",""1"",""2186""
","
",,882.9,run_exp/static/images/task_images/land.jpg,76,,,,,,,57,,,3,,,,,,,,62572,1,0,TRUE,,,
travel,88,383001,0.0-30.0-0.0,"""event"",""trial"",""time""
""fullscreenenter"",""1"",""2186""
","
","
","""event"",""trial"",""time""
""fullscreenenter"",""1"",""2186""
","
",,,,,,,,,,,,"[{""stimulus"":""run_exp/static/images/task_images/rocket-01.jpg"",""time"":0.19999998807907104},{""stimulus"":""run_exp/static/images/task_images/rocket-02.jpg"",""time"":1022.5999999642372},{""stimulus"":""run_exp/static/images/task_images/rocket-03.jpg"",""time"":2027.8999999761581},{""stimulus"":""run_exp/static/images/task_images/rocket-04.jpg"",""time"":3044.399999976158},{""stimulus"":""run_exp/static/images/task_images/rocket-05.jpg"",""time"":4060},{""stimulus"":""run_exp/static/images/task_images/rocket-06.jpg"",""time"":5069.699999988079},{""stimulus"":""run_exp/static/images/task_images/rocket-07.jpg"",""time"":6086.5},{""stimulus"":""run_exp/static/images/task_images/rocket-08.jpg"",""time"":7105},{""stimulus"":""run_exp/static/images/task_images/rocket-09.jpg"",""time"":8111.799999952316}]",[],3,,,,,,,,,,,,,,
alien_welcome,89,388009,0.0-30.0-1.0,"""event"",""trial"",""time""
""fullscreenenter"",""1"",""2186""
","
","
","""event"",""trial"",""time""
""fullscreenenter"",""1"",""2186""
","
",,null,run_exp/static/images/task_images/aliens/old_aliens/planet/alien_planet-36.jpg,null,,,,,,,,,,,,,36,"63,60,80,36,48,17,66,39,52,40,70,31,7,30,61,38,19,26,51,8,42,49,65,20,15,9,68,54,24,77,10,4,3,13,1,18,59,11,73,29,22,47,27",,,,,,,,,,
land,90,388524,0.0-30.0-2.0,"""event"",""trial"",""time""
""fullscreenenter"",""1"",""2186""
","
","
","""event"",""trial"",""time""
""fullscreenenter"",""1"",""2186""
","
",,null,run_exp/static/images/task_images/land.jpg,null,,,,,,,100,,,4,,,,,,,,,,,,,,
dig,91,390538,0.0-30.0-3.0,"""event"",""trial"",""time""
""fullscreenenter"",""1"",""2186""
","
","
","""event"",""trial"",""time""
""fullscreenenter"",""1"",""2186""
","
",,,,,,,,,,,,"[{""stimulus"":""run_exp/static/images/task_images/dig.jpg"",""time"":0.19999998807907104},{""stimulus"":""run_exp/static/images/task_images/land.jpg"",""time"":673.8999999761581},{""stimulus"":""run_exp/static/images/task_images/dig.jpg"",""time"":1339}]",[],4,,,,,,,,,,,,,,
harvest,92,391547,0.0-30.0-4.0,"""event"",""trial"",""time""
""fullscreenenter"",""1"",""2186""
","
","
","""event"",""trial"",""time""
""fullscreenenter"",""1"",""2186""
","
",,null,run_exp/static/images/task_images/gems/100.jpg,null,,,,,,,50,,,4,,,,,100,0.496093385,0.5,,,,,,,
decision,93,392268,0.0-30.0-5.0,"""event"",""trial"",""time""
""fullscreenenter"",""1"",""2186""
","
","
","""event"",""trial"",""time""
""fullscreenenter"",""1"",""2186""
","
",,719.2,run_exp/static/images/task_images/land.jpg,65,,,,,,,50,,,4,,,,,,,,80969,1,0,FALSE,,,
dig,94,394562,0.0-31.0-0.0,"""event"",""trial"",""time""
""fullscreenenter"",""1"",""2186""
","
","
","""event"",""trial"",""time""
""fullscreenenter"",""1"",""2186""
","
",,,,,,,,,,,,"[{""stimulus"":""run_exp/static/images/task_images/dig.jpg"",""time"":0.2999999523162842},{""stimulus"":""run_exp/static/images/task_images/land.jpg"",""time"":768.7999999523163},{""stimulus"":""run_exp/static/images/task_images/dig.jpg"",""time"":1530.2999999523163}]",[],4,,,,,,,,,,,,,,
harvest,95,395567,0.0-31.0-1.0,"""event"",""trial"",""time""
""fullscreenenter"",""1"",""2186""
","
","
","""event"",""trial"",""time""
""fullscreenenter"",""1"",""2186""
","
",,null,run_exp/static/images/task_images/gems/50.jpg,null,,,,,,,22,,,4,,,,,50,0.447584335,0.44,,,,,,,
decision,96,396342,0.0-31.0-2.0,"""event"",""trial"",""time""
""fullscreenenter"",""1"",""2186""
","
","
","""event"",""trial"",""time""
""fullscreenenter"",""1"",""2186""
","
",,773,run_exp/static/images/task_images/land.jpg,65,,,,,,,22,,,4,,,,,,,,85043,1,1,FALSE,,,
dig,97,398579,0.0-32.0-0.0,"""event"",""trial"",""time""
""fullscreenenter"",""1"",""2186""
","
","
","""event"",""trial"",""time""
""fullscreenenter"",""1"",""2186""
","
",,,,,,,,,,,,"[{""stimulus"":""run_exp/static/images/task_images/dig.jpg"",""time"":0.19999998807907104},{""stimulus"":""run_exp/static/images/task_images/land.jpg"",""time"":745},{""stimulus"":""run_exp/static/images/task_images/dig.jpg"",""time"":1486.300000011921}]",[],4,,,,,,,,,,,,,,
harvest,98,399587,0.0-32.0-1.0,"""event"",""trial"",""time""
""fullscreenenter"",""1"",""2186""
","
","
","""event"",""trial"",""time""
""fullscreenenter"",""1"",""2186""
","
",,null,run_exp/static/images/task_images/gems/22.jpg,null,,,,,,,12,,,4,,,,,22,0.561211156,0.545454545,,,,,,,
decision,99,400068,0.0-32.0-2.0,"""event"",""trial"",""time""
""fullscreenenter"",""1"",""2186""
","
","
","""event"",""trial"",""time""
""fullscreenenter"",""1"",""2186""
","
",,479.9,run_exp/static/images/task_images/land.jpg,65,,,,,,,12,,,4,,,,,,,,88769,1,2,FALSE,,,
dig,100,402602,0.0-33.0-0.0,"""event"",""trial"",""time""
""fullscreenenter"",""1"",""2186""
","
","
","""event"",""trial"",""time""
""fullscreenenter"",""1"",""2186""
","
",,,,,,,,,,,,"[{""stimulus"":""run_exp/static/images/task_images/dig.jpg"",""time"":0.19999998807907104},{""stimulus"":""run_exp/static/images/task_images/land.jpg"",""time"":852.1999999880791},{""stimulus"":""run_exp/static/images/task_images/dig.jpg"",""time"":1688}]",[],4,,,,,,,,,,,,,,
harvest,101,403609,0.0-33.0-1.0,"""event"",""trial"",""time""
""fullscreenenter"",""1"",""2186""
","
","
","""event"",""trial"",""time""
""fullscreenenter"",""1"",""2186""
","
",,null,run_exp/static/images/task_images/gems/12.jpg,null,,,,,,,7,,,4,,,,,12,0.565983372,0.583333333,,,,,,,
decision,102,403746,0.0-33.0-2.0,"""event"",""trial"",""time""
""fullscreenenter"",""1"",""2186""
","
","
","""event"",""trial"",""time""
""fullscreenenter"",""1"",""2186""
","
",,135.1,run_exp/static/images/task_images/land.jpg,76,,,,,,,7,,,4,,,,,,,,92447,1,3,TRUE,,,
travel,103,413615,0.0-34.0-0.0,"""event"",""trial"",""time""
""fullscreenenter"",""1"",""2186""
","
","
","""event"",""trial"",""time""
""fullscreenenter"",""1"",""2186""
","
",,,,,,,,,,,,"[{""stimulus"":""run_exp/static/images/task_images/rocket-01.jpg"",""time"":0.20000004768371582},{""stimulus"":""run_exp/static/images/task_images/rocket-02.jpg"",""time"":1098.7000000476837},{""stimulus"":""run_exp/static/images/task_images/rocket-03.jpg"",""time"":2198.7000000476837},{""stimulus"":""run_exp/static/images/task_images/rocket-04.jpg"",""time"":3292.600000023842},{""stimulus"":""run_exp/static/images/task_images/rocket-05.jpg"",""time"":4386.300000011921},{""stimulus"":""run_exp/static/images/task_images/rocket-06.jpg"",""time"":5482.300000011921},{""stimulus"":""run_exp/static/images/task_images/rocket-07.jpg"",""time"":6582.100000023842},{""stimulus"":""run_exp/static/images/task_images/rocket-08.jpg"",""time"":7678.400000035763},{""stimulus"":""run_exp/static/images/task_images/rocket-09.jpg"",""time"":8772.400000035763}]",[],4,,,,,,,,,,,,,,
alien_welcome,104,418628,0.0-34.0-1.0,"""event"",""trial"",""time""
""fullscreenenter"",""1"",""2186""
","
","
","""event"",""trial"",""time""
""fullscreenenter"",""1"",""2186""
","
",,null,run_exp/static/images/task_images/aliens/old_aliens/planet/alien_planet-48.jpg,null,,,,,,,,,,,,,48,"63,60,80,36,48,17,66,39,52,40,70,31,7,30,61,38,19,26,51,8,42,49,65,20,15,9,68,54,24,77,10,4,3,13,1,18,59,11,73,29,22,47,27",,,,,,,,,,
land,105,419139,0.0-34.0-2.0,"""event"",""trial"",""time""
""fullscreenenter"",""1"",""2186""
","
","
","""event"",""trial"",""time""
""fullscreenenter"",""1"",""2186""
","
",,null,run_exp/static/images/task_images/land.jpg,null,,,,,,,92,,,5,,,,,,,,,,,,,,
dig,106,421155,0.0-34.0-3.0,"""event"",""trial"",""time""
""fullscreenenter"",""1"",""2186""
","
","
","""event"",""trial"",""time""
""fullscreenenter"",""1"",""2186""
","
",,,,,,,,,,,,"[{""stimulus"":""run_exp/static/images/task_images/dig.jpg"",""time"":0.30000001192092896},{""stimulus"":""run_exp/static/images/task_images/land.jpg"",""time"":680.1000000238419},{""stimulus"":""run_exp/static/images/task_images/dig.jpg"",""time"":1340.199999988079}]",[],5,,,,,,,,,,,,,,
harvest,107,422164,0.0-34.0-4.0,"""event"",""trial"",""time""
""fullscreenenter"",""1"",""2186""
","
","
","""event"",""trial"",""time""
""fullscreenenter"",""1"",""2186""
","
",,null,run_exp/static/images/task_images/gems/92.jpg,null,,,,,,,52,,,5,,,,,92,0.566427454,0.565217391,,,,,,,
decision,108,422827,0.0-34.0-5.0,"""event"",""trial"",""time""
""fullscreenenter"",""1"",""2186""
","
","
","""event"",""trial"",""time""
""fullscreenenter"",""1"",""2186""
","
",,661.1,run_exp/static/images/task_images/land.jpg,76,,,,,,,52,,,5,,,,,,,,111528,1,0,TRUE,,,
travel,109,432168,0.0-35.0-0.0,"""event"",""trial"",""time""
""fullscreenenter"",""1"",""2186""
","
","
","""event"",""trial"",""time""
""fullscreenenter"",""1"",""2186""
","
",,,,,,,,,,,,"[{""stimulus"":""run_exp/static/images/task_images/rocket-01.jpg"",""time"":0.6000000238418579},{""stimulus"":""run_exp/static/images/task_images/rocket-02.jpg"",""time"":1045.699999988079},{""stimulus"":""run_exp/static/images/task_images/rocket-03.jpg"",""time"":2084.600000023842},{""stimulus"":""run_exp/static/images/task_images/rocket-04.jpg"",""time"":3123.100000023842},{""stimulus"":""run_exp/static/images/task_images/rocket-05.jpg"",""time"":4157.300000011921},{""stimulus"":""run_exp/static/images/task_images/rocket-06.jpg"",""time"":5196.300000011921},{""stimulus"":""run_exp/static/images/task_images/rocket-07.jpg"",""time"":6225.5},{""stimulus"":""run_exp/static/images/task_images/rocket-08.jpg"",""time"":7262.199999988079},{""stimulus"":""run_exp/static/images/task_images/rocket-09.jpg"",""time"":8310.199999988079}]",[],5,,,,,,,,,,,,,,
alien_welcome,110,437181,0.0-35.0-1.0,"""event"",""trial"",""time""
""fullscreenenter"",""1"",""2186""
","
","
","""event"",""trial"",""time""
""fullscreenenter"",""1"",""2186""
","
",,null,run_exp/static/images/task_images/aliens/old_aliens/planet/alien_planet-17.jpg,null,,,,,,,,,,,,,17,"63,60,80,36,48,17,66,39,52,40,70,31,7,30,61,38,19,26,51,8,42,49,65,20,15,9,68,54,24,77,10,4,3,13,1,18,59,11,73,29,22,47,27",,,,,,,,,,
land,111,437692,0.0-35.0-2.0,"""event"",""trial"",""time""
""fullscreenenter"",""1"",""2186""
","
","
","""event"",""trial"",""time""
""fullscreenenter"",""1"",""2186""
","
",,null,run_exp/static/images/task_images/land.jpg,null,,,,,,,103,,,6,,,,,,,,,,,,,,
dig,112,439704,0.0-35.0-3.0,"""event"",""trial"",""time""
""fullscreenenter"",""1"",""2186""
","
","
","""event"",""trial"",""time""
""fullscreenenter"",""1"",""2186""
","
",,,,,,,,,,,,"[{""stimulus"":""run_exp/static/images/task_images/dig.jpg"",""time"":0.2999999523162842},{""stimulus"":""run_exp/static/images/task_images/land.jpg"",""time"":674.5999999642372},{""stimulus"":""run_exp/static/images/task_images/dig.jpg"",""time"":1338.2999999523163}]",[],6,,,,,,,,,,,,,,
harvest,113,440715,0.0-35.0-4.0,"""event"",""trial"",""time""
""fullscreenenter"",""1"",""2186""
","
","
","""event"",""trial"",""time""
""fullscreenenter"",""1"",""2186""
","
",,null,run_exp/static/images/task_images/gems/103.jpg,null,,,,,,,92,,,6,,,,,103,0.891409353,0.893203883,,,,,,,
decision,114,441147,0.0-35.0-5.0,"""event"",""trial"",""time""
""fullscreenenter"",""1"",""2186""
","
","
","""event"",""trial"",""time""
""fullscreenenter"",""1"",""2186""
","
",,430.6,run_exp/static/images/task_images/land.jpg,65,,,,,,,92,,,6,,,,,,,,129849,1,0,FALSE,,,
dig,115,443732,0.0-36.0-0.0,"""event"",""trial"",""time""
""fullscreenenter"",""1"",""2186""
","
","
","""event"",""trial"",""time""
""fullscreenenter"",""1"",""2186""
","
",,,,,,,,,,,,"[{""stimulus"":""run_exp/static/images/task_images/dig.jpg"",""time"":0.19999998807907104},{""stimulus"":""run_exp/static/images/task_images/land.jpg"",""time"":870.8999999761581},{""stimulus"":""run_exp/static/images/task_images/dig.jpg"",""time"":1726.699999988079}]",[],6,,,,,,,,,,,,,,
harvest,116,444741,0.0-36.0-1.0,"""event"",""trial"",""time""
""fullscreenenter"",""1"",""2186""
","
","
","""event"",""trial"",""time""
""fullscreenenter"",""1"",""2186""
","
",,null,run_exp/static/images/task_images/gems/92.jpg,null,,,,,,,70,,,6,,,,,92,0.759649327,0.760869565,,,,,,,
decision,117,445337,0.0-36.0-2.0,"""event"",""trial"",""time""
""fullscreenenter"",""1"",""2186""
","
","
","""event"",""trial"",""time""
""fullscreenenter"",""1"",""2186""
","
",,594.1,run_exp/static/images/task_images/land.jpg,65,,,,,,,70,,,6,,,,,,,,134038,1,1,FALSE,,,
dig,118,447757,0.0-37.0-0.0,"""event"",""trial"",""time""
""fullscreenenter"",""1"",""2186""
","
","
","""event"",""trial"",""time""
""fullscreenenter"",""1"",""2186""
","
",,,,,,,,,,,,"[{""stimulus"":""run_exp/static/images/task_images/dig.jpg"",""time"":0.09999996423721313},{""stimulus"":""run_exp/static/images/task_images/land.jpg"",""time"":809.3999999761581},{""stimulus"":""run_exp/static/images/task_images/dig.jpg"",""time"":1609.199999988079}]",[],6,,,,,,,,,,,,,,
harvest,119,448764,0.0-37.0-1.0,"""event"",""trial"",""time""
""fullscreenenter"",""1"",""2186""
","
","
","""event"",""trial"",""time""
""fullscreenenter"",""1"",""2186""
","
",,null,run_exp/static/images/task_images/gems/70.jpg,null,,,,,,,54,,,6,,,,,70,0.774470715,0.771428571,,,,,,,
decision,120,449226,0.0-37.0-2.0,"""event"",""trial"",""time""
""fullscreenenter"",""1"",""2186""
","
","
","""event"",""trial"",""time""
""fullscreenenter"",""1"",""2186""
","
",,461.1,run_exp/static/images/task_images/land.jpg,65,,,,,,,54,,,6,,,,,,,,137927,1,2,FALSE,,,
dig,121,451779,0.0-38.0-0.0,"""event"",""trial"",""time""
""fullscreenenter"",""1"",""2186""
","
","
","""event"",""trial"",""time""
""fullscreenenter"",""1"",""2186""
","
",,,,,,,,,,,,"[{""stimulus"":""run_exp/static/images/task_images/dig.jpg"",""time"":0.19999998807907104},{""stimulus"":""run_exp/static/images/task_images/land.jpg"",""time"":853.3000000119209},{""stimulus"":""run_exp/static/images/task_images/dig.jpg"",""time"":1699.199999988079}]",[],6,,,,,,,,,,,,,,
harvest,122,452786,0.0-38.0-1.0,"""event"",""trial"",""time""
""fullscreenenter"",""1"",""2186""
","
","
","""event"",""trial"",""time""
""fullscreenenter"",""1"",""2186""
","
",,null,run_exp/static/images/task_images/gems/54.jpg,null,,,,,,,44,,,6,,,,,54,0.812495581,0.814814815,,,,,,,
decision,123,453623,0.0-38.0-2.0,"""event"",""trial"",""time""
""fullscreenenter"",""1"",""2186""
","
","
","""event"",""trial"",""time""
""fullscreenenter"",""1"",""2186""
","
",,836.1,run_exp/static/images/task_images/land.jpg,65,,,,,,,44,,,6,,,,,,,,142324,1,3,FALSE,,,
dig,124,455793,0.0-39.0-0.0,"""event"",""trial"",""time""
""fullscreenenter"",""1"",""2186""
","
","
","""event"",""trial"",""time""
""fullscreenenter"",""1"",""2186""
","
",,,,,,,,,,,,"[{""stimulus"":""run_exp/static/images/task_images/dig.jpg"",""time"":0.20000004768371582},{""stimulus"":""run_exp/static/images/task_images/land.jpg"",""time"":726.4000000357628},{""stimulus"":""run_exp/static/images/task_images/dig.jpg"",""time"":1446.300000011921}]",[],6,,,,,,,,,,,,,,
harvest,125,456803,0.0-39.0-1.0,"""event"",""trial"",""time""
""fullscreenenter"",""1"",""2186""
","
","
","""event"",""trial"",""time""
""fullscreenenter"",""1"",""2186""
","
",,null,run_exp/static/images/task_images/gems/44.jpg,null,,,,,,,34,,,6,,,,,44,0.783758841,0.772727273,,,,,,,
decision,126,457671,0.0-39.0-2.0,"""event"",""trial"",""time""
""fullscreenenter"",""1"",""2186""
","
","
","""event"",""trial"",""time""
""fullscreenenter"",""1"",""2186""
","
",,866.8,run_exp/static/images/task_images/land.jpg,65,,,,,,,34,,,6,,,,,,,,146372,1,4,FALSE,,,
dig,127,459822,0.0-40.0-0.0,"""event"",""trial"",""time""
""fullscreenenter"",""1"",""2186""
","
","
","""event"",""trial"",""time""
""fullscreenenter"",""1"",""2186""
","
",,,,,,,,,,,,"[{""stimulus"":""run_exp/static/images/task_images/dig.jpg"",""time"":0.40000003576278687},{""stimulus"":""run_exp/static/images/task_images/land.jpg"",""time"":719.1000000238419},{""stimulus"":""run_exp/static/images/task_images/dig.jpg"",""time"":1430}]",[],6,,,,,,,,,,,,,,
harvest,128,460826,0.0-40.0-1.0,"""event"",""trial"",""time""
""fullscreenenter"",""1"",""2186""
","
","
","""event"",""trial"",""time""
""fullscreenenter"",""1"",""2186""
","
",,null,run_exp/static/images/task_images/gems/34.jpg,null,,,,,,,27,,,6,,,,,34,0.789955112,0.794117647,,,,,,,
decision,129,461543,0.0-40.0-2.0,"""event"",""trial"",""time""
""fullscreenenter"",""1"",""2186""
","
","
","""event"",""trial"",""time""
""fullscreenenter"",""1"",""2186""
","
",,716,run_exp/static/images/task_images/land.jpg,65,,,,,,,27,,,6,,,,,,,,150244,1,5,FALSE,,,
dig,130,463833,0.0-41.0-0.0,"""event"",""trial"",""time""
""fullscreenenter"",""1"",""2186""
","
","
","""event"",""trial"",""time""
""fullscreenenter"",""1"",""2186""
","
",,,,,,,,,,,,"[{""stimulus"":""run_exp/static/images/task_images/dig.jpg"",""time"":0.09999996423721313},{""stimulus"":""run_exp/static/images/task_images/land.jpg"",""time"":766.3999999761581},{""stimulus"":""run_exp/static/images/task_images/dig.jpg"",""time"":1526.5999999642372}]",[],6,,,,,,,,,,,,,,
harvest,131,464846,0.0-41.0-1.0,"""event"",""trial"",""time""
""fullscreenenter"",""1"",""2186""
","
","
","""event"",""trial"",""time""
""fullscreenenter"",""1"",""2186""
","
",,null,run_exp/static/images/task_images/gems/27.jpg,null,,,,,,,21,,,6,,,,,27,0.784232042,0.777777778,,,,,,,
decision,132,465698,0.0-41.0-2.0,"""event"",""trial"",""time""
""fullscreenenter"",""1"",""2186""
","
","
","""event"",""trial"",""time""
""fullscreenenter"",""1"",""2186""
","
",,850.9,run_exp/static/images/task_images/land.jpg,65,,,,,,,21,,,6,,,,,,,,154399,1,6,FALSE,,,
dig,133,467857,0.0-42.0-0.0,"""event"",""trial"",""time""
""fullscreenenter"",""1"",""2186""
","
","
","""event"",""trial"",""time""
""fullscreenenter"",""1"",""2186""
","
",,,,,,,,,,,,"[{""stimulus"":""run_exp/static/images/task_images/dig.jpg"",""time"":0.2999999523162842},{""stimulus"":""run_exp/static/images/task_images/land.jpg"",""time"":727.5999999642372},{""stimulus"":""run_exp/static/images/task_images/dig.jpg"",""time"":1435.5999999642372}]",[],6,,,,,,,,,,,,,,
harvest,134,468866,0.0-42.0-1.0,"""event"",""trial"",""time""
""fullscreenenter"",""1"",""2186""
","
","
","""event"",""trial"",""time""
""fullscreenenter"",""1"",""2186""
","
",,null,run_exp/static/images/task_images/gems/21.jpg,null,,,,,,,17,,,6,,,,,21,0.812824231,0.80952381,,,,,,,
decision,135,469350,0.0-42.0-2.0,"""event"",""trial"",""time""
""fullscreenenter"",""1"",""2186""
","
","
","""event"",""trial"",""time""
""fullscreenenter"",""1"",""2186""
","
",,482.1,run_exp/static/images/task_images/land.jpg,65,,,,,,,17,,,6,,,,,,,,158051,1,7,FALSE,,,
dig,136,471873,0.0-43.0-0.0,"""event"",""trial"",""time""
""fullscreenenter"",""1"",""2186""
","
","
","""event"",""trial"",""time""
""fullscreenenter"",""1"",""2186""
","
",,,,,,,,,,,,"[{""stimulus"":""run_exp/static/images/task_images/dig.jpg"",""time"":0.19999998807907104},{""stimulus"":""run_exp/static/images/task_images/land.jpg"",""time"":847.3999999761581},{""stimulus"":""run_exp/static/images/task_images/dig.jpg"",""time"":1692}]",[],6,,,,,,,,,,,,,,
harvest,137,472883,0.0-43.0-1.0,"""event"",""trial"",""time""
""fullscreenenter"",""1"",""2186""
","
","
","""event"",""trial"",""time""
""fullscreenenter"",""1"",""2186""
","
",,null,run_exp/static/images/task_images/gems/17.jpg,null,,,,,,,12,,,6,,,,,17,0.704107698,0.705882353,,,,,,,
decision,138,473486,0.0-43.0-2.0,"""event"",""trial"",""time""
""fullscreenenter"",""1"",""2186""
","
","
","""event"",""trial"",""time""
""fullscreenenter"",""1"",""2186""
","
",,602.1,run_exp/static/images/task_images/land.jpg,76,,,,,,,12,,,6,,,,,,,,162187,1,8,TRUE,,,
travel,139,482889,0.0-44.0-0.0,"""event"",""trial"",""time""
""fullscreenenter"",""1"",""2186""
","
","
","""event"",""trial"",""time""
""fullscreenenter"",""1"",""2186""
","
",,,,,,,,,,,,"[{""stimulus"":""run_exp/static/images/task_images/rocket-01.jpg"",""time"":0.30000001192092896},{""stimulus"":""run_exp/static/images/task_images/rocket-02.jpg"",""time"":1047.5},{""stimulus"":""run_exp/static/images/task_images/rocket-03.jpg"",""time"":2095.600000023842},{""stimulus"":""run_exp/static/images/task_images/rocket-04.jpg"",""time"":3139.900000035763},{""stimulus"":""run_exp/static/images/task_images/rocket-05.jpg"",""time"":4183.100000023842},{""stimulus"":""run_exp/static/images/task_images/rocket-06.jpg"",""time"":5226.600000023842},{""stimulus"":""run_exp/static/images/task_images/rocket-07.jpg"",""time"":6271.5},{""stimulus"":""run_exp/static/images/task_images/rocket-08.jpg"",""time"":7313.800000011921},{""stimulus"":""run_exp/static/images/task_images/rocket-09.jpg"",""time"":8359.699999988079}]",[],6,,,,,,,,,,,,,,
alien_welcome,140,487894,0.0-44.0-1.0,"""event"",""trial"",""time""
""fullscreenenter"",""1"",""2186""
","
","
","""event"",""trial"",""time""
""fullscreenenter"",""1"",""2186""
","
",,null,run_exp/static/images/task_images/aliens/old_aliens/planet/alien_planet-66.jpg,null,,,,,,,,,,,,,66,"63,60,80,36,48,17,66,39,52,40,70,31,7,30,61,38,19,26,51,8,42,49,65,20,15,9,68,54,24,77,10,4,3,13,1,18,59,11,73,29,22,47,27",,,,,,,,,,
land,141,488401,0.0-44.0-2.0,"""event"",""trial"",""time""
""fullscreenenter"",""1"",""2186""
","
","
","""event"",""trial"",""time""
""fullscreenenter"",""1"",""2186""
","
",,null,run_exp/static/images/task_images/land.jpg,null,,,,,,,107,,,7,,,,,,,,,,,,,,
dig,142,490410,0.0-44.0-3.0,"""event"",""trial"",""time""
""fullscreenenter"",""1"",""2186""
","
","
","""event"",""trial"",""time""
""fullscreenenter"",""1"",""2186""
","
",,,,,,,,,,,,"[{""stimulus"":""run_exp/static/images/task_images/dig.jpg"",""time"":0.30000001192092896},{""stimulus"":""run_exp/static/images/task_images/land.jpg"",""time"":676.1999999880791},{""stimulus"":""run_exp/static/images/task_images/dig.jpg"",""time"":1336.6000000238419}]",[],7,,,,,,,,,,,,,,
harvest,143,491419,0.0-44.0-4.0,"""event"",""trial"",""time""
""fullscreenenter"",""1"",""2186""
","
","
","""event"",""trial"",""time""
""fullscreenenter"",""1"",""2186""
","
",,null,run_exp/static/images/task_images/gems/107.jpg,null,,,,,,,88,,,7,,,,,107,0.821564387,0.822429907,,,,,,,
decision,144,491976,0.0-44.0-5.0,"""event"",""trial"",""time""
""fullscreenenter"",""1"",""2186""
","
","
","""event"",""trial"",""time""
""fullscreenenter"",""1"",""2186""
","
",,555.7,run_exp/static/images/task_images/land.jpg,65,,,,,,,88,,,7,,,,,,,,180678,1,0,FALSE,,,
dig,145,494430,0.0-45.0-0.0,"""event"",""trial"",""time""
""fullscreenenter"",""1"",""2186""
","
","
","""event"",""trial"",""time""
""fullscreenenter"",""1"",""2186""
","
",,,,,,,,,,,,"[{""stimulus"":""run_exp/static/images/task_images/dig.jpg"",""time"":0.09999996423721313},{""stimulus"":""run_exp/static/images/task_images/land.jpg"",""time"":825.3999999761581},{""stimulus"":""run_exp/static/images/task_images/dig.jpg"",""time"":1634.2999999523163}]",[],7,,,,,,,,,,,,,,
harvest,146,495437,0.0-45.0-1.0,"""event"",""trial"",""time""
""fullscreenenter"",""1"",""2186""
","
","
","""event"",""trial"",""time""
""fullscreenenter"",""1"",""2186""
","
",,null,run_exp/static/images/task_images/gems/88.jpg,null,,,,,,,71,,,7,,,,,88,0.809985954,0.806818182,,,,,,,
decision,147,495674,0.0-45.0-2.0,"""event"",""trial"",""time""
""fullscreenenter"",""1"",""2186""
","
","
","""event"",""trial"",""time""
""fullscreenenter"",""1"",""2186""
","
",,234.7,run_exp/static/images/task_images/land.jpg,65,,,,,,,71,,,7,,,,,,,,184375,1,1,FALSE,,,
dig,148,498450,0.0-46.0-0.0,"""event"",""trial"",""time""
""fullscreenenter"",""1"",""2186""
","
","
","""event"",""trial"",""time""
""fullscreenenter"",""1"",""2186""
","
",,,,,,,,,,,,"[{""stimulus"":""run_exp/static/images/task_images/dig.jpg"",""time"":0.30000001192092896},{""stimulus"":""run_exp/static/images/task_images/land.jpg"",""time"":925},{""stimulus"":""run_exp/static/images/task_images/dig.jpg"",""time"":1855.6000000238419}]",[],7,,,,,,,,,,,,,,
harvest,149,499458,0.0-46.0-1.0,"""event"",""trial"",""time""
""fullscreenenter"",""1"",""2186""
","
","
","""event"",""trial"",""time""
""fullscreenenter"",""1"",""2186""
","
",,null,run_exp/static/images/task_images/gems/71.jpg,null,,,,,,,55,,,7,,,,,71,0.779930839,0.774647887,,,,,,,
decision,150,499573,0.0-46.0-2.0,"""event"",""trial"",""time""
""fullscreenenter"",""1"",""2186""
","
","
","""event"",""trial"",""time""
""fullscreenenter"",""1"",""2186""
","
",,112.8,run_exp/static/images/task_images/land.jpg,65,,,,,,,55,,,7,,,,,,,,188274,1,2,FALSE,,,
dig,151,502467,0.0-47.0-0.0,"""event"",""trial"",""time""
""fullscreenenter"",""1"",""2186""
","
","
","""event"",""trial"",""time""
""fullscreenenter"",""1"",""2186""
","
",,,,,,,,,,,,"[{""stimulus"":""run_exp/static/images/task_images/dig.jpg"",""time"":0.09999996423721313},{""stimulus"":""run_exp/static/images/task_images/land.jpg"",""time"":974.3000000119209},{""stimulus"":""run_exp/static/images/task_images/dig.jpg"",""time"":1929.8999999761581}]",[],7,,,,,,,,,,,,,,
harvest,152,503476,0.0-47.0-1.0,"""event"",""trial"",""time""
""fullscreenenter"",""1"",""2186""
","
","
","""event"",""trial"",""time""
""fullscreenenter"",""1"",""2186""
","
",,null,run_exp/static/images/task_images/gems/55.jpg,null,,,,,,,48,,,7,,,,,55,0.873008517,0.872727273,,,,,,,
decision,153,503618,0.0-47.0-2.0,"""event"",""trial"",""time""
""fullscreenenter"",""1"",""2186""
","
","
","""event"",""trial"",""time""
""fullscreenenter"",""1"",""2186""
","
",,140.1,run_exp/static/images/task_images/land.jpg,65,,,,,,,48,,,7,,,,,,,,192319,1,3,FALSE,,,
dig,154,506495,0.0-48.0-0.0,"""event"",""trial"",""time""
""fullscreenenter"",""1"",""2186""
","
","
","""event"",""trial"",""time""
""fullscreenenter"",""1"",""2186""
","
",,,,,,,,,,,,"[{""stimulus"":""run_exp/static/images/task_images/dig.jpg"",""time"":0.19999998807907104},{""stimulus"":""run_exp/static/images/task_images/land.jpg"",""time"":960.6000000238419},{""stimulus"":""run_exp/static/images/task_images/dig.jpg"",""time"":1912.800000011921}]",[],7,,,,,,,,,,,,,,
harvest,155,507499,0.0-48.0-1.0,"""event"",""trial"",""time""
""fullscreenenter"",""1"",""2186""
","
","
","""event"",""trial"",""time""
""fullscreenenter"",""1"",""2186""
","
",,null,run_exp/static/images/task_images/gems/48.jpg,null,,,,,,,41,,,7,,,,,48,0.852300406,0.854166667,,,,,,,
decision,156,510032,0.0-48.0-2.0,"""event"",""trial"",""time""
""fullscreenenter"",""1"",""2186""
","
","
","""event"",""trial"",""time""
""fullscreenenter"",""1"",""2186""
","
",,2532.1,run_exp/static/images/task_images/land.jpg,76,,,,,,,41,,,7,,,,,,,,198733,1,4,TRUE,,,
travel,157,517510,0.0-49.0-0.0,"""event"",""trial"",""time""
""fullscreenenter"",""1"",""2186""
","
","
","""event"",""trial"",""time""
""fullscreenenter"",""1"",""2186""
","
",,,,,,,,,,,,"[{""stimulus"":""run_exp/static/images/task_images/rocket-01.jpg"",""time"":0.19999998807907104},{""stimulus"":""run_exp/static/images/task_images/rocket-02.jpg"",""time"":843.3999999761581},{""stimulus"":""run_exp/static/images/task_images/rocket-03.jpg"",""time"":1659.0999999642372},{""stimulus"":""run_exp/static/images/task_images/rocket-04.jpg"",""time"":2497},{""stimulus"":""run_exp/static/images/task_images/rocket-05.jpg"",""time"":3318.5},{""stimulus"":""run_exp/static/images/task_images/rocket-06.jpg"",""time"":4155.300000011921},{""stimulus"":""run_exp/static/images/task_images/rocket-07.jpg"",""time"":4979.099999964237},{""stimulus"":""run_exp/static/images/task_images/rocket-08.jpg"",""time"":5811.5},{""stimulus"":""run_exp/static/images/task_images/rocket-09.jpg"",""time"":6641.800000011921}]",[],7,,,,,,,,,,,,,,
alien_welcome,158,522518,0.0-49.0-1.0,"""event"",""trial"",""time""
""fullscreenenter"",""1"",""2186""
","
","
","""event"",""trial"",""time""
""fullscreenenter"",""1"",""2186""
","
",,null,run_exp/static/images/task_images/aliens/old_aliens/planet/alien_planet-39.jpg,null,,,,,,,,,,,,,39,"63,60,80,36,48,17,66,39,52,40,70,31,7,30,61,38,19,26,51,8,42,49,65,20,15,9,68,54,24,77,10,4,3,13,1,18,59,11,73,29,22,47,27",,,,,,,,,,
land,159,523028,0.0-49.0-2.0,"""event"",""trial"",""time""
""fullscreenenter"",""1"",""2186""
","
","
","""event"",""trial"",""time""
""fullscreenenter"",""1"",""2186""
","
",,null,run_exp/static/images/task_images/land.jpg,null,,,,,,,103,,,8,,,,,,,,,,,,,,
dig,160,525035,0.0-49.0-3.0,"""event"",""trial"",""time""
""fullscreenenter"",""1"",""2186""
","
","
","""event"",""trial"",""time""
""fullscreenenter"",""1"",""2186""
","
",,,,,,,,,,,,"[{""stimulus"":""run_exp/static/images/task_images/dig.jpg"",""time"":0.30000001192092896},{""stimulus"":""run_exp/static/images/task_images/land.jpg"",""time"":670.6000000238419},{""stimulus"":""run_exp/static/images/task_images/dig.jpg"",""time"":1340.7000000476837}]",[],8,,,,,,,,,,,,,,
harvest,161,526043,0.0-49.0-4.0,"""event"",""trial"",""time""
""fullscreenenter"",""1"",""2186""
","
","
","""event"",""trial"",""time""
""fullscreenenter"",""1"",""2186""
","
",,null,run_exp/static/images/task_images/gems/103.jpg,null,,,,,,,87,,,8,,,,,103,0.843113169,0.844660194,,,,,,,
decision,162,526561,0.0-49.0-5.0,"""event"",""trial"",""time""
""fullscreenenter"",""1"",""2186""
","
","
","""event"",""trial"",""time""
""fullscreenenter"",""1"",""2186""
","
",,516.1,run_exp/static/images/task_images/land.jpg,65,,,,,,,87,,,8,,,,,,,,215262,1,0,FALSE,,,
dig,163,529051,0.0-50.0-0.0,"""event"",""trial"",""time""
""fullscreenenter"",""1"",""2186""
","
","
","""event"",""trial"",""time""
""fullscreenenter"",""1"",""2186""
","
",,,,,,,,,,,,"[{""stimulus"":""run_exp/static/images/task_images/dig.jpg"",""time"":0.09999996423721313},{""stimulus"":""run_exp/static/images/task_images/land.jpg"",""time"":830.6999999880791},{""stimulus"":""run_exp/static/images/task_images/dig.jpg"",""time"":1665.8999999761581}]",[],8,,,,,,,,,,,,,,
harvest,164,530063,0.0-50.0-1.0,"""event"",""trial"",""time""
""fullscreenenter"",""1"",""2186""
","
","
","""event"",""trial"",""time""
""fullscreenenter"",""1"",""2186""
","
",,null,run_exp/static/images/task_images/gems/87.jpg,null,,,,,,,79,,,8,,,,,87,0.906814976,0.908045977,,,,,,,
decision,165,530216,0.0-50.0-2.0,"""event"",""trial"",""time""
""fullscreenenter"",""1"",""2186""
","
","
","""event"",""trial"",""time""
""fullscreenenter"",""1"",""2186""
","
",,150.8,run_exp/static/images/task_images/land.jpg,65,,,,,,,79,,,8,,,,,,,,218917,1,1,FALSE,,,
dig,166,533068,0.0-51.0-0.0,"""event"",""trial"",""time""
""fullscreenenter"",""1"",""2186""
","
","
","""event"",""trial"",""time""
""fullscreenenter"",""1"",""2186""
","
",,,,,,,,,,,,"[{""stimulus"":""run_exp/static/images/task_images/dig.jpg"",""time"":0.20000004768371582},{""stimulus"":""run_exp/static/images/task_images/land.jpg"",""time"":951.9000000357628},{""stimulus"":""run_exp/static/images/task_images/dig.jpg"",""time"":1903.4000000357628}]",[],8,,,,,,,,,,,,,,
harvest,167,534076,0.0-51.0-1.0,"""event"",""trial"",""time""
""fullscreenenter"",""1"",""2186""
","
","
","""event"",""trial"",""time""
""fullscreenenter"",""1"",""2186""
","
",,null,run_exp/static/images/task_images/gems/79.jpg,null,,,,,,,64,,,8,,,,,79,0.806617833,0.810126582,,,,,,,
decision,168,534267,0.0-51.0-2.0,"""event"",""trial"",""time""
""fullscreenenter"",""1"",""2186""
","
","
","""event"",""trial"",""time""
""fullscreenenter"",""1"",""2186""
","
",,189.3,run_exp/static/images/task_images/land.jpg,65,,,,,,,64,,,8,,,,,,,,222968,1,2,FALSE,,,
dig,169,537084,0.0-52.0-0.0,"""event"",""trial"",""time""
""fullscreenenter"",""1"",""2186""
","
","
","""event"",""trial"",""time""
""fullscreenenter"",""1"",""2186""
","
",,,,,,,,,,,,"[{""stimulus"":""run_exp/static/images/task_images/dig.jpg"",""time"":0.30000001192092896},{""stimulus"":""run_exp/static/images/task_images/land.jpg"",""time"":944.6999999880791},{""stimulus"":""run_exp/static/images/task_images/dig.jpg"",""time"":1877.800000011921}]",[],8,,,,,,,,,,,,,,
harvest,170,538092,0.0-52.0-1.0,"""event"",""trial"",""time""
""fullscreenenter"",""1"",""2186""
","
","
","""event"",""trial"",""time""
""fullscreenenter"",""1"",""2186""
","
",,null,run_exp/static/images/task_images/gems/64.jpg,null,,,,,,,54,,,8,,,,,64,0.836462791,0.84375,,,,,,,
decision,171,538110,0.0-52.0-2.0,"""event"",""trial"",""time""
""fullscreenenter"",""1"",""2186""
","
","
","""event"",""trial"",""time""
""fullscreenenter"",""1"",""2186""
","
",,16,run_exp/static/images/task_images/land.jpg,65,,,,,,,54,,,8,,,,,,,,226811,1,3,FALSE,,,
dig,172,541100,0.0-53.0-0.0,"""event"",""trial"",""time""
""fullscreenenter"",""1"",""2186""
","
","
","""event"",""trial"",""time""
""fullscreenenter"",""1"",""2186""
","
",,,,,,,,,,,,"[{""stimulus"":""run_exp/static/images/task_images/dig.jpg"",""time"":0.19999998807907104},{""stimulus"":""run_exp/static/images/task_images/land.jpg"",""time"":1007.1999999880791},{""stimulus"":""run_exp/static/images/task_images/dig.jpg"",""time"":1996.300000011921}]",[],8,,,,,,,,,,,,,,
harvest,173,542107,0.0-53.0-1.0,"""event"",""trial"",""time""
""fullscreenenter"",""1"",""2186""
","
","
","""event"",""trial"",""time""
""fullscreenenter"",""1"",""2186""
","
",,null,run_exp/static/images/task_images/gems/54.jpg,null,,,,,,,47,,,8,,,,,54,0.863270564,0.87037037,,,,,,,
decision,174,542383,0.0-53.0-2.0,"""event"",""trial"",""time""
""fullscreenenter"",""1"",""2186""
","
","
","""event"",""trial"",""time""
""fullscreenenter"",""1"",""2186""
","
",,274.2,run_exp/static/images/task_images/land.jpg,65,,,,,,,47,,,8,,,,,,,,231084,1,4,FALSE,,,
dig,175,545115,0.0-54.0-0.0,"""event"",""trial"",""time""
""fullscreenenter"",""1"",""2186""
","
","
","""event"",""trial"",""time""
""fullscreenenter"",""1"",""2186""
","
",,,,,,,,,,,,"[{""stimulus"":""run_exp/static/images/task_images/dig.jpg"",""time"":0.09999996423721313},{""stimulus"":""run_exp/static/images/task_images/land.jpg"",""time"":913.5999999642372},{""stimulus"":""run_exp/static/images/task_images/dig.jpg"",""time"":1829.0999999642372}]",[],8,,,,,,,,,,,,,,
harvest,176,546127,0.0-54.0-1.0,"""event"",""trial"",""time""
""fullscreenenter"",""1"",""2186""
","
","
","""event"",""trial"",""time""
""fullscreenenter"",""1"",""2186""
","
",,null,run_exp/static/images/task_images/gems/47.jpg,null,,,,,,,40,,,8,,,,,47,0.850108092,0.85106383,,,,,,,
decision,177,546384,0.0-54.0-2.0,"""event"",""trial"",""time""
""fullscreenenter"",""1"",""2186""
","
","
","""event"",""trial"",""time""
""fullscreenenter"",""1"",""2186""
","
",,254.8,run_exp/static/images/task_images/land.jpg,65,,,,,,,40,,,8,,,,,,,,235085,1,5,FALSE,,,
dig,178,549143,0.0-55.0-0.0,"""event"",""trial"",""time""
""fullscreenenter"",""1"",""2186""
","
","
","""event"",""trial"",""time""
""fullscreenenter"",""1"",""2186""
","
",,,,,,,,,,,,"[{""stimulus"":""run_exp/static/images/task_images/dig.jpg"",""time"":0.19999998807907104},{""stimulus"":""run_exp/static/images/task_images/land.jpg"",""time"":924.2999999523163},{""stimulus"":""run_exp/static/images/task_images/dig.jpg"",""time"":1834.3999999761581}]",[],8,,,,,,,,,,,,,,
harvest,179,550150,0.0-55.0-1.0,"""event"",""trial"",""time""
""fullscreenenter"",""1"",""2186""
","
","
","""event"",""trial"",""time""
""fullscreenenter"",""1"",""2186""
","
",,null,run_exp/static/images/task_images/gems/40.jpg,null,,,,,,,33,,,8,,,,,40,0.828225034,0.825,,,,,,,
decision,180,551384,0.0-55.0-2.0,"""event"",""trial"",""time""
""fullscreenenter"",""1"",""2186""
","
","
","""event"",""trial"",""time""
""fullscreenenter"",""1"",""2186""
","
",,1233.1,run_exp/static/images/task_images/land.jpg,76,,,,,,,33,,,8,,,,,,,,240085,1,6,TRUE,,,
travel,181,560166,0.0-56.0-0.0,"""event"",""trial"",""time""
""fullscreenenter"",""1"",""2186""
","
","
","""event"",""trial"",""time""
""fullscreenenter"",""1"",""2186""
","
",,,,,,,,,,,,"[{""stimulus"":""run_exp/static/images/task_images/rocket-01.jpg"",""time"":0.19999998807907104},{""stimulus"":""run_exp/static/images/task_images/rocket-02.jpg"",""time"":988.1000000238419},{""stimulus"":""run_exp/static/images/task_images/rocket-03.jpg"",""time"":1951.5},{""stimulus"":""run_exp/static/images/task_images/rocket-04.jpg"",""time"":2930.600000023842},{""stimulus"":""run_exp/static/images/task_images/rocket-05.jpg"",""time"":3903.699999988079},{""stimulus"":""run_exp/static/images/task_images/rocket-06.jpg"",""time"":4880.600000023842},{""stimulus"":""run_exp/static/images/task_images/rocket-07.jpg"",""time"":5847.199999988079},{""stimulus"":""run_exp/static/images/task_images/rocket-08.jpg"",""time"":6827.5},{""stimulus"":""run_exp/static/images/task_images/rocket-09.jpg"",""time"":7803.699999988079}]",[],8,,,,,,,,,,,,,,
alien_welcome,182,565174,0.0-56.0-1.0,"""event"",""trial"",""time""
""fullscreenenter"",""1"",""2186""
","
","
","""event"",""trial"",""time""
""fullscreenenter"",""1"",""2186""
","
",,null,run_exp/static/images/task_images/aliens/old_aliens/planet/alien_planet-52.jpg,null,,,,,,,,,,,,,52,"63,60,80,36,48,17,66,39,52,40,70,31,7,30,61,38,19,26,51,8,42,49,65,20,15,9,68,54,24,77,10,4,3,13,1,18,59,11,73,29,22,47,27",,,,,,,,,,
land,183,565686,0.0-56.0-2.0,"""event"",""trial"",""time""
""fullscreenenter"",""1"",""2186""
","
","
","""event"",""trial"",""time""
""fullscreenenter"",""1"",""2186""
","
",,null,run_exp/static/images/task_images/land.jpg,null,,,,,,,96,,,9,,,,,,,,,,,,,,
dig,184,567697,0.0-56.0-3.0,"""event"",""trial"",""time""
""fullscreenenter"",""1"",""2186""
","
","
","""event"",""trial"",""time""
""fullscreenenter"",""1"",""2186""
","
",,,,,,,,,,,,"[{""stimulus"":""run_exp/static/images/task_images/dig.jpg"",""time"":0.40000003576278687},{""stimulus"":""run_exp/static/images/task_images/land.jpg"",""time"":671.4000000357628},{""stimulus"":""run_exp/static/images/task_images/dig.jpg"",""time"":1338.2000000476837}]",[],9,,,,,,,,,,,,,,
harvest,185,568701,0.0-56.0-4.0,"""event"",""trial"",""time""
""fullscreenenter"",""1"",""2186""
","
","
","""event"",""trial"",""time""
""fullscreenenter"",""1"",""2186""
","
",,null,run_exp/static/images/task_images/gems/96.jpg,null,,,,,,,13,,,9,,,,,96,0.13613383,0.135416667,,,,,,,
decision,186,569486,0.0-56.0-5.0,"""event"",""trial"",""time""
""fullscreenenter"",""1"",""2186""
","
","
","""event"",""trial"",""time""
""fullscreenenter"",""1"",""2186""
","
",,784.2,run_exp/static/images/task_images/land.jpg,65,,,,,,,13,,,9,,,,,,,,258187,1,0,FALSE,,,
dig,187,571708,0.0-57.0-0.0,"""event"",""trial"",""time""
""fullscreenenter"",""1"",""2186""
","
","
","""event"",""trial"",""time""
""fullscreenenter"",""1"",""2186""
","
",,,,,,,,,,,,"[{""stimulus"":""run_exp/static/images/task_images/dig.jpg"",""time"":0.09999996423721313},{""stimulus"":""run_exp/static/images/task_images/land.jpg"",""time"":745.8999999761581},{""stimulus"":""run_exp/static/images/task_images/dig.jpg"",""time"":1486.699999988079}]",[],9,,,,,,,,,,,,,,
harvest,188,572719,0.0-57.0-1.0,"""event"",""trial"",""time""
""fullscreenenter"",""1"",""2186""
","
","
","""event"",""trial"",""time""
""fullscreenenter"",""1"",""2186""
","
",,null,run_exp/static/images/task_images/gems/13.jpg,null,,,,,,,3,,,9,,,,,13,0.199965986,0.230769231,,,,,,,
decision,189,573845,0.0-57.0-2.0,"""event"",""trial"",""time""
""fullscreenenter"",""1"",""2186""
","
","
","""event"",""trial"",""time""
""fullscreenenter"",""1"",""2186""
","
",,1123.8,run_exp/static/images/task_images/land.jpg,76,,,,,,,3,,,9,,,,,,,,262546,1,1,TRUE,,,
travel,190,582729,0.0-58.0-0.0,"""event"",""trial"",""time""
""fullscreenenter"",""1"",""2186""
","
","
","""event"",""trial"",""time""
""fullscreenenter"",""1"",""2186""
","
",,,,,,,,,,,,"[{""stimulus"":""run_exp/static/images/task_images/rocket-01.jpg"",""time"":0.09999996423721313},{""stimulus"":""run_exp/static/images/task_images/rocket-02.jpg"",""time"":988.0999999642372},{""stimulus"":""run_exp/static/images/task_images/rocket-03.jpg"",""time"":1984.0999999642372},{""stimulus"":""run_exp/static/images/task_images/rocket-04.jpg"",""time"":2964.399999976158},{""stimulus"":""run_exp/static/images/task_images/rocket-05.jpg"",""time"":3949.5},{""stimulus"":""run_exp/static/images/task_images/rocket-06.jpg"",""time"":4933.5},{""stimulus"":""run_exp/static/images/task_images/rocket-07.jpg"",""time"":5928.699999988079},{""stimulus"":""run_exp/static/images/task_images/rocket-08.jpg"",""time"":6907.800000011921},{""stimulus"":""run_exp/static/images/task_images/rocket-09.jpg"",""time"":7897}]",[],9,,,,,,,,,,,,,,
alien_welcome,191,587732,0.0-58.0-1.0,"""event"",""trial"",""time""
""fullscreenenter"",""1"",""2186""
","
","
","""event"",""trial"",""time""
""fullscreenenter"",""1"",""2186""
","
",,null,run_exp/static/images/task_images/aliens/old_aliens/planet/alien_planet-40.jpg,null,,,,,,,,,,,,,40,"63,60,80,36,48,17,66,39,52,40,70,31,7,30,61,38,19,26,51,8,42,49,65,20,15,9,68,54,24,77,10,4,3,13,1,18,59,11,73,29,22,47,27",,,,,,,,,,
land,192,588236,0.0-58.0-2.0,"""event"",""trial"",""time""
""fullscreenenter"",""1"",""2186""
","
","
","""event"",""trial"",""time""
""fullscreenenter"",""1"",""2186""
","
",,null,run_exp/static/images/task_images/land.jpg,null,,,,,,,94,,,10,,,,,,,,,,,,,,
dig,193,590249,0.0-58.0-3.0,"""event"",""trial"",""time""
""fullscreenenter"",""1"",""2186""
","
","
","""event"",""trial"",""time""
""fullscreenenter"",""1"",""2186""
","
",,,,,,,,,,,,"[{""stimulus"":""run_exp/static/images/task_images/dig.jpg"",""time"":0.30000001192092896},{""stimulus"":""run_exp/static/images/task_images/land.jpg"",""time"":670.3999999761581},{""stimulus"":""run_exp/static/images/task_images/dig.jpg"",""time"":1339.5}]",[],10,,,,,,,,,,,,,,
harvest,194,591252,0.0-58.0-4.0,"""event"",""trial"",""time""
""fullscreenenter"",""1"",""2186""
","
","
","""event"",""trial"",""time""
""fullscreenenter"",""1"",""2186""
","
",,null,run_exp/static/images/task_images/gems/94.jpg,null,,,,,,,18,,,10,,,,,94,0.19414583,0.191489362,,,,,,,
decision,195,591735,0.0-58.0-5.0,"""event"",""trial"",""time""
""fullscreenenter"",""1"",""2186""
","
","
","""event"",""trial"",""time""
""fullscreenenter"",""1"",""2186""
","
",,481.1,run_exp/static/images/task_images/land.jpg,65,,,,,,,18,,,10,,,,,,,,280436,1,0,FALSE,,,
dig,196,594266,0.0-59.0-0.0,"""event"",""trial"",""time""
""fullscreenenter"",""1"",""2186""
","
","
","""event"",""trial"",""time""
""fullscreenenter"",""1"",""2186""
","
",,,,,,,,,,,,"[{""stimulus"":""run_exp/static/images/task_images/dig.jpg"",""time"":0.10000002384185791},{""stimulus"":""run_exp/static/images/task_images/land.jpg"",""time"":841.8000000119209},{""stimulus"":""run_exp/static/images/task_images/dig.jpg"",""time"":1686.8999999761581}]",[],10,,,,,,,,,,,,,,
harvest,197,595270,0.0-59.0-1.0,"""event"",""trial"",""time""
""fullscreenenter"",""1"",""2186""
","
","
","""event"",""trial"",""time""
""fullscreenenter"",""1"",""2186""
","
",,null,run_exp/static/images/task_images/gems/18.jpg,null,,,,,,,3,,,10,,,,,18,0.174348223,0.166666667,,,,,,,
decision,198,596089,0.0-59.0-2.0,"""event"",""trial"",""time""
""fullscreenenter"",""1"",""2186""
","
","
","""event"",""trial"",""time""
""fullscreenenter"",""1"",""2186""
","
",,817.1,run_exp/static/images/task_images/land.jpg,76,,,,,,,3,,,10,,,,,,,,284790,1,1,TRUE,,,
travel,199,605277,0.0-60.0-0.0,"""event"",""trial"",""time""
""fullscreenenter"",""1"",""2186""
","
","
","""event"",""trial"",""time""
""fullscreenenter"",""1"",""2186""
","
",,,,,,,,,,,,"[{""stimulus"":""run_exp/static/images/task_images/rocket-01.jpg"",""time"":0.2999999523162842},{""stimulus"":""run_exp/static/images/task_images/rocket-02.jpg"",""time"":1028.199999988079},{""stimulus"":""run_exp/static/images/task_images/rocket-03.jpg"",""time"":2050.5},{""stimulus"":""run_exp/static/images/task_images/rocket-04.jpg"",""time"":3069.399999976158},{""stimulus"":""run_exp/static/images/task_images/rocket-05.jpg"",""time"":4093.5},{""stimulus"":""run_exp/static/images/task_images/rocket-06.jpg"",""time"":5106.199999988079},{""stimulus"":""run_exp/static/images/task_images/rocket-07.jpg"",""time"":6121.099999964237},{""stimulus"":""run_exp/static/images/task_images/rocket-08.jpg"",""time"":7144.899999976158},{""stimulus"":""run_exp/static/images/task_images/rocket-09.jpg"",""time"":8173.699999988079}]",[],10,,,,,,,,,,,,,,
alien_welcome,200,610287,0.0-60.0-1.0,"""event"",""trial"",""time""
""fullscreenenter"",""1"",""2186""
","
","
","""event"",""trial"",""time""
""fullscreenenter"",""1"",""2186""
","
",,null,run_exp/static/images/task_images/aliens/old_aliens/planet/alien_planet-70.jpg,null,,,,,,,,,,,,,70,"63,60,80,36,48,17,66,39,52,40,70,31,7,30,61,38,19,26,51,8,42,49,65,20,15,9,68,54,24,77,10,4,3,13,1,18,59,11,73,29,22,47,27",,,,,,,,,,
land,201,610794,0.0-60.0-2.0,"""event"",""trial"",""time""
""fullscreenenter"",""1"",""2186""
","
","
","""event"",""trial"",""time""
""fullscreenenter"",""1"",""2186""
","
",,null,run_exp/static/images/task_images/land.jpg,null,,,,,,,108,,,11,,,,,,,,,,,,,,
dig,202,612807,0.0-60.0-3.0,"""event"",""trial"",""time""
""fullscreenenter"",""1"",""2186""
","
","
","""event"",""trial"",""time""
""fullscreenenter"",""1"",""2186""
","
",,,,,,,,,,,,"[{""stimulus"":""run_exp/static/images/task_images/dig.jpg"",""time"":0.30000001192092896},{""stimulus"":""run_exp/static/images/task_images/land.jpg"",""time"":674.3000000119209},{""stimulus"":""run_exp/static/images/task_images/dig.jpg"",""time"":1336.9000000357628}]",[],11,,,,,,,,,,,,,,
harvest,203,613814,0.0-60.0-4.0,"""event"",""trial"",""time""
""fullscreenenter"",""1"",""2186""
","
","
","""event"",""trial"",""time""
""fullscreenenter"",""1"",""2186""
","
",,null,run_exp/static/images/task_images/gems/108.jpg,null,,,,,,,26,,,11,,,,,108,0.238315256,0.240740741,,,,,,,
decision,204,614481,0.0-60.0-5.0,"""event"",""trial"",""time""
""fullscreenenter"",""1"",""2186""
","
","
","""event"",""trial"",""time""
""fullscreenenter"",""1"",""2186""
","
",,665.1,run_exp/static/images/task_images/land.jpg,65,,,,,,,26,,,11,,,,,,,,303182,1,0,TRUE,,,
end_of_block_continue,205,621572,0.0-61.0-0.0,"""event"",""trial"",""time""
""fullscreenenter"",""1"",""2186""
","
","
","""event"",""trial"",""time""
""fullscreenenter"",""1"",""2186""
","
",,7086.8,run_exp/static/audio/clip_32_block_end.m4a,,,,,,,0,,,,,,,,,,,,,,,,,,
alien_welcome,206,626578,0.0-62.0-0.0,"""event"",""trial"",""time""
""fullscreenenter"",""1"",""2186""
","
","
","""event"",""trial"",""time""
""fullscreenenter"",""1"",""2186""
","
",,null,run_exp/static/images/task_images/aliens/old_aliens/planet/alien_planet-31.jpg,null,,,,,,,,,,,,,31,"63,60,80,36,48,17,66,39,52,40,70,31,7,30,61,38,19,26,51,8,42,49,65,20,15,9,68,54,24,77,10,4,3,13,1,18,59,11,73,29,22,47,27",,,,,,,,,,
land,207,627088,0.0-62.0-1.0,"""event"",""trial"",""time""
""fullscreenenter"",""1"",""2186""
","
","
","""event"",""trial"",""time""
""fullscreenenter"",""1"",""2186""
","
",,null,run_exp/static/images/task_images/land.jpg,null,,,,,,,99,,,12,,,,,,,,,,,,,,
dig,208,629098,0.0-62.0-2.0,"""event"",""trial"",""time""
""fullscreenenter"",""1"",""2186""
","
","
","""event"",""trial"",""time""
""fullscreenenter"",""1"",""2186""
","
",,,,,,,,,,,,"[{""stimulus"":""run_exp/static/images/task_images/dig.jpg"",""time"":0.30000001192092896},{""stimulus"":""run_exp/static/images/task_images/land.jpg"",""time"":676.5},{""stimulus"":""run_exp/static/images/task_images/dig.jpg"",""time"":1340}]",[],12,,,,,,,,,,,,,,
harvest,209,630102,0.0-62.0-3.0,"""event"",""trial"",""time""
""fullscreenenter"",""1"",""2186""
","
","
","""event"",""trial"",""time""
""fullscreenenter"",""1"",""2186""
","
",,null,run_exp/static/images/task_images/gems/99.jpg,null,,,,,,,17,,,12,,,,,99,0.166870539,0.171717172,,,,,,,
decision,210,630628,0.0-62.0-4.0,"""event"",""trial"",""time""
""fullscreenenter"",""1"",""2186""
","
","
","""event"",""trial"",""time""
""fullscreenenter"",""1"",""2186""
","
",,524.9,run_exp/static/images/task_images/land.jpg,65,,,,,,,17,,,12,,,,,,,,9055,2,0,FALSE,,,
dig,211,633113,0.0-63.0-0.0,"""event"",""trial"",""time""
""fullscreenenter"",""1"",""2186""
","
","
","""event"",""trial"",""time""
""fullscreenenter"",""1"",""2186""
","
",,,,,,,,,,,,"[{""stimulus"":""run_exp/static/images/task_images/dig.jpg"",""time"":0.09999996423721313},{""stimulus"":""run_exp/static/images/task_images/land.jpg"",""time"":831.3999999761581},{""stimulus"":""run_exp/static/images/task_images/dig.jpg"",""time"":1656}]",[],12,,,,,,,,,,,,,,
harvest,212,634118,0.0-63.0-1.0,"""event"",""trial"",""time""
""fullscreenenter"",""1"",""2186""
","
","
","""event"",""trial"",""time""
""fullscreenenter"",""1"",""2186""
","
",,null,run_exp/static/images/task_images/gems/17.jpg,null,,,,,,,4,,,12,,,,,17,0.216375722,0.235294118,,,,,,,
decision,213,634524,0.0-63.0-2.0,"""event"",""trial"",""time""
""fullscreenenter"",""1"",""2186""
","
","
","""event"",""trial"",""time""
""fullscreenenter"",""1"",""2186""
","
",,404.4,run_exp/static/images/task_images/land.jpg,76,,,,,,,4,,,12,,,,,,,,12950,2,1,TRUE,,,
travel,214,644131,0.0-64.0-0.0,"""event"",""trial"",""time""
""fullscreenenter"",""1"",""2186""
","
","
","""event"",""trial"",""time""
""fullscreenenter"",""1"",""2186""
","
",,,,,,,,,,,,"[{""stimulus"":""run_exp/static/images/task_images/rocket-01.jpg"",""time"":0.19999998807907104},{""stimulus"":""run_exp/static/images/task_images/rocket-02.jpg"",""time"":1071.3999999761581},{""stimulus"":""run_exp/static/images/task_images/rocket-03.jpg"",""time"":2141},{""stimulus"":""run_exp/static/images/task_images/rocket-04.jpg"",""time"":3207.100000023842},{""stimulus"":""run_exp/static/images/task_images/rocket-05.jpg"",""time"":4271.899999976158},{""stimulus"":""run_exp/static/images/task_images/rocket-06.jpg"",""time"":5339.300000011921},{""stimulus"":""run_exp/static/images/task_images/rocket-07.jpg"",""time"":6403.100000023842},{""stimulus"":""run_exp/static/images/task_images/rocket-08.jpg"",""time"":7472.699999988079},{""stimulus"":""run_exp/static/images/task_images/rocket-09.jpg"",""time"":8539.399999976158}]",[],12,,,,,,,,,,,,,,
alien_welcome,215,649138,0.0-64.0-1.0,"""event"",""trial"",""time""
""fullscreenenter"",""1"",""2186""
","
","
","""event"",""trial"",""time""
""fullscreenenter"",""1"",""2186""
","
",,null,run_exp/static/images/task_images/aliens/old_aliens/planet/alien_planet-7.jpg,null,,,,,,,,,,,,,7,"63,60,80,36,48,17,66,39,52,40,70,31,7,30,61,38,19,26,51,8,42,49,65,20,15,9,68,54,24,77,10,4,3,13,1,18,59,11,73,29,22,47,27",,,,,,,,,,
land,216,649650,0.0-64.0-2.0,"""event"",""trial"",""time""
""fullscreenenter"",""1"",""2186""
","
","
","""event"",""trial"",""time""
""fullscreenenter"",""1"",""2186""
","
",,null,run_exp/static/images/task_images/land.jpg,null,,,,,,,105,,,13,,,,,,,,,,,,,,
dig,217,651667,0.0-64.0-3.0,"""event"",""trial"",""time""
""fullscreenenter"",""1"",""2186""
","
","
","""event"",""trial"",""time""
""fullscreenenter"",""1"",""2186""
","
",,,,,,,,,,,,"[{""stimulus"":""run_exp/static/images/task_images/dig.jpg"",""time"":0.30000001192092896},{""stimulus"":""run_exp/static/images/task_images/land.jpg"",""time"":679.0999999642372},{""stimulus"":""run_exp/static/images/task_images/dig.jpg"",""time"":1335.0999999642372}]",[],13,,,,,,,,,,,,,,
harvest,218,652674,0.0-64.0-4.0,"""event"",""trial"",""time""
""fullscreenenter"",""1"",""2186""
","
","
","""event"",""trial"",""time""
""fullscreenenter"",""1"",""2186""
","
",,null,run_exp/static/images/task_images/gems/105.jpg,null,,,,,,,22,,,13,,,,,105,0.205250466,0.20952381,,,,,,,
decision,219,653167,0.0-64.0-5.0,"""event"",""trial"",""time""
""fullscreenenter"",""1"",""2186""
","
","
","""event"",""trial"",""time""
""fullscreenenter"",""1"",""2186""
","
",,491.3,run_exp/static/images/task_images/land.jpg,65,,,,,,,22,,,13,,,,,,,,31593,2,0,FALSE,,,
dig,220,655688,0.0-65.0-0.0,"""event"",""trial"",""time""
""fullscreenenter"",""1"",""2186""
","
","
","""event"",""trial"",""time""
""fullscreenenter"",""1"",""2186""
","
",,,,,,,,,,,,"[{""stimulus"":""run_exp/static/images/task_images/dig.jpg"",""time"":0.20000004768371582},{""stimulus"":""run_exp/static/images/task_images/land.jpg"",""time"":844.5},{""stimulus"":""run_exp/static/images/task_images/dig.jpg"",""time"":1677.7000000476837}]",[],13,,,,,,,,,,,,,,
harvest,221,656695,0.0-65.0-1.0,"""event"",""trial"",""time""
""fullscreenenter"",""1"",""2186""
","
","
","""event"",""trial"",""time""
""fullscreenenter"",""1"",""2186""
","
",,null,run_exp/static/images/task_images/gems/22.jpg,null,,,,,,,4,,,13,,,,,22,0.184657461,0.181818182,,,,,,,
decision,222,657606,0.0-65.0-2.0,"""event"",""trial"",""time""
""fullscreenenter"",""1"",""2186""
","
","
","""event"",""trial"",""time""
""fullscreenenter"",""1"",""2186""
","
",,909.3,run_exp/static/images/task_images/land.jpg,76,,,,,,,4,,,13,,,,,,,,36032,2,1,TRUE,,,
travel,223,666703,0.0-66.0-0.0,"""event"",""trial"",""time""
""fullscreenenter"",""1"",""2186""
","
","
","""event"",""trial"",""time""
""fullscreenenter"",""1"",""2186""
","
",,,,,,,,,,,,"[{""stimulus"":""run_exp/static/images/task_images/rocket-01.jpg"",""time"":0.19999998807907104},{""stimulus"":""run_exp/static/images/task_images/rocket-02.jpg"",""time"":1014.8000000119209},{""stimulus"":""run_exp/static/images/task_images/rocket-03.jpg"",""time"":2025.5},{""stimulus"":""run_exp/static/images/task_images/rocket-04.jpg"",""time"":3041.800000011921},{""stimulus"":""run_exp/static/images/task_images/rocket-05.jpg"",""time"":4045.699999988079},{""stimulus"":""run_exp/static/images/task_images/rocket-06.jpg"",""time"":5052.400000035763},{""stimulus"":""run_exp/static/images/task_images/rocket-07.jpg"",""time"":6073.199999988079},{""stimulus"":""run_exp/static/images/task_images/rocket-08.jpg"",""time"":7078.800000011921},{""stimulus"":""run_exp/static/images/task_images/rocket-09.jpg"",""time"":8085.900000035763}]",[],13,,,,,,,,,,,,,,
alien_welcome,224,671711,0.0-66.0-1.0,"""event"",""trial"",""time""
""fullscreenenter"",""1"",""2186""
","
","
","""event"",""trial"",""time""
""fullscreenenter"",""1"",""2186""
","
",,null,run_exp/static/images/task_images/aliens/old_aliens/planet/alien_planet-30.jpg,null,,,,,,,,,,,,,30,"63,60,80,36,48,17,66,39,52,40,70,31,7,30,61,38,19,26,51,8,42,49,65,20,15,9,68,54,24,77,10,4,3,13,1,18,59,11,73,29,22,47,27",,,,,,,,,,
land,225,672220,0.0-66.0-2.0,"""event"",""trial"",""time""
""fullscreenenter"",""1"",""2186""
","
","
","""event"",""trial"",""time""
""fullscreenenter"",""1"",""2186""
","
",,null,run_exp/static/images/task_images/land.jpg,null,,,,,,,95,,,14,,,,,,,,,,,,,,
dig,226,674234,0.0-66.0-3.0,"""event"",""trial"",""time""
""fullscreenenter"",""1"",""2186""
","
","
","""event"",""trial"",""time""
""fullscreenenter"",""1"",""2186""
","
",,,,,,,,,,,,"[{""stimulus"":""run_exp/static/images/task_images/dig.jpg"",""time"":0.40000003576278687},{""stimulus"":""run_exp/static/images/task_images/land.jpg"",""time"":679.2000000476837},{""stimulus"":""run_exp/static/images/task_images/dig.jpg"",""time"":1338.4000000357628}]",[],14,,,,,,,,,,,,,,
harvest,227,675242,0.0-66.0-4.0,"""event"",""trial"",""time""
""fullscreenenter"",""1"",""2186""
","
","
","""event"",""trial"",""time""
""fullscreenenter"",""1"",""2186""
","
",,null,run_exp/static/images/task_images/gems/95.jpg,null,,,,,,,17,,,14,,,,,95,0.179060127,0.178947368,,,,,,,
decision,228,675849,0.0-66.0-5.0,"""event"",""trial"",""time""
""fullscreenenter"",""1"",""2186""
","
","
","""event"",""trial"",""time""
""fullscreenenter"",""1"",""2186""
","
",,606,run_exp/static/images/task_images/land.jpg,65,,,,,,,17,,,14,,,,,,,,54275,2,0,FALSE,,,
dig,229,678258,0.0-67.0-0.0,"""event"",""trial"",""time""
""fullscreenenter"",""1"",""2186""
","
","
","""event"",""trial"",""time""
""fullscreenenter"",""1"",""2186""
","
",,,,,,,,,,,,"[{""stimulus"":""run_exp/static/images/task_images/dig.jpg"",""time"":0.19999998807907104},{""stimulus"":""run_exp/static/images/task_images/land.jpg"",""time"":802.5999999642372},{""stimulus"":""run_exp/static/images/task_images/dig.jpg"",""time"":1602.300000011921}]",[],14,,,,,,,,,,,,,,
harvest,230,679263,0.0-67.0-1.0,"""event"",""trial"",""time""
""fullscreenenter"",""1"",""2186""
","
","
","""event"",""trial"",""time""
""fullscreenenter"",""1"",""2186""
","
",,null,run_exp/static/images/task_images/gems/17.jpg,null,,,,,,,4,,,14,,,,,17,0.219201532,0.235294118,,,,,,,
decision,231,680294,0.0-67.0-2.0,"""event"",""trial"",""time""
""fullscreenenter"",""1"",""2186""
","
","
","""event"",""trial"",""time""
""fullscreenenter"",""1"",""2186""
","
",,1028.8,run_exp/static/images/task_images/land.jpg,76,,,,,,,4,,,14,,,,,,,,58720,2,1,TRUE,,,
travel,232,689265,0.0-68.0-0.0,"""event"",""trial"",""time""
""fullscreenenter"",""1"",""2186""
","
","
","""event"",""trial"",""time""
""fullscreenenter"",""1"",""2186""
","
",,,,,,,,,,,,"[{""stimulus"":""run_exp/static/images/task_images/rocket-01.jpg"",""time"":0.19999998807907104},{""stimulus"":""run_exp/static/images/task_images/rocket-02.jpg"",""time"":1003.1000000238419},{""stimulus"":""run_exp/static/images/task_images/rocket-03.jpg"",""time"":2002},{""stimulus"":""run_exp/static/images/task_images/rocket-04.jpg"",""time"":2992.5},{""stimulus"":""run_exp/static/images/task_images/rocket-05.jpg"",""time"":3990.699999988079},{""stimulus"":""run_exp/static/images/task_images/rocket-06.jpg"",""time"":4987.300000011921},{""stimulus"":""run_exp/static/images/task_images/rocket-07.jpg"",""time"":5987.399999976158},{""stimulus"":""run_exp/static/images/task_images/rocket-08.jpg"",""time"":6975.899999976158},{""stimulus"":""run_exp/static/images/task_images/rocket-09.jpg"",""time"":7975.800000011921}]",[],14,,,,,,,,,,,,,,
alien_welcome,233,694273,0.0-68.0-1.0,"""event"",""trial"",""time""
""fullscreenenter"",""1"",""2186""
","
","
","""event"",""trial"",""time""
""fullscreenenter"",""1"",""2186""
","
",,null,run_exp/static/images/task_images/aliens/old_aliens/planet/alien_planet-61.jpg,null,,,,,,,,,,,,,61,"63,60,80,36,48,17,66,39,52,40,70,31,7,30,61,38,19,26,51,8,42,49,65,20,15,9,68,54,24,77,10,4,3,13,1,18,59,11,73,29,22,47,27",,,,,,,,,,
land,234,694781,0.0-68.0-2.0,"""event"",""trial"",""time""
""fullscreenenter"",""1"",""2186""
","
","
","""event"",""trial"",""time""
""fullscreenenter"",""1"",""2186""
","
",,null,run_exp/static/images/task_images/land.jpg,null,,,,,,,117,,,15,,,,,,,,,,,,,,
dig,235,696797,0.0-68.0-3.0,"""event"",""trial"",""time""
""fullscreenenter"",""1"",""2186""
","
","
","""event"",""trial"",""time""
""fullscreenenter"",""1"",""2186""
","
",,,,,,,,,,,,"[{""stimulus"":""run_exp/static/images/task_images/dig.jpg"",""time"":0.30000001192092896},{""stimulus"":""run_exp/static/images/task_images/land.jpg"",""time"":674.3999999761581},{""stimulus"":""run_exp/static/images/task_images/dig.jpg"",""time"":1338.0999999642372}]",[],15,,,,,,,,,,,,,,
harvest,236,697801,0.0-68.0-4.0,"""event"",""trial"",""time""
""fullscreenenter"",""1"",""2186""
","
","
","""event"",""trial"",""time""
""fullscreenenter"",""1"",""2186""
","
",,null,run_exp/static/images/task_images/gems/117.jpg,null,,,,,,,88,,,15,,,,,117,0.756059286,0.752136752,,,,,,,
decision,237,698476,0.0-68.0-5.0,"""event"",""trial"",""time""
""fullscreenenter"",""1"",""2186""
","
","
","""event"",""trial"",""time""
""fullscreenenter"",""1"",""2186""
","
",,673.4,run_exp/static/images/task_images/land.jpg,65,,,,,,,88,,,15,,,,,,,,76902,2,0,FALSE,,,
dig,238,700809,0.0-69.0-0.0,"""event"",""trial"",""time""
""fullscreenenter"",""1"",""2186""
","
","
","""event"",""trial"",""time""
""fullscreenenter"",""1"",""2186""
","
",,,,,,,,,,,,"[{""stimulus"":""run_exp/static/images/task_images/dig.jpg"",""time"":0.10000002384185791},{""stimulus"":""run_exp/static/images/task_images/land.jpg"",""time"":784.3999999761581},{""stimulus"":""run_exp/static/images/task_images/dig.jpg"",""time"":1554.6000000238419}]",[],15,,,,,,,,,,,,,,
harvest,239,701819,0.0-69.0-1.0,"""event"",""trial"",""time""
""fullscreenenter"",""1"",""2186""
","
","
","""event"",""trial"",""time""
""fullscreenenter"",""1"",""2186""
","
",,null,run_exp/static/images/task_images/gems/88.jpg,null,,,,,,,54,,,15,,,,,88,0.609103626,0.613636364,,,,,,,
decision,240,702643,0.0-69.0-2.0,"""event"",""trial"",""time""
""fullscreenenter"",""1"",""2186""
","
","
","""event"",""trial"",""time""
""fullscreenenter"",""1"",""2186""
","
",,822.4,run_exp/static/images/task_images/land.jpg,65,,,,,,,54,,,15,,,,,,,,81069,2,1,FALSE,,,
dig,241,704829,0.0-70.0-0.0,"""event"",""trial"",""time""
""fullscreenenter"",""1"",""2186""
","
","
