trial_type,trial_index,time_elapsed,internal_node_id,interactions,blur_events,focus_events,fullscreenenter_events,fullscreenexit_events,success,rt,stimulus,key_press,prompt,subject_id,participant_id,age,gender,button_pressed,next_reward,animation_sequence,responses,planet,curr_prac_trial,n_prac_rounds,alien,aliens,reward_received,decay_rate_actual,decay_rate_exp,time_in_block,block_num,prt,last_trial_on_planet,button_html,bonus,num_failures
pavlovia,0,4,0.0-0.0,"""event"",""trial"",""time""
""fullscreenenter"",""1"",""2753""
","
","
","""event"",""trial"",""time""
""fullscreenenter"",""1"",""2753""
","
",,,,,,,,,,,,,,,,,,,,,,,,,,,,
fullscreen,1,3716,0.0-1.0,"""event"",""trial"",""time""
""fullscreenenter"",""1"",""2753""
","
","
","""event"",""trial"",""time""
""fullscreenenter"",""1"",""2753""
","
",TRUE,,,,,,,,,,,,,,,,,,,,,,,,,,,
instruc_welcome,2,13518,0.0-2.0,"""event"",""trial"",""time""
""fullscreenenter"",""1"",""2753""
","
","
","""event"",""trial"",""time""
""fullscreenenter"",""1"",""2753""
","
",,null,run_exp/static/audio/clip_1_welcome.m4a,null,"<p>Howdy! In this experiment, you’ll be an explorer traveling through space to collect space treasure.</p><p>Your mission is to collect as much treasure as possible.</p><br><br><p><img src='run_exp/static/images/task_images/opening_img-01.jpg' height='300' width='auto'></p>",9246,2586,20.33,Female,,,,,,,,,,,,,,,,,,,
audio-keyboard-response,3,30098,0.0-3.0,"""event"",""trial"",""time""
""fullscreenenter"",""1"",""2753""
","
","
","""event"",""trial"",""time""
""fullscreenenter"",""1"",""2753""
","
",,null,run_exp/static/audio/clip_2_move.m4a,null,,,,,,,,,,,,,,,,,,,,,,,,
welcome_dec,4,36851,0.0-4.0,"""event"",""trial"",""time""
""fullscreenenter"",""1"",""2753""
","
","
","""event"",""trial"",""time""
""fullscreenenter"",""1"",""2753""
","
",,6748.7,"<p>Howdy! In this experiment, you’ll be an explorer traveling through space to collect space treasure.</p><p>Your mission is to collect as much treasure as possible.</p><br><br><p><img src='run_exp/static/images/task_images/opening_img-01.jpg' height='300' width='auto'></p>",,,,,,,1,,,,,,,,,,,,,,,,,,
html-keyboard-response,5,38735,0.0-5.0,"""event"",""trial"",""time""
""fullscreenenter"",""1"",""2753""
","
","
","""event"",""trial"",""time""
""fullscreenenter"",""1"",""2753""
","
",,1881.3,"<p>Howdy! In this experiment, you’ll be an explorer traveling through space to collect space treasure.</p><p>Your mission is to collect as much treasure as possible.</p><br><br><p><img src='run_exp/static/images/task_images/opening_img-01.jpg' height='300' width='auto'></p><button class=""jspsych-html-btn-unchosen""><img src=""run_exp/static/images/task_images/planet-01.jpg"" height=""50""></button><button class=""jspsych-html-btn-chosen""><img src=""run_exp/static/images/task_images/planet-02.jpg"" height=""50""></button><p><b>[press the space bar to lock in your answer]<b><br></p>",32,,,,,,,,,,,,,,,,,,,,,,,,
instruc_goal,6,48798,0.0-6.0-0.0,"""event"",""trial"",""time""
""fullscreenenter"",""1"",""2753""
","
","
","""event"",""trial"",""time""
""fullscreenenter"",""1"",""2753""
","
",,null,run_exp/static/audio/clip_3_goal.m4a,null,"<p> As a space explorer, you’ll visit different planets to dig for space treasure, these pink gems.</p> <p> The more treasure you dig up, the more bonus money you’ll win! </p><br><br><p><img src='run_exp/static/images/task_images/pink_gem.jpg' height='300' width='auto'></p>",,,,,,,,,,,,,,,,,,,,,,,
instruc_goal,7,52500,0.0-6.0-1.0,"""event"",""trial"",""time""
""fullscreenenter"",""1"",""2753""
","
","
","""event"",""trial"",""time""
""fullscreenenter"",""1"",""2753""
","
",,3698.2,"<p> As a space explorer, you’ll visit different planets to dig for space treasure, these pink gems.</p> <p> The more treasure you dig up, the more bonus money you’ll win! </p><br><br><p><img src='run_exp/static/images/task_images/pink_gem.jpg' height='300' width='auto'></p>",,,,,,,1,,,,,,,,,,,,,,,,,,
html-keyboard-response,8,53435,0.0-6.0-2.0,"""event"",""trial"",""time""
""fullscreenenter"",""1"",""2753""
","
","
","""event"",""trial"",""time""
""fullscreenenter"",""1"",""2753""
","
",,932.1999998,"<p> As a space explorer, you’ll visit different planets to dig for space treasure, these pink gems.</p> <p> The more treasure you dig up, the more bonus money you’ll win! </p><br><br><p><img src='run_exp/static/images/task_images/pink_gem.jpg' height='300' width='auto'></p><button class=""jspsych-html-btn-unchosen""><img src=""run_exp/static/images/task_images/planet-01.jpg"" height=""50""></button><button class=""jspsych-html-btn-chosen""><img src=""run_exp/static/images/task_images/planet-02.jpg"" height=""50""></button><p><b>[press the space bar to lock in your answer]<b><br></p>",32,,,,,,,,,,,,,,,,,,,,,,,,
instruc_dig,9,69438,0.0-7.0-0.0,"""event"",""trial"",""time""
""fullscreenenter"",""1"",""2753""
","
","
","""event"",""trial"",""time""
""fullscreenenter"",""1"",""2753""
","
",,null,run_exp/static/audio/clip_4_dig.m4a,null,,,,,,,100,,,,,,,,,,,,,,,,,
instruc_dig_try,10,70135,0.0-7.0-1.0,"""event"",""trial"",""time""
""fullscreenenter"",""1"",""2753""
","
","
","""event"",""trial"",""time""
""fullscreenenter"",""1"",""2753""
","
",,694.7,"<p> When you’ve arrived at a new planet, you will dig once. </p> <p>Then, you get to decide if you want to stay on the planet and dig again or travel to a new planet and dig there.</p> <p> To stay and dig, press the letter <strong>‘A’</strong> on your keyboard. Try pressing it now! </p><p><img src='run_exp/static/images/task_images/land.jpg'  height='700' width='auto'></p>",65,"<p> When you’ve arrived at a new planet, you will dig once. </p> <p>Then, you get to decide if you want to stay on the planet and dig again or travel to a new planet and dig there.</p> <p> To stay and dig, press the letter <strong>‘A’</strong> on your keyboard. Try pressing it now! </p><p><img src='run_exp/static/images/task_images/land.jpg'  height='700' width='auto'></p>",,,,,,100,,,,,,,,,,,,,,,,,
dig_prac,11,72153,0.0-7.0-2.0,"""event"",""trial"",""time""
""fullscreenenter"",""1"",""2753""
","
","
","""event"",""trial"",""time""
""fullscreenenter"",""1"",""2753""
","
",,,,,,,,,,,,"[{""stimulus"":""run_exp/static/images/task_images/dig.jpg"",""time"":0.20000004768371582},{""stimulus"":""run_exp/static/images/task_images/land.jpg"",""time"":683.1000001430511},{""stimulus"":""run_exp/static/images/task_images/dig.jpg"",""time"":1336}]",[],,,,,,,,,,,,,,,
instruc_travel,12,108396,0.0-7.0-3.0,"""event"",""trial"",""time""
""fullscreenenter"",""1"",""2753""
","
","
","""event"",""trial"",""time""
""fullscreenenter"",""1"",""2753""
","
",,null,run_exp/static/audio/clip_5_travel.m4a,null,"<p>Every time you dig up gems, there are less gems on the planet, so the more you dig on a planet the fewer gems you’ll get with each dig.</p><p>When gems are running low, you may want to travel to a new planet. </p> <p>  Planets are very far apart in this galaxy, so it will take some time to travel between them. </p> <br><p>There are lots and lots of planets for you to visit, so you won’t be able to return to any planets you’ve seen before. </p><br><p>To leave this planet and travel to a new one, press the letter <strong>‘L’</strong> on your keyboard. Try pressing it now! </p><p><img src='run_exp/static/images/task_images/rocket-01.jpg'  height='600' width='auto'></p>",,,,,,,,,,,,,,,,,,,,,,,
instruc_travel_try,13,114785,0.0-7.0-4.0,"""event"",""trial"",""time""
""fullscreenenter"",""1"",""2753""
","
","
","""event"",""trial"",""time""
""fullscreenenter"",""1"",""2753""
","
",,6385.9,"<p>Every time you dig up gems, there are less gems on the planet, so the more you dig on a planet the fewer gems you’ll get with each dig.</p><p>When gems are running low, you may want to travel to a new planet. </p> <p>  Planets are very far apart in this galaxy, so it will take some time to travel between them. </p> <br><p>There are lots and lots of planets for you to visit, so you won’t be able to return to any planets you’ve seen before. </p><br><p>To leave this planet and travel to a new one, press the letter <strong>‘L’</strong> on your keyboard. Try pressing it now! </p><p><img src='run_exp/static/images/task_images/rocket-01.jpg'  height='600' width='auto'></p>",76,"<p>Every time you dig up gems, there are less gems on the planet, so the more you dig on a planet the fewer gems you’ll get with each dig.</p><p>When gems are running low, you may want to travel to a new planet. </p> <p>  Planets are very far apart in this galaxy, so it will take some time to travel between them. </p> <br><p>There are lots and lots of planets for you to visit, so you won’t be able to return to any planets you’ve seen before. </p><br><p>To leave this planet and travel to a new one, press the letter <strong>‘L’</strong> on your keyboard. Try pressing it now! </p><p><img src='run_exp/static/images/task_images/rocket-01.jpg'  height='600' width='auto'></p>",,,,,,,,,,,,,,,,,,,,,,,
travel_prac,14,124793,0.0-7.0-5.0,"""event"",""trial"",""time""
""fullscreenenter"",""1"",""2753""
","
","
","""event"",""trial"",""time""
""fullscreenenter"",""1"",""2753""
","
",,,,,,,,,,,,"[{""stimulus"":""run_exp/static/images/task_images/rocket-01.jpg"",""time"":0.2999999523162842},{""stimulus"":""run_exp/static/images/task_images/rocket-02.jpg"",""time"":1112.7999999523163},{""stimulus"":""run_exp/static/images/task_images/rocket-03.jpg"",""time"":2223.5},{""stimulus"":""run_exp/static/images/task_images/rocket-04.jpg"",""time"":3349.9000000953674},{""stimulus"":""run_exp/static/images/task_images/rocket-05.jpg"",""time"":4457.400000095367},{""stimulus"":""run_exp/static/images/task_images/rocket-06.jpg"",""time"":5557.099999904633},{""stimulus"":""run_exp/static/images/task_images/rocket-07.jpg"",""time"":6678.200000047684},{""stimulus"":""run_exp/static/images/task_images/rocket-08.jpg"",""time"":7788.200000047684},{""stimulus"":""run_exp/static/images/task_images/rocket-09.jpg"",""time"":8896}]",[],0,,,,,,,,,,,,,,
instruc_alien_greet,15,152006,0.0-7.0-6.0,"""event"",""trial"",""time""
""fullscreenenter"",""1"",""2753""
","
","
","""event"",""trial"",""time""
""fullscreenenter"",""1"",""2753""
","
",,null,run_exp/static/audio/clip_6_alien.m4a,null,"<p>When you arrive at a new planet, the alien who owns the treasure mine on that planet will greet you!</p><p>The better an alien takes care of their mine the easier it is to dig for gems. Some aliens take better care of their mine than others. So, you won’t get exactly the same amount of gems on each planet.</p><p>What the alien looks like does not tell you anything about how many gems there are on the planet.</p><br><p><img src=""run_exp/static/images/task_images/aliens/instructions_aliens/planet/alien_planet-1.jpg""  height=""600"" width=""auto""></p>",,,,,,,,,,,,,,,,,,,,,,,
instruc_alien_greet,16,161623,0.0-7.0-7.0,"""event"",""trial"",""time""
""fullscreenenter"",""1"",""2753""
","
","
","""event"",""trial"",""time""
""fullscreenenter"",""1"",""2753""
","
",,9613.6,"<p>When you arrive at a new planet, the alien who owns the treasure mine on that planet will greet you!</p><p>The better an alien takes care of their mine the easier it is to dig for gems. Some aliens take better care of their mine than others. So, you won’t get exactly the same amount of gems on each planet.</p><p>What the alien looks like does not tell you anything about how many gems there are on the planet.</p><br><p><img src=""run_exp/static/images/task_images/aliens/instructions_aliens/planet/alien_planet-1.jpg""  height=""600"" width=""auto""></p>",,,,,,,1,,,,,,,,,,,,,,,,,,
html-keyboard-response,17,162784,0.0-7.0-8.0,"""event"",""trial"",""time""
""fullscreenenter"",""1"",""2753""
","
","
","""event"",""trial"",""time""
""fullscreenenter"",""1"",""2753""
","
",,1158.4,"<p>When you arrive at a new planet, the alien who owns the treasure mine on that planet will greet you!</p><p>The better an alien takes care of their mine the easier it is to dig for gems. Some aliens take better care of their mine than others. So, you won’t get exactly the same amount of gems on each planet.</p><p>What the alien looks like does not tell you anything about how many gems there are on the planet.</p><br><p><img src=""run_exp/static/images/task_images/aliens/instructions_aliens/planet/alien_planet-1.jpg""  height=""600"" width=""auto""></p><button class=""jspsych-html-btn-unchosen""><img src=""run_exp/static/images/task_images/planet-01.jpg"" height=""50""></button><button class=""jspsych-html-btn-chosen""><img src=""run_exp/static/images/task_images/planet-02.jpg"" height=""50""></button><p><b>[press the space bar to lock in your answer]<b><br></p>",32,,,,,,,,,,,,,,,,,,,,,,,,
time_out,18,173845,0.0-8.0-0.0,"""event"",""trial"",""time""
""fullscreenenter"",""1"",""2753""
","
","
","""event"",""trial"",""time""
""fullscreenenter"",""1"",""2753""
","
",,null,run_exp/static/audio/clip_7_timeout.m4a,null,"<p>If you don't make your choice fast enough, you’ll have to wait a few seconds before you can make another one.</p><p>You can’t dig for more gems or travel to new planets. You just have to sit and wait.</p><br><p><img src='run_exp/static/images/task_images/time_out.jpg'  height='600' width='auto'></p>",,,,,,,,,,,,,,,,,,,,,,,
time_out,19,178127,0.0-8.0-1.0,"""event"",""trial"",""time""
""fullscreenenter"",""1"",""2753""
","
","
","""event"",""trial"",""time""
""fullscreenenter"",""1"",""2753""
","
",,4279.2,"<p>If you don't make your choice fast enough, you’ll have to wait a few seconds before you can make another one.</p><p>You can’t dig for more gems or travel to new planets. You just have to sit and wait.</p><br><p><img src='run_exp/static/images/task_images/time_out.jpg'  height='600' width='auto'></p>",,,,,,,1,,,,,,,,,,,,,,,,,,
html-keyboard-response,20,179044,0.0-8.0-2.0,"""event"",""trial"",""time""
""fullscreenenter"",""1"",""2753""
","
","
","""event"",""trial"",""time""
""fullscreenenter"",""1"",""2753""
","
",,914.7,"<p>If you don't make your choice fast enough, you’ll have to wait a few seconds before you can make another one.</p><p>You can’t dig for more gems or travel to new planets. You just have to sit and wait.</p><br><p><img src='run_exp/static/images/task_images/time_out.jpg'  height='600' width='auto'></p><button class=""jspsych-html-btn-unchosen""><img src=""run_exp/static/images/task_images/planet-01.jpg"" height=""50""></button><button class=""jspsych-html-btn-chosen""><img src=""run_exp/static/images/task_images/planet-02.jpg"" height=""50""></button><p><b>[press the space bar to lock in your answer]<b><br></p>",32,,,,,,,,,,,,,,,,,,,,,,,,
instruc_break,21,194703,0.0-9.0-0.0,"""event"",""trial"",""time""
""fullscreenenter"",""1"",""2753""
","
","
","""event"",""trial"",""time""
""fullscreenenter"",""1"",""2753""
","
",,null,run_exp/static/audio/clip_8_break.m4a,null,"<p> After digging and traveling for a while, you’ll be able to take a break at home base. </p><p>The game will last 20 minutes no matter what.</p><p>You will visit home base every 5 minutes, so, you will visit home base three times during the game.</p><br><p><img src='run_exp/static/images/task_images/home_base.jpg' height='600' width='auto'></p>",,,,,,,,,,,,,,,,,,,,,,,
instruc_break,22,197373,0.0-9.0-1.0,"""event"",""trial"",""time""
""fullscreenenter"",""1"",""2753""
","
","
","""event"",""trial"",""time""
""fullscreenenter"",""1"",""2753""
","
",,2668,"<p> After digging and traveling for a while, you’ll be able to take a break at home base. </p><p>The game will last 20 minutes no matter what.</p><p>You will visit home base every 5 minutes, so, you will visit home base three times during the game.</p><br><p><img src='run_exp/static/images/task_images/home_base.jpg' height='600' width='auto'></p>",,,,,,,1,,,,,,,,,,,,,,,,,,
html-keyboard-response,23,198174,0.0-9.0-2.0,"""event"",""trial"",""time""
""fullscreenenter"",""1"",""2753""
","
","
","""event"",""trial"",""time""
""fullscreenenter"",""1"",""2753""
","
",,798.1000001,"<p> After digging and traveling for a while, you’ll be able to take a break at home base. </p><p>The game will last 20 minutes no matter what.</p><p>You will visit home base every 5 minutes, so, you will visit home base three times during the game.</p><br><p><img src='run_exp/static/images/task_images/home_base.jpg' height='600' width='auto'></p><button class=""jspsych-html-btn-unchosen""><img src=""run_exp/static/images/task_images/planet-01.jpg"" height=""50""></button><button class=""jspsych-html-btn-chosen""><img src=""run_exp/static/images/task_images/planet-02.jpg"" height=""50""></button><p><b>[press the space bar to lock in your answer]<b><br></p>",32,,,,,,,,,,,,,,,,,,,,,,,,
instruc_prac_game,24,208305,0.0-10.0-0.0,"""event"",""trial"",""time""
""fullscreenenter"",""1"",""2753""
","
","
","""event"",""trial"",""time""
""fullscreenenter"",""1"",""2753""
","
",,null,run_exp/static/audio/clip_9_practice.m4a,null,"<p> Are you ready to play a practice game? </p> <p>In this practice game, you'll be digging up barrels of gems. But, in the real game, you'll be digging up the gems themselves. </p>",,,,,,,,,,,,,,,,,,,,,,,
html-button-response,25,210391,0.0-10.0-1.0,"""event"",""trial"",""time""
""fullscreenenter"",""1"",""2753""
","
","
","""event"",""trial"",""time""
""fullscreenenter"",""1"",""2753""
","
",,2083.8,"<p> Are you ready to play a practice game? </p> <p>In this practice game, you'll be digging up barrels of gems. But, in the real game, you'll be digging up the gems themselves. </p>",,,,,,,0,,,,,,,,,,,,,,,,,,
alien_welcome_prac,26,215402,0.0-11.0-0.0,"""event"",""trial"",""time""
""fullscreenenter"",""1"",""2753""
","
","
","""event"",""trial"",""time""
""fullscreenenter"",""1"",""2753""
","
",,null,run_exp/static/images/task_images/aliens/practice_aliens/planet/alien_planet-5.jpg,null,,,,,,,,,,,,,,,,,,,,,,,,
land_prac,27,215918,0.0-11.0-1.0,"""event"",""trial"",""time""
""fullscreenenter"",""1"",""2753""
","
","
","""event"",""trial"",""time""
""fullscreenenter"",""1"",""2753""
","
",,null,run_exp/static/images/task_images/land.jpg,null,,,,,,,98,,,0,,,,,,,,,,,,,,
dig_prac,28,217933,0.0-11.0-2.0,"""event"",""trial"",""time""
""fullscreenenter"",""1"",""2753""
","
","
","""event"",""trial"",""time""
""fullscreenenter"",""1"",""2753""
","
",,,,,,,,,,,,"[{""stimulus"":""run_exp/static/images/task_images/dig.jpg"",""time"":0.3000001907348633},{""stimulus"":""run_exp/static/images/task_images/land.jpg"",""time"":669.3000001907349},{""stimulus"":""run_exp/static/images/task_images/dig.jpg"",""time"":1342.3000001907349}]",[],,,,,,,,,,,,,,,
harvest_prac,29,218949,0.0-11.0-3.0,"""event"",""trial"",""time""
""fullscreenenter"",""1"",""2753""
","
","
","""event"",""trial"",""time""
""fullscreenenter"",""1"",""2753""
","
",,null,run_exp/static/images/task_images/barrel_text.jpg,null,,,,,,,,,,,,,,,,,,,,,,,,
decision_prac,30,220515,0.0-11.0-4.0,"""event"",""trial"",""time""
""fullscreenenter"",""1"",""2753""
","
","
","""event"",""trial"",""time""
""fullscreenenter"",""1"",""2753""
","
",,1564,run_exp/static/images/task_images/land.jpg,65,,,,,,,,,,,1,,,,,,,,,,,,,
dig_prac,31,222528,0.0-12.0-0.0,"""event"",""trial"",""time""
""fullscreenenter"",""1"",""2753""
","
","
","""event"",""trial"",""time""
""fullscreenenter"",""1"",""2753""
","
",,,,,,,,,,,,"[{""stimulus"":""run_exp/static/images/task_images/dig.jpg"",""time"":0.20000004768371582},{""stimulus"":""run_exp/static/images/task_images/land.jpg"",""time"":683},{""stimulus"":""run_exp/static/images/task_images/dig.jpg"",""time"":1336.5}]",[],,,,,,,,,,,,,,,
harvest_prac,32,223543,0.0-12.0-1.0,"""event"",""trial"",""time""
""fullscreenenter"",""1"",""2753""
","
","
","""event"",""trial"",""time""
""fullscreenenter"",""1"",""2753""
","
",,null,run_exp/static/images/task_images/barrel_text.jpg,null,,,,,,,,,,,,,,,,,,,,,,,,
decision_prac,33,224334,0.0-12.0-2.0,"""event"",""trial"",""time""
""fullscreenenter"",""1"",""2753""
","
","
","""event"",""trial"",""time""
""fullscreenenter"",""1"",""2753""
","
",,789.7,run_exp/static/images/task_images/land.jpg,65,,,,,,,,,,,2,,,,,,,,,,,,,
dig_prac,34,226338,0.0-13.0-0.0,"""event"",""trial"",""time""
""fullscreenenter"",""1"",""2753""
","
","
","""event"",""trial"",""time""
""fullscreenenter"",""1"",""2753""
","
",,,,,,,,,,,,"[{""stimulus"":""run_exp/static/images/task_images/dig.jpg"",""time"":0.10000014305114746},{""stimulus"":""run_exp/static/images/task_images/land.jpg"",""time"":670.6000001430511},{""stimulus"":""run_exp/static/images/task_images/dig.jpg"",""time"":1346.7000000476837}]",[],,,,,,,,,,,,,,,
harvest_prac,35,227354,0.0-13.0-1.0,"""event"",""trial"",""time""
""fullscreenenter"",""1"",""2753""
","
","
","""event"",""trial"",""time""
""fullscreenenter"",""1"",""2753""
","
",,null,run_exp/static/images/task_images/barrel_text.jpg,null,,,,,,,,,,,,,,,,,,,,,,,,
decision_prac,36,228194,0.0-13.0-2.0,"""event"",""trial"",""time""
""fullscreenenter"",""1"",""2753""
","
","
","""event"",""trial"",""time""
""fullscreenenter"",""1"",""2753""
","
",,838.7,run_exp/static/images/task_images/land.jpg,65,,,,,,,,,,,3,,,,,,,,,,,,,
dig_prac,37,230215,0.0-14.0-0.0,"""event"",""trial"",""time""
""fullscreenenter"",""1"",""2753""
","
","
","""event"",""trial"",""time""
""fullscreenenter"",""1"",""2753""
","
",,,,,,,,,,,,"[{""stimulus"":""run_exp/static/images/task_images/dig.jpg"",""time"":0.09999990463256836},{""stimulus"":""run_exp/static/images/task_images/land.jpg"",""time"":675.2000000476837},{""stimulus"":""run_exp/static/images/task_images/dig.jpg"",""time"":1336.5}]",[],,,,,,,,,,,,,,,
harvest_prac,38,231230,0.0-14.0-1.0,"""event"",""trial"",""time""
""fullscreenenter"",""1"",""2753""
","
","
","""event"",""trial"",""time""
""fullscreenenter"",""1"",""2753""
","
",,null,run_exp/static/images/task_images/barrel_text.jpg,null,,,,,,,,,,,,,,,,,,,,,,,,
decision_prac,39,231715,0.0-14.0-2.0,"""event"",""trial"",""time""
""fullscreenenter"",""1"",""2753""
","
","
","""event"",""trial"",""time""
""fullscreenenter"",""1"",""2753""
","
",,483.7,run_exp/static/images/task_images/land.jpg,76,,,,,,,,,,,4,,,,,,,,,,,,,
travel,40,241247,0.0-15.0-0.0,"""event"",""trial"",""time""
""fullscreenenter"",""1"",""2753""
","
","
","""event"",""trial"",""time""
""fullscreenenter"",""1"",""2753""
","
",,,,,,,,,,,,"[{""stimulus"":""run_exp/static/images/task_images/rocket-01.jpg"",""time"":0.10000014305114746},{""stimulus"":""run_exp/static/images/task_images/rocket-02.jpg"",""time"":1059.7999999523163},{""stimulus"":""run_exp/static/images/task_images/rocket-03.jpg"",""time"":2123.100000143051},{""stimulus"":""run_exp/static/images/task_images/rocket-04.jpg"",""time"":3185.9000000953674},{""stimulus"":""run_exp/static/images/task_images/rocket-05.jpg"",""time"":4236.100000143051},{""stimulus"":""run_exp/static/images/task_images/rocket-06.jpg"",""time"":5295.600000143051},{""stimulus"":""run_exp/static/images/task_images/rocket-07.jpg"",""time"":6357.900000095367},{""stimulus"":""run_exp/static/images/task_images/rocket-08.jpg"",""time"":7403.299999952316},{""stimulus"":""run_exp/static/images/task_images/rocket-09.jpg"",""time"":8466.5}]",[],0,,,,,,,,,,,,,,
alien_welcome_prac,41,246265,0.0-15.0-1.0,"""event"",""trial"",""time""
""fullscreenenter"",""1"",""2753""
","
","
","""event"",""trial"",""time""
""fullscreenenter"",""1"",""2753""
","
",,null,run_exp/static/images/task_images/aliens/practice_aliens/planet/alien_planet-4.jpg,null,,,,,,,,,,,,,,,,,,,,,,,,
land_prac,42,246780,0.0-15.0-2.0,"""event"",""trial"",""time""
""fullscreenenter"",""1"",""2753""
","
","
","""event"",""trial"",""time""
""fullscreenenter"",""1"",""2753""
","
",,null,run_exp/static/images/task_images/land.jpg,null,,,,,,,96,,,0,,,,,,,,,,,,,,
dig_prac,43,248793,0.0-15.0-3.0,"""event"",""trial"",""time""
""fullscreenenter"",""1"",""2753""
","
","
","""event"",""trial"",""time""
""fullscreenenter"",""1"",""2753""
","
",,,,,,,,,,,,"[{""stimulus"":""run_exp/static/images/task_images/dig.jpg"",""time"":0.39999985694885254},{""stimulus"":""run_exp/static/images/task_images/land.jpg"",""time"":670},{""stimulus"":""run_exp/static/images/task_images/dig.jpg"",""time"":1342.3999998569489}]",[],,,,,,,,,,,,,,,
harvest_prac,44,249795,0.0-15.0-4.0,"""event"",""trial"",""time""
""fullscreenenter"",""1"",""2753""
","
","
","""event"",""trial"",""time""
""fullscreenenter"",""1"",""2753""
","
",,null,run_exp/static/images/task_images/barrel_text.jpg,null,,,,,,,,,,,,,,,,,,,,,,,,
decision_prac,45,250526,0.0-15.0-5.0,"""event"",""trial"",""time""
""fullscreenenter"",""1"",""2753""
","
","
","""event"",""trial"",""time""
""fullscreenenter"",""1"",""2753""
","
",,728.7,run_exp/static/images/task_images/land.jpg,65,,,,,,,,,,,,1,,,,,,,,,,,,
quiz_instruc,46,261545,0.0-16.0-0.0,"""event"",""trial"",""time""
""fullscreenenter"",""1"",""2753""
","
","
","""event"",""trial"",""time""
""fullscreenenter"",""1"",""2753""
","
",,11015.1,run_exp/static/audio/clip_10_quiz.m4a,,,,,,,0,,,,,,,,,,,,,,,,,,
instruc_repeat,47,304324,0.0-16.0-1.0,"""event"",""trial"",""time""
""fullscreenenter"",""1"",""2753""
","
","
","""event"",""trial"",""time""
""fullscreenenter"",""1"",""2753""
","
",,null,"<p> Are you ready to play a practice game? </p> <p>In this practice game, you'll be digging up barrels of gems. But, in the real game, you'll be digging up the gems themselves. </p>",null,"<p>In this game, your goal is to collect as many gems as you can. That’s how you will win bonus money. </p> <p>The entire game will last 20 minutes no matter how many gems you collect or how many planets you visit. </p><p>To stay on a planet and dig again, press the letter A on your keyboard. To leave for a new planet, press the letter L.</p><p>The more you dig on a planet, the fewer gems you’ll get with each dig which is why you might consider leaving for a new planet. </p><p>When you arrive at a new planet, you’ll be greeted by an alien. What the alien looks like does not tell you anything about how much treasure is on the planet. </p>",,,,,,,,,,,,,,,,,,,,,,,
instruc_repeat_continue,48,306266,0.0-16.0-2.0,"""event"",""trial"",""time""
""fullscreenenter"",""1"",""2753""
","
","
","""event"",""trial"",""time""
""fullscreenenter"",""1"",""2753""
","
",,1938.1,"<p> Are you ready to play a practice game? </p> <p>In this practice game, you'll be digging up barrels of gems. But, in the real game, you'll be digging up the gems themselves. </p>",,,,,,,0,,,,,,,,,,,,,,,,,,
quiz_q_1_ask,49,317575,0.0-16.0-3.0,"""event"",""trial"",""time""
""fullscreenenter"",""1"",""2753""
","
","
","""event"",""trial"",""time""
""fullscreenenter"",""1"",""2753""
","
",,11307,run_exp/static/audio/clip_11_q1_ask.m4a,,,,,,,2,,,,,,,,,,,,,,,,,,
quiz_q_1_fb_correct,50,321424,0.0-17.0-0.0,"""event"",""trial"",""time""
""fullscreenenter"",""1"",""2753""
","
","
","""event"",""trial"",""time""
""fullscreenenter"",""1"",""2753""
","
",,null,run_exp/static/audio/clip_12_q1_correct.m4a,null,<p>That’s correct. You win extra money by collecting more gems.</p>,,,,,,,,,,,,,,,,,,,,,,,
quiz_q_2_ask,51,334079,0.0-17.0-1.0,"""event"",""trial"",""time""
""fullscreenenter"",""1"",""2753""
","
","
","""event"",""trial"",""time""
""fullscreenenter"",""1"",""2753""
","
",,12651.9,run_exp/static/audio/clip_14_q2_ask.m4a,,,,,,,1,,,,,,,,,,,,,,,,,,
quiz_q_2_fb_correct,52,338084,0.0-18.0-0.0,"""event"",""trial"",""time""
""fullscreenenter"",""1"",""2753""
","
","
","""event"",""trial"",""time""
""fullscreenenter"",""1"",""2753""
","
",,null,run_exp/static/audio/clip_15_q2_correct.m4a,null,<p>That’s correct. The experiment is 20 minutes no matter what.</p>,,,,,,,,,,,,,,,,,,,,,,,
quiz_q_3_ask,53,343075,0.0-18.0-1.0,"""event"",""trial"",""time""
""fullscreenenter"",""1"",""2753""
","
","
","""event"",""trial"",""time""
""fullscreenenter"",""1"",""2753""
","
",,4989.3,run_exp/static/audio/clip_17_q3_ask.m4a,,,,,,,1,,,,,,,,,,,,,,,,,,
quiz_q_3_fb_correct,54,347064,0.0-19.0-0.0,"""event"",""trial"",""time""
""fullscreenenter"",""1"",""2753""
","
","
","""event"",""trial"",""time""
""fullscreenenter"",""1"",""2753""
","
",,null,run_exp/static/audio/clip_18_q3_correct.m4a,null,<p> That’s correct. You press the letter L to travel to a new planet.</p>,,,,,,,,,,,,,,,,,,,,,,,
quiz_q_4_ask,55,351796,0.0-19.0-1.0,"""event"",""trial"",""time""
""fullscreenenter"",""1"",""2753""
","
","
","""event"",""trial"",""time""
""fullscreenenter"",""1"",""2753""
","
",,4729.9,run_exp/static/audio/clip_20_q4_ask.m4a,,,,,,,0,,,,,,,,,,,,,,,,,,
quiz_q_4_fb_correct,56,357124,0.0-20.0-0.0,"""event"",""trial"",""time""
""fullscreenenter"",""1"",""2753""
","
","
","""event"",""trial"",""time""
""fullscreenenter"",""1"",""2753""
","
",,null,run_exp/static/audio/clip_21_q4_correct.m4a,null,<p> That’s correct. The more you dig on a planet the fewer gems you’ll get with each dig. </p>,,,,,,,,,,,,,,,,,,,,,,,
quiz_q_5_ask,57,362217,0.0-20.0-1.0,"""event"",""trial"",""time""
""fullscreenenter"",""1"",""2753""
","
","
","""event"",""trial"",""time""
""fullscreenenter"",""1"",""2753""
","
",,5090.4,run_exp/static/audio/clip_23_q5_ask.m4a,,,,,,,1,,,,,,,,,,,,,,,,,,
quiz_q_5_fb_correct,58,367226,0.0-21.0-0.0,"""event"",""trial"",""time""
""fullscreenenter"",""1"",""2753""
","
","
","""event"",""trial"",""time""
""fullscreenenter"",""1"",""2753""
","
",,null,run_exp/static/audio/clip_24_q5_correct.m4a,null,<p> That’s correct. The alien tells you nothing about how much treasure is on the planet.</p>,,,,,,,,,,,,,,,,,,,,,,,
quiz_correct,59,370686,0.0-22.0-0.0,"""event"",""trial"",""time""
""fullscreenenter"",""1"",""2753""
","
","
","""event"",""trial"",""time""
""fullscreenenter"",""1"",""2753""
","
",,null,run_exp/static/audio/clip_26_correct_quiz.m4a,null,,,,,,,,,,,,,,,,,,,,,,,,
quiz_correct_continue,60,372657,0.0-22.0-1.0,"""event"",""trial"",""time""
""fullscreenenter"",""1"",""2753""
","
","
","""event"",""trial"",""time""
""fullscreenenter"",""1"",""2753""
","
",,1969.5,<p>Good job! You're now ready to move on to the real game!</p>,,,,,,,0,,,,,,,,,,,,,,,,,,
audio-keyboard-response,61,382785,0.0-22.0-2.0,"""event"",""trial"",""time""
""fullscreenenter"",""1"",""2753""
","
","
","""event"",""trial"",""time""
""fullscreenenter"",""1"",""2753""
","
",,null,run_exp/static/audio/clip_28_real_game.m4a,null,,,,,,,,,,,,,,,,,,,,,,,,
instruc_begin_exp_contine,62,384890,0.0-22.0-3.0,"""event"",""trial"",""time""
""fullscreenenter"",""1"",""2753""
","
","
","""event"",""trial"",""time""
""fullscreenenter"",""1"",""2753""
","
",,2102.2,"<p>Now that you know how  to dig for space treasure and travel to new planets,you can start exploring! </p><p>Do you want to go over the instructions again or get started with the real game?</p>",,,,,,,1,,,,,,1,,,,,,,,,,,,
alien_welcome,63,389902,0.0-23.0-0.0,"""event"",""trial"",""time""
""fullscreenenter"",""1"",""2753""
","
","
","""event"",""trial"",""time""
""fullscreenenter"",""1"",""2753""
","
",,null,run_exp/static/images/task_images/aliens/old_aliens/planet/alien_planet-44.jpg,null,,,,,,,,,,,,,44,"44,13,15,38,43,12,68,6,32,22,5,16,67,30,48,29,80,2,23,60,76,34,17,33,45,65,47,55,19,54",,,,,,,,,,
land,64,390423,0.0-23.0-1.0,"""event"",""trial"",""time""
""fullscreenenter"",""1"",""2753""
","
","
","""event"",""trial"",""time""
""fullscreenenter"",""1"",""2753""
","
",,null,run_exp/static/images/task_images/land.jpg,null,,,,,,,101,,,1,,,,,,,,,,,,,,
dig,65,392436,0.0-23.0-2.0,"""event"",""trial"",""time""
""fullscreenenter"",""1"",""2753""
","
","
","""event"",""trial"",""time""
""fullscreenenter"",""1"",""2753""
","
",,,,,,,,,,,,"[{""stimulus"":""run_exp/static/images/task_images/dig.jpg"",""time"":0.2999999523162842},{""stimulus"":""run_exp/static/images/task_images/land.jpg"",""time"":688.2000000476837},{""stimulus"":""run_exp/static/images/task_images/dig.jpg"",""time"":1337.8999998569489}]",[],1,,,,,,,,,,,,,,
harvest,66,393454,0.0-23.0-3.0,"""event"",""trial"",""time""
""fullscreenenter"",""1"",""2753""
","
","
","""event"",""trial"",""time""
""fullscreenenter"",""1"",""2753""
","
",,null,run_exp/static/images/task_images/gems/101.jpg,null,,,,,,,17,,,1,,,,,101,0.167704313,0.168316832,,,,,,,
decision,67,393938,0.0-23.0-4.0,"""event"",""trial"",""time""
""fullscreenenter"",""1"",""2753""
","
","
","""event"",""trial"",""time""
""fullscreenenter"",""1"",""2753""
","
",,481.8000002,run_exp/static/images/task_images/land.jpg,65,,,,,,,17,,,1,,,,,,,,9046,1,0,FALSE,,,
dig,68,396468,0.0-24.0-0.0,"""event"",""trial"",""time""
""fullscreenenter"",""1"",""2753""
","
","
","""event"",""trial"",""time""
""fullscreenenter"",""1"",""2753""
","
",,,,,,,,,,,,"[{""stimulus"":""run_exp/static/images/task_images/dig.jpg"",""time"":0.10000014305114746},{""stimulus"":""run_exp/static/images/task_images/land.jpg"",""time"":853.9000000953674},{""stimulus"":""run_exp/static/images/task_images/dig.jpg"",""time"":1682.5}]",[],1,,,,,,,,,,,,,,
harvest,69,397473,0.0-24.0-1.0,"""event"",""trial"",""time""
""fullscreenenter"",""1"",""2753""
","
","
","""event"",""trial"",""time""
""fullscreenenter"",""1"",""2753""
","
",,null,run_exp/static/images/task_images/gems/17.jpg,null,,,,,,,4,,,1,,,,,17,0.238663282,0.235294118,,,,,,,
decision,70,397798,0.0-24.0-2.0,"""event"",""trial"",""time""
""fullscreenenter"",""1"",""2753""
","
","
","""event"",""trial"",""time""
""fullscreenenter"",""1"",""2753""
","
",,323,run_exp/static/images/task_images/land.jpg,65,,,,,,,4,,,1,,,,,,,,12906,1,1,FALSE,,,
dig,71,400482,0.0-25.0-0.0,"""event"",""trial"",""time""
""fullscreenenter"",""1"",""2753""
","
","
","""event"",""trial"",""time""
""fullscreenenter"",""1"",""2753""
","
",,,,,,,,,,,,"[{""stimulus"":""run_exp/static/images/task_images/dig.jpg"",""time"":0.19999980926513672},{""stimulus"":""run_exp/static/images/task_images/land.jpg"",""time"":900.1999998092651},{""stimulus"":""run_exp/static/images/task_images/dig.jpg"",""time"":1792.6999998092651}]",[],1,,,,,,,,,,,,,,
harvest,72,401489,0.0-25.0-1.0,"""event"",""trial"",""time""
""fullscreenenter"",""1"",""2753""
","
","
","""event"",""trial"",""time""
""fullscreenenter"",""1"",""2753""
","
",,null,run_exp/static/images/task_images/gems/4.jpg,null,,,,,,,1,,,1,,,,,4,0.190191324,0.25,,,,,,,
decision,73,404499,0.0-25.0-2.0,"""event"",""trial"",""time""
""fullscreenenter"",""1"",""2753""
","
","
","""event"",""trial"",""time""
""fullscreenenter"",""1"",""2753""
","
",,null,run_exp/static/images/task_images/land.jpg,null,,,,,,,1,,,1,,,,,,,,19607,1,2,FALSE,,,
time_out,74,406514,0.0-26.0-0.0,"""event"",""trial"",""time""
""fullscreenenter"",""1"",""2753""
","
","
","""event"",""trial"",""time""
""fullscreenenter"",""1"",""2753""
","
",,null,run_exp/static/images/task_images/time_out.jpg,null,,,,,,,1,,,,,,,,,,,,,,,,,
decision,75,409529,0.0-26.0-1.0,"""event"",""trial"",""time""
""fullscreenenter"",""1"",""2753""
","
","
","""event"",""trial"",""time""
""fullscreenenter"",""1"",""2753""
","
",,null,run_exp/static/images/task_images/land.jpg,null,,,,,,,1,,,1,,,,,,,,24637,1,2,FALSE,,,
time_out,76,411544,0.0-27.0-0.0,"""event"",""trial"",""time""
""fullscreenenter"",""1"",""2753""
","
","
","""event"",""trial"",""time""
""fullscreenenter"",""1"",""2753""
","
",,null,run_exp/static/images/task_images/time_out.jpg,null,,,,,,,1,,,,,,,,,,,,,,,,,
decision,77,412509,0.0-27.0-1.0,"""event"",""trial"",""time""
""fullscreenenter"",""1"",""2753""
","
","
","""event"",""trial"",""time""
""fullscreenenter"",""1"",""2753""
","
",,963.3999999,run_exp/static/images/task_images/land.jpg,76,,,,,,,1,,,1,,,,,,,,27617,1,2,TRUE,,,
travel,78,421560,0.0-28.0-0.0,"""event"",""trial"",""time""
""fullscreenenter"",""1"",""2753""
","
","
","""event"",""trial"",""time""
""fullscreenenter"",""1"",""2753""
","
",,,,,,,,,,,,"[{""stimulus"":""run_exp/static/images/task_images/rocket-01.jpg"",""time"":0.10000014305114746},{""stimulus"":""run_exp/static/images/task_images/rocket-02.jpg"",""time"":1015.5},{""stimulus"":""run_exp/static/images/task_images/rocket-03.jpg"",""time"":2016.7000000476837},{""stimulus"":""run_exp/static/images/task_images/rocket-04.jpg"",""time"":3023.2999999523163},{""stimulus"":""run_exp/static/images/task_images/rocket-05.jpg"",""time"":4020.5},{""stimulus"":""run_exp/static/images/task_images/rocket-06.jpg"",""time"":5031.900000095367},{""stimulus"":""run_exp/static/images/task_images/rocket-07.jpg"",""time"":6027},{""stimulus"":""run_exp/static/images/task_images/rocket-08.jpg"",""time"":7033.299999952316},{""stimulus"":""run_exp/static/images/task_images/rocket-09.jpg"",""time"":8034.400000095367}]",[],1,,,,,,,,,,,,,,
alien_welcome,79,426577,0.0-28.0-1.0,"""event"",""trial"",""time""
""fullscreenenter"",""1"",""2753""
","
","
","""event"",""trial"",""time""
""fullscreenenter"",""1"",""2753""
","
",,null,run_exp/static/images/task_images/aliens/old_aliens/planet/alien_planet-13.jpg,null,,,,,,,,,,,,,13,"44,13,15,38,43,12,68,6,32,22,5,16,67,30,48,29,80,2,23,60,76,34,17,33,45,65,47,55,19,54",,,,,,,,,,
land,80,427090,0.0-28.0-2.0,"""event"",""trial"",""time""
""fullscreenenter"",""1"",""2753""
","
","
","""event"",""trial"",""time""
""fullscreenenter"",""1"",""2753""
","
",,null,run_exp/static/images/task_images/land.jpg,null,,,,,,,102,,,2,,,,,,,,,,,,,,
dig,81,429115,0.0-28.0-3.0,"""event"",""trial"",""time""
""fullscreenenter"",""1"",""2753""
","
","
","""event"",""trial"",""time""
""fullscreenenter"",""1"",""2753""
","
",,,,,,,,,,,,"[{""stimulus"":""run_exp/static/images/task_images/dig.jpg"",""time"":0.20000004768371582},{""stimulus"":""run_exp/static/images/task_images/land.jpg"",""time"":679.6000001430511},{""stimulus"":""run_exp/static/images/task_images/dig.jpg"",""time"":1343.2000000476837}]",[],2,,,,,,,,,,,,,,
harvest,82,430121,0.0-28.0-4.0,"""event"",""trial"",""time""
""fullscreenenter"",""1"",""2753""
","
","
","""event"",""trial"",""time""
""fullscreenenter"",""1"",""2753""
","
",,null,run_exp/static/images/task_images/gems/102.jpg,null,,,,,,,24,,,2,,,,,102,0.23994329,0.235294118,,,,,,,
decision,83,430539,0.0-28.0-5.0,"""event"",""trial"",""time""
""fullscreenenter"",""1"",""2753""
","
","
","""event"",""trial"",""time""
""fullscreenenter"",""1"",""2753""
","
",,416.3000002,run_exp/static/images/task_images/land.jpg,65,,,,,,,24,,,2,,,,,,,,45647,1,0,FALSE,,,
dig,84,433137,0.0-29.0-0.0,"""event"",""trial"",""time""
""fullscreenenter"",""1"",""2753""
","
","
","""event"",""trial"",""time""
""fullscreenenter"",""1"",""2753""
","
",,,,,,,,,,,,"[{""stimulus"":""run_exp/static/images/task_images/dig.jpg"",""time"":0.10000014305114746},{""stimulus"":""run_exp/static/images/task_images/land.jpg"",""time"":863},{""stimulus"":""run_exp/static/images/task_images/dig.jpg"",""time"":1736.2000000476837}]",[],2,,,,,,,,,,,,,,
harvest,85,434149,0.0-29.0-1.0,"""event"",""trial"",""time""
""fullscreenenter"",""1"",""2753""
","
","
","""event"",""trial"",""time""
""fullscreenenter"",""1"",""2753""
","
",,null,run_exp/static/images/task_images/gems/24.jpg,null,,,,,,,6,,,2,,,,,24,0.240124015,0.25,,,,,,,
decision,86,435010,0.0-29.0-2.0,"""event"",""trial"",""time""
""fullscreenenter"",""1"",""2753""
","
","
","""event"",""trial"",""time""
""fullscreenenter"",""1"",""2753""
","
",,859.1999998,run_exp/static/images/task_images/land.jpg,65,,,,,,,6,,,2,,,,,,,,50118,1,1,FALSE,,,
dig,87,437155,0.0-30.0-0.0,"""event"",""trial"",""time""
""fullscreenenter"",""1"",""2753""
","
","
","""event"",""trial"",""time""
""fullscreenenter"",""1"",""2753""
","
",,,,,,,,,,,,"[{""stimulus"":""run_exp/static/images/task_images/dig.jpg"",""time"":0.2999999523162842},{""stimulus"":""run_exp/static/images/task_images/land.jpg"",""time"":722},{""stimulus"":""run_exp/static/images/task_images/dig.jpg"",""time"":1430.8999998569489}]",[],2,,,,,,,,,,,,,,
harvest,88,438169,0.0-30.0-1.0,"""event"",""trial"",""time""
""fullscreenenter"",""1"",""2753""
","
","
","""event"",""trial"",""time""
""fullscreenenter"",""1"",""2753""
","
",,null,run_exp/static/images/task_images/gems/6.jpg,null,,,,,,,1,,,2,,,,,6,0.17996957,0.166666667,,,,,,,
decision,89,438179,0.0-30.0-2.0,"""event"",""trial"",""time""
""fullscreenenter"",""1"",""2753""
","
","
","""event"",""trial"",""time""
""fullscreenenter"",""1"",""2753""
","
",,9.099999905,run_exp/static/images/task_images/land.jpg,76,,,,,,,1,,,2,,,,,,,,53287,1,2,TRUE,,,
travel,90,448175,0.0-31.0-0.0,"""event"",""trial"",""time""
""fullscreenenter"",""1"",""2753""
","
","
","""event"",""trial"",""time""
""fullscreenenter"",""1"",""2753""
","
",,,,,,,,,,,,"[{""stimulus"":""run_exp/static/images/task_images/rocket-01.jpg"",""time"":0.10000014305114746},{""stimulus"":""run_exp/static/images/task_images/rocket-02.jpg"",""time"":1113.4000000953674},{""stimulus"":""run_exp/static/images/task_images/rocket-03.jpg"",""time"":2228.2000000476837},{""stimulus"":""run_exp/static/images/task_images/rocket-04.jpg"",""time"":3338.7000000476837},{""stimulus"":""run_exp/static/images/task_images/rocket-05.jpg"",""time"":4456.300000190735},{""stimulus"":""run_exp/static/images/task_images/rocket-06.jpg"",""time"":5566.300000190735},{""stimulus"":""run_exp/static/images/task_images/rocket-07.jpg"",""time"":6661.800000190735},{""stimulus"":""run_exp/static/images/task_images/rocket-08.jpg"",""time"":7774.700000047684},{""stimulus"":""run_exp/static/images/task_images/rocket-09.jpg"",""time"":8884.400000095367}]",[],2,,,,,,,,,,,,,,
alien_welcome,91,453185,0.0-31.0-1.0,"""event"",""trial"",""time""
""fullscreenenter"",""1"",""2753""
","
","
","""event"",""trial"",""time""
""fullscreenenter"",""1"",""2753""
","
",,null,run_exp/static/images/task_images/aliens/old_aliens/planet/alien_planet-15.jpg,null,,,,,,,,,,,,,15,"44,13,15,38,43,12,68,6,32,22,5,16,67,30,48,29,80,2,23,60,76,34,17,33,45,65,47,55,19,54",,,,,,,,,,
land,92,453701,0.0-31.0-2.0,"""event"",""trial"",""time""
""fullscreenenter"",""1"",""2753""
","
","
","""event"",""trial"",""time""
""fullscreenenter"",""1"",""2753""
","
",,null,run_exp/static/images/task_images/land.jpg,null,,,,,,,95,,,3,,,,,,,,,,,,,,
dig,93,455718,0.0-31.0-3.0,"""event"",""trial"",""time""
""fullscreenenter"",""1"",""2753""
","
","
","""event"",""trial"",""time""
""fullscreenenter"",""1"",""2753""
","
",,,,,,,,,,,,"[{""stimulus"":""run_exp/static/images/task_images/dig.jpg"",""time"":0.39999985694885254},{""stimulus"":""run_exp/static/images/task_images/land.jpg"",""time"":673.2999999523163},{""stimulus"":""run_exp/static/images/task_images/dig.jpg"",""time"":1337.7999999523163}]",[],3,,,,,,,,,,,,,,
harvest,94,456731,0.0-31.0-4.0,"""event"",""trial"",""time""
""fullscreenenter"",""1"",""2753""
","
","
","""event"",""trial"",""time""
""fullscreenenter"",""1"",""2753""
","
",,null,run_exp/static/images/task_images/gems/95.jpg,null,,,,,,,41,,,3,,,,,95,0.43143305,0.431578947,,,,,,,
decision,95,456859,0.0-31.0-5.0,"""event"",""trial"",""time""
""fullscreenenter"",""1"",""2753""
","
","
","""event"",""trial"",""time""
""fullscreenenter"",""1"",""2753""
","
",,126.3,run_exp/static/images/task_images/land.jpg,65,,,,,,,41,,,3,,,,,,,,71968,1,0,FALSE,,,
dig,96,459747,0.0-32.0-0.0,"""event"",""trial"",""time""
""fullscreenenter"",""1"",""2753""
","
","
","""event"",""trial"",""time""
""fullscreenenter"",""1"",""2753""
","
",,,,,,,,,,,,"[{""stimulus"":""run_exp/static/images/task_images/dig.jpg"",""time"":0.19999980926513672},{""stimulus"":""run_exp/static/images/task_images/land.jpg"",""time"":963.6999998092651},{""stimulus"":""run_exp/static/images/task_images/dig.jpg"",""time"":1930.6999998092651}]",[],3,,,,,,,,,,,,,,
harvest,97,460763,0.0-32.0-1.0,"""event"",""trial"",""time""
""fullscreenenter"",""1"",""2753""
","
","
","""event"",""trial"",""time""
""fullscreenenter"",""1"",""2753""
","
",,null,run_exp/static/images/task_images/gems/41.jpg,null,,,,,,,20,,,3,,,,,41,0.483238777,0.487804878,,,,,,,
decision,98,461549,0.0-32.0-2.0,"""event"",""trial"",""time""
""fullscreenenter"",""1"",""2753""
","
","
","""event"",""trial"",""time""
""fullscreenenter"",""1"",""2753""
","
",,784.7,run_exp/static/images/task_images/land.jpg,65,,,,,,,20,,,3,,,,,,,,76658,1,1,FALSE,,,
dig,99,463779,0.0-33.0-0.0,"""event"",""trial"",""time""
""fullscreenenter"",""1"",""2753""
","
","
","""event"",""trial"",""time""
""fullscreenenter"",""1"",""2753""
","
",,,,,,,,,,,,"[{""stimulus"":""run_exp/static/images/task_images/dig.jpg"",""time"":0.20000004768371582},{""stimulus"":""run_exp/static/images/task_images/land.jpg"",""time"":752.5999999046326},{""stimulus"":""run_exp/static/images/task_images/dig.jpg"",""time"":1492.2000000476837}]",[],3,,,,,,,,,,,,,,
harvest,100,464795,0.0-33.0-1.0,"""event"",""trial"",""time""
""fullscreenenter"",""1"",""2753""
","
","
","""event"",""trial"",""time""
""fullscreenenter"",""1"",""2753""
","
",,null,run_exp/static/images/task_images/gems/20.jpg,null,,,,,,,9,,,3,,,,,20,0.445174752,0.45,,,,,,,
decision,101,465719,0.0-33.0-2.0,"""event"",""trial"",""time""
""fullscreenenter"",""1"",""2753""
","
","
","""event"",""trial"",""time""
""fullscreenenter"",""1"",""2753""
","
",,921.8999999,run_exp/static/images/task_images/land.jpg,76,,,,,,,9,,,3,,,,,,,,80827,1,2,TRUE,,,
travel,102,474811,0.0-34.0-0.0,"""event"",""trial"",""time""
""fullscreenenter"",""1"",""2753""
","
","
","""event"",""trial"",""time""
""fullscreenenter"",""1"",""2753""
","
",,,,,,,,,,,,"[{""stimulus"":""run_exp/static/images/task_images/rocket-01.jpg"",""time"":0.09999990463256836},{""stimulus"":""run_exp/static/images/task_images/rocket-02.jpg"",""time"":1010.0999999046326},{""stimulus"":""run_exp/static/images/task_images/rocket-03.jpg"",""time"":2027.0999999046326},{""stimulus"":""run_exp/static/images/task_images/rocket-04.jpg"",""time"":3033.7000000476837},{""stimulus"":""run_exp/static/images/task_images/rocket-05.jpg"",""time"":4034},{""stimulus"":""run_exp/static/images/task_images/rocket-06.jpg"",""time"":5041.099999904633},{""stimulus"":""run_exp/static/images/task_images/rocket-07.jpg"",""time"":6063.799999952316},{""stimulus"":""run_exp/static/images/task_images/rocket-08.jpg"",""time"":7072.299999952316},{""stimulus"":""run_exp/static/images/task_images/rocket-09.jpg"",""time"":8079.299999952316}]",[],3,,,,,,,,,,,,,,
alien_welcome,103,479825,0.0-34.0-1.0,"""event"",""trial"",""time""
""fullscreenenter"",""1"",""2753""
","
","
","""event"",""trial"",""time""
""fullscreenenter"",""1"",""2753""
","
",,null,run_exp/static/images/task_images/aliens/old_aliens/planet/alien_planet-38.jpg,null,,,,,,,,,,,,,38,"44,13,15,38,43,12,68,6,32,22,5,16,67,30,48,29,80,2,23,60,76,34,17,33,45,65,47,55,19,54",,,,,,,,,,
land,104,480340,0.0-34.0-2.0,"""event"",""trial"",""time""
""fullscreenenter"",""1"",""2753""
","
","
","""event"",""trial"",""time""
""fullscreenenter"",""1"",""2753""
","
",,null,run_exp/static/images/task_images/land.jpg,null,,,,,,,99,,,4,,,,,,,,,,,,,,
dig,105,482356,0.0-34.0-3.0,"""event"",""trial"",""time""
""fullscreenenter"",""1"",""2753""
","
","
","""event"",""trial"",""time""
""fullscreenenter"",""1"",""2753""
","
",,,,,,,,,,,,"[{""stimulus"":""run_exp/static/images/task_images/dig.jpg"",""time"":0.2999999523162842},{""stimulus"":""run_exp/static/images/task_images/land.jpg"",""time"":671.3999998569489},{""stimulus"":""run_exp/static/images/task_images/dig.jpg"",""time"":1342}]",[],4,,,,,,,,,,,,,,
harvest,106,483365,0.0-34.0-4.0,"""event"",""trial"",""time""
""fullscreenenter"",""1"",""2753""
","
","
","""event"",""trial"",""time""
""fullscreenenter"",""1"",""2753""
","
",,null,run_exp/static/images/task_images/gems/99.jpg,null,,,,,,,56,,,4,,,,,99,0.567858746,0.565656566,,,,,,,
decision,107,483729,0.0-34.0-5.0,"""event"",""trial"",""time""
""fullscreenenter"",""1"",""2753""
","
","
","""event"",""trial"",""time""
""fullscreenenter"",""1"",""2753""
","
",,362.5,run_exp/static/images/task_images/land.jpg,65,,,,,,,56,,,4,,,,,,,,98837,1,0,FALSE,,,
dig,108,486372,0.0-35.0-0.0,"""event"",""trial"",""time""
""fullscreenenter"",""1"",""2753""
","
","
","""event"",""trial"",""time""
""fullscreenenter"",""1"",""2753""
","
",,,,,,,,,,,,"[{""stimulus"":""run_exp/static/images/task_images/dig.jpg"",""time"":0.20000004768371582},{""stimulus"":""run_exp/static/images/task_images/land.jpg"",""time"":890.0999999046326},{""stimulus"":""run_exp/static/images/task_images/dig.jpg"",""time"":1764.2999999523163}]",[],4,,,,,,,,,,,,,,
harvest,109,487389,0.0-35.0-1.0,"""event"",""trial"",""time""
""fullscreenenter"",""1"",""2753""
","
","
","""event"",""trial"",""time""
""fullscreenenter"",""1"",""2753""
","
",,null,run_exp/static/images/task_images/gems/56.jpg,null,,,,,,,22,,,4,,,,,56,0.384199181,0.392857143,,,,,,,
decision,110,487710,0.0-35.0-2.0,"""event"",""trial"",""time""
""fullscreenenter"",""1"",""2753""
","
","
","""event"",""trial"",""time""
""fullscreenenter"",""1"",""2753""
","
",,318.3999999,run_exp/static/images/task_images/land.jpg,65,,,,,,,22,,,4,,,,,,,,102818,1,1,FALSE,,,
dig,111,490403,0.0-36.0-0.0,"""event"",""trial"",""time""
""fullscreenenter"",""1"",""2753""
","
","
","""event"",""trial"",""time""
""fullscreenenter"",""1"",""2753""
","
",,,,,,,,,,,,"[{""stimulus"":""run_exp/static/images/task_images/dig.jpg"",""time"":0.2999999523162842},{""stimulus"":""run_exp/static/images/task_images/land.jpg"",""time"":902.5999999046326},{""stimulus"":""run_exp/static/images/task_images/dig.jpg"",""time"":1802.2999999523163}]",[],4,,,,,,,,,,,,,,
harvest,112,491420,0.0-36.0-1.0,"""event"",""trial"",""time""
""fullscreenenter"",""1"",""2753""
","
","
","""event"",""trial"",""time""
""fullscreenenter"",""1"",""2753""
","
",,null,run_exp/static/images/task_images/gems/22.jpg,null,,,,,,,11,,,4,,,,,22,0.489846036,0.5,,,,,,,
decision,113,491880,0.0-36.0-2.0,"""event"",""trial"",""time""
""fullscreenenter"",""1"",""2753""
","
","
","""event"",""trial"",""time""
""fullscreenenter"",""1"",""2753""
","
",,457.5999999,run_exp/static/images/task_images/land.jpg,65,,,,,,,11,,,4,,,,,,,,106988,1,2,FALSE,,,
dig,114,494434,0.0-37.0-0.0,"""event"",""trial"",""time""
""fullscreenenter"",""1"",""2753""
","
","
","""event"",""trial"",""time""
""fullscreenenter"",""1"",""2753""
","
",,,,,,,,,,,,"[{""stimulus"":""run_exp/static/images/task_images/dig.jpg"",""time"":0.2999999523162842},{""stimulus"":""run_exp/static/images/task_images/land.jpg"",""time"":851.5},{""stimulus"":""run_exp/static/images/task_images/dig.jpg"",""time"":1707.3999998569489}]",[],4,,,,,,,,,,,,,,
harvest,115,495451,0.0-37.0-1.0,"""event"",""trial"",""time""
""fullscreenenter"",""1"",""2753""
","
","
","""event"",""trial"",""time""
""fullscreenenter"",""1"",""2753""
","
",,null,run_exp/static/images/task_images/gems/11.jpg,null,,,,,,,5,,,4,,,,,11,0.454150945,0.454545455,,,,,,,
decision,116,496160,0.0-37.0-2.0,"""event"",""trial"",""time""
""fullscreenenter"",""1"",""2753""
","
","
","""event"",""trial"",""time""
""fullscreenenter"",""1"",""2753""
","
",,707,run_exp/static/images/task_images/land.jpg,76,,,,,,,5,,,4,,,,,,,,111268,1,3,TRUE,,,
travel,117,505461,0.0-38.0-0.0,"""event"",""trial"",""time""
""fullscreenenter"",""1"",""2753""
","
","
","""event"",""trial"",""time""
""fullscreenenter"",""1"",""2753""
","
",,,,,,,,,,,,"[{""stimulus"":""run_exp/static/images/task_images/rocket-01.jpg"",""time"":0.2999999523162842},{""stimulus"":""run_exp/static/images/task_images/rocket-02.jpg"",""time"":1037.7000000476837},{""stimulus"":""run_exp/static/images/task_images/rocket-03.jpg"",""time"":2068.600000143051},{""stimulus"":""run_exp/static/images/task_images/rocket-04.jpg"",""time"":3100.9000000953674},{""stimulus"":""run_exp/static/images/task_images/rocket-05.jpg"",""time"":4138.700000047684},{""stimulus"":""run_exp/static/images/task_images/rocket-06.jpg"",""time"":5162.600000143051},{""stimulus"":""run_exp/static/images/task_images/rocket-07.jpg"",""time"":6197.5},{""stimulus"":""run_exp/static/images/task_images/rocket-08.jpg"",""time"":7226.299999952316},{""stimulus"":""run_exp/static/images/task_images/rocket-09.jpg"",""time"":8267.600000143051}]",[],4,,,,,,,,,,,,,,
alien_welcome,118,510467,0.0-38.0-1.0,"""event"",""trial"",""time""
""fullscreenenter"",""1"",""2753""
","
","
","""event"",""trial"",""time""
""fullscreenenter"",""1"",""2753""
","
",,null,run_exp/static/images/task_images/aliens/old_aliens/planet/alien_planet-43.jpg,null,,,,,,,,,,,,,43,"44,13,15,38,43,12,68,6,32,22,5,16,67,30,48,29,80,2,23,60,76,34,17,33,45,65,47,55,19,54",,,,,,,,,,
land,119,510981,0.0-38.0-2.0,"""event"",""trial"",""time""
""fullscreenenter"",""1"",""2753""
","
","
","""event"",""trial"",""time""
""fullscreenenter"",""1"",""2753""
","
",,null,run_exp/static/images/task_images/land.jpg,null,,,,,,,102,,,5,,,,,,,,,,,,,,
dig,120,513005,0.0-38.0-3.0,"""event"",""trial"",""time""
""fullscreenenter"",""1"",""2753""
","
","
","""event"",""trial"",""time""
""fullscreenenter"",""1"",""2753""
","
",,,,,,,,,,,,"[{""stimulus"":""run_exp/static/images/task_images/dig.jpg"",""time"":0.40000009536743164},{""stimulus"":""run_exp/static/images/task_images/land.jpg"",""time"":672},{""stimulus"":""run_exp/static/images/task_images/dig.jpg"",""time"":1342.2000000476837}]",[],5,,,,,,,,,,,,,,
harvest,121,514013,0.0-38.0-4.0,"""event"",""trial"",""time""
""fullscreenenter"",""1"",""2753""
","
","
","""event"",""trial"",""time""
""fullscreenenter"",""1"",""2753""
","
",,null,run_exp/static/images/task_images/gems/102.jpg,null,,,,,,,50,,,5,,,,,102,0.485898861,0.490196078,,,,,,,
decision,122,514300,0.0-38.0-5.0,"""event"",""trial"",""time""
""fullscreenenter"",""1"",""2753""
","
","
","""event"",""trial"",""time""
""fullscreenenter"",""1"",""2753""
","
",,284.8999999,run_exp/static/images/task_images/land.jpg,65,,,,,,,50,,,5,,,,,,,,129408,1,0,FALSE,,,
dig,123,517035,0.0-39.0-0.0,"""event"",""trial"",""time""
""fullscreenenter"",""1"",""2753""
","
","
","""event"",""trial"",""time""
""fullscreenenter"",""1"",""2753""
","
",,,,,,,,,,,,"[{""stimulus"":""run_exp/static/images/task_images/dig.jpg"",""time"":0.20000004768371582},{""stimulus"":""run_exp/static/images/task_images/land.jpg"",""time"":914.6000001430511},{""stimulus"":""run_exp/static/images/task_images/dig.jpg"",""time"":1819.7999999523163}]",[],5,,,,,,,,,,,,,,
harvest,124,518044,0.0-39.0-1.0,"""event"",""trial"",""time""
""fullscreenenter"",""1"",""2753""
","
","
","""event"",""trial"",""time""
""fullscreenenter"",""1"",""2753""
","
",,null,run_exp/static/images/task_images/gems/50.jpg,null,,,,,,,23,,,5,,,,,50,0.459202212,0.46,,,,,,,
decision,125,518339,0.0-39.0-2.0,"""event"",""trial"",""time""
""fullscreenenter"",""1"",""2753""
","
","
","""event"",""trial"",""time""
""fullscreenenter"",""1"",""2753""
","
",,293,run_exp/static/images/task_images/land.jpg,65,,,,,,,23,,,5,,,,,,,,133447,1,1,FALSE,,,
dig,126,521051,0.0-40.0-0.0,"""event"",""trial"",""time""
""fullscreenenter"",""1"",""2753""
","
","
","""event"",""trial"",""time""
""fullscreenenter"",""1"",""2753""
","
",,,,,,,,,,,,"[{""stimulus"":""run_exp/static/images/task_images/dig.jpg"",""time"":0.09999990463256836},{""stimulus"":""run_exp/static/images/task_images/land.jpg"",""time"":909.5999999046326},{""stimulus"":""run_exp/static/images/task_images/dig.jpg"",""time"":1813.3999998569489}]",[],5,,,,,,,,,,,,,,
harvest,127,522060,0.0-40.0-1.0,"""event"",""trial"",""time""
""fullscreenenter"",""1"",""2753""
","
","
","""event"",""trial"",""time""
""fullscreenenter"",""1"",""2753""
","
",,null,run_exp/static/images/task_images/gems/23.jpg,null,,,,,,,10,,,5,,,,,23,0.44857356,0.434782609,,,,,,,
decision,128,522489,0.0-40.0-2.0,"""event"",""trial"",""time""
""fullscreenenter"",""1"",""2753""
","
","
","""event"",""trial"",""time""
""fullscreenenter"",""1"",""2753""
","
",,427.3999999,run_exp/static/images/task_images/land.jpg,65,,,,,,,10,,,5,,,,,,,,137598,1,2,FALSE,,,
dig,129,525065,0.0-41.0-0.0,"""event"",""trial"",""time""
""fullscreenenter"",""1"",""2753""
","
","
","""event"",""trial"",""time""
""fullscreenenter"",""1"",""2753""
","
",,,,,,,,,,,,"[{""stimulus"":""run_exp/static/images/task_images/dig.jpg"",""time"":0.20000004768371582},{""stimulus"":""run_exp/static/images/task_images/land.jpg"",""time"":862.6000001430511},{""stimulus"":""run_exp/static/images/task_images/dig.jpg"",""time"":1722.2999999523163}]",[],5,,,,,,,,,,,,,,
harvest,130,526075,0.0-41.0-1.0,"""event"",""trial"",""time""
""fullscreenenter"",""1"",""2753""
","
","
","""event"",""trial"",""time""
""fullscreenenter"",""1"",""2753""
","
",,null,run_exp/static/images/task_images/gems/10.jpg,null,,,,,,,6,,,5,,,,,10,0.582958888,0.6,,,,,,,
decision,131,526271,0.0-41.0-2.0,"""event"",""trial"",""time""
""fullscreenenter"",""1"",""2753""
","
","
","""event"",""trial"",""time""
""fullscreenenter"",""1"",""2753""
","
",,193.8,run_exp/static/images/task_images/land.jpg,65,,,,,,,6,,,5,,,,,,,,141379,1,3,FALSE,,,
dig,132,529091,0.0-42.0-0.0,"""event"",""trial"",""time""
""fullscreenenter"",""1"",""2753""
","
","
","""event"",""trial"",""time""
""fullscreenenter"",""1"",""2753""
","
",,,,,,,,,,,,"[{""stimulus"":""run_exp/static/images/task_images/dig.jpg"",""time"":0.10000014305114746},{""stimulus"":""run_exp/static/images/task_images/land.jpg"",""time"":951.3000001907349},{""stimulus"":""run_exp/static/images/task_images/dig.jpg"",""time"":1881.7000000476837}]",[],5,,,,,,,,,,,,,,
harvest,133,530106,0.0-42.0-1.0,"""event"",""trial"",""time""
""fullscreenenter"",""1"",""2753""
","
","
","""event"",""trial"",""time""
""fullscreenenter"",""1"",""2753""
","
",,null,run_exp/static/images/task_images/gems/6.jpg,null,,,,,,,3,,,5,,,,,6,0.454754196,0.5,,,,,,,
decision,134,530499,0.0-42.0-2.0,"""event"",""trial"",""time""
""fullscreenenter"",""1"",""2753""
","
","
","""event"",""trial"",""time""
""fullscreenenter"",""1"",""2753""
","
",,391.2,run_exp/static/images/task_images/land.jpg,76,,,,,,,3,,,5,,,,,,,,145607,1,4,TRUE,,,
travel,135,540108,0.0-43.0-0.0,"""event"",""trial"",""time""
""fullscreenenter"",""1"",""2753""
","
","
","""event"",""trial"",""time""
""fullscreenenter"",""1"",""2753""
","
",,,,,,,,,,,,"[{""stimulus"":""run_exp/static/images/task_images/rocket-01.jpg"",""time"":0.09999990463256836},{""stimulus"":""run_exp/static/images/task_images/rocket-02.jpg"",""time"":1082.5999999046326},{""stimulus"":""run_exp/static/images/task_images/rocket-03.jpg"",""time"":2139.899999856949},{""stimulus"":""run_exp/static/images/task_images/rocket-04.jpg"",""time"":3201.899999856949},{""stimulus"":""run_exp/static/images/task_images/rocket-05.jpg"",""time"":4276.199999809265},{""stimulus"":""run_exp/static/images/task_images/rocket-06.jpg"",""time"":5338.399999856949},{""stimulus"":""run_exp/static/images/task_images/rocket-07.jpg"",""time"":6403.299999952316},{""stimulus"":""run_exp/static/images/task_images/rocket-08.jpg"",""time"":7472.599999904633},{""stimulus"":""run_exp/static/images/task_images/rocket-09.jpg"",""time"":8537.799999952316}]",[],5,,,,,,,,,,,,,,
alien_welcome,136,545123,0.0-43.0-1.0,"""event"",""trial"",""time""
""fullscreenenter"",""1"",""2753""
","
","
","""event"",""trial"",""time""
""fullscreenenter"",""1"",""2753""
","
",,null,run_exp/static/images/task_images/aliens/old_aliens/planet/alien_planet-12.jpg,null,,,,,,,,,,,,,12,"44,13,15,38,43,12,68,6,32,22,5,16,67,30,48,29,80,2,23,60,76,34,17,33,45,65,47,55,19,54",,,,,,,,,,
land,137,545638,0.0-43.0-2.0,"""event"",""trial"",""time""
""fullscreenenter"",""1"",""2753""
","
","
","""event"",""trial"",""time""
""fullscreenenter"",""1"",""2753""
","
",,null,run_exp/static/images/task_images/land.jpg,null,,,,,,,96,,,6,,,,,,,,,,,,,,
dig,138,547654,0.0-43.0-3.0,"""event"",""trial"",""time""
""fullscreenenter"",""1"",""2753""
","
","
","""event"",""trial"",""time""
""fullscreenenter"",""1"",""2753""
","
",,,,,,,,,,,,"[{""stimulus"":""run_exp/static/images/task_images/dig.jpg"",""time"":0.2999999523162842},{""stimulus"":""run_exp/static/images/task_images/land.jpg"",""time"":670.8999998569489},{""stimulus"":""run_exp/static/images/task_images/dig.jpg"",""time"":1338.5}]",[],6,,,,,,,,,,,,,,
harvest,139,548669,0.0-43.0-4.0,"""event"",""trial"",""time""
""fullscreenenter"",""1"",""2753""
","
","
","""event"",""trial"",""time""
""fullscreenenter"",""1"",""2753""
","
",,null,run_exp/static/images/task_images/gems/96.jpg,null,,,,,,,82,,,6,,,,,96,0.858946394,0.854166667,,,,,,,
decision,140,549069,0.0-43.0-5.0,"""event"",""trial"",""time""
""fullscreenenter"",""1"",""2753""
","
","
","""event"",""trial"",""time""
""fullscreenenter"",""1"",""2753""
","
",,398,run_exp/static/images/task_images/land.jpg,65,,,,,,,82,,,6,,,,,,,,164177,1,0,FALSE,,,
dig,141,551684,0.0-44.0-0.0,"""event"",""trial"",""time""
""fullscreenenter"",""1"",""2753""
","
","
","""event"",""trial"",""time""
""fullscreenenter"",""1"",""2753""
","
",,,,,,,,,,,,"[{""stimulus"":""run_exp/static/images/task_images/dig.jpg"",""time"":0.20000004768371582},{""stimulus"":""run_exp/static/images/task_images/land.jpg"",""time"":869.4000000953674},{""stimulus"":""run_exp/static/images/task_images/dig.jpg"",""time"":1738.8000001907349}]",[],6,,,,,,,,,,,,,,
harvest,142,552695,0.0-44.0-1.0,"""event"",""trial"",""time""
""fullscreenenter"",""1"",""2753""
","
","
","""event"",""trial"",""time""
""fullscreenenter"",""1"",""2753""
","
",,null,run_exp/static/images/task_images/gems/82.jpg,null,,,,,,,59,,,6,,,,,82,0.718095811,0.719512195,,,,,,,
decision,143,552999,0.0-44.0-2.0,"""event"",""trial"",""time""
""fullscreenenter"",""1"",""2753""
","
","
","""event"",""trial"",""time""
""fullscreenenter"",""1"",""2753""
","
",,303,run_exp/static/images/task_images/land.jpg,65,,,,,,,59,,,6,,,,,,,,168108,1,1,FALSE,,,
dig,144,555717,0.0-45.0-0.0,"""event"",""trial"",""time""
""fullscreenenter"",""1"",""2753""
","
","
","""event"",""trial"",""time""
""fullscreenenter"",""1"",""2753""
","
",,,,,,,,,,,,"[{""stimulus"":""run_exp/static/images/task_images/dig.jpg"",""time"":0.20000004768371582},{""stimulus"":""run_exp/static/images/task_images/land.jpg"",""time"":915.7999999523163},{""stimulus"":""run_exp/static/images/task_images/dig.jpg"",""time"":1808.0999999046326}]",[],6,,,,,,,,,,,,,,
harvest,145,556735,0.0-45.0-1.0,"""event"",""trial"",""time""
""fullscreenenter"",""1"",""2753""
","
","
","""event"",""trial"",""time""
""fullscreenenter"",""1"",""2753""
","
",,null,run_exp/static/images/task_images/gems/59.jpg,null,,,,,,,44,,,6,,,,,59,0.751259475,0.745762712,,,,,,,
decision,146,557010,0.0-45.0-2.0,"""event"",""trial"",""time""
""fullscreenenter"",""1"",""2753""
","
","
","""event"",""trial"",""time""
""fullscreenenter"",""1"",""2753""
","
",,273.0999999,run_exp/static/images/task_images/land.jpg,65,,,,,,,44,,,6,,,,,,,,172118,1,2,FALSE,,,
dig,147,559747,0.0-46.0-0.0,"""event"",""trial"",""time""
""fullscreenenter"",""1"",""2753""
","
","
","""event"",""trial"",""time""
""fullscreenenter"",""1"",""2753""
","
",,,,,,,,,,,,"[{""stimulus"":""run_exp/static/images/task_images/dig.jpg"",""time"":0.2999999523162842},{""stimulus"":""run_exp/static/images/task_images/land.jpg"",""time"":911.6999998092651},{""stimulus"":""run_exp/static/images/task_images/dig.jpg"",""time"":1827.8999998569489}]",[],6,,,,,,,,,,,,,,
harvest,148,560765,0.0-46.0-1.0,"""event"",""trial"",""time""
""fullscreenenter"",""1"",""2753""
","
","
","""event"",""trial"",""time""
""fullscreenenter"",""1"",""2753""
","
",,null,run_exp/static/images/task_images/gems/44.jpg,null,,,,,,,32,,,6,,,,,44,0.720119357,0.727272727,,,,,,,
decision,149,561029,0.0-46.0-2.0,"""event"",""trial"",""time""
""fullscreenenter"",""1"",""2753""
","
","
","""event"",""trial"",""time""
""fullscreenenter"",""1"",""2753""
","
",,262.5999999,run_exp/static/images/task_images/land.jpg,65,,,,,,,32,,,6,,,,,,,,176138,1,3,FALSE,,,
dig,150,563780,0.0-47.0-0.0,"""event"",""trial"",""time""
""fullscreenenter"",""1"",""2753""
","
","
","""event"",""trial"",""time""
""fullscreenenter"",""1"",""2753""
","
",,,,,,,,,,,,"[{""stimulus"":""run_exp/static/images/task_images/dig.jpg"",""time"":0.10000014305114746},{""stimulus"":""run_exp/static/images/task_images/land.jpg"",""time"":922.2000000476837},{""stimulus"":""run_exp/static/images/task_images/dig.jpg"",""time"":1840.5}]",[],6,,,,,,,,,,,,,,
harvest,151,564796,0.0-47.0-1.0,"""event"",""trial"",""time""
""fullscreenenter"",""1"",""2753""
","
","
","""event"",""trial"",""time""
""fullscreenenter"",""1"",""2753""
","
",,null,run_exp/static/images/task_images/gems/32.jpg,null,,,,,,,27,,,6,,,,,32,0.845706247,0.84375,,,,,,,
decision,152,565119,0.0-47.0-2.0,"""event"",""trial"",""time""
""fullscreenenter"",""1"",""2753""
","
","
","""event"",""trial"",""time""
""fullscreenenter"",""1"",""2753""
","
",,321.8,run_exp/static/images/task_images/land.jpg,65,,,,,,,27,,,6,,,,,,,,180227,1,4,FALSE,,,
dig,153,567801,0.0-48.0-0.0,"""event"",""trial"",""time""
""fullscreenenter"",""1"",""2753""
","
","
","""event"",""trial"",""time""
""fullscreenenter"",""1"",""2753""
","
",,,,,,,,,,,,"[{""stimulus"":""run_exp/static/images/task_images/dig.jpg"",""time"":0.20000004768371582},{""stimulus"":""run_exp/static/images/task_images/land.jpg"",""time"":906.2999999523163},{""stimulus"":""run_exp/static/images/task_images/dig.jpg"",""time"":1797.6000001430511}]",[],6,,,,,,,,,,,,,,
harvest,154,568809,0.0-48.0-1.0,"""event"",""trial"",""time""
""fullscreenenter"",""1"",""2753""
","
","
","""event"",""trial"",""time""
""fullscreenenter"",""1"",""2753""
","
",,null,run_exp/static/images/task_images/gems/27.jpg,null,,,,,,,25,,,6,,,,,27,0.929412641,0.925925926,,,,,,,
decision,155,569080,0.0-48.0-2.0,"""event"",""trial"",""time""
""fullscreenenter"",""1"",""2753""
","
","
","""event"",""trial"",""time""
""fullscreenenter"",""1"",""2753""
","
",,269.3,run_exp/static/images/task_images/land.jpg,65,,,,,,,25,,,6,,,,,,,,184188,1,5,FALSE,,,
dig,156,571827,0.0-49.0-0.0,"""event"",""trial"",""time""
""fullscreenenter"",""1"",""2753""
","
","
","""event"",""trial"",""time""
""fullscreenenter"",""1"",""2753""
","
",,,,,,,,,,,,"[{""stimulus"":""run_exp/static/images/task_images/dig.jpg"",""time"":0.20000004768371582},{""stimulus"":""run_exp/static/images/task_images/land.jpg"",""time"":922},{""stimulus"":""run_exp/static/images/task_images/dig.jpg"",""time"":1837.5999999046326}]",[],6,,,,,,,,,,,,,,
harvest,157,572842,0.0-49.0-1.0,"""event"",""trial"",""time""
""fullscreenenter"",""1"",""2753""
","
","
","""event"",""trial"",""time""
""fullscreenenter"",""1"",""2753""
","
",,null,run_exp/static/images/task_images/gems/25.jpg,null,,,,,,,19,,,6,,,,,25,0.777516784,0.76,,,,,,,
decision,158,573179,0.0-49.0-2.0,"""event"",""trial"",""time""
""fullscreenenter"",""1"",""2753""
","
","
","""event"",""trial"",""time""
""fullscreenenter"",""1"",""2753""
","
",,335.3000002,run_exp/static/images/task_images/land.jpg,65,,,,,,,19,,,6,,,,,,,,188287,1,6,FALSE,,,
dig,159,575858,0.0-50.0-0.0,"""event"",""trial"",""time""
""fullscreenenter"",""1"",""2753""
","
","
","""event"",""trial"",""time""
""fullscreenenter"",""1"",""2753""
","
",,,,,,,,,,,,"[{""stimulus"":""run_exp/static/images/task_images/dig.jpg"",""time"":0.2999999523162842},{""stimulus"":""run_exp/static/images/task_images/land.jpg"",""time"":892.6000001430511},{""stimulus"":""run_exp/static/images/task_images/dig.jpg"",""time"":1784.6000001430511}]",[],6,,,,,,,,,,,,,,
harvest,160,576872,0.0-50.0-1.0,"""event"",""trial"",""time""
""fullscreenenter"",""1"",""2753""
","
","
","""event"",""trial"",""time""
""fullscreenenter"",""1"",""2753""
","
",,null,run_exp/static/images/task_images/gems/19.jpg,null,,,,,,,16,,,6,,,,,19,0.816187817,0.842105263,,,,,,,
decision,161,577170,0.0-50.0-2.0,"""event"",""trial"",""time""
""fullscreenenter"",""1"",""2753""
","
","
","""event"",""trial"",""time""
""fullscreenenter"",""1"",""2753""
","
",,296.3999999,run_exp/static/images/task_images/land.jpg,65,,,,,,,16,,,6,,,,,,,,192278,1,7,FALSE,,,
dig,162,579889,0.0-51.0-0.0,"""event"",""trial"",""time""
""fullscreenenter"",""1"",""2753""
","
","
","""event"",""trial"",""time""
""fullscreenenter"",""1"",""2753""
","
",,,,,,,,,,,,"[{""stimulus"":""run_exp/static/images/task_images/dig.jpg"",""time"":0.20000004768371582},{""stimulus"":""run_exp/static/images/task_images/land.jpg"",""time"":917.7999999523163},{""stimulus"":""run_exp/static/images/task_images/dig.jpg"",""time"":1808.2000000476837}]",[],6,,,,,,,,,,,,,,
harvest,163,580895,0.0-51.0-1.0,"""event"",""trial"",""time""
""fullscreenenter"",""1"",""2753""
","
","
","""event"",""trial"",""time""
""fullscreenenter"",""1"",""2753""
","
",,null,run_exp/static/images/task_images/gems/16.jpg,null,,,,,,,13,,,6,,,,,16,0.790726613,0.8125,,,,,,,
decision,164,581210,0.0-51.0-2.0,"""event"",""trial"",""time""
""fullscreenenter"",""1"",""2753""
","
","
","""event"",""trial"",""time""
""fullscreenenter"",""1"",""2753""
","
",,313.5,run_exp/static/images/task_images/land.jpg,65,,,,,,,13,,,6,,,,,,,,196318,1,8,FALSE,,,
dig,165,583909,0.0-52.0-0.0,"""event"",""trial"",""time""
""fullscreenenter"",""1"",""2753""
","
","
","""event"",""trial"",""time""
""fullscreenenter"",""1"",""2753""
","
",,,,,,,,,,,,"[{""stimulus"":""run_exp/static/images/task_images/dig.jpg"",""time"":0.09999990463256836},{""stimulus"":""run_exp/static/images/task_images/land.jpg"",""time"":905.2999999523163},{""stimulus"":""run_exp/static/images/task_images/dig.jpg"",""time"":1800}]",[],6,,,,,,,,,,,,,,
harvest,166,584925,0.0-52.0-1.0,"""event"",""trial"",""time""
""fullscreenenter"",""1"",""2753""
","
","
","""event"",""trial"",""time""
""fullscreenenter"",""1"",""2753""
","
",,null,run_exp/static/images/task_images/gems/13.jpg,null,,,,,,,11,,,6,,,,,13,0.862749054,0.846153846,,,,,,,
decision,167,585189,0.0-52.0-2.0,"""event"",""trial"",""time""
""fullscreenenter"",""1"",""2753""
","
","
","""event"",""trial"",""time""
""fullscreenenter"",""1"",""2753""
","
",,262.2,run_exp/static/images/task_images/land.jpg,65,,,,,,,11,,,6,,,,,,,,200297,1,9,FALSE,,,
dig,168,587936,0.0-53.0-0.0,"""event"",""trial"",""time""
""fullscreenenter"",""1"",""2753""
","
","
","""event"",""trial"",""time""
""fullscreenenter"",""1"",""2753""
","
",,,,,,,,,,,,"[{""stimulus"":""run_exp/static/images/task_images/dig.jpg"",""time"":0.10000014305114746},{""stimulus"":""run_exp/static/images/task_images/land.jpg"",""time"":920.2000000476837},{""stimulus"":""run_exp/static/images/task_images/dig.jpg"",""time"":1835.2000000476837}]",[],6,,,,,,,,,,,,,,
harvest,169,588950,0.0-53.0-1.0,"""event"",""trial"",""time""
""fullscreenenter"",""1"",""2753""
","
","
","""event"",""trial"",""time""
""fullscreenenter"",""1"",""2753""
","
",,null,run_exp/static/images/task_images/gems/11.jpg,null,,,,,,,9,,,6,,,,,11,0.798141196,0.818181818,,,,,,,
decision,170,589300,0.0-53.0-2.0,"""event"",""trial"",""time""
""fullscreenenter"",""1"",""2753""
","
","
","""event"",""trial"",""time""
""fullscreenenter"",""1"",""2753""
","
",,348.9000001,run_exp/static/images/task_images/land.jpg,65,,,,,,,9,,,6,,,,,,,,204408,1,10,FALSE,,,
dig,171,591967,0.0-54.0-0.0,"""event"",""trial"",""time""
""fullscreenenter"",""1"",""2753""
","
","
","""event"",""trial"",""time""
""fullscreenenter"",""1"",""2753""
","
",,,,,,,,,,,,"[{""stimulus"":""run_exp/static/images/task_images/dig.jpg"",""time"":0.20000004768371582},{""stimulus"":""run_exp/static/images/task_images/land.jpg"",""time"":887.7000000476837},{""stimulus"":""run_exp/static/images/task_images/dig.jpg"",""time"":1772.7000000476837}]",[],6,,,,,,,,,,,,,,
harvest,172,592973,0.0-54.0-1.0,"""event"",""trial"",""time""
""fullscreenenter"",""1"",""2753""
","
","
","""event"",""trial"",""time""
""fullscreenenter"",""1"",""2753""
","
",,null,run_exp/static/images/task_images/gems/9.jpg,null,,,,,,,8,,,6,,,,,9,0.846857263,0.888888889,,,,,,,
decision,173,593241,0.0-54.0-2.0,"""event"",""trial"",""time""
""fullscreenenter"",""1"",""2753""
","
","
","""event"",""trial"",""time""
""fullscreenenter"",""1"",""2753""
","
",,265.0999999,run_exp/static/images/task_images/land.jpg,76,,,,,,,8,,,6,,,,,,,,208349,1,11,TRUE,,,
travel,174,602980,0.0-55.0-0.0,"""event"",""trial"",""time""
""fullscreenenter"",""1"",""2753""
","
","
","""event"",""trial"",""time""
""fullscreenenter"",""1"",""2753""
","
",,,,,,,,,,,,"[{""stimulus"":""run_exp/static/images/task_images/rocket-01.jpg"",""time"":0.2999999523162842},{""stimulus"":""run_exp/static/images/task_images/rocket-02.jpg"",""time"":1096},{""stimulus"":""run_exp/static/images/task_images/rocket-03.jpg"",""time"":2179.7000000476837},{""stimulus"":""run_exp/static/images/task_images/rocket-04.jpg"",""time"":3257.7999999523163},{""stimulus"":""run_exp/static/images/task_images/rocket-05.jpg"",""time"":4335.900000095367},{""stimulus"":""run_exp/static/images/task_images/rocket-06.jpg"",""time"":5408.400000095367},{""stimulus"":""run_exp/static/images/task_images/rocket-07.jpg"",""time"":6488.299999952316},{""stimulus"":""run_exp/static/images/task_images/rocket-08.jpg"",""time"":7576},{""stimulus"":""run_exp/static/images/task_images/rocket-09.jpg"",""time"":8655.200000047684}]",[],6,,,,,,,,,,,,,,
alien_welcome,175,607984,0.0-55.0-1.0,"""event"",""trial"",""time""
""fullscreenenter"",""1"",""2753""
","
","
","""event"",""trial"",""time""
""fullscreenenter"",""1"",""2753""
","
",,null,run_exp/static/images/task_images/aliens/old_aliens/planet/alien_planet-68.jpg,null,,,,,,,,,,,,,68,"44,13,15,38,43,12,68,6,32,22,5,16,67,30,48,29,80,2,23,60,76,34,17,33,45,65,47,55,19,54",,,,,,,,,,
land,176,608498,0.0-55.0-2.0,"""event"",""trial"",""time""
""fullscreenenter"",""1"",""2753""
","
","
","""event"",""trial"",""time""
""fullscreenenter"",""1"",""2753""
","
",,null,run_exp/static/images/task_images/land.jpg,null,,,,,,,87,,,7,,,,,,,,,,,,,,
dig,177,610513,0.0-55.0-3.0,"""event"",""trial"",""time""
""fullscreenenter"",""1"",""2753""
","
","
","""event"",""trial"",""time""
""fullscreenenter"",""1"",""2753""
","
",,,,,,,,,,,,"[{""stimulus"":""run_exp/static/images/task_images/dig.jpg"",""time"":0.2999999523162842},{""stimulus"":""run_exp/static/images/task_images/land.jpg"",""time"":669.7000000476837},{""stimulus"":""run_exp/static/images/task_images/dig.jpg"",""time"":1338.7999999523163}]",[],7,,,,,,,,,,,,,,
harvest,178,611530,0.0-55.0-4.0,"""event"",""trial"",""time""
""fullscreenenter"",""1"",""2753""
","
","
","""event"",""trial"",""time""
""fullscreenenter"",""1"",""2753""
","
",,null,run_exp/static/images/task_images/gems/87.jpg,null,,,,,,,72,,,7,,,,,87,0.825512085,0.827586207,,,,,,,
decision,179,611840,0.0-55.0-5.0,"""event"",""trial"",""time""
""fullscreenenter"",""1"",""2753""
","
","
","""event"",""trial"",""time""
""fullscreenenter"",""1"",""2753""
","
",,308.7,run_exp/static/images/task_images/land.jpg,65,,,,,,,72,,,7,,,,,,,,226948,1,0,FALSE,,,
dig,180,614544,0.0-56.0-0.0,"""event"",""trial"",""time""
""fullscreenenter"",""1"",""2753""
","
","
","""event"",""trial"",""time""
""fullscreenenter"",""1"",""2753""
","
",,,,,,,,,,,,"[{""stimulus"":""run_exp/static/images/task_images/dig.jpg"",""time"":0.20000004768371582},{""stimulus"":""run_exp/static/images/task_images/land.jpg"",""time"":912.5},{""stimulus"":""run_exp/static/images/task_images/dig.jpg"",""time"":1809.8999998569489}]",[],7,,,,,,,,,,,,,,
harvest,181,615560,0.0-56.0-1.0,"""event"",""trial"",""time""
""fullscreenenter"",""1"",""2753""
","
","
","""event"",""trial"",""time""
""fullscreenenter"",""1"",""2753""
","
",,null,run_exp/static/images/task_images/gems/72.jpg,null,,,,,,,58,,,7,,,,,72,0.800536644,0.805555556,,,,,,,
decision,182,615870,0.0-56.0-2.0,"""event"",""trial"",""time""
""fullscreenenter"",""1"",""2753""
","
","
","""event"",""trial"",""time""
""fullscreenenter"",""1"",""2753""
","
",,307.7,run_exp/static/images/task_images/land.jpg,65,,,,,,,58,,,7,,,,,,,,230978,1,1,FALSE,,,
dig,183,618575,0.0-57.0-0.0,"""event"",""trial"",""time""
""fullscreenenter"",""1"",""2753""
","
","
","""event"",""trial"",""time""
""fullscreenenter"",""1"",""2753""
","
",,,,,,,,,,,,"[{""stimulus"":""run_exp/static/images/task_images/dig.jpg"",""time"":0.20000004768371582},{""stimulus"":""run_exp/static/images/task_images/land.jpg"",""time"":900.8000001907349},{""stimulus"":""run_exp/static/images/task_images/dig.jpg"",""time"":1810.4000000953674}]",[],7,,,,,,,,,,,,,,
harvest,184,619592,0.0-57.0-1.0,"""event"",""trial"",""time""
""fullscreenenter"",""1"",""2753""
","
","
","""event"",""trial"",""time""
""fullscreenenter"",""1"",""2753""
","
",,null,run_exp/static/images/task_images/gems/58.jpg,null,,,,,,,44,,,7,,,,,58,0.76017429,0.75862069,,,,,,,
decision,185,619881,0.0-57.0-2.0,"""event"",""trial"",""time""
""fullscreenenter"",""1"",""2753""
","
","
","""event"",""trial"",""time""
""fullscreenenter"",""1"",""2753""
","
",,286.2,run_exp/static/images/task_images/land.jpg,65,,,,,,,44,,,7,,,,,,,,234989,1,2,FALSE,,,
dig,186,622607,0.0-58.0-0.0,"""event"",""trial"",""time""
""fullscreenenter"",""1"",""2753""
","
","
","""event"",""trial"",""time""
""fullscreenenter"",""1"",""2753""
","
",,,,,,,,,,,,"[{""stimulus"":""run_exp/static/images/task_images/dig.jpg"",""time"":0.09999990463256836},{""stimulus"":""run_exp/static/images/task_images/land.jpg"",""time"":914.8999998569489},{""stimulus"":""run_exp/static/images/task_images/dig.jpg"",""time"":1814.6999998092651}]",[],7,,,,,,,,,,,,,,
harvest,187,623622,0.0-58.0-1.0,"""event"",""trial"",""time""
""fullscreenenter"",""1"",""2753""
","
","
","""event"",""trial"",""time""
""fullscreenenter"",""1"",""2753""
","
",,null,run_exp/static/images/task_images/gems/44.jpg,null,,,,,,,36,,,7,,,,,44,0.81312629,0.818181818,,,,,,,
decision,188,623889,0.0-58.0-2.0,"""event"",""trial"",""time""
""fullscreenenter"",""1"",""2753""
","
","
","""event"",""trial"",""time""
""fullscreenenter"",""1"",""2753""
","
",,265.3999999,run_exp/static/images/task_images/land.jpg,65,,,,,,,36,,,7,,,,,,,,238997,1,3,FALSE,,,
dig,189,626639,0.0-59.0-0.0,"""event"",""trial"",""time""
""fullscreenenter"",""1"",""2753""
","
","
","""event"",""trial"",""time""
""fullscreenenter"",""1"",""2753""
","
",,,,,,,,,,,,"[{""stimulus"":""run_exp/static/images/task_images/dig.jpg"",""time"":0.20000004768371582},{""stimulus"":""run_exp/static/images/task_images/land.jpg"",""time"":920.3000001907349},{""stimulus"":""run_exp/static/images/task_images/dig.jpg"",""time"":1823.5}]",[],7,,,,,,,,,,,,,,
harvest,190,627654,0.0-59.0-1.0,"""event"",""trial"",""time""
""fullscreenenter"",""1"",""2753""
","
","
","""event"",""trial"",""time""
""fullscreenenter"",""1"",""2753""
","
",,null,run_exp/static/images/task_images/gems/36.jpg,null,,,,,,,25,,,7,,,,,36,0.705633033,0.694444444,,,,,,,
decision,191,627940,0.0-59.0-2.0,"""event"",""trial"",""time""
""fullscreenenter"",""1"",""2753""
","
","
","""event"",""trial"",""time""
""fullscreenenter"",""1"",""2753""
","
",,284.6000001,run_exp/static/images/task_images/land.jpg,65,,,,,,,25,,,7,,,,,,,,243048,1,4,FALSE,,,
dig,192,630669,0.0-60.0-0.0,"""event"",""trial"",""time""
""fullscreenenter"",""1"",""2753""
","
","
","""event"",""trial"",""time""
""fullscreenenter"",""1"",""2753""
","
",,,,,,,,,,,,"[{""stimulus"":""run_exp/static/images/task_images/dig.jpg"",""time"":0.2999999523162842},{""stimulus"":""run_exp/static/images/task_images/land.jpg"",""time"":906.2000000476837},{""stimulus"":""run_exp/static/images/task_images/dig.jpg"",""time"":1819.3999998569489}]",[],7,,,,,,,,,,,,,,
harvest,193,631686,0.0-60.0-1.0,"""event"",""trial"",""time""
""fullscreenenter"",""1"",""2753""
","
","
","""event"",""trial"",""time""
""fullscreenenter"",""1"",""2753""
","
",,null,run_exp/static/images/task_images/gems/25.jpg,null,,,,,,,21,,,7,,,,,25,0.833867775,0.84,,,,,,,
decision,194,631950,0.0-60.0-2.0,"""event"",""trial"",""time""
""fullscreenenter"",""1"",""2753""
","
","
","""event"",""trial"",""time""
""fullscreenenter"",""1"",""2753""
","
",,263,run_exp/static/images/task_images/land.jpg,65,,,,,,,21,,,7,,,,,,,,247058,1,5,FALSE,,,
dig,195,634700,0.0-61.0-0.0,"""event"",""trial"",""time""
""fullscreenenter"",""1"",""2753""
","
","
","""event"",""trial"",""time""
""fullscreenenter"",""1"",""2753""
","
",,,,,,,,,,,,"[{""stimulus"":""run_exp/static/images/task_images/dig.jpg"",""time"":0.20000004768371582},{""stimulus"":""run_exp/static/images/task_images/land.jpg"",""time"":919.4000000953674},{""stimulus"":""run_exp/static/images/task_images/dig.jpg"",""time"":1840.3000001907349}]",[],7,,,,,,,,,,,,,,
harvest,196,635716,0.0-61.0-1.0,"""event"",""trial"",""time""
""fullscreenenter"",""1"",""2753""
","
","
","""event"",""trial"",""time""
""fullscreenenter"",""1"",""2753""
","
",,null,run_exp/static/images/task_images/gems/21.jpg,null,,,,,,,18,,,7,,,,,21,0.875938659,0.857142857,,,,,,,
decision,197,636060,0.0-61.0-2.0,"""event"",""trial"",""time""
""fullscreenenter"",""1"",""2753""
","
","
","""event"",""trial"",""time""
""fullscreenenter"",""1"",""2753""
","
",,341.8,run_exp/static/images/task_images/land.jpg,65,,,,,,,18,,,7,,,,,,,,251168,1,6,FALSE,,,
dig,198,638733,0.0-62.0-0.0,"""event"",""trial"",""time""
""fullscreenenter"",""1"",""2753""
","
","
","""event"",""trial"",""time""
""fullscreenenter"",""1"",""2753""
","
",,,,,,,,,,,,"[{""stimulus"":""run_exp/static/images/task_images/dig.jpg"",""time"":0.19999980926513672},{""stimulus"":""run_exp/static/images/task_images/land.jpg"",""time"":901.6999998092651},{""stimulus"":""run_exp/static/images/task_images/dig.jpg"",""time"":1776.6999998092651}]",[],7,,,,,,,,,,,,,,
harvest,199,639748,0.0-62.0-1.0,"""event"",""trial"",""time""
""fullscreenenter"",""1"",""2753""
","
","
","""event"",""trial"",""time""
""fullscreenenter"",""1"",""2753""
","
",,null,run_exp/static/images/task_images/gems/18.jpg,null,,,,,,,15,,,7,,,,,18,0.852316732,0.833333333,,,,,,,
decision,200,640230,0.0-62.0-2.0,"""event"",""trial"",""time""
""fullscreenenter"",""1"",""2753""
","
","
","""event"",""trial"",""time""
""fullscreenenter"",""1"",""2753""
","
",,480.0999999,run_exp/static/images/task_images/land.jpg,65,,,,,,,15,,,7,,,,,,,,255338,1,7,FALSE,,,
dig,201,642764,0.0-63.0-0.0,"""event"",""trial"",""time""
""fullscreenenter"",""1"",""2753""
","
","
","""event"",""trial"",""time""
""fullscreenenter"",""1"",""2753""
","
",,,,,,,,,,,,"[{""stimulus"":""run_exp/static/images/task_images/dig.jpg"",""time"":0.20000004768371582},{""stimulus"":""run_exp/static/images/task_images/land.jpg"",""time"":841.2000000476837},{""stimulus"":""run_exp/static/images/task_images/dig.jpg"",""time"":1694.2000000476837}]",[],7,,,,,,,,,,,,,,
harvest,202,643779,0.0-63.0-1.0,"""event"",""trial"",""time""
""fullscreenenter"",""1"",""2753""
","
","
","""event"",""trial"",""time""
""fullscreenenter"",""1"",""2753""
","
",,null,run_exp/static/images/task_images/gems/15.jpg,null,,,,,,,12,,,7,,,,,15,0.827872038,0.8,,,,,,,
decision,203,644060,0.0-63.0-2.0,"""event"",""trial"",""time""
""fullscreenenter"",""1"",""2753""
","
","
","""event"",""trial"",""time""
""fullscreenenter"",""1"",""2753""
","
",,279.8000002,run_exp/static/images/task_images/land.jpg,65,,,,,,,12,,,7,,,,,,,,259169,1,8,FALSE,,,
dig,204,646796,0.0-64.0-0.0,"""event"",""trial"",""time""
""fullscreenenter"",""1"",""2753""
","
","
","""event"",""trial"",""time""
""fullscreenenter"",""1"",""2753""
","
",,,,,,,,,,,,"[{""stimulus"":""run_exp/static/images/task_images/dig.jpg"",""time"":0.39999985694885254},{""stimulus"":""run_exp/static/images/task_images/land.jpg"",""time"":910.2999999523163},{""stimulus"":""run_exp/static/images/task_images/dig.jpg"",""time"":1823.8999998569489}]",[],7,,,,,,,,,,,,,,
harvest,205,647810,0.0-64.0-1.0,"""event"",""trial"",""time""
""fullscreenenter"",""1"",""2753""
","
","
","""event"",""trial"",""time""
""fullscreenenter"",""1"",""2753""
","
",,null,run_exp/static/images/task_images/gems/12.jpg,null,,,,,,,10,,,7,,,,,12,0.835471864,0.833333333,,,,,,,
decision,206,648090,0.0-64.0-2.0,"""event"",""trial"",""time""
""fullscreenenter"",""1"",""2753""
","
","
","""event"",""trial"",""time""
""fullscreenenter"",""1"",""2753""
","
",,279,run_exp/static/images/task_images/land.jpg,65,,,,,,,10,,,7,,,,,,,,263198,1,9,FALSE,,,
dig,207,650826,0.0-65.0-0.0,"""event"",""trial"",""time""
""fullscreenenter"",""1"",""2753""
","
","
","""event"",""trial"",""time""
""fullscreenenter"",""1"",""2753""
","
",,,,,,,,,,,,"[{""stimulus"":""run_exp/static/images/task_images/dig.jpg"",""time"":0.20000004768371582},{""stimulus"":""run_exp/static/images/task_images/land.jpg"",""time"":920.2000000476837},{""stimulus"":""run_exp/static/images/task_images/dig.jpg"",""time"":1824.6000001430511}]",[],7,,,,,,,,,,,,,,
harvest,208,651841,0.0-65.0-1.0,"""event"",""trial"",""time""
""fullscreenenter"",""1"",""2753""
","
","
","""event"",""trial"",""time""
""fullscreenenter"",""1"",""2753""
","
",,null,run_exp/static/images/task_images/gems/10.jpg,null,,,,,,,8,,,7,,,,,10,0.829987584,0.8,,,,,,,
decision,209,652141,0.0-65.0-2.0,"""event"",""trial"",""time""
""fullscreenenter"",""1"",""2753""
","
","
","""event"",""trial"",""time""
""fullscreenenter"",""1"",""2753""
","
",,298.4000001,run_exp/static/images/task_images/land.jpg,65,,,,,,,8,,,7,,,,,,,,267250,1,10,FALSE,,,
dig,210,654857,0.0-66.0-0.0,"""event"",""trial"",""time""
""fullscreenenter"",""1"",""2753""
","
","
","""event"",""trial"",""time""
""fullscreenenter"",""1"",""2753""
","
",,,,,,,,,,,,"[{""stimulus"":""run_exp/static/images/task_images/dig.jpg"",""time"":0.20000004768371582},{""stimulus"":""run_exp/static/images/task_images/land.jpg"",""time"":908.7000000476837},{""stimulus"":""run_exp/static/images/task_images/dig.jpg"",""time"":1804.9000000953674}]",[],7,,,,,,,,,,,,,,
harvest,211,655874,0.0-66.0-1.0,"""event"",""trial"",""time""
""fullscreenenter"",""1"",""2753""
","
","
","""event"",""trial"",""time""
""fullscreenenter"",""1"",""2753""
","
",,null,run_exp/static/images/task_images/gems/8.jpg,null,,,,,,,6,,,7,,,,,8,0.801103915,0.75,,,,,,,
decision,212,656180,0.0-66.0-2.0,"""event"",""trial"",""time""
""fullscreenenter"",""1"",""2753""
","
","
","""event"",""trial"",""time""
""fullscreenenter"",""1"",""2753""
","
",,305.0999999,run_exp/static/images/task_images/land.jpg,65,,,,,,,6,,,7,,,,,,,,271289,1,11,FALSE,,,
dig,213,658888,0.0-67.0-0.0,"""event"",""trial"",""time""
""fullscreenenter"",""1"",""2753""
","
","
","""event"",""trial"",""time""
""fullscreenenter"",""1"",""2753""
","
",,,,,,,,,,,,"[{""stimulus"":""run_exp/static/images/task_images/dig.jpg"",""time"":0.20000004768371582},{""stimulus"":""run_exp/static/images/task_images/land.jpg"",""time"":914.0999999046326},{""stimulus"":""run_exp/static/images/task_images/dig.jpg"",""time"":1812.3999998569489}]",[],7,,,,,,,,,,,,,,
harvest,214,659902,0.0-67.0-1.0,"""event"",""trial"",""time""
""fullscreenenter"",""1"",""2753""
","
","
","""event"",""trial"",""time""
""fullscreenenter"",""1"",""2753""
","
",,null,run_exp/static/images/task_images/gems/6.jpg,null,,,,,,,5,,,7,,,,,6,0.844709154,0.833333333,,,,,,,
decision,215,660190,0.0-67.0-2.0,"""event"",""trial"",""time""
""fullscreenenter"",""1"",""2753""
","
","
","""event"",""trial"",""time""
""fullscreenenter"",""1"",""2753""
","
",,286.8000002,run_exp/static/images/task_images/land.jpg,65,,,,,,,5,,,7,,,,,,,,275298,1,12,FALSE,,,
dig,216,662919,0.0-68.0-0.0,"""event"",""trial"",""time""
""fullscreenenter"",""1"",""2753""
","
","
","""event"",""trial"",""time""
""fullscreenenter"",""1"",""2753""
","
",,,,,,,,,,,,"[{""stimulus"":""run_exp/static/images/task_images/dig.jpg"",""time"":0},{""stimulus"":""run_exp/static/images/task_images/land.jpg"",""time"":920.7999999523163},{""stimulus"":""run_exp/static/images/task_images/dig.jpg"",""time"":1816.4000000953674}]",[],7,,,,,,,,,,,,,,
harvest,217,663924,0.0-68.0-1.0,"""event"",""trial"",""time""
""fullscreenenter"",""1"",""2753""
","
","
","""event"",""trial"",""time""
""fullscreenenter"",""1"",""2753""
","
",,null,run_exp/static/images/task_images/gems/5.jpg,null,,,,,,,4,,,7,,,,,5,0.84962324,0.8,,,,,,,
decision,218,664340,0.0-68.0-2.0,"""event"",""trial"",""time""
""fullscreenenter"",""1"",""2753""
","
","
","""event"",""trial"",""time""
""fullscreenenter"",""1"",""2753""
","
",,413.5,run_exp/static/images/task_images/land.jpg,65,,,,,,,4,,,7,,,,,,,,279448,1,13,FALSE,,,
dig,219,666935,0.0-69.0-0.0,"""event"",""trial"",""time""
""fullscreenenter"",""1"",""2753""
","
","
","""event"",""trial"",""time""
""fullscreenenter"",""1"",""2753""
","
",,,,,,,,,,,,"[{""stimulus"":""run_exp/static/images/task_images/dig.jpg"",""time"":0.10000014305114746},{""stimulus"":""run_exp/static/images/task_images/land.jpg"",""time"":881.3000001907349},{""stimulus"":""run_exp/static/images/task_images/dig.jpg"",""time"":1734.7000000476837}]",[],7,,,,,,,,,,,,,,
harvest,220,667954,0.0-69.0-1.0,"""event"",""trial"",""time""
""fullscreenenter"",""1"",""2753""
","
","
","""event"",""trial"",""time""
""fullscreenenter"",""1"",""2753""
","
",,null,run_exp/static/images/task_images/gems/4.jpg,null,,,,,,,3,,,7,,,,,4,0.81546464,0.75,,,,,,,
decision,221,668314,0.0-69.0-2.0,"""event"",""trial"",""time""
""fullscreenenter"",""1"",""2753""
","
","
","""event"",""trial"",""time""
""fullscreenenter"",""1"",""2753""
","
",,364.3,run_exp/static/images/task_images/land.jpg,76,,,,,,,3,,,7,,,,,,,,283422,1,14,TRUE,,,
travel,222,677957,0.0-70.0-0.0,"""event"",""trial"",""time""
""fullscreenenter"",""1"",""2753""
","
","
","""event"",""trial"",""time""
""fullscreenenter"",""1"",""2753""
","
",,,,,,,,,,,,"[{""stimulus"":""run_exp/static/images/task_images/rocket-01.jpg"",""time"":0.20000004768371582},{""stimulus"":""run_exp/static/images/task_images/rocket-02.jpg"",""time"":1071.2999999523163},{""stimulus"":""run_exp/static/images/task_images/rocket-03.jpg"",""time"":2141.7000000476837},{""stimulus"":""run_exp/static/images/task_images/rocket-04.jpg"",""time"":3212.5999999046326},{""stimulus"":""run_exp/static/images/task_images/rocket-05.jpg"",""time"":4288.400000095367},{""stimulus"":""run_exp/static/images/task_images/rocket-06.jpg"",""time"":5365.5},{""stimulus"":""run_exp/static/images/task_images/rocket-07.jpg"",""time"":6427.200000047684},{""stimulus"":""run_exp/static/images/task_images/rocket-08.jpg"",""time"":7495.400000095367},{""stimulus"":""run_exp/static/images/task_images/rocket-09.jpg"",""time"":8563.099999904633}]",[],7,,,,,,,,,,,,,,
alien_welcome,223,682967,0.0-70.0-1.0,"""event"",""trial"",""time""
""fullscreenenter"",""1"",""2753""
","
","
","""event"",""trial"",""time""
""fullscreenenter"",""1"",""2753""
","
",,null,run_exp/static/images/task_images/aliens/old_aliens/planet/alien_planet-6.jpg,null,,,,,,,,,,,,,6,"44,13,15,38,43,12,68,6,32,22,5,16,67,30,48,29,80,2,23,60,76,34,17,33,45,65,47,55,19,54",,,,,,,,,,
land,224,683476,0.0-70.0-2.0,"""event"",""trial"",""time""
""fullscreenenter"",""1"",""2753""
","
","
","""event"",""trial"",""time""
""fullscreenenter"",""1"",""2753""
","
",,null,run_exp/static/images/task_images/land.jpg,null,,,,,,,101,,,8,,,,,,,,,,,,,,
dig,225,685490,0.0-70.0-3.0,"""event"",""trial"",""time""
""fullscreenenter"",""1"",""2753""
","
","
","""event"",""trial"",""time""
""fullscreenenter"",""1"",""2753""
","
",,,,,,,,,,,,"[{""stimulus"":""run_exp/static/images/task_images/dig.jpg"",""time"":0.2999999523162842},{""stimulus"":""run_exp/static/images/task_images/land.jpg"",""time"":680.3999998569489},{""stimulus"":""run_exp/static/images/task_images/dig.jpg"",""time"":1336}]",[],8,,,,,,,,,,,,,,
harvest,226,686507,0.0-70.0-4.0,"""event"",""trial"",""time""
""fullscreenenter"",""1"",""2753""
","
","
","""event"",""trial"",""time""
""fullscreenenter"",""1"",""2753""
","
",,null,run_exp/static/images/task_images/gems/101.jpg,null,,,,,,,77,,,8,,,,,101,0.765504854,0.762376238,,,,,,,
decision,227,686793,0.0-70.0-5.0,"""event"",""trial"",""time""
""fullscreenenter"",""1"",""2753""
","
","
","""event"",""trial"",""time""
""fullscreenenter"",""1"",""2753""
","
",,284.3,run_exp/static/images/task_images/land.jpg,65,,,,,,,77,,,8,,,,,,,,301901,1,0,TRUE,,,
end_of_block_continue,228,695649,0.0-71.0-0.0,"""event"",""trial"",""time""
""fullscreenenter"",""1"",""2753""
","
","
","""event"",""trial"",""time""
""fullscreenenter"",""1"",""2753""
","
",,null,run_exp/static/audio/clip_32_block_end.m4a,,,,,,,null,,,,,,,,,,,,,,,,,,
alien_welcome,229,700664,0.0-72.0-0.0,"""event"",""trial"",""time""
""fullscreenenter"",""1"",""2753""
","
","
","""event"",""trial"",""time""
""fullscreenenter"",""1"",""2753""
","
",,null,run_exp/static/images/task_images/aliens/old_aliens/planet/alien_planet-32.jpg,null,,,,,,,,,,,,,32,"44,13,15,38,43,12,68,6,32,22,5,16,67,30,48,29,80,2,23,60,76,34,17,33,45,65,47,55,19,54",,,,,,,,,,
land,230,701179,0.0-72.0-1.0,"""event"",""trial"",""time""
""fullscreenenter"",""1"",""2753""
","
","
","""event"",""trial"",""time""
""fullscreenenter"",""1"",""2753""
","
",,null,run_exp/static/images/task_images/land.jpg,null,,,,,,,97,,,9,,,,,,,,,,,,,,
dig,231,703188,0.0-72.0-2.0,"""event"",""trial"",""time""
""fullscreenenter"",""1"",""2753""
","
","
","""event"",""trial"",""time""
""fullscreenenter"",""1"",""2753""
","
",,,,,,,,,,,,"[{""stimulus"":""run_exp/static/images/task_images/dig.jpg"",""time"":0.2999999523162842},{""stimulus"":""run_exp/static/images/task_images/land.jpg"",""time"":670.0999999046326},{""stimulus"":""run_exp/static/images/task_images/dig.jpg"",""time"":1336.5999999046326}]",[],9,,,,,,,,,,,,,,
harvest,232,704194,0.0-72.0-3.0,"""event"",""trial"",""time""
""fullscreenenter"",""1"",""2753""
","
","
","""event"",""trial"",""time""
""fullscreenenter"",""1"",""2753""
","
",,null,run_exp/static/images/task_images/gems/97.jpg,null,,,,,,,19,,,9,,,,,97,0.195578553,0.195876289,,,,,,,
decision,233,704583,0.0-72.0-4.0,"""event"",""trial"",""time""
""fullscreenenter"",""1"",""2753""
","
","
","""event"",""trial"",""time""
""fullscreenenter"",""1"",""2753""
","
",,387.9000001,run_exp/static/images/task_images/land.jpg,65,,,,,,,19,,,9,,,,,,,,8933,2,0,FALSE,,,
dig,234,707211,0.0-73.0-0.0,"""event"",""trial"",""time""
""fullscreenenter"",""1"",""2753""
","
","
","""event"",""trial"",""time""
""fullscreenenter"",""1"",""2753""
","
",,,,,,,,,,,,"[{""stimulus"":""run_exp/static/images/task_images/dig.jpg"",""time"":0.2999999523162842},{""stimulus"":""run_exp/static/images/task_images/land.jpg"",""time"":886.2999999523163},{""stimulus"":""run_exp/static/images/task_images/dig.jpg"",""time"":1750}]",[],9,,,,,,,,,,,,,,
harvest,235,708218,0.0-73.0-1.0,"""event"",""trial"",""time""
""fullscreenenter"",""1"",""2753""
","
","
","""event"",""trial"",""time""
""fullscreenenter"",""1"",""2753""
","
",,null,run_exp/static/images/task_images/gems/19.jpg,null,,,,,,,4,,,9,,,,,19,0.206114846,0.210526316,,,,,,,
decision,236,709183,0.0-73.0-2.0,"""event"",""trial"",""time""
""fullscreenenter"",""1"",""2753""
","
","
","""event"",""trial"",""time""
""fullscreenenter"",""1"",""2753""
","
",,964,run_exp/static/images/task_images/land.jpg,65,,,,,,,4,,,9,,,,,,,,13532,2,1,FALSE,,,
dig,237,711225,0.0-74.0-0.0,"""event"",""trial"",""time""
""fullscreenenter"",""1"",""2753""
","
","
","""event"",""trial"",""time""
""fullscreenenter"",""1"",""2753""
","
",,,,,,,,,,,,"[{""stimulus"":""run_exp/static/images/task_images/dig.jpg"",""time"":0.2999999523162842},{""stimulus"":""run_exp/static/images/task_images/land.jpg"",""time"":690.6000001430511},{""stimulus"":""run_exp/static/images/task_images/dig.jpg"",""time"":1366.4000000953674}]",[],9,,,,,,,,,,,,,,
harvest,238,712227,0.0-74.0-1.0,"""event"",""trial"",""time""
""fullscreenenter"",""1"",""2753""
","
","
","""event"",""trial"",""time""
""fullscreenenter"",""1"",""2753""
","
",,null,run_exp/static/images/task_images/gems/4.jpg,null,,,,,,,1,,,9,,,,,4,0.140670641,0.25,,,,,,,
decision,239,712525,0.0-74.0-2.0,"""event"",""trial"",""time""
""fullscreenenter"",""1"",""2753""
","
","
","""event"",""trial"",""time""
""fullscreenenter"",""1"",""2753""
","
",,295.3999999,run_exp/static/images/task_images/land.jpg,76,,,,,,,1,,,9,,,,,,,,16874,2,2,TRUE,,,
travel,240,722241,0.0-75.0-0.0,"""event"",""trial"",""time""
""fullscreenenter"",""1"",""2753""
","
","
","""event"",""trial"",""time""
""fullscreenenter"",""1"",""2753""
","
",,,,,,,,,,,,"[{""stimulus"":""run_exp/static/images/task_images/rocket-01.jpg"",""time"":0.2999999523162842},{""stimulus"":""run_exp/static/images/task_images/rocket-02.jpg"",""time"":1080.1000001430511},{""stimulus"":""run_exp/static/images/task_images/rocket-03.jpg"",""time"":2169.7999999523163},{""stimulus"":""run_exp/static/images/task_images/rocket-04.jpg"",""time"":3238.7999999523163},{""stimulus"":""run_exp/static/images/task_images/rocket-05.jpg"",""time"":4314.900000095367},{""stimulus"":""run_exp/static/images/task_images/rocket-06.jpg"",""time"":5399.400000095367},{""stimulus"":""run_exp/static/images/task_images/rocket-07.jpg"",""time"":6469.299999952316},{""stimulus"":""run_exp/static/images/task_images/rocket-08.jpg"",""time"":7563.200000047684},{""stimulus"":""run_exp/static/images/task_images/rocket-09.jpg"",""time"":8626.900000095367}]",[],9,,,,,,,,,,,,,,
alien_welcome,241,727247,0.0-75.0-1.0,"""event"",""trial"",""time""
""fullscreenenter"",""1"",""2753""
","
","
","""event"",""trial"",""time""
""fullscreenenter"",""1"",""2753""
","
",,null,run_exp/static/images/task_images/aliens/old_aliens/planet/alien_planet-22.jpg,null,,,,,,,,,,,,,22,"44,13,15,38,43,12,68,6,32,22,5,16,67,30,48,29,80,2,23,60,76,34,17,33,45,65,47,55,19,54",,,,,,,,,,
land,242,727758,0.0-75.0-2.0,"""event"",""trial"",""time""
""fullscreenenter"",""1"",""2753""
","
","
","""event"",""trial"",""time""
""fullscreenenter"",""1"",""2753""
","
",,null,run_exp/static/images/task_images/land.jpg,null,,,,,,,94,,,10,,,,,,,,,,,,,,
dig,243,729771,0.0-75.0-3.0,"""event"",""trial"",""time""
""fullscreenenter"",""1"",""2753""
","
","
","""event"",""trial"",""time""
""fullscreenenter"",""1"",""2753""
","
",,,,,,,,,,,,"[{""stimulus"":""run_exp/static/images/task_images/dig.jpg"",""time"":0.2999999523162842},{""stimulus"":""run_exp/static/images/task_images/land.jpg"",""time"":668.8999998569489},{""stimulus"":""run_exp/static/images/task_images/dig.jpg"",""time"":1347.8999998569489}]",[],10,,,,,,,,,,,,,,
harvest,244,730779,0.0-75.0-4.0,"""event"",""trial"",""time""
""fullscreenenter"",""1"",""2753""
","
","
","""event"",""trial"",""time""
""fullscreenenter"",""1"",""2753""
","
",,null,run_exp/static/images/task_images/gems/94.jpg,null,,,,,,,19,,,10,,,,,94,0.197669758,0.20212766,,,,,,,
decision,245,731060,0.0-75.0-5.0,"""event"",""trial"",""time""
""fullscreenenter"",""1"",""2753""
","
","
","""event"",""trial"",""time""
""fullscreenenter"",""1"",""2753""
","
",,278.8,run_exp/static/images/task_images/land.jpg,65,,,,,,,19,,,10,,,,,,,,35409,2,0,FALSE,,,
dig,246,733794,0.0-76.0-0.0,"""event"",""trial"",""time""
""fullscreenenter"",""1"",""2753""
","
","
","""event"",""trial"",""time""
""fullscreenenter"",""1"",""2753""
","
",,,,,,,,,,,,"[{""stimulus"":""run_exp/static/images/task_images/dig.jpg"",""time"":0.20000004768371582},{""stimulus"":""run_exp/static/images/task_images/land.jpg"",""time"":918.4000000953674},{""stimulus"":""run_exp/static/images/task_images/dig.jpg"",""time"":1825.9000000953674}]",[],10,,,,,,,,,,,,,,
harvest,247,734810,0.0-76.0-1.0,"""event"",""trial"",""time""
""fullscreenenter"",""1"",""2753""
","
","
","""event"",""trial"",""time""
""fullscreenenter"",""1"",""2753""
","
",,null,run_exp/static/images/task_images/gems/19.jpg,null,,,,,,,4,,,10,,,,,19,0.196345223,0.210526316,,,,,,,
decision,248,735039,0.0-76.0-2.0,"""event"",""trial"",""time""
""fullscreenenter"",""1"",""2753""
","
","
","""event"",""trial"",""time""
""fullscreenenter"",""1"",""2753""
","
",,227.4000001,run_exp/static/images/task_images/land.jpg,65,,,,,,,4,,,10,,,,,,,,39388,2,1,FALSE,,,
dig,249,737825,0.0-77.0-0.0,"""event"",""trial"",""time""
""fullscreenenter"",""1"",""2753""
","
","
","""event"",""trial"",""time""
""fullscreenenter"",""1"",""2753""
","
",,,,,,,,,,,,"[{""stimulus"":""run_exp/static/images/task_images/dig.jpg"",""time"":0.10000014305114746},{""stimulus"":""run_exp/static/images/task_images/land.jpg"",""time"":939.3000001907349},{""stimulus"":""run_exp/static/images/task_images/dig.jpg"",""time"":1863}]",[],10,,,,,,,,,,,,,,
harvest,250,738842,0.0-77.0-1.0,"""event"",""trial"",""time""
""fullscreenenter"",""1"",""2753""
","
","
","""event"",""trial"",""time""
""fullscreenenter"",""1"",""2753""
","
