trial_type,trial_index,time_elapsed,internal_node_id,interactions,blur_events,focus_events,fullscreenenter_events,fullscreenexit_events,success,rt,stimulus,key_press,prompt,subject_id,participant_id,age,gender,button_pressed,next_reward,animation_sequence,responses,planet,curr_prac_trial,n_prac_rounds,alien,aliens,reward_received,decay_rate_actual,decay_rate_exp,time_in_block,block_num,prt,last_trial_on_planet,button_html,bonus,num_failures
pavlovia,0,6,0.0-0.0,"""event"",""trial"",""time""
""fullscreenenter"",""1"",""2746""
","
","
","""event"",""trial"",""time""
""fullscreenenter"",""1"",""2746""
","
",,,,,,,,,,,,,,,,,,,,,,,,,,,,
fullscreen,1,3723,0.0-1.0,"""event"",""trial"",""time""
""fullscreenenter"",""1"",""2746""
","
","
","""event"",""trial"",""time""
""fullscreenenter"",""1"",""2746""
","
",TRUE,,,,,,,,,,,,,,,,,,,,,,,,,,,
instruc_welcome,2,13471,0.0-2.0,"""event"",""trial"",""time""
""fullscreenenter"",""1"",""2746""
","
","
","""event"",""trial"",""time""
""fullscreenenter"",""1"",""2746""
","
",,null,run_exp/static/audio/clip_1_welcome.m4a,null,"<p>Howdy! In this experiment, you’ll be an explorer traveling through space to collect space treasure.</p><p>Your mission is to collect as much treasure as possible.</p><br><br><p><img src='run_exp/static/images/task_images/opening_img-01.jpg' height='300' width='auto'></p>",11144,2575,17.08,Female,,,,,,,,,,,,,,,,,,,
audio-keyboard-response,3,30050,0.0-3.0,"""event"",""trial"",""time""
""fullscreenenter"",""1"",""2746""
","
","
","""event"",""trial"",""time""
""fullscreenenter"",""1"",""2746""
","
",,null,run_exp/static/audio/clip_2_move.m4a,null,,,,,,,,,,,,,,,,,,,,,,,,
welcome_dec,4,32196,0.0-4.0,"""event"",""trial"",""time""
""fullscreenenter"",""1"",""2746""
","
","
","""event"",""trial"",""time""
""fullscreenenter"",""1"",""2746""
","
",,2142.7,"<p>Howdy! In this experiment, you’ll be an explorer traveling through space to collect space treasure.</p><p>Your mission is to collect as much treasure as possible.</p><br><br><p><img src='run_exp/static/images/task_images/opening_img-01.jpg' height='300' width='auto'></p>",,,,,,,1,,,,,,,,,,,,,,,,,,
html-keyboard-response,5,33556,0.0-5.0,"""event"",""trial"",""time""
""fullscreenenter"",""1"",""2746""
","
","
","""event"",""trial"",""time""
""fullscreenenter"",""1"",""2746""
","
",,1358.8,"<p>Howdy! In this experiment, you’ll be an explorer traveling through space to collect space treasure.</p><p>Your mission is to collect as much treasure as possible.</p><br><br><p><img src='run_exp/static/images/task_images/opening_img-01.jpg' height='300' width='auto'></p><button class=""jspsych-html-btn-unchosen""><img src=""run_exp/static/images/task_images/planet-01.jpg"" height=""50""></button><button class=""jspsych-html-btn-chosen""><img src=""run_exp/static/images/task_images/planet-02.jpg"" height=""50""></button><p><b>[press the space bar to lock in your answer]<b><br></p>",32,,,,,,,,,,,,,,,,,,,,,,,,
instruc_goal,6,43609,0.0-6.0-0.0,"""event"",""trial"",""time""
""fullscreenenter"",""1"",""2746""
","
","
","""event"",""trial"",""time""
""fullscreenenter"",""1"",""2746""
","
",,null,run_exp/static/audio/clip_3_goal.m4a,null,"<p> As a space explorer, you’ll visit different planets to dig for space treasure, these pink gems.</p> <p> The more treasure you dig up, the more bonus money you’ll win! </p><br><br><p><img src='run_exp/static/images/task_images/pink_gem.jpg' height='300' width='auto'></p>",,,,,,,,,,,,,,,,,,,,,,,
instruc_goal,7,44955,0.0-6.0-1.0,"""event"",""trial"",""time""
""fullscreenenter"",""1"",""2746""
","
","
","""event"",""trial"",""time""
""fullscreenenter"",""1"",""2746""
","
",,1343.7,"<p> As a space explorer, you’ll visit different planets to dig for space treasure, these pink gems.</p> <p> The more treasure you dig up, the more bonus money you’ll win! </p><br><br><p><img src='run_exp/static/images/task_images/pink_gem.jpg' height='300' width='auto'></p>",,,,,,,1,,,,,,,,,,,,,,,,,,
html-keyboard-response,8,44971,0.0-6.0-2.0,"""event"",""trial"",""time""
""fullscreenenter"",""1"",""2746""
","
","
","""event"",""trial"",""time""
""fullscreenenter"",""1"",""2746""
","
",,14.70000005,"<p> As a space explorer, you’ll visit different planets to dig for space treasure, these pink gems.</p> <p> The more treasure you dig up, the more bonus money you’ll win! </p><br><br><p><img src='run_exp/static/images/task_images/pink_gem.jpg' height='300' width='auto'></p><button class=""jspsych-html-btn-unchosen""><img src=""run_exp/static/images/task_images/planet-01.jpg"" height=""50""></button><button class=""jspsych-html-btn-chosen""><img src=""run_exp/static/images/task_images/planet-02.jpg"" height=""50""></button><p><b>[press the space bar to lock in your answer]<b><br></p>",32,,,,,,,,,,,,,,,,,,,,,,,,
instruc_dig,9,60970,0.0-7.0-0.0,"""event"",""trial"",""time""
""fullscreenenter"",""1"",""2746""
","
","
","""event"",""trial"",""time""
""fullscreenenter"",""1"",""2746""
","
",,null,run_exp/static/audio/clip_4_dig.m4a,null,,,,,,,100,,,,,,,,,,,,,,,,,
instruc_dig_try,10,61222,0.0-7.0-1.0,"""event"",""trial"",""time""
""fullscreenenter"",""1"",""2746""
","
","
","""event"",""trial"",""time""
""fullscreenenter"",""1"",""2746""
","
",,249.5999999,"<p> When you’ve arrived at a new planet, you will dig once. </p> <p>Then, you get to decide if you want to stay on the planet and dig again or travel to a new planet and dig there.</p> <p> To stay and dig, press the letter <strong>‘A’</strong> on your keyboard. Try pressing it now! </p><p><img src='run_exp/static/images/task_images/land.jpg'  height='700' width='auto'></p>",65,"<p> When you’ve arrived at a new planet, you will dig once. </p> <p>Then, you get to decide if you want to stay on the planet and dig again or travel to a new planet and dig there.</p> <p> To stay and dig, press the letter <strong>‘A’</strong> on your keyboard. Try pressing it now! </p><p><img src='run_exp/static/images/task_images/land.jpg'  height='700' width='auto'></p>",,,,,,100,,,,,,,,,,,,,,,,,
dig_prac,11,63240,0.0-7.0-2.0,"""event"",""trial"",""time""
""fullscreenenter"",""1"",""2746""
","
","
","""event"",""trial"",""time""
""fullscreenenter"",""1"",""2746""
","
",,,,,,,,,,,,"[{""stimulus"":""run_exp/static/images/task_images/dig.jpg"",""time"":0.40000009536743164},{""stimulus"":""run_exp/static/images/task_images/land.jpg"",""time"":679.7000000476837},{""stimulus"":""run_exp/static/images/task_images/dig.jpg"",""time"":1348.4000000953674}]",[],,,,,,,,,,,,,,,
instruc_travel,12,99490,0.0-7.0-3.0,"""event"",""trial"",""time""
""fullscreenenter"",""1"",""2746""
","
","
","""event"",""trial"",""time""
""fullscreenenter"",""1"",""2746""
","
",,null,run_exp/static/audio/clip_5_travel.m4a,null,"<p>Every time you dig up gems, there are less gems on the planet, so the more you dig on a planet the fewer gems you’ll get with each dig.</p><p>When gems are running low, you may want to travel to a new planet. </p> <p>  Planets are very far apart in this galaxy, so it will take some time to travel between them. </p> <br><p>There are lots and lots of planets for you to visit, so you won’t be able to return to any planets you’ve seen before. </p><br><p>To leave this planet and travel to a new one, press the letter <strong>‘L’</strong> on your keyboard. Try pressing it now! </p><p><img src='run_exp/static/images/task_images/rocket-01.jpg'  height='600' width='auto'></p>",,,,,,,,,,,,,,,,,,,,,,,
instruc_travel_try,13,99914,0.0-7.0-4.0,"""event"",""trial"",""time""
""fullscreenenter"",""1"",""2746""
","
","
","""event"",""trial"",""time""
""fullscreenenter"",""1"",""2746""
","
",,421.8999999,"<p>Every time you dig up gems, there are less gems on the planet, so the more you dig on a planet the fewer gems you’ll get with each dig.</p><p>When gems are running low, you may want to travel to a new planet. </p> <p>  Planets are very far apart in this galaxy, so it will take some time to travel between them. </p> <br><p>There are lots and lots of planets for you to visit, so you won’t be able to return to any planets you’ve seen before. </p><br><p>To leave this planet and travel to a new one, press the letter <strong>‘L’</strong> on your keyboard. Try pressing it now! </p><p><img src='run_exp/static/images/task_images/rocket-01.jpg'  height='600' width='auto'></p>",76,"<p>Every time you dig up gems, there are less gems on the planet, so the more you dig on a planet the fewer gems you’ll get with each dig.</p><p>When gems are running low, you may want to travel to a new planet. </p> <p>  Planets are very far apart in this galaxy, so it will take some time to travel between them. </p> <br><p>There are lots and lots of planets for you to visit, so you won’t be able to return to any planets you’ve seen before. </p><br><p>To leave this planet and travel to a new one, press the letter <strong>‘L’</strong> on your keyboard. Try pressing it now! </p><p><img src='run_exp/static/images/task_images/rocket-01.jpg'  height='600' width='auto'></p>",,,,,,,,,,,,,,,,,,,,,,,
travel_prac,14,109925,0.0-7.0-5.0,"""event"",""trial"",""time""
""fullscreenenter"",""1"",""2746""
","
","
","""event"",""trial"",""time""
""fullscreenenter"",""1"",""2746""
","
",,,,,,,,,,,,"[{""stimulus"":""run_exp/static/images/task_images/rocket-01.jpg"",""time"":0.40000009536743164},{""stimulus"":""run_exp/static/images/task_images/rocket-02.jpg"",""time"":1126.5},{""stimulus"":""run_exp/static/images/task_images/rocket-03.jpg"",""time"":2233.800000190735},{""stimulus"":""run_exp/static/images/task_images/rocket-04.jpg"",""time"":3348},{""stimulus"":""run_exp/static/images/task_images/rocket-05.jpg"",""time"":4459},{""stimulus"":""run_exp/static/images/task_images/rocket-06.jpg"",""time"":5566.900000095367},{""stimulus"":""run_exp/static/images/task_images/rocket-07.jpg"",""time"":6674.200000047684},{""stimulus"":""run_exp/static/images/task_images/rocket-08.jpg"",""time"":7783.5},{""stimulus"":""run_exp/static/images/task_images/rocket-09.jpg"",""time"":8897.800000190735}]",[],0,,,,,,,,,,,,,,
instruc_alien_greet,15,137111,0.0-7.0-6.0,"""event"",""trial"",""time""
""fullscreenenter"",""1"",""2746""
","
","
","""event"",""trial"",""time""
""fullscreenenter"",""1"",""2746""
","
",,null,run_exp/static/audio/clip_6_alien.m4a,null,"<p>When you arrive at a new planet, the alien who owns the treasure mine on that planet will greet you!</p><p>The better an alien takes care of their mine the easier it is to dig for gems. Some aliens take better care of their mine than others. So, you won’t get exactly the same amount of gems on each planet.</p><p>What the alien looks like does not tell you anything about how many gems there are on the planet.</p><br><p><img src=""run_exp/static/images/task_images/aliens/instructions_aliens/planet/alien_planet-1.jpg""  height=""600"" width=""auto""></p>",,,,,,,,,,,,,,,,,,,,,,,
instruc_alien_greet,16,140091,0.0-7.0-7.0,"""event"",""trial"",""time""
""fullscreenenter"",""1"",""2746""
","
","
","""event"",""trial"",""time""
""fullscreenenter"",""1"",""2746""
","
",,2977.2,"<p>When you arrive at a new planet, the alien who owns the treasure mine on that planet will greet you!</p><p>The better an alien takes care of their mine the easier it is to dig for gems. Some aliens take better care of their mine than others. So, you won’t get exactly the same amount of gems on each planet.</p><p>What the alien looks like does not tell you anything about how many gems there are on the planet.</p><br><p><img src=""run_exp/static/images/task_images/aliens/instructions_aliens/planet/alien_planet-1.jpg""  height=""600"" width=""auto""></p>",,,,,,,1,,,,,,,,,,,,,,,,,,
html-keyboard-response,17,140910,0.0-7.0-8.0,"""event"",""trial"",""time""
""fullscreenenter"",""1"",""2746""
","
","
","""event"",""trial"",""time""
""fullscreenenter"",""1"",""2746""
","
",,818.2,"<p>When you arrive at a new planet, the alien who owns the treasure mine on that planet will greet you!</p><p>The better an alien takes care of their mine the easier it is to dig for gems. Some aliens take better care of their mine than others. So, you won’t get exactly the same amount of gems on each planet.</p><p>What the alien looks like does not tell you anything about how many gems there are on the planet.</p><br><p><img src=""run_exp/static/images/task_images/aliens/instructions_aliens/planet/alien_planet-1.jpg""  height=""600"" width=""auto""></p><button class=""jspsych-html-btn-unchosen""><img src=""run_exp/static/images/task_images/planet-01.jpg"" height=""50""></button><button class=""jspsych-html-btn-chosen""><img src=""run_exp/static/images/task_images/planet-02.jpg"" height=""50""></button><p><b>[press the space bar to lock in your answer]<b><br></p>",32,,,,,,,,,,,,,,,,,,,,,,,,
time_out,18,152011,0.0-8.0-0.0,"""event"",""trial"",""time""
""fullscreenenter"",""1"",""2746""
","
","
","""event"",""trial"",""time""
""fullscreenenter"",""1"",""2746""
","
",,null,run_exp/static/audio/clip_7_timeout.m4a,null,"<p>If you don't make your choice fast enough, you’ll have to wait a few seconds before you can make another one.</p><p>You can’t dig for more gems or travel to new planets. You just have to sit and wait.</p><br><p><img src='run_exp/static/images/task_images/time_out.jpg'  height='600' width='auto'></p>",,,,,,,,,,,,,,,,,,,,,,,
time_out,19,154499,0.0-8.0-1.0,"""event"",""trial"",""time""
""fullscreenenter"",""1"",""2746""
","
","
","""event"",""trial"",""time""
""fullscreenenter"",""1"",""2746""
","
",,2486.2,"<p>If you don't make your choice fast enough, you’ll have to wait a few seconds before you can make another one.</p><p>You can’t dig for more gems or travel to new planets. You just have to sit and wait.</p><br><p><img src='run_exp/static/images/task_images/time_out.jpg'  height='600' width='auto'></p>",,,,,,,1,,,,,,,,,,,,,,,,,,
html-keyboard-response,20,154547,0.0-8.0-2.0,"""event"",""trial"",""time""
""fullscreenenter"",""1"",""2746""
","
","
","""event"",""trial"",""time""
""fullscreenenter"",""1"",""2746""
","
",,46.29999995,"<p>If you don't make your choice fast enough, you’ll have to wait a few seconds before you can make another one.</p><p>You can’t dig for more gems or travel to new planets. You just have to sit and wait.</p><br><p><img src='run_exp/static/images/task_images/time_out.jpg'  height='600' width='auto'></p><button class=""jspsych-html-btn-unchosen""><img src=""run_exp/static/images/task_images/planet-01.jpg"" height=""50""></button><button class=""jspsych-html-btn-chosen""><img src=""run_exp/static/images/task_images/planet-02.jpg"" height=""50""></button><p><b>[press the space bar to lock in your answer]<b><br></p>",32,,,,,,,,,,,,,,,,,,,,,,,,
instruc_break,21,170211,0.0-9.0-0.0,"""event"",""trial"",""time""
""fullscreenenter"",""1"",""2746""
","
","
","""event"",""trial"",""time""
""fullscreenenter"",""1"",""2746""
","
",,null,run_exp/static/audio/clip_8_break.m4a,null,"<p> After digging and traveling for a while, you’ll be able to take a break at home base. </p><p>The game will last 20 minutes no matter what.</p><p>You will visit home base every 5 minutes, so, you will visit home base three times during the game.</p><br><p><img src='run_exp/static/images/task_images/home_base.jpg' height='600' width='auto'></p>",,,,,,,,,,,,,,,,,,,,,,,
instruc_break,22,171435,0.0-9.0-1.0,"""event"",""trial"",""time""
""fullscreenenter"",""1"",""2746""
","
","
","""event"",""trial"",""time""
""fullscreenenter"",""1"",""2746""
","
",,1221.5,"<p> After digging and traveling for a while, you’ll be able to take a break at home base. </p><p>The game will last 20 minutes no matter what.</p><p>You will visit home base every 5 minutes, so, you will visit home base three times during the game.</p><br><p><img src='run_exp/static/images/task_images/home_base.jpg' height='600' width='auto'></p>",,,,,,,1,,,,,,,,,,,,,,,,,,
html-keyboard-response,23,171691,0.0-9.0-2.0,"""event"",""trial"",""time""
""fullscreenenter"",""1"",""2746""
","
","
","""event"",""trial"",""time""
""fullscreenenter"",""1"",""2746""
","
",,254.7,"<p> After digging and traveling for a while, you’ll be able to take a break at home base. </p><p>The game will last 20 minutes no matter what.</p><p>You will visit home base every 5 minutes, so, you will visit home base three times during the game.</p><br><p><img src='run_exp/static/images/task_images/home_base.jpg' height='600' width='auto'></p><button class=""jspsych-html-btn-unchosen""><img src=""run_exp/static/images/task_images/planet-01.jpg"" height=""50""></button><button class=""jspsych-html-btn-chosen""><img src=""run_exp/static/images/task_images/planet-02.jpg"" height=""50""></button><p><b>[press the space bar to lock in your answer]<b><br></p>",32,,,,,,,,,,,,,,,,,,,,,,,,
instruc_prac_game,24,181811,0.0-10.0-0.0,"""event"",""trial"",""time""
""fullscreenenter"",""1"",""2746""
","
","
","""event"",""trial"",""time""
""fullscreenenter"",""1"",""2746""
","
",,null,run_exp/static/audio/clip_9_practice.m4a,null,"<p> Are you ready to play a practice game? </p> <p>In this practice game, you'll be digging up barrels of gems. But, in the real game, you'll be digging up the gems themselves. </p>",,,,,,,,,,,,,,,,,,,,,,,
html-button-response,25,182948,0.0-10.0-1.0,"""event"",""trial"",""time""
""fullscreenenter"",""1"",""2746""
","
","
","""event"",""trial"",""time""
""fullscreenenter"",""1"",""2746""
","
",,1135.5,"<p> Are you ready to play a practice game? </p> <p>In this practice game, you'll be digging up barrels of gems. But, in the real game, you'll be digging up the gems themselves. </p>",,,,,,,0,,,,,,,,,,,,,,,,,,
alien_welcome_prac,26,187964,0.0-11.0-0.0,"""event"",""trial"",""time""
""fullscreenenter"",""1"",""2746""
","
","
","""event"",""trial"",""time""
""fullscreenenter"",""1"",""2746""
","
",,null,run_exp/static/images/task_images/aliens/practice_aliens/planet/alien_planet-5.jpg,null,,,,,,,,,,,,,,,,,,,,,,,,
land_prac,27,188478,0.0-11.0-1.0,"""event"",""trial"",""time""
""fullscreenenter"",""1"",""2746""
","
","
","""event"",""trial"",""time""
""fullscreenenter"",""1"",""2746""
","
",,null,run_exp/static/images/task_images/land.jpg,null,,,,,,,99,,,0,,,,,,,,,,,,,,
dig_prac,28,190486,0.0-11.0-2.0,"""event"",""trial"",""time""
""fullscreenenter"",""1"",""2746""
","
","
","""event"",""trial"",""time""
""fullscreenenter"",""1"",""2746""
","
",,,,,,,,,,,,"[{""stimulus"":""run_exp/static/images/task_images/dig.jpg"",""time"":0.5},{""stimulus"":""run_exp/static/images/task_images/land.jpg"",""time"":673.5},{""stimulus"":""run_exp/static/images/task_images/dig.jpg"",""time"":1350}]",[],,,,,,,,,,,,,,,
harvest_prac,29,191500,0.0-11.0-3.0,"""event"",""trial"",""time""
""fullscreenenter"",""1"",""2746""
","
","
","""event"",""trial"",""time""
""fullscreenenter"",""1"",""2746""
","
",,null,run_exp/static/images/task_images/barrel_text.jpg,null,,,,,,,,,,,,,,,,,,,,,,,,
decision_prac,30,193064,0.0-11.0-4.0,"""event"",""trial"",""time""
""fullscreenenter"",""1"",""2746""
","
","
","""event"",""trial"",""time""
""fullscreenenter"",""1"",""2746""
","
",,1563.5,run_exp/static/images/task_images/land.jpg,65,,,,,,,,,,,1,,,,,,,,,,,,,
dig_prac,31,195073,0.0-12.0-0.0,"""event"",""trial"",""time""
""fullscreenenter"",""1"",""2746""
","
","
","""event"",""trial"",""time""
""fullscreenenter"",""1"",""2746""
","
",,,,,,,,,,,,"[{""stimulus"":""run_exp/static/images/task_images/dig.jpg"",""time"":0.10000014305114746},{""stimulus"":""run_exp/static/images/task_images/land.jpg"",""time"":669.7999999523163},{""stimulus"":""run_exp/static/images/task_images/dig.jpg"",""time"":1337.7000000476837}]",[],,,,,,,,,,,,,,,
harvest_prac,32,196076,0.0-12.0-1.0,"""event"",""trial"",""time""
""fullscreenenter"",""1"",""2746""
","
","
","""event"",""trial"",""time""
""fullscreenenter"",""1"",""2746""
","
",,null,run_exp/static/images/task_images/barrel_text.jpg,null,,,,,,,,,,,,,,,,,,,,,,,,
decision_prac,33,196501,0.0-12.0-2.0,"""event"",""trial"",""time""
""fullscreenenter"",""1"",""2746""
","
","
","""event"",""trial"",""time""
""fullscreenenter"",""1"",""2746""
","
",,423.5999999,run_exp/static/images/task_images/land.jpg,65,,,,,,,,,,,2,,,,,,,,,,,,,
dig_prac,34,198510,0.0-13.0-0.0,"""event"",""trial"",""time""
""fullscreenenter"",""1"",""2746""
","
","
","""event"",""trial"",""time""
""fullscreenenter"",""1"",""2746""
","
",,,,,,,,,,,,"[{""stimulus"":""run_exp/static/images/task_images/dig.jpg"",""time"":0.20000004768371582},{""stimulus"":""run_exp/static/images/task_images/land.jpg"",""time"":678.5},{""stimulus"":""run_exp/static/images/task_images/dig.jpg"",""time"":1336.7000000476837}]",[],,,,,,,,,,,,,,,
harvest_prac,35,199518,0.0-13.0-1.0,"""event"",""trial"",""time""
""fullscreenenter"",""1"",""2746""
","
","
","""event"",""trial"",""time""
""fullscreenenter"",""1"",""2746""
","
",,null,run_exp/static/images/task_images/barrel_text.jpg,null,,,,,,,,,,,,,,,,,,,,,,,,
decision_prac,36,199814,0.0-13.0-2.0,"""event"",""trial"",""time""
""fullscreenenter"",""1"",""2746""
","
","
","""event"",""trial"",""time""
""fullscreenenter"",""1"",""2746""
","
",,295.8999999,run_exp/static/images/task_images/land.jpg,65,,,,,,,,,,,3,,,,,,,,,,,,,
dig_prac,37,201833,0.0-14.0-0.0,"""event"",""trial"",""time""
""fullscreenenter"",""1"",""2746""
","
","
","""event"",""trial"",""time""
""fullscreenenter"",""1"",""2746""
","
",,,,,,,,,,,,"[{""stimulus"":""run_exp/static/images/task_images/dig.jpg"",""time"":0.2999999523162842},{""stimulus"":""run_exp/static/images/task_images/land.jpg"",""time"":683},{""stimulus"":""run_exp/static/images/task_images/dig.jpg"",""time"":1341.6999998092651}]",[],,,,,,,,,,,,,,,
harvest_prac,38,202847,0.0-14.0-1.0,"""event"",""trial"",""time""
""fullscreenenter"",""1"",""2746""
","
","
","""event"",""trial"",""time""
""fullscreenenter"",""1"",""2746""
","
",,null,run_exp/static/images/task_images/barrel_text.jpg,null,,,,,,,,,,,,,,,,,,,,,,,,
decision_prac,39,203145,0.0-14.0-2.0,"""event"",""trial"",""time""
""fullscreenenter"",""1"",""2746""
","
","
","""event"",""trial"",""time""
""fullscreenenter"",""1"",""2746""
","
",,296.3999999,run_exp/static/images/task_images/land.jpg,65,,,,,,,,,,,4,,,,,,,,,,,,,
dig_prac,40,205163,0.0-15.0-0.0,"""event"",""trial"",""time""
""fullscreenenter"",""1"",""2746""
","
","
","""event"",""trial"",""time""
""fullscreenenter"",""1"",""2746""
","
",,,,,,,,,,,,"[{""stimulus"":""run_exp/static/images/task_images/dig.jpg"",""time"":0.39999985694885254},{""stimulus"":""run_exp/static/images/task_images/land.jpg"",""time"":681},{""stimulus"":""run_exp/static/images/task_images/dig.jpg"",""time"":1339.2000000476837}]",[],,,,,,,,,,,,,,,
harvest_prac,41,206179,0.0-15.0-1.0,"""event"",""trial"",""time""
""fullscreenenter"",""1"",""2746""
","
","
","""event"",""trial"",""time""
""fullscreenenter"",""1"",""2746""
","
",,null,run_exp/static/images/task_images/barrel_text.jpg,null,,,,,,,,,,,,,,,,,,,,,,,,
decision_prac,42,206490,0.0-15.0-2.0,"""event"",""trial"",""time""
""fullscreenenter"",""1"",""2746""
","
","
","""event"",""trial"",""time""
""fullscreenenter"",""1"",""2746""
","
",,309.3999999,run_exp/static/images/task_images/land.jpg,65,,,,,,,,,,,,1,,,,,,,,,,,,
quiz_instruc,43,209146,0.0-16.0-0.0,"""event"",""trial"",""time""
""fullscreenenter"",""1"",""2746""
","
","
","""event"",""trial"",""time""
""fullscreenenter"",""1"",""2746""
","
",,2654.1,run_exp/static/audio/clip_10_quiz.m4a,,,,,,,0,,,,,,,,,,,,,,,,,,
instruc_repeat,44,251901,0.0-16.0-1.0,"""event"",""trial"",""time""
""fullscreenenter"",""1"",""2746""
","
","
","""event"",""trial"",""time""
""fullscreenenter"",""1"",""2746""
","
",,null,"<p> Are you ready to play a practice game? </p> <p>In this practice game, you'll be digging up barrels of gems. But, in the real game, you'll be digging up the gems themselves. </p>",null,"<p>In this game, your goal is to collect as many gems as you can. That’s how you will win bonus money. </p> <p>The entire game will last 20 minutes no matter how many gems you collect or how many planets you visit. </p><p>To stay on a planet and dig again, press the letter A on your keyboard. To leave for a new planet, press the letter L.</p><p>The more you dig on a planet, the fewer gems you’ll get with each dig which is why you might consider leaving for a new planet. </p><p>When you arrive at a new planet, you’ll be greeted by an alien. What the alien looks like does not tell you anything about how much treasure is on the planet. </p>",,,,,,,,,,,,,,,,,,,,,,,
instruc_repeat_continue,45,253524,0.0-16.0-2.0,"""event"",""trial"",""time""
""fullscreenenter"",""1"",""2746""
","
","
","""event"",""trial"",""time""
""fullscreenenter"",""1"",""2746""
","
",,1621,"<p> Are you ready to play a practice game? </p> <p>In this practice game, you'll be digging up barrels of gems. But, in the real game, you'll be digging up the gems themselves. </p>",,,,,,,0,,,,,,,,,,,,,,,,,,
quiz_q_1_ask,46,256357,0.0-16.0-3.0,"""event"",""trial"",""time""
""fullscreenenter"",""1"",""2746""
","
","
","""event"",""trial"",""time""
""fullscreenenter"",""1"",""2746""
","
",,2831.7,run_exp/static/audio/clip_11_q1_ask.m4a,,,,,,,2,,,,,,,,,,,,,,,,,,
quiz_q_1_fb_correct,47,260200,0.0-17.0-0.0,"""event"",""trial"",""time""
""fullscreenenter"",""1"",""2746""
","
","
","""event"",""trial"",""time""
""fullscreenenter"",""1"",""2746""
","
",,null,run_exp/static/audio/clip_12_q1_correct.m4a,null,<p>That’s correct. You win extra money by collecting more gems.</p>,,,,,,,,,,,,,,,,,,,,,,,
quiz_q_2_ask,48,262547,0.0-17.0-1.0,"""event"",""trial"",""time""
""fullscreenenter"",""1"",""2746""
","
","
","""event"",""trial"",""time""
""fullscreenenter"",""1"",""2746""
","
",,2344.8,run_exp/static/audio/clip_14_q2_ask.m4a,,,,,,,1,,,,,,,,,,,,,,,,,,
quiz_q_2_fb_correct,49,266560,0.0-18.0-0.0,"""event"",""trial"",""time""
""fullscreenenter"",""1"",""2746""
","
","
","""event"",""trial"",""time""
""fullscreenenter"",""1"",""2746""
","
",,null,run_exp/static/audio/clip_15_q2_correct.m4a,null,<p>That’s correct. The experiment is 20 minutes no matter what.</p>,,,,,,,,,,,,,,,,,,,,,,,
quiz_q_3_ask,50,267882,0.0-18.0-1.0,"""event"",""trial"",""time""
""fullscreenenter"",""1"",""2746""
","
","
","""event"",""trial"",""time""
""fullscreenenter"",""1"",""2746""
","
",,1320.6,run_exp/static/audio/clip_17_q3_ask.m4a,,,,,,,1,,,,,,,,,,,,,,,,,,
quiz_q_3_fb_correct,51,271861,0.0-19.0-0.0,"""event"",""trial"",""time""
""fullscreenenter"",""1"",""2746""
","
","
","""event"",""trial"",""time""
""fullscreenenter"",""1"",""2746""
","
",,null,run_exp/static/audio/clip_18_q3_correct.m4a,null,<p> That’s correct. You press the letter L to travel to a new planet.</p>,,,,,,,,,,,,,,,,,,,,,,,
quiz_q_4_ask,52,274875,0.0-19.0-1.0,"""event"",""trial"",""time""
""fullscreenenter"",""1"",""2746""
","
","
","""event"",""trial"",""time""
""fullscreenenter"",""1"",""2746""
","
",,3012.9,run_exp/static/audio/clip_20_q4_ask.m4a,,,,,,,0,,,,,,,,,,,,,,,,,,
quiz_q_4_fb_correct,53,280200,0.0-20.0-0.0,"""event"",""trial"",""time""
""fullscreenenter"",""1"",""2746""
","
","
","""event"",""trial"",""time""
""fullscreenenter"",""1"",""2746""
","
",,null,run_exp/static/audio/clip_21_q4_correct.m4a,null,<p> That’s correct. The more you dig on a planet the fewer gems you’ll get with each dig. </p>,,,,,,,,,,,,,,,,,,,,,,,
quiz_q_5_ask,54,282323,0.0-20.0-1.0,"""event"",""trial"",""time""
""fullscreenenter"",""1"",""2746""
","
","
","""event"",""trial"",""time""
""fullscreenenter"",""1"",""2746""
","
",,2120.6,run_exp/static/audio/clip_23_q5_ask.m4a,,,,,,,1,,,,,,,,,,,,,,,,,,
quiz_q_5_fb_correct,55,287320,0.0-21.0-0.0,"""event"",""trial"",""time""
""fullscreenenter"",""1"",""2746""
","
","
","""event"",""trial"",""time""
""fullscreenenter"",""1"",""2746""
","
",,null,run_exp/static/audio/clip_24_q5_correct.m4a,null,<p> That’s correct. The alien tells you nothing about how much treasure is on the planet.</p>,,,,,,,,,,,,,,,,,,,,,,,
quiz_correct,56,290780,0.0-22.0-0.0,"""event"",""trial"",""time""
""fullscreenenter"",""1"",""2746""
","
","
","""event"",""trial"",""time""
""fullscreenenter"",""1"",""2746""
","
",,null,run_exp/static/audio/clip_26_correct_quiz.m4a,null,,,,,,,,,,,,,,,,,,,,,,,,
quiz_correct_continue,57,291836,0.0-22.0-1.0,"""event"",""trial"",""time""
""fullscreenenter"",""1"",""2746""
","
","
","""event"",""trial"",""time""
""fullscreenenter"",""1"",""2746""
","
",,1054,<p>Good job! You're now ready to move on to the real game!</p>,,,,,,,0,,,,,,,,,,,,,,,,,,
audio-keyboard-response,58,301960,0.0-22.0-2.0,"""event"",""trial"",""time""
""fullscreenenter"",""1"",""2746""
","
","
","""event"",""trial"",""time""
""fullscreenenter"",""1"",""2746""
","
",,null,run_exp/static/audio/clip_28_real_game.m4a,null,,,,,,,,,,,,,,,,,,,,,,,,
instruc_begin_exp_contine,59,302961,0.0-22.0-3.0,"""event"",""trial"",""time""
""fullscreenenter"",""1"",""2746""
","
","
","""event"",""trial"",""time""
""fullscreenenter"",""1"",""2746""
","
",,1000.1,"<p>Now that you know how  to dig for space treasure and travel to new planets,you can start exploring! </p><p>Do you want to go over the instructions again or get started with the real game?</p>",,,,,,,1,,,,,,1,,,,,,,,,,,,
alien_welcome,60,307967,0.0-23.0-0.0,"""event"",""trial"",""time""
""fullscreenenter"",""1"",""2746""
","
","
","""event"",""trial"",""time""
""fullscreenenter"",""1"",""2746""
","
",,null,run_exp/static/images/task_images/aliens/old_aliens/planet/alien_planet-8.jpg,null,,,,,,,,,,,,,8,"8,33,78,74,64,5,77,15,72,23,59,51,26,63,60,38,48,57,21,2,34,3,47,70,56,16,12,45,42,76,24,79,13,71,75,61,20,10,41,31,27,17,55,65,49,28,35",,,,,,,,,,
land,61,308468,0.0-23.0-1.0,"""event"",""trial"",""time""
""fullscreenenter"",""1"",""2746""
","
","
","""event"",""trial"",""time""
""fullscreenenter"",""1"",""2746""
","
",,null,run_exp/static/images/task_images/land.jpg,null,,,,,,,96,,,1,,,,,,,,,,,,,,
dig,62,310488,0.0-23.0-2.0,"""event"",""trial"",""time""
""fullscreenenter"",""1"",""2746""
","
","
","""event"",""trial"",""time""
""fullscreenenter"",""1"",""2746""
","
",,,,,,,,,,,,"[{""stimulus"":""run_exp/static/images/task_images/dig.jpg"",""time"":0.40000009536743164},{""stimulus"":""run_exp/static/images/task_images/land.jpg"",""time"":669},{""stimulus"":""run_exp/static/images/task_images/dig.jpg"",""time"":1339.0999999046326}]",[],1,,,,,,,,,,,,,,
harvest,63,311501,0.0-23.0-3.0,"""event"",""trial"",""time""
""fullscreenenter"",""1"",""2746""
","
","
","""event"",""trial"",""time""
""fullscreenenter"",""1"",""2746""
","
",,null,run_exp/static/images/task_images/gems/96.jpg,null,,,,,,,13,,,1,,,,,96,0.130590895,0.135416667,,,,,,,
decision,64,311886,0.0-23.0-4.0,"""event"",""trial"",""time""
""fullscreenenter"",""1"",""2746""
","
","
","""event"",""trial"",""time""
""fullscreenenter"",""1"",""2746""
","
",,383.6000001,run_exp/static/images/task_images/land.jpg,65,,,,,,,13,,,1,,,,,,,,8924,1,0,FALSE,,,
dig,65,314510,0.0-24.0-0.0,"""event"",""trial"",""time""
""fullscreenenter"",""1"",""2746""
","
","
","""event"",""trial"",""time""
""fullscreenenter"",""1"",""2746""
","
",,,,,,,,,,,,"[{""stimulus"":""run_exp/static/images/task_images/dig.jpg"",""time"":0.20000004768371582},{""stimulus"":""run_exp/static/images/task_images/land.jpg"",""time"":874.5},{""stimulus"":""run_exp/static/images/task_images/dig.jpg"",""time"":1750}]",[],1,,,,,,,,,,,,,,
harvest,66,315513,0.0-24.0-1.0,"""event"",""trial"",""time""
""fullscreenenter"",""1"",""2746""
","
","
","""event"",""trial"",""time""
""fullscreenenter"",""1"",""2746""
","
",,null,run_exp/static/images/task_images/gems/13.jpg,null,,,,,,,4,,,1,,,,,13,0.287949359,0.307692308,,,,,,,
decision,67,315860,0.0-24.0-2.0,"""event"",""trial"",""time""
""fullscreenenter"",""1"",""2746""
","
","
","""event"",""trial"",""time""
""fullscreenenter"",""1"",""2746""
","
",,345.1000001,run_exp/static/images/task_images/land.jpg,65,,,,,,,4,,,1,,,,,,,,12898,1,1,FALSE,,,
dig,68,318523,0.0-25.0-0.0,"""event"",""trial"",""time""
""fullscreenenter"",""1"",""2746""
","
","
","""event"",""trial"",""time""
""fullscreenenter"",""1"",""2746""
","
",,,,,,,,,,,,"[{""stimulus"":""run_exp/static/images/task_images/dig.jpg"",""time"":0.40000009536743164},{""stimulus"":""run_exp/static/images/task_images/land.jpg"",""time"":886.9000000953674},{""stimulus"":""run_exp/static/images/task_images/dig.jpg"",""time"":1780.2999999523163}]",[],1,,,,,,,,,,,,,,
harvest,69,319535,0.0-25.0-1.0,"""event"",""trial"",""time""
""fullscreenenter"",""1"",""2746""
","
","
","""event"",""trial"",""time""
""fullscreenenter"",""1"",""2746""
","
",,null,run_exp/static/images/task_images/gems/4.jpg,null,,,,,,,0,,,1,,,,,4,0.107754811,0,,,,,,,
decision,70,319824,0.0-25.0-2.0,"""event"",""trial"",""time""
""fullscreenenter"",""1"",""2746""
","
","
","""event"",""trial"",""time""
""fullscreenenter"",""1"",""2746""
","
",,287.0999999,run_exp/static/images/task_images/land.jpg,65,,,,,,,0,,,1,,,,,,,,16862,1,2,FALSE,,,
dig,71,322550,0.0-26.0-0.0,"""event"",""trial"",""time""
""fullscreenenter"",""1"",""2746""
","
","
","""event"",""trial"",""time""
""fullscreenenter"",""1"",""2746""
","
",,,,,,,,,,,,"[{""stimulus"":""run_exp/static/images/task_images/dig.jpg"",""time"":0.19999980926513672},{""stimulus"":""run_exp/static/images/task_images/land.jpg"",""time"":918.3999998569489},{""stimulus"":""run_exp/static/images/task_images/dig.jpg"",""time"":1819.5999999046326}]",[],1,,,,,,,,,,,,,,
harvest,72,323567,0.0-26.0-1.0,"""event"",""trial"",""time""
""fullscreenenter"",""1"",""2746""
","
","
","""event"",""trial"",""time""
""fullscreenenter"",""1"",""2746""
","
",,null,run_exp/static/images/task_images/gems/0.jpg,null,,,,,,,0,,,1,,,,,0,0.276208957,NaN,,,,,,,
decision,73,324008,0.0-26.0-2.0,"""event"",""trial"",""time""
""fullscreenenter"",""1"",""2746""
","
","
","""event"",""trial"",""time""
""fullscreenenter"",""1"",""2746""
","
",,440,run_exp/static/images/task_images/land.jpg,76,,,,,,,0,,,1,,,,,,,,21046,1,3,TRUE,,,
travel,74,333571,0.0-27.0-0.0,"""event"",""trial"",""time""
""fullscreenenter"",""1"",""2746""
","
","
","""event"",""trial"",""time""
""fullscreenenter"",""1"",""2746""
","
",,,,,,,,,,,,"[{""stimulus"":""run_exp/static/images/task_images/rocket-01.jpg"",""time"":0.20000004768371582},{""stimulus"":""run_exp/static/images/task_images/rocket-02.jpg"",""time"":1073.8999998569489},{""stimulus"":""run_exp/static/images/task_images/rocket-03.jpg"",""time"":2138.7999999523163},{""stimulus"":""run_exp/static/images/task_images/rocket-04.jpg"",""time"":3187.399999856949},{""stimulus"":""run_exp/static/images/task_images/rocket-05.jpg"",""time"":4253.099999904633},{""stimulus"":""run_exp/static/images/task_images/rocket-06.jpg"",""time"":5321.099999904633},{""stimulus"":""run_exp/static/images/task_images/rocket-07.jpg"",""time"":6381.700000047684},{""stimulus"":""run_exp/static/images/task_images/rocket-08.jpg"",""time"":7439.599999904633},{""stimulus"":""run_exp/static/images/task_images/rocket-09.jpg"",""time"":8500.399999856949}]",[],1,,,,,,,,,,,,,,
alien_welcome,75,338575,0.0-27.0-1.0,"""event"",""trial"",""time""
""fullscreenenter"",""1"",""2746""
","
","
","""event"",""trial"",""time""
""fullscreenenter"",""1"",""2746""
","
",,null,run_exp/static/images/task_images/aliens/old_aliens/planet/alien_planet-33.jpg,null,,,,,,,,,,,,,33,"8,33,78,74,64,5,77,15,72,23,59,51,26,63,60,38,48,57,21,2,34,3,47,70,56,16,12,45,42,76,24,79,13,71,75,61,20,10,41,31,27,17,55,65,49,28,35",,,,,,,,,,
land,76,339090,0.0-27.0-2.0,"""event"",""trial"",""time""
""fullscreenenter"",""1"",""2746""
","
","
","""event"",""trial"",""time""
""fullscreenenter"",""1"",""2746""
","
",,null,run_exp/static/images/task_images/land.jpg,null,,,,,,,103,,,2,,,,,,,,,,,,,,
dig,77,341102,0.0-27.0-3.0,"""event"",""trial"",""time""
""fullscreenenter"",""1"",""2746""
","
","
","""event"",""trial"",""time""
""fullscreenenter"",""1"",""2746""
","
",,,,,,,,,,,,"[{""stimulus"":""run_exp/static/images/task_images/dig.jpg"",""time"":0.40000009536743164},{""stimulus"":""run_exp/static/images/task_images/land.jpg"",""time"":671.2000000476837},{""stimulus"":""run_exp/static/images/task_images/dig.jpg"",""time"":1343.4000000953674}]",[],2,,,,,,,,,,,,,,
harvest,78,342118,0.0-27.0-4.0,"""event"",""trial"",""time""
""fullscreenenter"",""1"",""2746""
","
","
","""event"",""trial"",""time""
""fullscreenenter"",""1"",""2746""
","
",,null,run_exp/static/images/task_images/gems/103.jpg,null,,,,,,,19,,,2,,,,,103,0.185528103,0.184466019,,,,,,,
decision,79,342453,0.0-27.0-5.0,"""event"",""trial"",""time""
""fullscreenenter"",""1"",""2746""
","
","
","""event"",""trial"",""time""
""fullscreenenter"",""1"",""2746""
","
",,332.8,run_exp/static/images/task_images/land.jpg,65,,,,,,,19,,,2,,,,,,,,39491,1,0,FALSE,,,
dig,80,345130,0.0-28.0-0.0,"""event"",""trial"",""time""
""fullscreenenter"",""1"",""2746""
","
","
","""event"",""trial"",""time""
""fullscreenenter"",""1"",""2746""
","
",,,,,,,,,,,,"[{""stimulus"":""run_exp/static/images/task_images/dig.jpg"",""time"":0.2999999523162842},{""stimulus"":""run_exp/static/images/task_images/land.jpg"",""time"":893.2999999523163},{""stimulus"":""run_exp/static/images/task_images/dig.jpg"",""time"":1784.3999998569489}]",[],2,,,,,,,,,,,,,,
harvest,81,346142,0.0-28.0-1.0,"""event"",""trial"",""time""
""fullscreenenter"",""1"",""2746""
","
","
","""event"",""trial"",""time""
""fullscreenenter"",""1"",""2746""
","
",,null,run_exp/static/images/task_images/gems/19.jpg,null,,,,,,,3,,,2,,,,,19,0.166929662,0.157894737,,,,,,,
decision,82,346467,0.0-28.0-2.0,"""event"",""trial"",""time""
""fullscreenenter"",""1"",""2746""
","
","
","""event"",""trial"",""time""
""fullscreenenter"",""1"",""2746""
","
",,324,run_exp/static/images/task_images/land.jpg,65,,,,,,,3,,,2,,,,,,,,43505,1,1,FALSE,,,
dig,83,349151,0.0-29.0-0.0,"""event"",""trial"",""time""
""fullscreenenter"",""1"",""2746""
","
","
","""event"",""trial"",""time""
""fullscreenenter"",""1"",""2746""
","
",,,,,,,,,,,,"[{""stimulus"":""run_exp/static/images/task_images/dig.jpg"",""time"":0.20000004768371582},{""stimulus"":""run_exp/static/images/task_images/land.jpg"",""time"":896.2999999523163},{""stimulus"":""run_exp/static/images/task_images/dig.jpg"",""time"":1787.0999999046326}]",[],2,,,,,,,,,,,,,,
harvest,84,350156,0.0-29.0-1.0,"""event"",""trial"",""time""
""fullscreenenter"",""1"",""2746""
","
","
","""event"",""trial"",""time""
""fullscreenenter"",""1"",""2746""
","
",,null,run_exp/static/images/task_images/gems/3.jpg,null,,,,,,,1,,,2,,,,,3,0.172052785,0.333333333,,,,,,,
decision,85,350486,0.0-29.0-2.0,"""event"",""trial"",""time""
""fullscreenenter"",""1"",""2746""
","
","
","""event"",""trial"",""time""
""fullscreenenter"",""1"",""2746""
","
",,328.5999999,run_exp/static/images/task_images/land.jpg,65,,,,,,,1,,,2,,,,,,,,47524,1,2,FALSE,,,
dig,86,353171,0.0-30.0-0.0,"""event"",""trial"",""time""
""fullscreenenter"",""1"",""2746""
","
","
","""event"",""trial"",""time""
""fullscreenenter"",""1"",""2746""
","
",,,,,,,,,,,,"[{""stimulus"":""run_exp/static/images/task_images/dig.jpg"",""time"":0.2999999523162842},{""stimulus"":""run_exp/static/images/task_images/land.jpg"",""time"":897.5},{""stimulus"":""run_exp/static/images/task_images/dig.jpg"",""time"":1791.7000000476837}]",[],2,,,,,,,,,,,,,,
harvest,87,354185,0.0-30.0-1.0,"""event"",""trial"",""time""
""fullscreenenter"",""1"",""2746""
","
","
","""event"",""trial"",""time""
""fullscreenenter"",""1"",""2746""
","
",,null,run_exp/static/images/task_images/gems/1.jpg,null,,,,,,,0,,,2,,,,,1,0.275995184,0,,,,,,,
decision,88,354511,0.0-30.0-2.0,"""event"",""trial"",""time""
""fullscreenenter"",""1"",""2746""
","
","
","""event"",""trial"",""time""
""fullscreenenter"",""1"",""2746""
","
",,323.8999999,run_exp/static/images/task_images/land.jpg,65,,,,,,,0,,,2,,,,,,,,51549,1,3,FALSE,,,
dig,89,357200,0.0-31.0-0.0,"""event"",""trial"",""time""
""fullscreenenter"",""1"",""2746""
","
","
","""event"",""trial"",""time""
""fullscreenenter"",""1"",""2746""
","
",,,,,,,,,,,,"[{""stimulus"":""run_exp/static/images/task_images/dig.jpg"",""time"":0.20000004768371582},{""stimulus"":""run_exp/static/images/task_images/land.jpg"",""time"":905.2000000476837},{""stimulus"":""run_exp/static/images/task_images/dig.jpg"",""time"":1796.5999999046326}]",[],2,,,,,,,,,,,,,,
harvest,90,358215,0.0-31.0-1.0,"""event"",""trial"",""time""
""fullscreenenter"",""1"",""2746""
","
","
","""event"",""trial"",""time""
""fullscreenenter"",""1"",""2746""
","
",,null,run_exp/static/images/task_images/gems/0.jpg,null,,,,,,,0,,,2,,,,,0,0.090936757,NaN,,,,,,,
decision,91,358255,0.0-31.0-2.0,"""event"",""trial"",""time""
""fullscreenenter"",""1"",""2746""
","
","
","""event"",""trial"",""time""
""fullscreenenter"",""1"",""2746""
","
",,38.70000005,run_exp/static/images/task_images/land.jpg,65,,,,,,,0,,,2,,,,,,,,55293,1,4,FALSE,,,
dig,92,361229,0.0-32.0-0.0,"""event"",""trial"",""time""
""fullscreenenter"",""1"",""2746""
","
","
","""event"",""trial"",""time""
""fullscreenenter"",""1"",""2746""
","
",,,,,,,,,,,,"[{""stimulus"":""run_exp/static/images/task_images/dig.jpg"",""time"":0.10000014305114746},{""stimulus"":""run_exp/static/images/task_images/land.jpg"",""time"":1002.7000000476837},{""stimulus"":""run_exp/static/images/task_images/dig.jpg"",""time"":1983.6000001430511}]",[],2,,,,,,,,,,,,,,
harvest,93,362242,0.0-32.0-1.0,"""event"",""trial"",""time""
""fullscreenenter"",""1"",""2746""
","
","
","""event"",""trial"",""time""
""fullscreenenter"",""1"",""2746""
","
",,null,run_exp/static/images/task_images/gems/0.jpg,null,,,,,,,0,,,2,,,,,0,0.163412812,NaN,,,,,,,
decision,94,362656,0.0-32.0-2.0,"""event"",""trial"",""time""
""fullscreenenter"",""1"",""2746""
","
","
","""event"",""trial"",""time""
""fullscreenenter"",""1"",""2746""
","
",,412.7,run_exp/static/images/task_images/land.jpg,76,,,,,,,0,,,2,,,,,,,,59694,1,5,TRUE,,,
travel,95,372249,0.0-33.0-0.0,"""event"",""trial"",""time""
""fullscreenenter"",""1"",""2746""
","
","
","""event"",""trial"",""time""
""fullscreenenter"",""1"",""2746""
","
",,,,,,,,,,,,"[{""stimulus"":""run_exp/static/images/task_images/rocket-01.jpg"",""time"":0.2999999523162842},{""stimulus"":""run_exp/static/images/task_images/rocket-02.jpg"",""time"":1075.1000001430511},{""stimulus"":""run_exp/static/images/task_images/rocket-03.jpg"",""time"":2143.100000143051},{""stimulus"":""run_exp/static/images/task_images/rocket-04.jpg"",""time"":3200.9000000953674},{""stimulus"":""run_exp/static/images/task_images/rocket-05.jpg"",""time"":4262.5},{""stimulus"":""run_exp/static/images/task_images/rocket-06.jpg"",""time"":5327.400000095367},{""stimulus"":""run_exp/static/images/task_images/rocket-07.jpg"",""time"":6391.200000047684},{""stimulus"":""run_exp/static/images/task_images/rocket-08.jpg"",""time"":7465.5},{""stimulus"":""run_exp/static/images/task_images/rocket-09.jpg"",""time"":8528.5}]",[],2,,,,,,,,,,,,,,
alien_welcome,96,377253,0.0-33.0-1.0,"""event"",""trial"",""time""
""fullscreenenter"",""1"",""2746""
","
","
","""event"",""trial"",""time""
""fullscreenenter"",""1"",""2746""
","
",,null,run_exp/static/images/task_images/aliens/old_aliens/planet/alien_planet-78.jpg,null,,,,,,,,,,,,,78,"8,33,78,74,64,5,77,15,72,23,59,51,26,63,60,38,48,57,21,2,34,3,47,70,56,16,12,45,42,76,24,79,13,71,75,61,20,10,41,31,27,17,55,65,49,28,35",,,,,,,,,,
land,97,377767,0.0-33.0-2.0,"""event"",""trial"",""time""
""fullscreenenter"",""1"",""2746""
","
","
","""event"",""trial"",""time""
""fullscreenenter"",""1"",""2746""
","
",,null,run_exp/static/images/task_images/land.jpg,null,,,,,,,101,,,3,,,,,,,,,,,,,,
dig,98,379783,0.0-33.0-3.0,"""event"",""trial"",""time""
""fullscreenenter"",""1"",""2746""
","
","
","""event"",""trial"",""time""
""fullscreenenter"",""1"",""2746""
","
",,,,,,,,,,,,"[{""stimulus"":""run_exp/static/images/task_images/dig.jpg"",""time"":0.2999999523162842},{""stimulus"":""run_exp/static/images/task_images/land.jpg"",""time"":671.7999999523163},{""stimulus"":""run_exp/static/images/task_images/dig.jpg"",""time"":1342.9000000953674}]",[],3,,,,,,,,,,,,,,
harvest,99,380788,0.0-33.0-4.0,"""event"",""trial"",""time""
""fullscreenenter"",""1"",""2746""
","
","
","""event"",""trial"",""time""
""fullscreenenter"",""1"",""2746""
","
",,null,run_exp/static/images/task_images/gems/101.jpg,null,,,,,,,39,,,3,,,,,101,0.382059213,0.386138614,,,,,,,
decision,100,381102,0.0-33.0-5.0,"""event"",""trial"",""time""
""fullscreenenter"",""1"",""2746""
","
","
","""event"",""trial"",""time""
""fullscreenenter"",""1"",""2746""
","
",,312.7,run_exp/static/images/task_images/land.jpg,65,,,,,,,39,,,3,,,,,,,,78140,1,0,FALSE,,,
dig,101,383800,0.0-34.0-0.0,"""event"",""trial"",""time""
""fullscreenenter"",""1"",""2746""
","
","
","""event"",""trial"",""time""
""fullscreenenter"",""1"",""2746""
","
",,,,,,,,,,,,"[{""stimulus"":""run_exp/static/images/task_images/dig.jpg"",""time"":0.20000004768371582},{""stimulus"":""run_exp/static/images/task_images/land.jpg"",""time"":896.9000000953674},{""stimulus"":""run_exp/static/images/task_images/dig.jpg"",""time"":1804.4000000953674}]",[],3,,,,,,,,,,,,,,
harvest,102,384812,0.0-34.0-1.0,"""event"",""trial"",""time""
""fullscreenenter"",""1"",""2746""
","
","
","""event"",""trial"",""time""
""fullscreenenter"",""1"",""2746""
","
",,null,run_exp/static/images/task_images/gems/39.jpg,null,,,,,,,17,,,3,,,,,39,0.442548005,0.435897436,,,,,,,
decision,103,385065,0.0-34.0-2.0,"""event"",""trial"",""time""
""fullscreenenter"",""1"",""2746""
","
","
","""event"",""trial"",""time""
""fullscreenenter"",""1"",""2746""
","
",,252.2,run_exp/static/images/task_images/land.jpg,76,,,,,,,17,,,3,,,,,,,,82104,1,1,TRUE,,,
travel,104,394833,0.0-35.0-0.0,"""event"",""trial"",""time""
""fullscreenenter"",""1"",""2746""
","
","
","""event"",""trial"",""time""
""fullscreenenter"",""1"",""2746""
","
",,,,,,,,,,,,"[{""stimulus"":""run_exp/static/images/task_images/rocket-01.jpg"",""time"":0.2999999523162842},{""stimulus"":""run_exp/static/images/task_images/rocket-02.jpg"",""time"":1099.5},{""stimulus"":""run_exp/static/images/task_images/rocket-03.jpg"",""time"":2169.899999856949},{""stimulus"":""run_exp/static/images/task_images/rocket-04.jpg"",""time"":3260.399999856949},{""stimulus"":""run_exp/static/images/task_images/rocket-05.jpg"",""time"":4343.899999856949},{""stimulus"":""run_exp/static/images/task_images/rocket-06.jpg"",""time"":5424.699999809265},{""stimulus"":""run_exp/static/images/task_images/rocket-07.jpg"",""time"":6499.799999952316},{""stimulus"":""run_exp/static/images/task_images/rocket-08.jpg"",""time"":7583.899999856949},{""stimulus"":""run_exp/static/images/task_images/rocket-09.jpg"",""time"":8667.399999856949}]",[],3,,,,,,,,,,,,,,
alien_welcome,105,399840,0.0-35.0-1.0,"""event"",""trial"",""time""
""fullscreenenter"",""1"",""2746""
","
","
","""event"",""trial"",""time""
""fullscreenenter"",""1"",""2746""
","
",,null,run_exp/static/images/task_images/aliens/old_aliens/planet/alien_planet-74.jpg,null,,,,,,,,,,,,,74,"8,33,78,74,64,5,77,15,72,23,59,51,26,63,60,38,48,57,21,2,34,3,47,70,56,16,12,45,42,76,24,79,13,71,75,61,20,10,41,31,27,17,55,65,49,28,35",,,,,,,,,,
land,106,400348,0.0-35.0-2.0,"""event"",""trial"",""time""
""fullscreenenter"",""1"",""2746""
","
","
","""event"",""trial"",""time""
""fullscreenenter"",""1"",""2746""
","
",,null,run_exp/static/images/task_images/land.jpg,null,,,,,,,102,,,4,,,,,,,,,,,,,,
dig,107,402363,0.0-35.0-3.0,"""event"",""trial"",""time""
""fullscreenenter"",""1"",""2746""
","
","
","""event"",""trial"",""time""
""fullscreenenter"",""1"",""2746""
","
",,,,,,,,,,,,"[{""stimulus"":""run_exp/static/images/task_images/dig.jpg"",""time"":0.40000009536743164},{""stimulus"":""run_exp/static/images/task_images/land.jpg"",""time"":680.5},{""stimulus"":""run_exp/static/images/task_images/dig.jpg"",""time"":1341.2000000476837}]",[],4,,,,,,,,,,,,,,
harvest,108,403380,0.0-35.0-4.0,"""event"",""trial"",""time""
""fullscreenenter"",""1"",""2746""
","
","
","""event"",""trial"",""time""
""fullscreenenter"",""1"",""2746""
","
",,null,run_exp/static/images/task_images/gems/102.jpg,null,,,,,,,53,,,4,,,,,102,0.518816331,0.519607843,,,,,,,
decision,109,403778,0.0-35.0-5.0,"""event"",""trial"",""time""
""fullscreenenter"",""1"",""2746""
","
","
","""event"",""trial"",""time""
""fullscreenenter"",""1"",""2746""
","
",,397,run_exp/static/images/task_images/land.jpg,65,,,,,,,53,,,4,,,,,,,,100816,1,0,FALSE,,,
dig,110,406386,0.0-36.0-0.0,"""event"",""trial"",""time""
""fullscreenenter"",""1"",""2746""
","
","
","""event"",""trial"",""time""
""fullscreenenter"",""1"",""2746""
","
",,,,,,,,,,,,"[{""stimulus"":""run_exp/static/images/task_images/dig.jpg"",""time"":0.19999980926513672},{""stimulus"":""run_exp/static/images/task_images/land.jpg"",""time"":871},{""stimulus"":""run_exp/static/images/task_images/dig.jpg"",""time"":1747.7999999523163}]",[],4,,,,,,,,,,,,,,
harvest,111,407398,0.0-36.0-1.0,"""event"",""trial"",""time""
""fullscreenenter"",""1"",""2746""
","
","
","""event"",""trial"",""time""
""fullscreenenter"",""1"",""2746""
","
",,null,run_exp/static/images/task_images/gems/53.jpg,null,,,,,,,24,,,4,,,,,53,0.447540952,0.452830189,,,,,,,
decision,112,407736,0.0-36.0-2.0,"""event"",""trial"",""time""
""fullscreenenter"",""1"",""2746""
","
","
","""event"",""trial"",""time""
""fullscreenenter"",""1"",""2746""
","
",,336.1000001,run_exp/static/images/task_images/land.jpg,76,,,,,,,24,,,4,,,,,,,,104774,1,1,TRUE,,,
travel,113,417417,0.0-37.0-0.0,"""event"",""trial"",""time""
""fullscreenenter"",""1"",""2746""
","
","
","""event"",""trial"",""time""
""fullscreenenter"",""1"",""2746""
","
",,,,,,,,,,,,"[{""stimulus"":""run_exp/static/images/task_images/rocket-01.jpg"",""time"":0.40000009536743164},{""stimulus"":""run_exp/static/images/task_images/rocket-02.jpg"",""time"":1089.4000000953674},{""stimulus"":""run_exp/static/images/task_images/rocket-03.jpg"",""time"":2152.7000000476837},{""stimulus"":""run_exp/static/images/task_images/rocket-04.jpg"",""time"":3229.800000190735},{""stimulus"":""run_exp/static/images/task_images/rocket-05.jpg"",""time"":4305.900000095367},{""stimulus"":""run_exp/static/images/task_images/rocket-06.jpg"",""time"":5372},{""stimulus"":""run_exp/static/images/task_images/rocket-07.jpg"",""time"":6452.900000095367},{""stimulus"":""run_exp/static/images/task_images/rocket-08.jpg"",""time"":7514},{""stimulus"":""run_exp/static/images/task_images/rocket-09.jpg"",""time"":8593.400000095367}]",[],4,,,,,,,,,,,,,,
alien_welcome,114,422433,0.0-37.0-1.0,"""event"",""trial"",""time""
""fullscreenenter"",""1"",""2746""
","
","
","""event"",""trial"",""time""
""fullscreenenter"",""1"",""2746""
","
",,null,run_exp/static/images/task_images/aliens/old_aliens/planet/alien_planet-64.jpg,null,,,,,,,,,,,,,64,"8,33,78,74,64,5,77,15,72,23,59,51,26,63,60,38,48,57,21,2,34,3,47,70,56,16,12,45,42,76,24,79,13,71,75,61,20,10,41,31,27,17,55,65,49,28,35",,,,,,,,,,
land,115,422947,0.0-37.0-2.0,"""event"",""trial"",""time""
""fullscreenenter"",""1"",""2746""
","
","
","""event"",""trial"",""time""
""fullscreenenter"",""1"",""2746""
","
",,null,run_exp/static/images/task_images/land.jpg,null,,,,,,,96,,,5,,,,,,,,,,,,,,
dig,116,424963,0.0-37.0-3.0,"""event"",""trial"",""time""
""fullscreenenter"",""1"",""2746""
","
","
","""event"",""trial"",""time""
""fullscreenenter"",""1"",""2746""
","
",,,,,,,,,,,,"[{""stimulus"":""run_exp/static/images/task_images/dig.jpg"",""time"":0.40000009536743164},{""stimulus"":""run_exp/static/images/task_images/land.jpg"",""time"":684.0999999046326},{""stimulus"":""run_exp/static/images/task_images/dig.jpg"",""time"":1344.0999999046326}]",[],5,,,,,,,,,,,,,,
harvest,117,425979,0.0-37.0-4.0,"""event"",""trial"",""time""
""fullscreenenter"",""1"",""2746""
","
","
","""event"",""trial"",""time""
""fullscreenenter"",""1"",""2746""
","
",,null,run_exp/static/images/task_images/gems/96.jpg,null,,,,,,,48,,,5,,,,,96,0.501658647,0.5,,,,,,,
decision,118,426310,0.0-37.0-5.0,"""event"",""trial"",""time""
""fullscreenenter"",""1"",""2746""
","
","
","""event"",""trial"",""time""
""fullscreenenter"",""1"",""2746""
","
",,329.5999999,run_exp/static/images/task_images/land.jpg,65,,,,,,,48,,,5,,,,,,,,123348,1,0,FALSE,,,
dig,119,428988,0.0-38.0-0.0,"""event"",""trial"",""time""
""fullscreenenter"",""1"",""2746""
","
","
","""event"",""trial"",""time""
""fullscreenenter"",""1"",""2746""
","
",,,,,,,,,,,,"[{""stimulus"":""run_exp/static/images/task_images/dig.jpg"",""time"":0.3000001907348633},{""stimulus"":""run_exp/static/images/task_images/land.jpg"",""time"":893.8000001907349},{""stimulus"":""run_exp/static/images/task_images/dig.jpg"",""time"":1782.8000001907349}]",[],5,,,,,,,,,,,,,,
harvest,120,430005,0.0-38.0-1.0,"""event"",""trial"",""time""
""fullscreenenter"",""1"",""2746""
","
","
","""event"",""trial"",""time""
""fullscreenenter"",""1"",""2746""
","
",,null,run_exp/static/images/task_images/gems/48.jpg,null,,,,,,,25,,,5,,,,,48,0.525364136,0.520833333,,,,,,,
decision,121,430335,0.0-38.0-2.0,"""event"",""trial"",""time""
""fullscreenenter"",""1"",""2746""
","
","
","""event"",""trial"",""time""
""fullscreenenter"",""1"",""2746""
","
",,328.7,run_exp/static/images/task_images/land.jpg,76,,,,,,,25,,,5,,,,,,,,127373,1,1,TRUE,,,
travel,122,440012,0.0-39.0-0.0,"""event"",""trial"",""time""
""fullscreenenter"",""1"",""2746""
","
","
","""event"",""trial"",""time""
""fullscreenenter"",""1"",""2746""
","
",,,,,,,,,,,,"[{""stimulus"":""run_exp/static/images/task_images/rocket-01.jpg"",""time"":0.20000004768371582},{""stimulus"":""run_exp/static/images/task_images/rocket-02.jpg"",""time"":1088.2000000476837},{""stimulus"":""run_exp/static/images/task_images/rocket-03.jpg"",""time"":2164.600000143051},{""stimulus"":""run_exp/static/images/task_images/rocket-04.jpg"",""time"":3222.9000000953674},{""stimulus"":""run_exp/static/images/task_images/rocket-05.jpg"",""time"":4300.400000095367},{""stimulus"":""run_exp/static/images/task_images/rocket-06.jpg"",""time"":5381},{""stimulus"":""run_exp/static/images/task_images/rocket-07.jpg"",""time"":6461.5},{""stimulus"":""run_exp/static/images/task_images/rocket-08.jpg"",""time"":7525.800000190735},{""stimulus"":""run_exp/static/images/task_images/rocket-09.jpg"",""time"":8607}]",[],5,,,,,,,,,,,,,,
alien_welcome,123,445029,0.0-39.0-1.0,"""event"",""trial"",""time""
""fullscreenenter"",""1"",""2746""
","
","
","""event"",""trial"",""time""
""fullscreenenter"",""1"",""2746""
","
",,null,run_exp/static/images/task_images/aliens/old_aliens/planet/alien_planet-5.jpg,null,,,,,,,,,,,,,5,"8,33,78,74,64,5,77,15,72,23,59,51,26,63,60,38,48,57,21,2,34,3,47,70,56,16,12,45,42,76,24,79,13,71,75,61,20,10,41,31,27,17,55,65,49,28,35",,,,,,,,,,
land,124,445545,0.0-39.0-2.0,"""event"",""trial"",""time""
""fullscreenenter"",""1"",""2746""
","
","
","""event"",""trial"",""time""
""fullscreenenter"",""1"",""2746""
","
",,null,run_exp/static/images/task_images/land.jpg,null,,,,,,,104,,,6,,,,,,,,,,,,,,
dig,125,447551,0.0-39.0-3.0,"""event"",""trial"",""time""
""fullscreenenter"",""1"",""2746""
","
","
","""event"",""trial"",""time""
""fullscreenenter"",""1"",""2746""
","
",,,,,,,,,,,,"[{""stimulus"":""run_exp/static/images/task_images/dig.jpg"",""time"":0.2999999523162842},{""stimulus"":""run_exp/static/images/task_images/land.jpg"",""time"":671.5999999046326},{""stimulus"":""run_exp/static/images/task_images/dig.jpg"",""time"":1347.0999999046326}]",[],6,,,,,,,,,,,,,,
harvest,126,448566,0.0-39.0-4.0,"""event"",""trial"",""time""
""fullscreenenter"",""1"",""2746""
","
","
","""event"",""trial"",""time""
""fullscreenenter"",""1"",""2746""
","
",,null,run_exp/static/images/task_images/gems/104.jpg,null,,,,,,,91,,,6,,,,,104,0.873193378,0.875,,,,,,,
decision,127,449031,0.0-39.0-5.0,"""event"",""trial"",""time""
""fullscreenenter"",""1"",""2746""
","
","
","""event"",""trial"",""time""
""fullscreenenter"",""1"",""2746""
","
",,463.8999999,run_exp/static/images/task_images/land.jpg,65,,,,,,,91,,,6,,,,,,,,146069,1,0,FALSE,,,
dig,128,451578,0.0-40.0-0.0,"""event"",""trial"",""time""
""fullscreenenter"",""1"",""2746""
","
","
","""event"",""trial"",""time""
""fullscreenenter"",""1"",""2746""
","
",,,,,,,,,,,,"[{""stimulus"":""run_exp/static/images/task_images/dig.jpg"",""time"":0.39999985694885254},{""stimulus"":""run_exp/static/images/task_images/land.jpg"",""time"":855.1999998092651},{""stimulus"":""run_exp/static/images/task_images/dig.jpg"",""time"":1700.5999999046326}]",[],6,,,,,,,,,,,,,,
harvest,129,452587,0.0-40.0-1.0,"""event"",""trial"",""time""
""fullscreenenter"",""1"",""2746""
","
","
","""event"",""trial"",""time""
""fullscreenenter"",""1"",""2746""
","
",,null,run_exp/static/images/task_images/gems/91.jpg,null,,,,,,,71,,,6,,,,,91,0.783094464,0.78021978,,,,,,,
decision,130,452980,0.0-40.0-2.0,"""event"",""trial"",""time""
""fullscreenenter"",""1"",""2746""
","
","
","""event"",""trial"",""time""
""fullscreenenter"",""1"",""2746""
","
",,392.3,run_exp/static/images/task_images/land.jpg,65,,,,,,,71,,,6,,,,,,,,150018,1,1,FALSE,,,
dig,131,455591,0.0-41.0-0.0,"""event"",""trial"",""time""
""fullscreenenter"",""1"",""2746""
","
","
","""event"",""trial"",""time""
""fullscreenenter"",""1"",""2746""
","
",,,,,,,,,,,,"[{""stimulus"":""run_exp/static/images/task_images/dig.jpg"",""time"":0.10000014305114746},{""stimulus"":""run_exp/static/images/task_images/land.jpg"",""time"":872.1000001430511},{""stimulus"":""run_exp/static/images/task_images/dig.jpg"",""time"":1745.2000000476837}]",[],6,,,,,,,,,,,,,,
harvest,132,456605,0.0-41.0-1.0,"""event"",""trial"",""time""
""fullscreenenter"",""1"",""2746""
","
","
","""event"",""trial"",""time""
""fullscreenenter"",""1"",""2746""
","
",,null,run_exp/static/images/task_images/gems/71.jpg,null,,,,,,,61,,,6,,,,,71,0.856454915,0.85915493,,,,,,,
decision,133,456923,0.0-41.0-2.0,"""event"",""trial"",""time""
""fullscreenenter"",""1"",""2746""
","
","
","""event"",""trial"",""time""
""fullscreenenter"",""1"",""2746""
","
",,316.4000001,run_exp/static/images/task_images/land.jpg,65,,,,,,,61,,,6,,,,,,,,153961,1,2,FALSE,,,
dig,134,459619,0.0-42.0-0.0,"""event"",""trial"",""time""
""fullscreenenter"",""1"",""2746""
","
","
","""event"",""trial"",""time""
""fullscreenenter"",""1"",""2746""
","
",,,,,,,,,,,,"[{""stimulus"":""run_exp/static/images/task_images/dig.jpg"",""time"":0.2999999523162842},{""stimulus"":""run_exp/static/images/task_images/land.jpg"",""time"":898.3999998569489},{""stimulus"":""run_exp/static/images/task_images/dig.jpg"",""time"":1799.2999999523163}]",[],6,,,,,,,,,,,,,,
harvest,135,460623,0.0-42.0-1.0,"""event"",""trial"",""time""
""fullscreenenter"",""1"",""2746""
","
","
","""event"",""trial"",""time""
""fullscreenenter"",""1"",""2746""
","
",,null,run_exp/static/images/task_images/gems/61.jpg,null,,,,,,,44,,,6,,,,,61,0.725526371,0.721311475,,,,,,,
decision,136,460878,0.0-42.0-2.0,"""event"",""trial"",""time""
""fullscreenenter"",""1"",""2746""
","
","
","""event"",""trial"",""time""
""fullscreenenter"",""1"",""2746""
","
",,254.3,run_exp/static/images/task_images/land.jpg,65,,,,,,,44,,,6,,,,,,,,157917,1,3,FALSE,,,
dig,137,463631,0.0-43.0-0.0,"""event"",""trial"",""time""
""fullscreenenter"",""1"",""2746""
","
","
","""event"",""trial"",""time""
""fullscreenenter"",""1"",""2746""
","
",,,,,,,,,,,,"[{""stimulus"":""run_exp/static/images/task_images/dig.jpg"",""time"":0.5},{""stimulus"":""run_exp/static/images/task_images/land.jpg"",""time"":927},{""stimulus"":""run_exp/static/images/task_images/dig.jpg"",""time"":1838.5}]",[],6,,,,,,,,,,,,,,
harvest,138,464643,0.0-43.0-1.0,"""event"",""trial"",""time""
""fullscreenenter"",""1"",""2746""
","
","
","""event"",""trial"",""time""
""fullscreenenter"",""1"",""2746""
","
",,null,run_exp/static/images/task_images/gems/44.jpg,null,,,,,,,37,,,6,,,,,44,0.839239596,0.840909091,,,,,,,
decision,139,464920,0.0-43.0-2.0,"""event"",""trial"",""time""
""fullscreenenter"",""1"",""2746""
","
","
","""event"",""trial"",""time""
""fullscreenenter"",""1"",""2746""
","
",,275.2,run_exp/static/images/task_images/land.jpg,76,,,,,,,37,,,6,,,,,,,,161958,1,4,TRUE,,,
travel,140,474650,0.0-44.0-0.0,"""event"",""trial"",""time""
""fullscreenenter"",""1"",""2746""
","
","
","""event"",""trial"",""time""
""fullscreenenter"",""1"",""2746""
","
",,,,,,,,,,,,"[{""stimulus"":""run_exp/static/images/task_images/rocket-01.jpg"",""time"":0.2999999523162842},{""stimulus"":""run_exp/static/images/task_images/rocket-02.jpg"",""time"":1090.0999999046326},{""stimulus"":""run_exp/static/images/task_images/rocket-03.jpg"",""time"":2166.5},{""stimulus"":""run_exp/static/images/task_images/rocket-04.jpg"",""time"":3244.9000000953674},{""stimulus"":""run_exp/static/images/task_images/rocket-05.jpg"",""time"":4323.299999952316},{""stimulus"":""run_exp/static/images/task_images/rocket-06.jpg"",""time"":5417},{""stimulus"":""run_exp/static/images/task_images/rocket-07.jpg"",""time"":6490.400000095367},{""stimulus"":""run_exp/static/images/task_images/rocket-08.jpg"",""time"":7571.700000047684},{""stimulus"":""run_exp/static/images/task_images/rocket-09.jpg"",""time"":8645.599999904633}]",[],6,,,,,,,,,,,,,,
alien_welcome,141,479664,0.0-44.0-1.0,"""event"",""trial"",""time""
""fullscreenenter"",""1"",""2746""
","
","
","""event"",""trial"",""time""
""fullscreenenter"",""1"",""2746""
","
",,null,run_exp/static/images/task_images/aliens/old_aliens/planet/alien_planet-77.jpg,null,,,,,,,,,,,,,77,"8,33,78,74,64,5,77,15,72,23,59,51,26,63,60,38,48,57,21,2,34,3,47,70,56,16,12,45,42,76,24,79,13,71,75,61,20,10,41,31,27,17,55,65,49,28,35",,,,,,,,,,
land,142,480178,0.0-44.0-2.0,"""event"",""trial"",""time""
""fullscreenenter"",""1"",""2746""
","
","
","""event"",""trial"",""time""
""fullscreenenter"",""1"",""2746""
","
",,null,run_exp/static/images/task_images/land.jpg,null,,,,,,,97,,,7,,,,,,,,,,,,,,
dig,143,482196,0.0-44.0-3.0,"""event"",""trial"",""time""
""fullscreenenter"",""1"",""2746""
","
","
","""event"",""trial"",""time""
""fullscreenenter"",""1"",""2746""
","
",,,,,,,,,,,,"[{""stimulus"":""run_exp/static/images/task_images/dig.jpg"",""time"":0.39999985694885254},{""stimulus"":""run_exp/static/images/task_images/land.jpg"",""time"":669.8999998569489},{""stimulus"":""run_exp/static/images/task_images/dig.jpg"",""time"":1343.3999998569489}]",[],7,,,,,,,,,,,,,,
harvest,144,483213,0.0-44.0-4.0,"""event"",""trial"",""time""
""fullscreenenter"",""1"",""2746""
","
","
","""event"",""trial"",""time""
""fullscreenenter"",""1"",""2746""
","
",,null,run_exp/static/images/task_images/gems/97.jpg,null,,,,,,,79,,,7,,,,,97,0.815056345,0.81443299,,,,,,,
decision,145,483663,0.0-44.0-5.0,"""event"",""trial"",""time""
""fullscreenenter"",""1"",""2746""
","
","
","""event"",""trial"",""time""
""fullscreenenter"",""1"",""2746""
","
",,447.6999998,run_exp/static/images/task_images/land.jpg,65,,,,,,,79,,,7,,,,,,,,180701,1,0,FALSE,,,
dig,146,486221,0.0-45.0-0.0,"""event"",""trial"",""time""
""fullscreenenter"",""1"",""2746""
","
","
","""event"",""trial"",""time""
""fullscreenenter"",""1"",""2746""
","
",,,,,,,,,,,,"[{""stimulus"":""run_exp/static/images/task_images/dig.jpg"",""time"":0.20000004768371582},{""stimulus"":""run_exp/static/images/task_images/land.jpg"",""time"":864.9000000953674},{""stimulus"":""run_exp/static/images/task_images/dig.jpg"",""time"":1711.6000001430511}]",[],7,,,,,,,,,,,,,,
harvest,147,487236,0.0-45.0-1.0,"""event"",""trial"",""time""
""fullscreenenter"",""1"",""2746""
","
","
","""event"",""trial"",""time""
""fullscreenenter"",""1"",""2746""
","
",,null,run_exp/static/images/task_images/gems/79.jpg,null,,,,,,,60,,,7,,,,,79,0.761850721,0.759493671,,,,,,,
decision,148,487562,0.0-45.0-2.0,"""event"",""trial"",""time""
""fullscreenenter"",""1"",""2746""
","
","
","""event"",""trial"",""time""
""fullscreenenter"",""1"",""2746""
","
",,324,run_exp/static/images/task_images/land.jpg,65,,,,,,,60,,,7,,,,,,,,184600,1,1,FALSE,,,
dig,149,490253,0.0-46.0-0.0,"""event"",""trial"",""time""
""fullscreenenter"",""1"",""2746""
","
","
","""event"",""trial"",""time""
""fullscreenenter"",""1"",""2746""
","
",,,,,,,,,,,,"[{""stimulus"":""run_exp/static/images/task_images/dig.jpg"",""time"":0.2999999523162842},{""stimulus"":""run_exp/static/images/task_images/land.jpg"",""time"":903.5},{""stimulus"":""run_exp/static/images/task_images/dig.jpg"",""time"":1795}]",[],7,,,,,,,,,,,,,,
harvest,150,491267,0.0-46.0-1.0,"""event"",""trial"",""time""
""fullscreenenter"",""1"",""2746""
","
","
","""event"",""trial"",""time""
""fullscreenenter"",""1"",""2746""
","
",,null,run_exp/static/images/task_images/gems/60.jpg,null,,,,,,,50,,,7,,,,,60,0.834528581,0.833333333,,,,,,,
decision,151,491554,0.0-46.0-2.0,"""event"",""trial"",""time""
""fullscreenenter"",""1"",""2746""
","
","
","""event"",""trial"",""time""
""fullscreenenter"",""1"",""2746""
","
",,284.8,run_exp/static/images/task_images/land.jpg,65,,,,,,,50,,,7,,,,,,,,188592,1,2,FALSE,,,
dig,152,494283,0.0-47.0-0.0,"""event"",""trial"",""time""
""fullscreenenter"",""1"",""2746""
","
","
","""event"",""trial"",""time""
""fullscreenenter"",""1"",""2746""
","
",,,,,,,,,,,,"[{""stimulus"":""run_exp/static/images/task_images/dig.jpg"",""time"":0.2999999523162842},{""stimulus"":""run_exp/static/images/task_images/land.jpg"",""time"":915.2000000476837},{""stimulus"":""run_exp/static/images/task_images/dig.jpg"",""time"":1820.5}]",[],7,,,,,,,,,,,,,,
harvest,153,495298,0.0-47.0-1.0,"""event"",""trial"",""time""
""fullscreenenter"",""1"",""2746""
","
","
","""event"",""trial"",""time""
""fullscreenenter"",""1"",""2746""
","
",,null,run_exp/static/images/task_images/gems/50.jpg,null,,,,,,,37,,,7,,,,,50,0.732463468,0.74,,,,,,,
decision,154,495606,0.0-47.0-2.0,"""event"",""trial"",""time""
""fullscreenenter"",""1"",""2746""
","
","
","""event"",""trial"",""time""
""fullscreenenter"",""1"",""2746""
","
",,306.2,run_exp/static/images/task_images/land.jpg,65,,,,,,,37,,,7,,,,,,,,192644,1,3,FALSE,,,
dig,155,498315,0.0-48.0-0.0,"""event"",""trial"",""time""
""fullscreenenter"",""1"",""2746""
","
","
","""event"",""trial"",""time""
""fullscreenenter"",""1"",""2746""
","
",,,,,,,,,,,,"[{""stimulus"":""run_exp/static/images/task_images/dig.jpg"",""time"":0.5},{""stimulus"":""run_exp/static/images/task_images/land.jpg"",""time"":900.7000000476837},{""stimulus"":""run_exp/static/images/task_images/dig.jpg"",""time"":1807}]",[],7,,,,,,,,,,,,,,
harvest,156,499317,0.0-48.0-1.0,"""event"",""trial"",""time""
""fullscreenenter"",""1"",""2746""
","
","
","""event"",""trial"",""time""
""fullscreenenter"",""1"",""2746""
","
",,null,run_exp/static/images/task_images/gems/37.jpg,null,,,,,,,30,,,7,,,,,37,0.813480484,0.810810811,,,,,,,
decision,157,499619,0.0-48.0-2.0,"""event"",""trial"",""time""
""fullscreenenter"",""1"",""2746""
","
","
","""event"",""trial"",""time""
""fullscreenenter"",""1"",""2746""
","
",,300.8999999,run_exp/static/images/task_images/land.jpg,76,,,,,,,30,,,7,,,,,,,,196657,1,4,TRUE,,,
travel,158,509334,0.0-49.0-0.0,"""event"",""trial"",""time""
""fullscreenenter"",""1"",""2746""
","
","
","""event"",""trial"",""time""
""fullscreenenter"",""1"",""2746""
","
",,,,,,,,,,,,"[{""stimulus"":""run_exp/static/images/task_images/rocket-01.jpg"",""time"":0.3000001907348633},{""stimulus"":""run_exp/static/images/task_images/rocket-02.jpg"",""time"":1085.2000000476837},{""stimulus"":""run_exp/static/images/task_images/rocket-03.jpg"",""time"":2162.100000143051},{""stimulus"":""run_exp/static/images/task_images/rocket-04.jpg"",""time"":3240.4000000953674},{""stimulus"":""run_exp/static/images/task_images/rocket-05.jpg"",""time"":4320.5},{""stimulus"":""run_exp/static/images/task_images/rocket-06.jpg"",""time"":5392.900000095367},{""stimulus"":""run_exp/static/images/task_images/rocket-07.jpg"",""time"":6472.100000143051},{""stimulus"":""run_exp/static/images/task_images/rocket-08.jpg"",""time"":7546.900000095367},{""stimulus"":""run_exp/static/images/task_images/rocket-09.jpg"",""time"":8625}]",[],7,,,,,,,,,,,,,,
alien_welcome,159,514343,0.0-49.0-1.0,"""event"",""trial"",""time""
""fullscreenenter"",""1"",""2746""
","
","
","""event"",""trial"",""time""
""fullscreenenter"",""1"",""2746""
","
",,null,run_exp/static/images/task_images/aliens/old_aliens/planet/alien_planet-15.jpg,null,,,,,,,,,,,,,15,"8,33,78,74,64,5,77,15,72,23,59,51,26,63,60,38,48,57,21,2,34,3,47,70,56,16,12,45,42,76,24,79,13,71,75,61,20,10,41,31,27,17,55,65,49,28,35",,,,,,,,,,
land,160,514860,0.0-49.0-2.0,"""event"",""trial"",""time""
""fullscreenenter"",""1"",""2746""
","
","
","""event"",""trial"",""time""
""fullscreenenter"",""1"",""2746""
","
",,null,run_exp/static/images/task_images/land.jpg,null,,,,,,,105,,,8,,,,,,,,,,,,,,
dig,161,516872,0.0-49.0-3.0,"""event"",""trial"",""time""
""fullscreenenter"",""1"",""2746""
","
","
","""event"",""trial"",""time""
""fullscreenenter"",""1"",""2746""
","
",,,,,,,,,,,,"[{""stimulus"":""run_exp/static/images/task_images/dig.jpg"",""time"":0.40000009536743164},{""stimulus"":""run_exp/static/images/task_images/land.jpg"",""time"":669.5999999046326},{""stimulus"":""run_exp/static/images/task_images/dig.jpg"",""time"":1338.2999999523163}]",[],8,,,,,,,,,,,,,,
harvest,162,517885,0.0-49.0-4.0,"""event"",""trial"",""time""
""fullscreenenter"",""1"",""2746""
","
","
","""event"",""trial"",""time""
""fullscreenenter"",""1"",""2746""
","
",,null,run_exp/static/images/task_images/gems/105.jpg,null,,,,,,,90,,,8,,,,,105,0.859084677,0.857142857,,,,,,,
decision,163,518219,0.0-49.0-5.0,"""event"",""trial"",""time""
""fullscreenenter"",""1"",""2746""
","
","
","""event"",""trial"",""time""
""fullscreenenter"",""1"",""2746""
","
",,332,run_exp/static/images/task_images/land.jpg,65,,,,,,,90,,,8,,,,,,,,215257,1,0,FALSE,,,
dig,164,520898,0.0-50.0-0.0,"""event"",""trial"",""time""
""fullscreenenter"",""1"",""2746""
","
","
","""event"",""trial"",""time""
""fullscreenenter"",""1"",""2746""
","
",,,,,,,,,,,,"[{""stimulus"":""run_exp/static/images/task_images/dig.jpg"",""time"":0.09999990463256836},{""stimulus"":""run_exp/static/images/task_images/land.jpg"",""time"":889.7000000476837},{""stimulus"":""run_exp/static/images/task_images/dig.jpg"",""time"":1794}]",[],8,,,,,,,,,,,,,,
harvest,165,521901,0.0-50.0-1.0,"""event"",""trial"",""time""
""fullscreenenter"",""1"",""2746""
","
","
","""event"",""trial"",""time""
""fullscreenenter"",""1"",""2746""
","
",,null,run_exp/static/images/task_images/gems/90.jpg,null,,,,,,,72,,,8,,,,,90,0.8010719,0.8,,,,,,,
decision,166,522199,0.0-50.0-2.0,"""event"",""trial"",""time""
""fullscreenenter"",""1"",""2746""
","
","
","""event"",""trial"",""time""
""fullscreenenter"",""1"",""2746""
","
",,296.5999999,run_exp/static/images/task_images/land.jpg,65,,,,,,,72,,,8,,,,,,,,219237,1,1,FALSE,,,
dig,167,524913,0.0-51.0-0.0,"""event"",""trial"",""time""
""fullscreenenter"",""1"",""2746""
","
","
","""event"",""trial"",""time""
""fullscreenenter"",""1"",""2746""
","
",,,,,,,,,,,,"[{""stimulus"":""run_exp/static/images/task_images/dig.jpg"",""time"":0.2999999523162842},{""stimulus"":""run_exp/static/images/task_images/land.jpg"",""time"":914.7999999523163},{""stimulus"":""run_exp/static/images/task_images/dig.jpg"",""time"":1806.5999999046326}]",[],8,,,,,,,,,,,,,,
harvest,168,525915,0.0-51.0-1.0,"""event"",""trial"",""time""
""fullscreenenter"",""1"",""2746""
","
","
","""event"",""trial"",""time""
""fullscreenenter"",""1"",""2746""
","
",,null,run_exp/static/images/task_images/gems/72.jpg,null,,,,,,,62,,,8,,,,,72,0.855845481,0.861111111,,,,,,,
decision,169,526317,0.0-51.0-2.0,"""event"",""trial"",""time""
""fullscreenenter"",""1"",""2746""
","
","
","""event"",""trial"",""time""
""fullscreenenter"",""1"",""2746""
","
",,401.0999999,run_exp/static/images/task_images/land.jpg,65,,,,,,,62,,,8,,,,,,,,223355,1,2,FALSE,,,
dig,170,528935,0.0-52.0-0.0,"""event"",""trial"",""time""
""fullscreenenter"",""1"",""2746""
","
","
","""event"",""trial"",""time""
""fullscreenenter"",""1"",""2746""
","
",,,,,,,,,,,,"[{""stimulus"":""run_exp/static/images/task_images/dig.jpg"",""time"":0.2999999523162842},{""stimulus"":""run_exp/static/images/task_images/land.jpg"",""time"":874.5},{""stimulus"":""run_exp/static/images/task_images/dig.jpg"",""time"":1734.2000000476837}]",[],8,,,,,,,,,,,,,,
harvest,171,529949,0.0-52.0-1.0,"""event"",""trial"",""time""
""fullscreenenter"",""1"",""2746""
","
","
","""event"",""trial"",""time""
""fullscreenenter"",""1"",""2746""
","
",,null,run_exp/static/images/task_images/gems/62.jpg,null,,,,,,,46,,,8,,,,,62,0.740635377,0.741935484,,,,,,,
decision,172,531015,0.0-52.0-2.0,"""event"",""trial"",""time""
""fullscreenenter"",""1"",""2746""
","
","
","""event"",""trial"",""time""
""fullscreenenter"",""1"",""2746""
","
",,1064.5,run_exp/static/images/task_images/land.jpg,65,,,,,,,46,,,8,,,,,,,,228053,1,3,FALSE,,,
dig,173,532970,0.0-53.0-0.0,"""event"",""trial"",""time""
""fullscreenenter"",""1"",""2746""
","
","
","""event"",""trial"",""time""
""fullscreenenter"",""1"",""2746""
","
",,,,,,,,,,,,"[{""stimulus"":""run_exp/static/images/task_images/dig.jpg"",""time"":0.19999980926513672},{""stimulus"":""run_exp/static/images/task_images/land.jpg"",""time"":655.5999999046326},{""stimulus"":""run_exp/static/images/task_images/dig.jpg"",""time"":1299}]",[],8,,,,,,,,,,,,,,
harvest,174,533985,0.0-53.0-1.0,"""event"",""trial"",""time""
""fullscreenenter"",""1"",""2746""
","
","
","""event"",""trial"",""time""
""fullscreenenter"",""1"",""2746""
","
",,null,run_exp/static/images/task_images/gems/46.jpg,null,,,,,,,33,,,8,,,,,46,0.726800063,0.717391304,,,,,,,
decision,175,534287,0.0-53.0-2.0,"""event"",""trial"",""time""
""fullscreenenter"",""1"",""2746""
","
","
","""event"",""trial"",""time""
""fullscreenenter"",""1"",""2746""
","
",,300.3000002,run_exp/static/images/task_images/land.jpg,76,,,,,,,33,,,8,,,,,,,,231325,1,4,TRUE,,,
travel,176,543986,0.0-54.0-0.0,"""event"",""trial"",""time""
""fullscreenenter"",""1"",""2746""
","
","
","""event"",""trial"",""time""
""fullscreenenter"",""1"",""2746""
","
",,,,,,,,,,,,"[{""stimulus"":""run_exp/static/images/task_images/rocket-01.jpg"",""time"":0.20000004768371582},{""stimulus"":""run_exp/static/images/task_images/rocket-02.jpg"",""time"":1083.2999999523163},{""stimulus"":""run_exp/static/images/task_images/rocket-03.jpg"",""time"":2164},{""stimulus"":""run_exp/static/images/task_images/rocket-04.jpg"",""time"":3243.9000000953674},{""stimulus"":""run_exp/static/images/task_images/rocket-05.jpg"",""time"":4321},{""stimulus"":""run_exp/static/images/task_images/rocket-06.jpg"",""time"":5399.900000095367},{""stimulus"":""run_exp/static/images/task_images/rocket-07.jpg"",""time"":6466.700000047684},{""stimulus"":""run_exp/static/images/task_images/rocket-08.jpg"",""time"":7548.299999952316},{""stimulus"":""run_exp/static/images/task_images/rocket-09.jpg"",""time"":8618.299999952316}]",[],8,,,,,,,,,,,,,,
alien_welcome,177,548998,0.0-54.0-1.0,"""event"",""trial"",""time""
""fullscreenenter"",""1"",""2746""
","
","
","""event"",""trial"",""time""
""fullscreenenter"",""1"",""2746""
","
",,null,run_exp/static/images/task_images/aliens/old_aliens/planet/alien_planet-72.jpg,null,,,,,,,,,,,,,72,"8,33,78,74,64,5,77,15,72,23,59,51,26,63,60,38,48,57,21,2,34,3,47,70,56,16,12,45,42,76,24,79,13,71,75,61,20,10,41,31,27,17,55,65,49,28,35",,,,,,,,,,
land,178,549515,0.0-54.0-2.0,"""event"",""trial"",""time""
""fullscreenenter"",""1"",""2746""
","
","
","""event"",""trial"",""time""
""fullscreenenter"",""1"",""2746""
","
",,null,run_exp/static/images/task_images/land.jpg,null,,,,,,,96,,,9,,,,,,,,,,,,,,
dig,179,551533,0.0-54.0-3.0,"""event"",""trial"",""time""
""fullscreenenter"",""1"",""2746""
","
","
","""event"",""trial"",""time""
""fullscreenenter"",""1"",""2746""
","
",,,,,,,,,,,,"[{""stimulus"":""run_exp/static/images/task_images/dig.jpg"",""time"":0.20000004768371582},{""stimulus"":""run_exp/static/images/task_images/land.jpg"",""time"":671},{""stimulus"":""run_exp/static/images/task_images/dig.jpg"",""time"":1343.7999999523163}]",[],9,,,,,,,,,,,,,,
harvest,180,552536,0.0-54.0-4.0,"""event"",""trial"",""time""
""fullscreenenter"",""1"",""2746""
","
","
","""event"",""trial"",""time""
""fullscreenenter"",""1"",""2746""
","
",,null,run_exp/static/images/task_images/gems/96.jpg,null,,,,,,,24,,,9,,,,,96,0.249329942,0.25,,,,,,,
decision,181,552912,0.0-54.0-5.0,"""event"",""trial"",""time""
""fullscreenenter"",""1"",""2746""
","
","
","""event"",""trial"",""time""
""fullscreenenter"",""1"",""2746""
","
",,374.2,run_exp/static/images/task_images/land.jpg,65,,,,,,,24,,,9,,,,,,,,249950,1,0,FALSE,,,
dig,182,555551,0.0-55.0-0.0,"""event"",""trial"",""time""
""fullscreenenter"",""1"",""2746""
","
","
","""event"",""trial"",""time""
""fullscreenenter"",""1"",""2746""
","
",,,,,,,,,,,,"[{""stimulus"":""run_exp/static/images/task_images/dig.jpg"",""time"":0.5},{""stimulus"":""run_exp/static/images/task_images/land.jpg"",""time"":882.1999998092651},{""stimulus"":""run_exp/static/images/task_images/dig.jpg"",""time"":1756.1999998092651}]",[],9,,,,,,,,,,,,,,
harvest,183,556554,0.0-55.0-1.0,"""event"",""trial"",""time""
""fullscreenenter"",""1"",""2746""
","
","
","""event"",""trial"",""time""
""fullscreenenter"",""1"",""2746""
","
",,null,run_exp/static/images/task_images/gems/24.jpg,null,,,,,,,3,,,9,,,,,24,0.128355355,0.125,,,,,,,
decision,184,557022,0.0-55.0-2.0,"""event"",""trial"",""time""
""fullscreenenter"",""1"",""2746""
","
","
","""event"",""trial"",""time""
""fullscreenenter"",""1"",""2746""
","
",,466.8,run_exp/static/images/task_images/land.jpg,76,,,,,,,3,,,9,,,,,,,,254060,1,1,TRUE,,,
travel,185,566566,0.0-56.0-0.0,"""event"",""trial"",""time""
""fullscreenenter"",""1"",""2746""
","
","
","""event"",""trial"",""time""
""fullscreenenter"",""1"",""2746""
","
",,,,,,,,,,,,"[{""stimulus"":""run_exp/static/images/task_images/rocket-01.jpg"",""time"":0.20000004768371582},{""stimulus"":""run_exp/static/images/task_images/rocket-02.jpg"",""time"":1072.4000000953674},{""stimulus"":""run_exp/static/images/task_images/rocket-03.jpg"",""time"":2131.7999999523163},{""stimulus"":""run_exp/static/images/task_images/rocket-04.jpg"",""time"":3179.100000143051},{""stimulus"":""run_exp/static/images/task_images/rocket-05.jpg"",""time"":4239.600000143051},{""stimulus"":""run_exp/static/images/task_images/rocket-06.jpg"",""time"":5302.5},{""stimulus"":""run_exp/static/images/task_images/rocket-07.jpg"",""time"":6362.700000047684},{""stimulus"":""run_exp/static/images/task_images/rocket-08.jpg"",""time"":7429},{""stimulus"":""run_exp/static/images/task_images/rocket-09.jpg"",""time"":8478.900000095367}]",[],9,,,,,,,,,,,,,,
alien_welcome,186,571574,0.0-56.0-1.0,"""event"",""trial"",""time""
""fullscreenenter"",""1"",""2746""
","
","
","""event"",""trial"",""time""
""fullscreenenter"",""1"",""2746""
","
",,null,run_exp/static/images/task_images/aliens/old_aliens/planet/alien_planet-23.jpg,null,,,,,,,,,,,,,23,"8,33,78,74,64,5,77,15,72,23,59,51,26,63,60,38,48,57,21,2,34,3,47,70,56,16,12,45,42,76,24,79,13,71,75,61,20,10,41,31,27,17,55,65,49,28,35",,,,,,,,,,
land,187,572090,0.0-56.0-2.0,"""event"",""trial"",""time""
""fullscreenenter"",""1"",""2746""
","
","
","""event"",""trial"",""time""
""fullscreenenter"",""1"",""2746""
","
",,null,run_exp/static/images/task_images/land.jpg,null,,,,,,,91,,,10,,,,,,,,,,,,,,
dig,188,574097,0.0-56.0-3.0,"""event"",""trial"",""time""
""fullscreenenter"",""1"",""2746""
","
","
","""event"",""trial"",""time""
""fullscreenenter"",""1"",""2746""
","
",,,,,,,,,,,,"[{""stimulus"":""run_exp/static/images/task_images/dig.jpg"",""time"":0.6000001430511475},{""stimulus"":""run_exp/static/images/task_images/land.jpg"",""time"":669.7000000476837},{""stimulus"":""run_exp/static/images/task_images/dig.jpg"",""time"":1345.3000001907349}]",[],10,,,,,,,,,,,,,,
harvest,189,575109,0.0-56.0-4.0,"""event"",""trial"",""time""
""fullscreenenter"",""1"",""2746""
","
","
","""event"",""trial"",""time""
""fullscreenenter"",""1"",""2746""
","
",,null,run_exp/static/images/task_images/gems/91.jpg,null,,,,,,,24,,,10,,,,,91,0.260920271,0.263736264,,,,,,,
decision,190,575778,0.0-56.0-5.0,"""event"",""trial"",""time""
""fullscreenenter"",""1"",""2746""
","
","
","""event"",""trial"",""time""
""fullscreenenter"",""1"",""2746""
","
",,667.5999999,run_exp/static/images/task_images/land.jpg,65,,,,,,,24,,,10,,,,,,,,272817,1,0,FALSE,,,
dig,191,578120,0.0-57.0-0.0,"""event"",""trial"",""time""
""fullscreenenter"",""1"",""2746""
","
","
","""event"",""trial"",""time""
""fullscreenenter"",""1"",""2746""
","
",,,,,,,,,,,,"[{""stimulus"":""run_exp/static/images/task_images/dig.jpg"",""time"":0.40000009536743164},{""stimulus"":""run_exp/static/images/task_images/land.jpg"",""time"":794},{""stimulus"":""run_exp/static/images/task_images/dig.jpg"",""time"":1571.2000000476837}]",[],10,,,,,,,,,,,,,,
harvest,192,579126,0.0-57.0-1.0,"""event"",""trial"",""time""
""fullscreenenter"",""1"",""2746""
","
","
","""event"",""trial"",""time""
""fullscreenenter"",""1"",""2746""
","
",,null,run_exp/static/images/task_images/gems/24.jpg,null,,,,,,,4,,,10,,,,,24,0.186707779,0.166666667,,,,,,,
decision,193,579455,0.0-57.0-2.0,"""event"",""trial"",""time""
""fullscreenenter"",""1"",""2746""
","
","
","""event"",""trial"",""time""
""fullscreenenter"",""1"",""2746""
","
",,328.3,run_exp/static/images/task_images/land.jpg,76,,,,,,,4,,,10,,,,,,,,276493,1,1,TRUE,,,
travel,194,589131,0.0-58.0-0.0,"""event"",""trial"",""time""
""fullscreenenter"",""1"",""2746""
","
","
","""event"",""trial"",""time""
""fullscreenenter"",""1"",""2746""
","
",,,,,,,,,,,,"[{""stimulus"":""run_exp/static/images/task_images/rocket-01.jpg"",""time"":0.20000004768371582},{""stimulus"":""run_exp/static/images/task_images/rocket-02.jpg"",""time"":1088.9000000953674},{""stimulus"":""run_exp/static/images/task_images/rocket-03.jpg"",""time"":2163.7999999523163},{""stimulus"":""run_exp/static/images/task_images/rocket-04.jpg"",""time"":3226.9000000953674},{""stimulus"":""run_exp/static/images/task_images/rocket-05.jpg"",""time"":4300.099999904633},{""stimulus"":""run_exp/static/images/task_images/rocket-06.jpg"",""time"":5379.799999952316},{""stimulus"":""run_exp/static/images/task_images/rocket-07.jpg"",""time"":6449.599999904633},{""stimulus"":""run_exp/static/images/task_images/rocket-08.jpg"",""time"":7526.099999904633},{""stimulus"":""run_exp/static/images/task_images/rocket-09.jpg"",""time"":8606.700000047684}]",[],10,,,,,,,,,,,,,,
alien_welcome,195,594147,0.0-58.0-1.0,"""event"",""trial"",""time""
""fullscreenenter"",""1"",""2746""
","
","
","""event"",""trial"",""time""
""fullscreenenter"",""1"",""2746""
","
",,null,run_exp/static/images/task_images/aliens/old_aliens/planet/alien_planet-59.jpg,null,,,,,,,,,,,,,59,"8,33,78,74,64,5,77,15,72,23,59,51,26,63,60,38,48,57,21,2,34,3,47,70,56,16,12,45,42,76,24,79,13,71,75,61,20,10,41,31,27,17,55,65,49,28,35",,,,,,,,,,
land,196,594663,0.0-58.0-2.0,"""event"",""trial"",""time""
""fullscreenenter"",""1"",""2746""
","
","
","""event"",""trial"",""time""
""fullscreenenter"",""1"",""2746""
","
",,null,run_exp/static/images/task_images/land.jpg,null,,,,,,,96,,,11,,,,,,,,,,,,,,
dig,197,596671,0.0-58.0-3.0,"""event"",""trial"",""time""
""fullscreenenter"",""1"",""2746""
","
","
","""event"",""trial"",""time""
""fullscreenenter"",""1"",""2746""
","
",,,,,,,,,,,,"[{""stimulus"":""run_exp/static/images/task_images/dig.jpg"",""time"":0.5},{""stimulus"":""run_exp/static/images/task_images/land.jpg"",""time"":672.2000000476837},{""stimulus"":""run_exp/static/images/task_images/dig.jpg"",""time"":1345.7000000476837}]",[],11,,,,,,,,,,,,,,
harvest,198,597683,0.0-58.0-4.0,"""event"",""trial"",""time""
""fullscreenenter"",""1"",""2746""
","
","
","""event"",""trial"",""time""
""fullscreenenter"",""1"",""2746""
","
",,null,run_exp/static/images/task_images/gems/96.jpg,null,,,,,,,20,,,11,,,,,96,0.2040307,0.208333333,,,,,,,
decision,199,599311,0.0-58.0-5.0,"""event"",""trial"",""time""
""fullscreenenter"",""1"",""2746""
","
","
","""event"",""trial"",""time""
""fullscreenenter"",""1"",""2746""
","
",,1625.7,run_exp/static/images/task_images/land.jpg,65,,,,,,,20,,,11,,,,,,,,296349,1,0,FALSE,,,
dig,200,600693,0.0-59.0-0.0,"""event"",""trial"",""time""
""fullscreenenter"",""1"",""2746""
","
","
","""event"",""trial"",""time""
""fullscreenenter"",""1"",""2746""
","
",,,,,,,,,,,,"[{""stimulus"":""run_exp/static/images/task_images/dig.jpg"",""time"":0.20000004768371582},{""stimulus"":""run_exp/static/images/task_images/land.jpg"",""time"":470.2000000476837},{""stimulus"":""run_exp/static/images/task_images/dig.jpg"",""time"":925.7999999523163}]",[],11,,,,,,,,,,,,,,
harvest,201,601709,0.0-59.0-1.0,"""event"",""trial"",""time""
""fullscreenenter"",""1"",""2746""
","
","
","""event"",""trial"",""time""
""fullscreenenter"",""1"",""2746""
","
",,null,run_exp/static/images/task_images/gems/20.jpg,null,,,,,,,5,,,11,,,,,20,0.26195354,0.25,,,,,,,
decision,202,603146,0.0-59.0-2.0,"""event"",""trial"",""time""
""fullscreenenter"",""1"",""2746""
","
","
","""event"",""trial"",""time""
""fullscreenenter"",""1"",""2746""
","
",,1435.2,run_exp/static/images/task_images/land.jpg,65,,,,,,,5,,,11,,,,,,,,300184,1,1,TRUE,,,
end_of_block_continue,203,611981,0.0-60.0-0.0,"""event"",""trial"",""time""
""fullscreenenter"",""1"",""2746""
","
","
","""event"",""trial"",""time""
""fullscreenenter"",""1"",""2746""
","
",,null,run_exp/static/audio/clip_32_block_end.m4a,,,,,,,null,,,,,,,,,,,,,,,,,,
alien_welcome,204,617001,0.0-61.0-0.0,"""event"",""trial"",""time""
""fullscreenenter"",""1"",""2746""
","
","
","""event"",""trial"",""time""
""fullscreenenter"",""1"",""2746""
","
",,null,run_exp/static/images/task_images/aliens/old_aliens/planet/alien_planet-51.jpg,null,,,,,,,,,,,,,51,"8,33,78,74,64,5,77,15,72,23,59,51,26,63,60,38,48,57,21,2,34,3,47,70,56,16,12,45,42,76,24,79,13,71,75,61,20,10,41,31,27,17,55,65,49,28,35",,,,,,,,,,
land,205,617504,0.0-61.0-1.0,"""event"",""trial"",""time""
""fullscreenenter"",""1"",""2746""
","
","
","""event"",""trial"",""time""
""fullscreenenter"",""1"",""2746""
","
",,null,run_exp/static/images/task_images/land.jpg,null,,,,,,,99,,,12,,,,,,,,,,,,,,
dig,206,619518,0.0-61.0-2.0,"""event"",""trial"",""time""
""fullscreenenter"",""1"",""2746""
","
","
","""event"",""trial"",""time""
""fullscreenenter"",""1"",""2746""
","
",,,,,,,,,,,,"[{""stimulus"":""run_exp/static/images/task_images/dig.jpg"",""time"":0.10000014305114746},{""stimulus"":""run_exp/static/images/task_images/land.jpg"",""time"":670.1000001430511},{""stimulus"":""run_exp/static/images/task_images/dig.jpg"",""time"":1342.6000001430511}]",[],12,,,,,,,,,,,,,,
harvest,207,620519,0.0-61.0-3.0,"""event"",""trial"",""time""
""fullscreenenter"",""1"",""2746""
","
","
","""event"",""trial"",""time""
""fullscreenenter"",""1"",""2746""
","
",,null,run_exp/static/images/task_images/gems/99.jpg,null,,,,,,,11,,,12,,,,,99,0.108165588,0.111111111,,,,,,,
decision,208,621570,0.0-61.0-4.0,"""event"",""trial"",""time""
""fullscreenenter"",""1"",""2746""
","
","
","""event"",""trial"",""time""
""fullscreenenter"",""1"",""2746""
","
",,1049,run_exp/static/images/task_images/land.jpg,65,,,,,,,11,,,12,,,,,,,,9581,2,0,FALSE,,,
dig,209,623539,0.0-62.0-0.0,"""event"",""trial"",""time""
""fullscreenenter"",""1"",""2746""
","
","
","""event"",""trial"",""time""
""fullscreenenter"",""1"",""2746""
","
",,,,,,,,,,,,"[{""stimulus"":""run_exp/static/images/task_images/dig.jpg"",""time"":0.2999999523162842},{""stimulus"":""run_exp/static/images/task_images/land.jpg"",""time"":652.7000000476837},{""stimulus"":""run_exp/static/images/task_images/dig.jpg"",""time"":1308.2000000476837}]",[],12,,,,,,,,,,,,,,
harvest,210,624556,0.0-62.0-1.0,"""event"",""trial"",""time""
""fullscreenenter"",""1"",""2746""
","
","
","""event"",""trial"",""time""
""fullscreenenter"",""1"",""2746""
","
",,null,run_exp/static/images/task_images/gems/11.jpg,null,,,,,,,2,,,12,,,,,11,0.210126767,0.181818182,,,,,,,
decision,211,625329,0.0-62.0-2.0,"""event"",""trial"",""time""
""fullscreenenter"",""1"",""2746""
","
","
","""event"",""trial"",""time""
""fullscreenenter"",""1"",""2746""
","
",,770.4000001,run_exp/static/images/task_images/land.jpg,76,,,,,,,2,,,12,,,,,,,,13340,2,1,TRUE,,,
travel,212,634566,0.0-63.0-0.0,"""event"",""trial"",""time""
""fullscreenenter"",""1"",""2746""
","
","
","""event"",""trial"",""time""
""fullscreenenter"",""1"",""2746""
","
",,,,,,,,,,,,"[{""stimulus"":""run_exp/static/images/task_images/rocket-01.jpg"",""time"":0.5},{""stimulus"":""run_exp/static/images/task_images/rocket-02.jpg"",""time"":1035.9000000953674},{""stimulus"":""run_exp/static/images/task_images/rocket-03.jpg"",""time"":2066.0999999046326},{""stimulus"":""run_exp/static/images/task_images/rocket-04.jpg"",""time"":3081.0999999046326},{""stimulus"":""run_exp/static/images/task_images/rocket-05.jpg"",""time"":4106.599999904633},{""stimulus"":""run_exp/static/images/task_images/rocket-06.jpg"",""time"":5127.700000047684},{""stimulus"":""run_exp/static/images/task_images/rocket-07.jpg"",""time"":6163.799999952316},{""stimulus"":""run_exp/static/images/task_images/rocket-08.jpg"",""time"":7180.200000047684},{""stimulus"":""run_exp/static/images/task_images/rocket-09.jpg"",""time"":8216.400000095367}]",[],12,,,,,,,,,,,,,,
alien_welcome,213,639573,0.0-63.0-1.0,"""event"",""trial"",""time""
""fullscreenenter"",""1"",""2746""
","
","
","""event"",""trial"",""time""
""fullscreenenter"",""1"",""2746""
","
",,null,run_exp/static/images/task_images/aliens/old_aliens/planet/alien_planet-26.jpg,null,,,,,,,,,,,,,26,"8,33,78,74,64,5,77,15,72,23,59,51,26,63,60,38,48,57,21,2,34,3,47,70,56,16,12,45,42,76,24,79,13,71,75,61,20,10,41,31,27,17,55,65,49,28,35",,,,,,,,,,
land,214,640078,0.0-63.0-2.0,"""event"",""trial"",""time""
""fullscreenenter"",""1"",""2746""
","
","
","""event"",""trial"",""time""
""fullscreenenter"",""1"",""2746""
","
",,null,run_exp/static/images/task_images/land.jpg,null,,,,,,,96,,,13,,,,,,,,,,,,,,
dig,215,642091,0.0-63.0-3.0,"""event"",""trial"",""time""
""fullscreenenter"",""1"",""2746""
","
","
","""event"",""trial"",""time""
""fullscreenenter"",""1"",""2746""
","
",,,,,,,,,,,,"[{""stimulus"":""run_exp/static/images/task_images/dig.jpg"",""time"":0.39999985694885254},{""stimulus"":""run_exp/static/images/task_images/land.jpg"",""time"":670.6999998092651},{""stimulus"":""run_exp/static/images/task_images/dig.jpg"",""time"":1341.5}]",[],13,,,,,,,,,,,,,,
harvest,216,643102,0.0-63.0-4.0,"""event"",""trial"",""time""
""fullscreenenter"",""1"",""2746""
","
","
","""event"",""trial"",""time""
""fullscreenenter"",""1"",""2746""
","
",,null,run_exp/static/images/task_images/gems/96.jpg,null,,,,,,,25,,,13,,,,,96,0.261719134,0.260416667,,,,,,,
decision,217,643760,0.0-63.0-5.0,"""event"",""trial"",""time""
""fullscreenenter"",""1"",""2746""
","
","
","""event"",""trial"",""time""
""fullscreenenter"",""1"",""2746""
","
",,656.9000001,run_exp/static/images/task_images/land.jpg,65,,,,,,,25,,,13,,,,,,,,31772,2,0,FALSE,,,
dig,218,646117,0.0-64.0-0.0,"""event"",""trial"",""time""
""fullscreenenter"",""1"",""2746""
","
","
","""event"",""trial"",""time""
""fullscreenenter"",""1"",""2746""
","
",,,,,,,,,,,,"[{""stimulus"":""run_exp/static/images/task_images/dig.jpg"",""time"":0.20000004768371582},{""stimulus"":""run_exp/static/images/task_images/land.jpg"",""time"":788},{""stimulus"":""run_exp/static/images/task_images/dig.jpg"",""time"":1571.1000001430511}]",[],13,,,,,,,,,,,,,,
harvest,219,647130,0.0-64.0-1.0,"""event"",""trial"",""time""
""fullscreenenter"",""1"",""2746""
","
","
","""event"",""trial"",""time""
""fullscreenenter"",""1"",""2746""
","
",,null,run_exp/static/images/task_images/gems/25.jpg,null,,,,,,,5,,,13,,,,,25,0.210234166,0.2,,,,,,,
decision,220,647637,0.0-64.0-2.0,"""event"",""trial"",""time""
""fullscreenenter"",""1"",""2746""
","
","
","""event"",""trial"",""time""
""fullscreenenter"",""1"",""2746""
","
",,504.5,run_exp/static/images/task_images/land.jpg,76,,,,,,,5,,,13,,,,,,,,35649,2,1,TRUE,,,
travel,221,657156,0.0-65.0-0.0,"""event"",""trial"",""time""
""fullscreenenter"",""1"",""2746""
","
","
","""event"",""trial"",""time""
""fullscreenenter"",""1"",""2746""
","
",,,,,,,,,,,,"[{""stimulus"":""run_exp/static/images/task_images/rocket-01.jpg"",""time"":0.40000009536743164},{""stimulus"":""run_exp/static/images/task_images/rocket-02.jpg"",""time"":1070.5999999046326},{""stimulus"":""run_exp/static/images/task_images/rocket-03.jpg"",""time"":2117.5},{""stimulus"":""run_exp/static/images/task_images/rocket-04.jpg"",""time"":3170.0999999046326},{""stimulus"":""run_exp/static/images/task_images/rocket-05.jpg"",""time"":4231.599999904633},{""stimulus"":""run_exp/static/images/task_images/rocket-06.jpg"",""time"":5284.400000095367},{""stimulus"":""run_exp/static/images/task_images/rocket-07.jpg"",""time"":6331.099999904633},{""stimulus"":""run_exp/static/images/task_images/rocket-08.jpg"",""time"":7396.799999952316},{""stimulus"":""run_exp/static/images/task_images/rocket-09.jpg"",""time"":8443.799999952316}]",[],13,,,,,,,,,,,,,,
alien_welcome,222,662161,0.0-65.0-1.0,"""event"",""trial"",""time""
""fullscreenenter"",""1"",""2746""
","
","
","""event"",""trial"",""time""
""fullscreenenter"",""1"",""2746""
","
",,null,run_exp/static/images/task_images/aliens/old_aliens/planet/alien_planet-63.jpg,null,,,,,,,,,,,,,63,"8,33,78,74,64,5,77,15,72,23,59,51,26,63,60,38,48,57,21,2,34,3,47,70,56,16,12,45,42,76,24,79,13,71,75,61,20,10,41,31,27,17,55,65,49,28,35",,,,,,,,,,
land,223,662674,0.0-65.0-2.0,"""event"",""trial"",""time""
""fullscreenenter"",""1"",""2746""
","
","
","""event"",""trial"",""time""
""fullscreenenter"",""1"",""2746""
","
",,null,run_exp/static/images/task_images/land.jpg,null,,,,,,,99,,,14,,,,,,,,,,,,,,
dig,224,664691,0.0-65.0-3.0,"""event"",""trial"",""time""
""fullscreenenter"",""1"",""2746""
","
","
","""event"",""trial"",""time""
""fullscreenenter"",""1"",""2746""
","
",,,,,,,,,,,,"[{""stimulus"":""run_exp/static/images/task_images/dig.jpg"",""time"":0.40000009536743164},{""stimulus"":""run_exp/static/images/task_images/land.jpg"",""time"":670.6000001430511},{""stimulus"":""run_exp/static/images/task_images/dig.jpg"",""time"":1339.6000001430511}]",[],14,,,,,,,,,,,,,,
harvest,225,665707,0.0-65.0-4.0,"""event"",""trial"",""time""
""fullscreenenter"",""1"",""2746""
","
","
","""event"",""trial"",""time""
""fullscreenenter"",""1"",""2746""
","
",,null,run_exp/static/images/task_images/gems/99.jpg,null,,,,,,,30,,,14,,,,,99,0.307763466,0.303030303,,,,,,,
decision,226,666126,0.0-65.0-5.0,"""event"",""trial"",""time""
""fullscreenenter"",""1"",""2746""
","
","
","""event"",""trial"",""time""
""fullscreenenter"",""1"",""2746""
","
",,418.8,run_exp/static/images/task_images/land.jpg,65,,,,,,,30,,,14,,,,,,,,54138,2,0,FALSE,,,
dig,227,668712,0.0-66.0-0.0,"""event"",""trial"",""time""
""fullscreenenter"",""1"",""2746""
","
","
","""event"",""trial"",""time""
""fullscreenenter"",""1"",""2746""
","
",,,,,,,,,,,,"[{""stimulus"":""run_exp/static/images/task_images/dig.jpg"",""time"":0.20000004768371582},{""stimulus"":""run_exp/static/images/task_images/land.jpg"",""time"":870.5},{""stimulus"":""run_exp/static/images/task_images/dig.jpg"",""time"":1736.2000000476837}]",[],14,,,,,,,,,,,,,,
harvest,228,669728,0.0-66.0-1.0,"""event"",""trial"",""time""
""fullscreenenter"",""1"",""2746""
","
","
","""event"",""trial"",""time""
""fullscreenenter"",""1"",""2746""
","
",,null,run_exp/static/images/task_images/gems/30.jpg,null,,,,,,,5,,,14,,,,,30,0.172087351,0.166666667,,,,,,,
decision,229,670173,0.0-66.0-2.0,"""event"",""trial"",""time""
""fullscreenenter"",""1"",""2746""
","
","
","""event"",""trial"",""time""
""fullscreenenter"",""1"",""2746""
","
",,443.1000001,run_exp/static/images/task_images/land.jpg,76,,,,,,,5,,,14,,,,,,,,58184,2,1,TRUE,,,
travel,230,679737,0.0-67.0-0.0,"""event"",""trial"",""time""
""fullscreenenter"",""1"",""2746""
","
","
","""event"",""trial"",""time""
""fullscreenenter"",""1"",""2746""
","
",,,,,,,,,,,,"[{""stimulus"":""run_exp/static/images/task_images/rocket-01.jpg"",""time"":0.20000004768371582},{""stimulus"":""run_exp/static/images/task_images/rocket-02.jpg"",""time"":1069.4000000953674},{""stimulus"":""run_exp/static/images/task_images/rocket-03.jpg"",""time"":2128.100000143051},{""stimulus"":""run_exp/static/images/task_images/rocket-04.jpg"",""time"":3192.600000143051},{""stimulus"":""run_exp/static/images/task_images/rocket-05.jpg"",""time"":4252.900000095367},{""stimulus"":""run_exp/static/images/task_images/rocket-06.jpg"",""time"":5318.100000143051},{""stimulus"":""run_exp/static/images/task_images/rocket-07.jpg"",""time"":6378.799999952316},{""stimulus"":""run_exp/static/images/task_images/rocket-08.jpg"",""time"":7432.600000143051},{""stimulus"":""run_exp/static/images/task_images/rocket-09.jpg"",""time"":8496.100000143051}]",[],14,,,,,,,,,,,,,,
alien_welcome,231,684744,0.0-67.0-1.0,"""event"",""trial"",""time""
""fullscreenenter"",""1"",""2746""
","
","
","""event"",""trial"",""time""
""fullscreenenter"",""1"",""2746""
","
",,null,run_exp/static/images/task_images/aliens/old_aliens/planet/alien_planet-60.jpg,null,,,,,,,,,,,,,60,"8,33,78,74,64,5,77,15,72,23,59,51,26,63,60,38,48,57,21,2,34,3,47,70,56,16,12,45,42,76,24,79,13,71,75,61,20,10,41,31,27,17,55,65,49,28,35",,,,,,,,,,
land,232,685251,0.0-67.0-2.0,"""event"",""trial"",""time""
""fullscreenenter"",""1"",""2746""
","
","
","""event"",""trial"",""time""
""fullscreenenter"",""1"",""2746""
","
",,null,run_exp/static/images/task_images/land.jpg,null,,,,,,,90,,,15,,,,,,,,,,,,,,
dig,233,687257,0.0-67.0-3.0,"""event"",""trial"",""time""
""fullscreenenter"",""1"",""2746""
","
","
","""event"",""trial"",""time""
""fullscreenenter"",""1"",""2746""
","
",,,,,,,,,,,,"[{""stimulus"":""run_exp/static/images/task_images/dig.jpg"",""time"":0.5},{""stimulus"":""run_exp/static/images/task_images/land.jpg"",""time"":670},{""stimulus"":""run_exp/static/images/task_images/dig.jpg"",""time"":1350.5999999046326}]",[],15,,,,,,,,,,,,,,
harvest,234,688275,0.0-67.0-4.0,"""event"",""trial"",""time""
""fullscreenenter"",""1"",""2746""
","
","
","""event"",""trial"",""time""
""fullscreenenter"",""1"",""2746""
","
",,null,run_exp/static/images/task_images/gems/90.jpg,null,,,,,,,75,,,15,,,,,90,0.827798449,0.833333333,,,,,,,
decision,235,688882,0.0-67.0-5.0,"""event"",""trial"",""time""
""fullscreenenter"",""1"",""2746""
","
","
","""event"",""trial"",""time""
""fullscreenenter"",""1"",""2746""
","
",,605.3000002,run_exp/static/images/task_images/land.jpg,65,,,,,,,75,,,15,,,,,,,,76893,2,0,FALSE,,,
dig,236,691290,0.0-68.0-0.0,"""event"",""trial"",""time""
""fullscreenenter"",""1"",""2746""
","
","
","""event"",""trial"",""time""
""fullscreenenter"",""1"",""2746""
","
",,,,,,,,,,,,"[{""stimulus"":""run_exp/static/images/task_images/dig.jpg"",""time"":0.19999980926513672},{""stimulus"":""run_exp/static/images/task_images/land.jpg"",""time"":811.8999998569489},{""stimulus"":""run_exp/static/images/task_images/dig.jpg"",""time"":1610.7999999523163}]",[],15,,,,,,,,,,,,,,
harvest,237,692302,0.0-68.0-1.0,"""event"",""trial"",""time""
""fullscreenenter"",""1"",""2746""
","
","
","""event"",""trial"",""time""
""fullscreenenter"",""1"",""2746""
","
",,null,run_exp/static/images/task_images/gems/75.jpg,null,,,,,,,59,,,15,,,,,75,0.781563445,0.786666667,,,,,,,
decision,238,692763,0.0-68.0-2.0,"""event"",""trial"",""time""
""fullscreenenter"",""1"",""2746""
","
","
","""event"",""trial"",""time""
""fullscreenenter"",""1"",""2746""
","
",,459,run_exp/static/images/task_images/land.jpg,65,,,,,,,59,,,15,,,,,,,,80774,2,1,FALSE,,,
dig,239,695321,0.0-69.0-0.0,"""event"",""trial"",""time""
""fullscreenenter"",""1"",""2746""
","
","
","""event"",""trial"",""time""
""fullscreenenter"",""1"",""2746""
","
",,,,,,,,,,,,"[{""stimulus"":""run_exp/static/images/task_images/dig.jpg"",""time"":0.2999999523162842},{""stimulus"":""run_exp/static/images/task_images/land.jpg"",""time"":854.0999999046326},{""stimulus"":""run_exp/static/images/task_images/dig.jpg"",""time"":1709.7999999523163}]",[],15,,,,,,,,,,,,,,
harvest,240,696336,0.0-69.0-1.0,"""event"",""trial"",""time""
