trial_type,trial_index,time_elapsed,internal_node_id,interactions,blur_events,focus_events,fullscreenenter_events,fullscreenexit_events,success,rt,stimulus,key_press,prompt,subject_id,participant_id,age,gender,button_pressed,next_reward,animation_sequence,responses,planet,curr_prac_trial,n_prac_rounds,alien,aliens,reward_received,decay_rate_actual,decay_rate_exp,time_in_block,block_num,prt,last_trial_on_planet,button_html,bonus,num_failures
pavlovia,0,4,0.0-0.0,"""event"",""trial"",""time""
""blur"",""1"",""31232""
""focus"",""1"",""32141""
""fullscreenenter"",""1"",""34600""
","""event"",""trial"",""time""
""blur"",""1"",""31232""
","""event"",""trial"",""time""
""focus"",""1"",""32141""
","""event"",""trial"",""time""
""fullscreenenter"",""1"",""34600""
","
",,,,,,,,,,,,,,,,,,,,,,,,,,,,
fullscreen,1,35590,0.0-1.0,"""event"",""trial"",""time""
""blur"",""1"",""31232""
""focus"",""1"",""32141""
""fullscreenenter"",""1"",""34600""
","""event"",""trial"",""time""
""blur"",""1"",""31232""
","""event"",""trial"",""time""
""focus"",""1"",""32141""
","""event"",""trial"",""time""
""fullscreenenter"",""1"",""34600""
","
",TRUE,,,,,,,,,,,,,,,,,,,,,,,,,,,
instruc_welcome,2,50376,0.0-2.0,"""event"",""trial"",""time""
""blur"",""1"",""31232""
""focus"",""1"",""32141""
""fullscreenenter"",""1"",""34600""
","""event"",""trial"",""time""
""blur"",""1"",""31232""
","""event"",""trial"",""time""
""focus"",""1"",""32141""
","""event"",""trial"",""time""
""fullscreenenter"",""1"",""34600""
","
",,null,run_exp/static/audio/clip_1_welcome.m4a,null,"<p>Howdy! In this experiment, you’ll be an explorer traveling through space to collect space treasure.</p><p>Your mission is to collect as much treasure as possible.</p><br><br><p><img src='run_exp/static/images/task_images/opening_img-01.jpg' height='300' width='auto'></p>",8535,2682,18.65,Female,,,,,,,,,,,,,,,,,,,
audio-keyboard-response,3,66975,0.0-3.0,"""event"",""trial"",""time""
""blur"",""1"",""31232""
""focus"",""1"",""32141""
""fullscreenenter"",""1"",""34600""
","""event"",""trial"",""time""
""blur"",""1"",""31232""
","""event"",""trial"",""time""
""focus"",""1"",""32141""
","""event"",""trial"",""time""
""fullscreenenter"",""1"",""34600""
","
",,null,run_exp/static/audio/clip_2_move.m4a,null,,,,,,,,,,,,,,,,,,,,,,,,
welcome_dec,4,79177,0.0-4.0,"""event"",""trial"",""time""
""blur"",""1"",""31232""
""focus"",""1"",""32141""
""fullscreenenter"",""1"",""34600""
","""event"",""trial"",""time""
""blur"",""1"",""31232""
","""event"",""trial"",""time""
""focus"",""1"",""32141""
","""event"",""trial"",""time""
""fullscreenenter"",""1"",""34600""
","
",,12198.4,"<p>Howdy! In this experiment, you’ll be an explorer traveling through space to collect space treasure.</p><p>Your mission is to collect as much treasure as possible.</p><br><br><p><img src='run_exp/static/images/task_images/opening_img-01.jpg' height='300' width='auto'></p>",,,,,,,0,,,,,,,,,,,,,,,,,,
html-keyboard-response,5,81564,0.0-5.0,"""event"",""trial"",""time""
""blur"",""1"",""31232""
""focus"",""1"",""32141""
""fullscreenenter"",""1"",""34600""
","""event"",""trial"",""time""
""blur"",""1"",""31232""
","""event"",""trial"",""time""
""focus"",""1"",""32141""
","""event"",""trial"",""time""
""fullscreenenter"",""1"",""34600""
","
",,2384.3,"<p>Howdy! In this experiment, you’ll be an explorer traveling through space to collect space treasure.</p><p>Your mission is to collect as much treasure as possible.</p><br><br><p><img src='run_exp/static/images/task_images/opening_img-01.jpg' height='300' width='auto'></p><button class=""jspsych-html-btn-chosen""><img src=""run_exp/static/images/task_images/planet-01.jpg"" height=""50""></button><button class=""jspsych-html-btn-unchosen""><img src=""run_exp/static/images/task_images/planet-02.jpg"" height=""50""></button><p><b>[press the space bar to lock in your answer]<b><br></p>",32,,,,,,,,,,,,,,,,,,,,,,,,
instruc_welcome,6,91317,0.0-6.0-0.0,"""event"",""trial"",""time""
""blur"",""1"",""31232""
""focus"",""1"",""32141""
""fullscreenenter"",""1"",""34600""
","""event"",""trial"",""time""
""blur"",""1"",""31232""
","""event"",""trial"",""time""
""focus"",""1"",""32141""
","""event"",""trial"",""time""
""fullscreenenter"",""1"",""34600""
","
",,null,run_exp/static/audio/clip_1_welcome.m4a,null,"<p>Howdy! In this experiment, you’ll be an explorer traveling through space to collect space treasure.</p><p>Your mission is to collect as much treasure as possible.</p><br><br><p><img src='run_exp/static/images/task_images/opening_img-01.jpg' height='300' width='auto'></p>",8535,2682,18,Female,,,,,,,,,,,,,,,,,,,
audio-keyboard-response,7,107915,0.0-6.0-1.0,"""event"",""trial"",""time""
""blur"",""1"",""31232""
""focus"",""1"",""32141""
""fullscreenenter"",""1"",""34600""
","""event"",""trial"",""time""
""blur"",""1"",""31232""
","""event"",""trial"",""time""
""focus"",""1"",""32141""
","""event"",""trial"",""time""
""fullscreenenter"",""1"",""34600""
","
",,null,run_exp/static/audio/clip_2_move.m4a,null,,,,,,,,,,,,,,,,,,,,,,,,
welcome_dec,8,109247,0.0-6.0-2.0,"""event"",""trial"",""time""
""blur"",""1"",""31232""
""focus"",""1"",""32141""
""fullscreenenter"",""1"",""34600""
","""event"",""trial"",""time""
""blur"",""1"",""31232""
","""event"",""trial"",""time""
""focus"",""1"",""32141""
","""event"",""trial"",""time""
""fullscreenenter"",""1"",""34600""
","
",,1329.6,"<p>Howdy! In this experiment, you’ll be an explorer traveling through space to collect space treasure.</p><p>Your mission is to collect as much treasure as possible.</p><br><br><p><img src='run_exp/static/images/task_images/opening_img-01.jpg' height='300' width='auto'></p>",,,,,,,1,,,,,,,,,,,,,,,,,,
html-keyboard-response,9,109556,0.0-6.0-3.0,"""event"",""trial"",""time""
""blur"",""1"",""31232""
""focus"",""1"",""32141""
""fullscreenenter"",""1"",""34600""
","""event"",""trial"",""time""
""blur"",""1"",""31232""
","""event"",""trial"",""time""
""focus"",""1"",""32141""
","""event"",""trial"",""time""
""fullscreenenter"",""1"",""34600""
","
",,307.4,"<p>Howdy! In this experiment, you’ll be an explorer traveling through space to collect space treasure.</p><p>Your mission is to collect as much treasure as possible.</p><br><br><p><img src='run_exp/static/images/task_images/opening_img-01.jpg' height='300' width='auto'></p><button class=""jspsych-html-btn-unchosen""><img src=""run_exp/static/images/task_images/planet-01.jpg"" height=""50""></button><button class=""jspsych-html-btn-chosen""><img src=""run_exp/static/images/task_images/planet-02.jpg"" height=""50""></button><p><b>[press the space bar to lock in your answer]<b><br></p>",32,,,,,,,,,,,,,,,,,,,,,,,,
instruc_goal,10,119606,0.0-7.0-0.0,"""event"",""trial"",""time""
""blur"",""1"",""31232""
""focus"",""1"",""32141""
""fullscreenenter"",""1"",""34600""
","""event"",""trial"",""time""
""blur"",""1"",""31232""
","""event"",""trial"",""time""
""focus"",""1"",""32141""
","""event"",""trial"",""time""
""fullscreenenter"",""1"",""34600""
","
",,null,run_exp/static/audio/clip_3_goal.m4a,null,"<p> As a space explorer, you’ll visit different planets to dig for space treasure, these pink gems.</p> <p> The more treasure you dig up, the more bonus money you’ll win! </p><br><br><p><img src='run_exp/static/images/task_images/pink_gem.jpg' height='300' width='auto'></p>",,,,,,,,,,,,,,,,,,,,,,,
instruc_goal,11,121978,0.0-7.0-1.0,"""event"",""trial"",""time""
""blur"",""1"",""31232""
""focus"",""1"",""32141""
""fullscreenenter"",""1"",""34600""
","""event"",""trial"",""time""
""blur"",""1"",""31232""
","""event"",""trial"",""time""
""focus"",""1"",""32141""
","""event"",""trial"",""time""
""fullscreenenter"",""1"",""34600""
","
",,2369.4,"<p> As a space explorer, you’ll visit different planets to dig for space treasure, these pink gems.</p> <p> The more treasure you dig up, the more bonus money you’ll win! </p><br><br><p><img src='run_exp/static/images/task_images/pink_gem.jpg' height='300' width='auto'></p>",,,,,,,1,,,,,,,,,,,,,,,,,,
html-keyboard-response,12,122172,0.0-7.0-2.0,"""event"",""trial"",""time""
""blur"",""1"",""31232""
""focus"",""1"",""32141""
""fullscreenenter"",""1"",""34600""
","""event"",""trial"",""time""
""blur"",""1"",""31232""
","""event"",""trial"",""time""
""focus"",""1"",""32141""
","""event"",""trial"",""time""
""fullscreenenter"",""1"",""34600""
","
",,192.5,"<p> As a space explorer, you’ll visit different planets to dig for space treasure, these pink gems.</p> <p> The more treasure you dig up, the more bonus money you’ll win! </p><br><br><p><img src='run_exp/static/images/task_images/pink_gem.jpg' height='300' width='auto'></p><button class=""jspsych-html-btn-unchosen""><img src=""run_exp/static/images/task_images/planet-01.jpg"" height=""50""></button><button class=""jspsych-html-btn-chosen""><img src=""run_exp/static/images/task_images/planet-02.jpg"" height=""50""></button><p><b>[press the space bar to lock in your answer]<b><br></p>",32,,,,,,,,,,,,,,,,,,,,,,,,
instruc_dig,13,138166,0.0-8.0-0.0,"""event"",""trial"",""time""
""blur"",""1"",""31232""
""focus"",""1"",""32141""
""fullscreenenter"",""1"",""34600""
","""event"",""trial"",""time""
""blur"",""1"",""31232""
","""event"",""trial"",""time""
""focus"",""1"",""32141""
","""event"",""trial"",""time""
""fullscreenenter"",""1"",""34600""
","
",,null,run_exp/static/audio/clip_4_dig.m4a,null,,,,,,,100,,,,,,,,,,,,,,,,,
instruc_dig_try,14,138564,0.0-8.0-1.0,"""event"",""trial"",""time""
""blur"",""1"",""31232""
""focus"",""1"",""32141""
""fullscreenenter"",""1"",""34600""
","""event"",""trial"",""time""
""blur"",""1"",""31232""
","""event"",""trial"",""time""
""focus"",""1"",""32141""
","""event"",""trial"",""time""
""fullscreenenter"",""1"",""34600""
","
",,397.2,"<p> When you’ve arrived at a new planet, you will dig once. </p> <p>Then, you get to decide if you want to stay on the planet and dig again or travel to a new planet and dig there.</p> <p> To stay and dig, press the letter <strong>‘A’</strong> on your keyboard. Try pressing it now! </p><p><img src='run_exp/static/images/task_images/land.jpg'  height='700' width='auto'></p>",65,"<p> When you’ve arrived at a new planet, you will dig once. </p> <p>Then, you get to decide if you want to stay on the planet and dig again or travel to a new planet and dig there.</p> <p> To stay and dig, press the letter <strong>‘A’</strong> on your keyboard. Try pressing it now! </p><p><img src='run_exp/static/images/task_images/land.jpg'  height='700' width='auto'></p>",,,,,,100,,,,,,,,,,,,,,,,,
dig_prac,15,140575,0.0-8.0-2.0,"""event"",""trial"",""time""
""blur"",""1"",""31232""
""focus"",""1"",""32141""
""fullscreenenter"",""1"",""34600""
","""event"",""trial"",""time""
""blur"",""1"",""31232""
","""event"",""trial"",""time""
""focus"",""1"",""32141""
","""event"",""trial"",""time""
""fullscreenenter"",""1"",""34600""
","
",,,,,,,,,,,,"[{""stimulus"":""run_exp/static/images/task_images/dig.jpg"",""time"":0.10000002384185791},{""stimulus"":""run_exp/static/images/task_images/land.jpg"",""time"":679.5},{""stimulus"":""run_exp/static/images/task_images/dig.jpg"",""time"":1337.5}]",[],,,,,,,,,,,,,,,
instruc_travel,16,176801,0.0-8.0-3.0,"""event"",""trial"",""time""
""blur"",""1"",""31232""
""focus"",""1"",""32141""
""fullscreenenter"",""1"",""34600""
","""event"",""trial"",""time""
""blur"",""1"",""31232""
","""event"",""trial"",""time""
""focus"",""1"",""32141""
","""event"",""trial"",""time""
""fullscreenenter"",""1"",""34600""
","
",,null,run_exp/static/audio/clip_5_travel.m4a,null,"<p>Every time you dig up gems, there are less gems on the planet, so the more you dig on a planet the fewer gems you’ll get with each dig.</p><p>When gems are running low, you may want to travel to a new planet. </p> <p>  Planets are very far apart in this galaxy, so it will take some time to travel between them. </p> <br><p>There are lots and lots of planets for you to visit, so you won’t be able to return to any planets you’ve seen before. </p><br><p>To leave this planet and travel to a new one, press the letter <strong>‘L’</strong> on your keyboard. Try pressing it now! </p><p><img src='run_exp/static/images/task_images/rocket-01.jpg'  height='600' width='auto'></p>",,,,,,,,,,,,,,,,,,,,,,,
instruc_travel_try,17,179353,0.0-8.0-4.0,"""event"",""trial"",""time""
""blur"",""1"",""31232""
""focus"",""1"",""32141""
""fullscreenenter"",""1"",""34600""
","""event"",""trial"",""time""
""blur"",""1"",""31232""
","""event"",""trial"",""time""
""focus"",""1"",""32141""
","""event"",""trial"",""time""
""fullscreenenter"",""1"",""34600""
","
",,2549.7,"<p>Every time you dig up gems, there are less gems on the planet, so the more you dig on a planet the fewer gems you’ll get with each dig.</p><p>When gems are running low, you may want to travel to a new planet. </p> <p>  Planets are very far apart in this galaxy, so it will take some time to travel between them. </p> <br><p>There are lots and lots of planets for you to visit, so you won’t be able to return to any planets you’ve seen before. </p><br><p>To leave this planet and travel to a new one, press the letter <strong>‘L’</strong> on your keyboard. Try pressing it now! </p><p><img src='run_exp/static/images/task_images/rocket-01.jpg'  height='600' width='auto'></p>",76,"<p>Every time you dig up gems, there are less gems on the planet, so the more you dig on a planet the fewer gems you’ll get with each dig.</p><p>When gems are running low, you may want to travel to a new planet. </p> <p>  Planets are very far apart in this galaxy, so it will take some time to travel between them. </p> <br><p>There are lots and lots of planets for you to visit, so you won’t be able to return to any planets you’ve seen before. </p><br><p>To leave this planet and travel to a new one, press the letter <strong>‘L’</strong> on your keyboard. Try pressing it now! </p><p><img src='run_exp/static/images/task_images/rocket-01.jpg'  height='600' width='auto'></p>",,,,,,,,,,,,,,,,,,,,,,,
travel_prac,18,189357,0.0-8.0-5.0,"""event"",""trial"",""time""
""blur"",""1"",""31232""
""focus"",""1"",""32141""
""fullscreenenter"",""1"",""34600""
","""event"",""trial"",""time""
""blur"",""1"",""31232""
","""event"",""trial"",""time""
""focus"",""1"",""32141""
","""event"",""trial"",""time""
""fullscreenenter"",""1"",""34600""
","
",,,,,,,,,,,,"[{""stimulus"":""run_exp/static/images/task_images/rocket-01.jpg"",""time"":0.30000001192092896},{""stimulus"":""run_exp/static/images/task_images/rocket-02.jpg"",""time"":1115.4000000059605},{""stimulus"":""run_exp/static/images/task_images/rocket-03.jpg"",""time"":2231.4000000059605},{""stimulus"":""run_exp/static/images/task_images/rocket-04.jpg"",""time"":3339.300000011921},{""stimulus"":""run_exp/static/images/task_images/rocket-05.jpg"",""time"":4455.5999999940395},{""stimulus"":""run_exp/static/images/task_images/rocket-06.jpg"",""time"":5563.5},{""stimulus"":""run_exp/static/images/task_images/rocket-07.jpg"",""time"":6676},{""stimulus"":""run_exp/static/images/task_images/rocket-08.jpg"",""time"":7783.5999999940395},{""stimulus"":""run_exp/static/images/task_images/rocket-09.jpg"",""time"":8895.5}]",[],0,,,,,,,,,,,,,,
instruc_alien_greet,19,216545,0.0-8.0-6.0,"""event"",""trial"",""time""
""blur"",""1"",""31232""
""focus"",""1"",""32141""
""fullscreenenter"",""1"",""34600""
","""event"",""trial"",""time""
""blur"",""1"",""31232""
","""event"",""trial"",""time""
""focus"",""1"",""32141""
","""event"",""trial"",""time""
""fullscreenenter"",""1"",""34600""
","
",,null,run_exp/static/audio/clip_6_alien.m4a,null,"<p>When you arrive at a new planet, the alien who owns the treasure mine on that planet will greet you!</p><p>The better an alien takes care of their mine the easier it is to dig for gems. Some aliens take better care of their mine than others. So, you won’t get exactly the same amount of gems on each planet.</p><p>What the alien looks like does not tell you anything about how many gems there are on the planet.</p><br><p><img src=""run_exp/static/images/task_images/aliens/instructions_aliens/planet/alien_planet-1.jpg""  height=""600"" width=""auto""></p>",,,,,,,,,,,,,,,,,,,,,,,
instruc_alien_greet,20,218512,0.0-8.0-7.0,"""event"",""trial"",""time""
""blur"",""1"",""31232""
""focus"",""1"",""32141""
""fullscreenenter"",""1"",""34600""
","""event"",""trial"",""time""
""blur"",""1"",""31232""
","""event"",""trial"",""time""
""focus"",""1"",""32141""
","""event"",""trial"",""time""
""fullscreenenter"",""1"",""34600""
","
",,1964.1,"<p>When you arrive at a new planet, the alien who owns the treasure mine on that planet will greet you!</p><p>The better an alien takes care of their mine the easier it is to dig for gems. Some aliens take better care of their mine than others. So, you won’t get exactly the same amount of gems on each planet.</p><p>What the alien looks like does not tell you anything about how many gems there are on the planet.</p><br><p><img src=""run_exp/static/images/task_images/aliens/instructions_aliens/planet/alien_planet-1.jpg""  height=""600"" width=""auto""></p>",,,,,,,1,,,,,,,,,,,,,,,,,,
html-keyboard-response,21,222097,0.0-8.0-8.0,"""event"",""trial"",""time""
""blur"",""1"",""31232""
""focus"",""1"",""32141""
""fullscreenenter"",""1"",""34600""
","""event"",""trial"",""time""
""blur"",""1"",""31232""
","""event"",""trial"",""time""
""focus"",""1"",""32141""
","""event"",""trial"",""time""
""fullscreenenter"",""1"",""34600""
","
",,3583.8,"<p>When you arrive at a new planet, the alien who owns the treasure mine on that planet will greet you!</p><p>The better an alien takes care of their mine the easier it is to dig for gems. Some aliens take better care of their mine than others. So, you won’t get exactly the same amount of gems on each planet.</p><p>What the alien looks like does not tell you anything about how many gems there are on the planet.</p><br><p><img src=""run_exp/static/images/task_images/aliens/instructions_aliens/planet/alien_planet-1.jpg""  height=""600"" width=""auto""></p><button class=""jspsych-html-btn-unchosen""><img src=""run_exp/static/images/task_images/planet-01.jpg"" height=""50""></button><button class=""jspsych-html-btn-chosen""><img src=""run_exp/static/images/task_images/planet-02.jpg"" height=""50""></button><p><b>[press the space bar to lock in your answer]<b><br></p>",32,,,,,,,,,,,,,,,,,,,,,,,,
time_out,22,233185,0.0-9.0-0.0,"""event"",""trial"",""time""
""blur"",""1"",""31232""
""focus"",""1"",""32141""
""fullscreenenter"",""1"",""34600""
","""event"",""trial"",""time""
""blur"",""1"",""31232""
","""event"",""trial"",""time""
""focus"",""1"",""32141""
","""event"",""trial"",""time""
""fullscreenenter"",""1"",""34600""
","
",,null,run_exp/static/audio/clip_7_timeout.m4a,null,"<p>If you don't make your choice fast enough, you’ll have to wait a few seconds before you can make another one.</p><p>You can’t dig for more gems or travel to new planets. You just have to sit and wait.</p><br><p><img src='run_exp/static/images/task_images/time_out.jpg'  height='600' width='auto'></p>",,,,,,,,,,,,,,,,,,,,,,,
time_out,23,234429,0.0-9.0-1.0,"""event"",""trial"",""time""
""blur"",""1"",""31232""
""focus"",""1"",""32141""
""fullscreenenter"",""1"",""34600""
","""event"",""trial"",""time""
""blur"",""1"",""31232""
","""event"",""trial"",""time""
""focus"",""1"",""32141""
","""event"",""trial"",""time""
""fullscreenenter"",""1"",""34600""
","
",,1239.9,"<p>If you don't make your choice fast enough, you’ll have to wait a few seconds before you can make another one.</p><p>You can’t dig for more gems or travel to new planets. You just have to sit and wait.</p><br><p><img src='run_exp/static/images/task_images/time_out.jpg'  height='600' width='auto'></p>",,,,,,,1,,,,,,,,,,,,,,,,,,
html-keyboard-response,24,234543,0.0-9.0-2.0,"""event"",""trial"",""time""
""blur"",""1"",""31232""
""focus"",""1"",""32141""
""fullscreenenter"",""1"",""34600""
","""event"",""trial"",""time""
""blur"",""1"",""31232""
","""event"",""trial"",""time""
""focus"",""1"",""32141""
","""event"",""trial"",""time""
""fullscreenenter"",""1"",""34600""
","
",,112.2,"<p>If you don't make your choice fast enough, you’ll have to wait a few seconds before you can make another one.</p><p>You can’t dig for more gems or travel to new planets. You just have to sit and wait.</p><br><p><img src='run_exp/static/images/task_images/time_out.jpg'  height='600' width='auto'></p><button class=""jspsych-html-btn-unchosen""><img src=""run_exp/static/images/task_images/planet-01.jpg"" height=""50""></button><button class=""jspsych-html-btn-chosen""><img src=""run_exp/static/images/task_images/planet-02.jpg"" height=""50""></button><p><b>[press the space bar to lock in your answer]<b><br></p>",32,,,,,,,,,,,,,,,,,,,,,,,,
instruc_break,25,250209,0.0-10.0-0.0,"""event"",""trial"",""time""
""blur"",""1"",""31232""
""focus"",""1"",""32141""
""fullscreenenter"",""1"",""34600""
","""event"",""trial"",""time""
""blur"",""1"",""31232""
","""event"",""trial"",""time""
""focus"",""1"",""32141""
","""event"",""trial"",""time""
""fullscreenenter"",""1"",""34600""
","
",,null,run_exp/static/audio/clip_8_break.m4a,null,"<p> After digging and traveling for a while, you’ll be able to take a break at home base. </p><p>The game will last 20 minutes no matter what.</p><p>You will visit home base every 5 minutes, so, you will visit home base three times during the game.</p><br><p><img src='run_exp/static/images/task_images/home_base.jpg' height='600' width='auto'></p>",,,,,,,,,,,,,,,,,,,,,,,
instruc_break,26,251513,0.0-10.0-1.0,"""event"",""trial"",""time""
""blur"",""1"",""31232""
""focus"",""1"",""32141""
""fullscreenenter"",""1"",""34600""
","""event"",""trial"",""time""
""blur"",""1"",""31232""
","""event"",""trial"",""time""
""focus"",""1"",""32141""
","""event"",""trial"",""time""
""fullscreenenter"",""1"",""34600""
","
",,1300.6,"<p> After digging and traveling for a while, you’ll be able to take a break at home base. </p><p>The game will last 20 minutes no matter what.</p><p>You will visit home base every 5 minutes, so, you will visit home base three times during the game.</p><br><p><img src='run_exp/static/images/task_images/home_base.jpg' height='600' width='auto'></p>",,,,,,,1,,,,,,,,,,,,,,,,,,
html-keyboard-response,27,251718,0.0-10.0-2.0,"""event"",""trial"",""time""
""blur"",""1"",""31232""
""focus"",""1"",""32141""
""fullscreenenter"",""1"",""34600""
","""event"",""trial"",""time""
""blur"",""1"",""31232""
","""event"",""trial"",""time""
""focus"",""1"",""32141""
","""event"",""trial"",""time""
""fullscreenenter"",""1"",""34600""
","
",,203.5,"<p> After digging and traveling for a while, you’ll be able to take a break at home base. </p><p>The game will last 20 minutes no matter what.</p><p>You will visit home base every 5 minutes, so, you will visit home base three times during the game.</p><br><p><img src='run_exp/static/images/task_images/home_base.jpg' height='600' width='auto'></p><button class=""jspsych-html-btn-unchosen""><img src=""run_exp/static/images/task_images/planet-01.jpg"" height=""50""></button><button class=""jspsych-html-btn-chosen""><img src=""run_exp/static/images/task_images/planet-02.jpg"" height=""50""></button><p><b>[press the space bar to lock in your answer]<b><br></p>",32,,,,,,,,,,,,,,,,,,,,,,,,
instruc_prac_game,28,261836,0.0-11.0-0.0,"""event"",""trial"",""time""
""blur"",""1"",""31232""
""focus"",""1"",""32141""
""fullscreenenter"",""1"",""34600""
","""event"",""trial"",""time""
""blur"",""1"",""31232""
","""event"",""trial"",""time""
""focus"",""1"",""32141""
","""event"",""trial"",""time""
""fullscreenenter"",""1"",""34600""
","
",,null,run_exp/static/audio/clip_9_practice.m4a,null,"<p> Are you ready to play a practice game? </p> <p>In this practice game, you'll be digging up barrels of gems. But, in the real game, you'll be digging up the gems themselves. </p>",,,,,,,,,,,,,,,,,,,,,,,
html-button-response,29,263163,0.0-11.0-1.0,"""event"",""trial"",""time""
""blur"",""1"",""31232""
""focus"",""1"",""32141""
""fullscreenenter"",""1"",""34600""
","""event"",""trial"",""time""
""blur"",""1"",""31232""
","""event"",""trial"",""time""
""focus"",""1"",""32141""
","""event"",""trial"",""time""
""fullscreenenter"",""1"",""34600""
","
",,1325,"<p> Are you ready to play a practice game? </p> <p>In this practice game, you'll be digging up barrels of gems. But, in the real game, you'll be digging up the gems themselves. </p>",,,,,,,0,,,,,,,,,,,,,,,,,,
alien_welcome_prac,30,268172,0.0-12.0-0.0,"""event"",""trial"",""time""
""blur"",""1"",""31232""
""focus"",""1"",""32141""
""fullscreenenter"",""1"",""34600""
","""event"",""trial"",""time""
""blur"",""1"",""31232""
","""event"",""trial"",""time""
""focus"",""1"",""32141""
","""event"",""trial"",""time""
""fullscreenenter"",""1"",""34600""
","
",,null,run_exp/static/images/task_images/aliens/practice_aliens/planet/alien_planet-5.jpg,null,,,,,,,,,,,,,,,,,,,,,,,,
land_prac,31,268680,0.0-12.0-1.0,"""event"",""trial"",""time""
""blur"",""1"",""31232""
""focus"",""1"",""32141""
""fullscreenenter"",""1"",""34600""
","""event"",""trial"",""time""
""blur"",""1"",""31232""
","""event"",""trial"",""time""
""focus"",""1"",""32141""
","""event"",""trial"",""time""
""fullscreenenter"",""1"",""34600""
","
",,null,run_exp/static/images/task_images/land.jpg,null,,,,,,,110,,,0,,,,,,,,,,,,,,
dig_prac,32,270696,0.0-12.0-2.0,"""event"",""trial"",""time""
""blur"",""1"",""31232""
""focus"",""1"",""32141""
""fullscreenenter"",""1"",""34600""
","""event"",""trial"",""time""
""blur"",""1"",""31232""
","""event"",""trial"",""time""
""focus"",""1"",""32141""
","""event"",""trial"",""time""
""fullscreenenter"",""1"",""34600""
","
",,,,,,,,,,,,"[{""stimulus"":""run_exp/static/images/task_images/dig.jpg"",""time"":0.5},{""stimulus"":""run_exp/static/images/task_images/land.jpg"",""time"":674.1999999880791},{""stimulus"":""run_exp/static/images/task_images/dig.jpg"",""time"":1342.2999999821186}]",[],,,,,,,,,,,,,,,
harvest_prac,33,271704,0.0-12.0-3.0,"""event"",""trial"",""time""
""blur"",""1"",""31232""
""focus"",""1"",""32141""
""fullscreenenter"",""1"",""34600""
","""event"",""trial"",""time""
""blur"",""1"",""31232""
","""event"",""trial"",""time""
""focus"",""1"",""32141""
","""event"",""trial"",""time""
""fullscreenenter"",""1"",""34600""
","
",,null,run_exp/static/images/task_images/barrel_text.jpg,null,,,,,,,,,,,,,,,,,,,,,,,,
decision_prac,34,273228,0.0-12.0-4.0,"""event"",""trial"",""time""
""blur"",""1"",""31232""
""focus"",""1"",""32141""
""fullscreenenter"",""1"",""34600""
","""event"",""trial"",""time""
""blur"",""1"",""31232""
","""event"",""trial"",""time""
""focus"",""1"",""32141""
","""event"",""trial"",""time""
""fullscreenenter"",""1"",""34600""
","
",,1522.2,run_exp/static/images/task_images/land.jpg,65,,,,,,,,,,,1,,,,,,,,,,,,,
dig_prac,35,275236,0.0-13.0-0.0,"""event"",""trial"",""time""
""blur"",""1"",""31232""
""focus"",""1"",""32141""
""fullscreenenter"",""1"",""34600""
","""event"",""trial"",""time""
""blur"",""1"",""31232""
","""event"",""trial"",""time""
""focus"",""1"",""32141""
","""event"",""trial"",""time""
""fullscreenenter"",""1"",""34600""
","
",,,,,,,,,,,,"[{""stimulus"":""run_exp/static/images/task_images/dig.jpg"",""time"":0.09999999403953552},{""stimulus"":""run_exp/static/images/task_images/land.jpg"",""time"":677.1999999880791},{""stimulus"":""run_exp/static/images/task_images/dig.jpg"",""time"":1336.5999999940395}]",[],,,,,,,,,,,,,,,
harvest_prac,36,276248,0.0-13.0-1.0,"""event"",""trial"",""time""
""blur"",""1"",""31232""
""focus"",""1"",""32141""
""fullscreenenter"",""1"",""34600""
","""event"",""trial"",""time""
""blur"",""1"",""31232""
","""event"",""trial"",""time""
""focus"",""1"",""32141""
","""event"",""trial"",""time""
""fullscreenenter"",""1"",""34600""
","
",,null,run_exp/static/images/task_images/barrel_text.jpg,null,,,,,,,,,,,,,,,,,,,,,,,,
decision_prac,37,276884,0.0-13.0-2.0,"""event"",""trial"",""time""
""blur"",""1"",""31232""
""focus"",""1"",""32141""
""fullscreenenter"",""1"",""34600""
","""event"",""trial"",""time""
""blur"",""1"",""31232""
","""event"",""trial"",""time""
""focus"",""1"",""32141""
","""event"",""trial"",""time""
""fullscreenenter"",""1"",""34600""
","
",,634.3,run_exp/static/images/task_images/land.jpg,65,,,,,,,,,,,2,,,,,,,,,,,,,
dig_prac,38,278896,0.0-14.0-0.0,"""event"",""trial"",""time""
""blur"",""1"",""31232""
""focus"",""1"",""32141""
""fullscreenenter"",""1"",""34600""
","""event"",""trial"",""time""
""blur"",""1"",""31232""
","""event"",""trial"",""time""
""focus"",""1"",""32141""
","""event"",""trial"",""time""
""fullscreenenter"",""1"",""34600""
","
",,,,,,,,,,,,"[{""stimulus"":""run_exp/static/images/task_images/dig.jpg"",""time"":0.09999999403953552},{""stimulus"":""run_exp/static/images/task_images/land.jpg"",""time"":680.4000000059605},{""stimulus"":""run_exp/static/images/task_images/dig.jpg"",""time"":1344.4000000059605}]",[],,,,,,,,,,,,,,,
harvest_prac,39,279903,0.0-14.0-1.0,"""event"",""trial"",""time""
""blur"",""1"",""31232""
""focus"",""1"",""32141""
""fullscreenenter"",""1"",""34600""
","""event"",""trial"",""time""
""blur"",""1"",""31232""
","""event"",""trial"",""time""
""focus"",""1"",""32141""
","""event"",""trial"",""time""
""fullscreenenter"",""1"",""34600""
","
",,null,run_exp/static/images/task_images/barrel_text.jpg,null,,,,,,,,,,,,,,,,,,,,,,,,
decision_prac,40,280748,0.0-14.0-2.0,"""event"",""trial"",""time""
""blur"",""1"",""31232""
""focus"",""1"",""32141""
""fullscreenenter"",""1"",""34600""
","""event"",""trial"",""time""
""blur"",""1"",""31232""
","""event"",""trial"",""time""
""focus"",""1"",""32141""
","""event"",""trial"",""time""
""fullscreenenter"",""1"",""34600""
","
",,842.9,run_exp/static/images/task_images/land.jpg,76,,,,,,,,,,,3,,,,,,,,,,,,,
travel,41,289911,0.0-15.0-0.0,"""event"",""trial"",""time""
""blur"",""1"",""31232""
""focus"",""1"",""32141""
""fullscreenenter"",""1"",""34600""
","""event"",""trial"",""time""
""blur"",""1"",""31232""
","""event"",""trial"",""time""
""focus"",""1"",""32141""
","""event"",""trial"",""time""
""fullscreenenter"",""1"",""34600""
","
",,,,,,,,,,,,"[{""stimulus"":""run_exp/static/images/task_images/rocket-01.jpg"",""time"":0.19999998807907104},{""stimulus"":""run_exp/static/images/task_images/rocket-02.jpg"",""time"":1019.7999999821186},{""stimulus"":""run_exp/static/images/task_images/rocket-03.jpg"",""time"":2038.199999988079},{""stimulus"":""run_exp/static/images/task_images/rocket-04.jpg"",""time"":3064.2999999821186},{""stimulus"":""run_exp/static/images/task_images/rocket-05.jpg"",""time"":4076.399999976158},{""stimulus"":""run_exp/static/images/task_images/rocket-06.jpg"",""time"":5096.5999999940395},{""stimulus"":""run_exp/static/images/task_images/rocket-07.jpg"",""time"":6107.899999976158},{""stimulus"":""run_exp/static/images/task_images/rocket-08.jpg"",""time"":7128.399999976158},{""stimulus"":""run_exp/static/images/task_images/rocket-09.jpg"",""time"":8143.799999982119}]",[],0,,,,,,,,,,,,,,
alien_welcome_prac,42,294917,0.0-15.0-1.0,"""event"",""trial"",""time""
""blur"",""1"",""31232""
""focus"",""1"",""32141""
""fullscreenenter"",""1"",""34600""
","""event"",""trial"",""time""
""blur"",""1"",""31232""
","""event"",""trial"",""time""
""focus"",""1"",""32141""
","""event"",""trial"",""time""
""fullscreenenter"",""1"",""34600""
","
",,null,run_exp/static/images/task_images/aliens/practice_aliens/planet/alien_planet-4.jpg,null,,,,,,,,,,,,,,,,,,,,,,,,
land_prac,43,295429,0.0-15.0-2.0,"""event"",""trial"",""time""
""blur"",""1"",""31232""
""focus"",""1"",""32141""
""fullscreenenter"",""1"",""34600""
","""event"",""trial"",""time""
""blur"",""1"",""31232""
","""event"",""trial"",""time""
""focus"",""1"",""32141""
","""event"",""trial"",""time""
""fullscreenenter"",""1"",""34600""
","
",,null,run_exp/static/images/task_images/land.jpg,null,,,,,,,106,,,0,,,,,,,,,,,,,,
dig_prac,44,297439,0.0-15.0-3.0,"""event"",""trial"",""time""
""blur"",""1"",""31232""
""focus"",""1"",""32141""
""fullscreenenter"",""1"",""34600""
","""event"",""trial"",""time""
""blur"",""1"",""31232""
","""event"",""trial"",""time""
""focus"",""1"",""32141""
","""event"",""trial"",""time""
""fullscreenenter"",""1"",""34600""
","
",,,,,,,,,,,,"[{""stimulus"":""run_exp/static/images/task_images/dig.jpg"",""time"":0.4000000059604645},{""stimulus"":""run_exp/static/images/task_images/land.jpg"",""time"":680.0999999940395},{""stimulus"":""run_exp/static/images/task_images/dig.jpg"",""time"":1340.0999999940395}]",[],,,,,,,,,,,,,,,
harvest_prac,45,298447,0.0-15.0-4.0,"""event"",""trial"",""time""
""blur"",""1"",""31232""
""focus"",""1"",""32141""
""fullscreenenter"",""1"",""34600""
","""event"",""trial"",""time""
""blur"",""1"",""31232""
","""event"",""trial"",""time""
""focus"",""1"",""32141""
","""event"",""trial"",""time""
""fullscreenenter"",""1"",""34600""
","
",,null,run_exp/static/images/task_images/barrel_text.jpg,null,,,,,,,,,,,,,,,,,,,,,,,,
decision_prac,46,298935,0.0-15.0-5.0,"""event"",""trial"",""time""
""blur"",""1"",""31232""
""focus"",""1"",""32141""
""fullscreenenter"",""1"",""34600""
","""event"",""trial"",""time""
""blur"",""1"",""31232""
","""event"",""trial"",""time""
""focus"",""1"",""32141""
","""event"",""trial"",""time""
""fullscreenenter"",""1"",""34600""
","
",,485.3,run_exp/static/images/task_images/land.jpg,65,,,,,,,,,,,4,,,,,,,,,,,,,
dig_prac,47,300949,0.0-16.0-0.0,"""event"",""trial"",""time""
""blur"",""1"",""31232""
""focus"",""1"",""32141""
""fullscreenenter"",""1"",""34600""
","""event"",""trial"",""time""
""blur"",""1"",""31232""
","""event"",""trial"",""time""
""focus"",""1"",""32141""
","""event"",""trial"",""time""
""fullscreenenter"",""1"",""34600""
","
",,,,,,,,,,,,"[{""stimulus"":""run_exp/static/images/task_images/dig.jpg"",""time"":0.19999998807907104},{""stimulus"":""run_exp/static/images/task_images/land.jpg"",""time"":678.4000000059605},{""stimulus"":""run_exp/static/images/task_images/dig.jpg"",""time"":1338.0999999940395}]",[],,,,,,,,,,,,,,,
harvest_prac,48,301952,0.0-16.0-1.0,"""event"",""trial"",""time""
""blur"",""1"",""31232""
""focus"",""1"",""32141""
""fullscreenenter"",""1"",""34600""
","""event"",""trial"",""time""
""blur"",""1"",""31232""
","""event"",""trial"",""time""
""focus"",""1"",""32141""
","""event"",""trial"",""time""
""fullscreenenter"",""1"",""34600""
","
",,null,run_exp/static/images/task_images/barrel_text.jpg,null,,,,,,,,,,,,,,,,,,,,,,,,
decision_prac,49,302522,0.0-16.0-2.0,"""event"",""trial"",""time""
""blur"",""1"",""31232""
""focus"",""1"",""32141""
""fullscreenenter"",""1"",""34600""
","""event"",""trial"",""time""
""blur"",""1"",""31232""
","""event"",""trial"",""time""
""focus"",""1"",""32141""
","""event"",""trial"",""time""
""fullscreenenter"",""1"",""34600""
","
",,568.5,run_exp/static/images/task_images/land.jpg,76,,,,,,,,,,,,1,,,,,,,,,,,,
quiz_instruc,50,305431,0.0-17.0-0.0,"""event"",""trial"",""time""
""blur"",""1"",""31232""
""focus"",""1"",""32141""
""fullscreenenter"",""1"",""34600""
","""event"",""trial"",""time""
""blur"",""1"",""31232""
","""event"",""trial"",""time""
""focus"",""1"",""32141""
","""event"",""trial"",""time""
""fullscreenenter"",""1"",""34600""
","
",,2906,run_exp/static/audio/clip_10_quiz.m4a,,,,,,,0,,,,,,,,,,,,,,,,,,
instruc_repeat,51,348172,0.0-17.0-1.0,"""event"",""trial"",""time""
""blur"",""1"",""31232""
""focus"",""1"",""32141""
""fullscreenenter"",""1"",""34600""
","""event"",""trial"",""time""
""blur"",""1"",""31232""
","""event"",""trial"",""time""
""focus"",""1"",""32141""
","""event"",""trial"",""time""
""fullscreenenter"",""1"",""34600""
","
",,null,"<p> Are you ready to play a practice game? </p> <p>In this practice game, you'll be digging up barrels of gems. But, in the real game, you'll be digging up the gems themselves. </p>",null,"<p>In this game, your goal is to collect as many gems as you can. That’s how you will win bonus money. </p> <p>The entire game will last 20 minutes no matter how many gems you collect or how many planets you visit. </p><p>To stay on a planet and dig again, press the letter A on your keyboard. To leave for a new planet, press the letter L.</p><p>The more you dig on a planet, the fewer gems you’ll get with each dig which is why you might consider leaving for a new planet. </p><p>When you arrive at a new planet, you’ll be greeted by an alien. What the alien looks like does not tell you anything about how much treasure is on the planet. </p>",,,,,,,,,,,,,,,,,,,,,,,
instruc_repeat_continue,52,350662,0.0-17.0-2.0,"""event"",""trial"",""time""
""blur"",""1"",""31232""
""focus"",""1"",""32141""
""fullscreenenter"",""1"",""34600""
","""event"",""trial"",""time""
""blur"",""1"",""31232""
","""event"",""trial"",""time""
""focus"",""1"",""32141""
","""event"",""trial"",""time""
""fullscreenenter"",""1"",""34600""
","
",,2486.7,"<p> Are you ready to play a practice game? </p> <p>In this practice game, you'll be digging up barrels of gems. But, in the real game, you'll be digging up the gems themselves. </p>",,,,,,,0,,,,,,,,,,,,,,,,,,
quiz_q_1_ask,53,353297,0.0-17.0-3.0,"""event"",""trial"",""time""
""blur"",""1"",""31232""
""focus"",""1"",""32141""
""fullscreenenter"",""1"",""34600""
","""event"",""trial"",""time""
""blur"",""1"",""31232""
","""event"",""trial"",""time""
""focus"",""1"",""32141""
","""event"",""trial"",""time""
""fullscreenenter"",""1"",""34600""
","
",,2633.9,run_exp/static/audio/clip_11_q1_ask.m4a,,,,,,,2,,,,,,,,,,,,,,,,,,
quiz_q_1_fb_correct,54,357132,0.0-18.0-0.0,"""event"",""trial"",""time""
""blur"",""1"",""31232""
""focus"",""1"",""32141""
""fullscreenenter"",""1"",""34600""
","""event"",""trial"",""time""
""blur"",""1"",""31232""
","""event"",""trial"",""time""
""focus"",""1"",""32141""
","""event"",""trial"",""time""
""fullscreenenter"",""1"",""34600""
","
",,null,run_exp/static/audio/clip_12_q1_correct.m4a,null,<p>That’s correct. You win extra money by collecting more gems.</p>,,,,,,,,,,,,,,,,,,,,,,,
quiz_q_2_ask,55,359562,0.0-18.0-1.0,"""event"",""trial"",""time""
""blur"",""1"",""31232""
""focus"",""1"",""32141""
""fullscreenenter"",""1"",""34600""
","""event"",""trial"",""time""
""blur"",""1"",""31232""
","""event"",""trial"",""time""
""focus"",""1"",""32141""
","""event"",""trial"",""time""
""fullscreenenter"",""1"",""34600""
","
",,2427.2,run_exp/static/audio/clip_14_q2_ask.m4a,,,,,,,1,,,,,,,,,,,,,,,,,,
quiz_q_2_fb_correct,56,363554,0.0-19.0-0.0,"""event"",""trial"",""time""
""blur"",""1"",""31232""
""focus"",""1"",""32141""
""fullscreenenter"",""1"",""34600""
","""event"",""trial"",""time""
""blur"",""1"",""31232""
","""event"",""trial"",""time""
""focus"",""1"",""32141""
","""event"",""trial"",""time""
""fullscreenenter"",""1"",""34600""
","
",,null,run_exp/static/audio/clip_15_q2_correct.m4a,null,<p>That’s correct. The experiment is 20 minutes no matter what.</p>,,,,,,,,,,,,,,,,,,,,,,,
quiz_q_3_ask,57,368149,0.0-19.0-1.0,"""event"",""trial"",""time""
""blur"",""1"",""31232""
""focus"",""1"",""32141""
""fullscreenenter"",""1"",""34600""
","""event"",""trial"",""time""
""blur"",""1"",""31232""
","""event"",""trial"",""time""
""focus"",""1"",""32141""
","""event"",""trial"",""time""
""fullscreenenter"",""1"",""34600""
","
",,4593.5,run_exp/static/audio/clip_17_q3_ask.m4a,,,,,,,1,,,,,,,,,,,,,,,,,,
quiz_q_3_fb_correct,58,372129,0.0-20.0-0.0,"""event"",""trial"",""time""
""blur"",""1"",""31232""
""focus"",""1"",""32141""
""fullscreenenter"",""1"",""34600""
","""event"",""trial"",""time""
""blur"",""1"",""31232""
","""event"",""trial"",""time""
""focus"",""1"",""32141""
","""event"",""trial"",""time""
""fullscreenenter"",""1"",""34600""
","
",,null,run_exp/static/audio/clip_18_q3_correct.m4a,null,<p> That’s correct. You press the letter L to travel to a new planet.</p>,,,,,,,,,,,,,,,,,,,,,,,
quiz_q_4_ask,59,375199,0.0-20.0-1.0,"""event"",""trial"",""time""
""blur"",""1"",""31232""
""focus"",""1"",""32141""
""fullscreenenter"",""1"",""34600""
","""event"",""trial"",""time""
""blur"",""1"",""31232""
","""event"",""trial"",""time""
""focus"",""1"",""32141""
","""event"",""trial"",""time""
""fullscreenenter"",""1"",""34600""
","
",,3066.7,run_exp/static/audio/clip_20_q4_ask.m4a,,,,,,,0,,,,,,,,,,,,,,,,,,
quiz_q_4_fb_correct,60,380513,0.0-21.0-0.0,"""event"",""trial"",""time""
""blur"",""1"",""31232""
""focus"",""1"",""32141""
""fullscreenenter"",""1"",""34600""
","""event"",""trial"",""time""
""blur"",""1"",""31232""
","""event"",""trial"",""time""
""focus"",""1"",""32141""
","""event"",""trial"",""time""
""fullscreenenter"",""1"",""34600""
","
",,null,run_exp/static/audio/clip_21_q4_correct.m4a,null,<p> That’s correct. The more you dig on a planet the fewer gems you’ll get with each dig. </p>,,,,,,,,,,,,,,,,,,,,,,,
quiz_q_5_ask,61,382446,0.0-21.0-1.0,"""event"",""trial"",""time""
""blur"",""1"",""31232""
""focus"",""1"",""32141""
""fullscreenenter"",""1"",""34600""
","""event"",""trial"",""time""
""blur"",""1"",""31232""
","""event"",""trial"",""time""
""focus"",""1"",""32141""
","""event"",""trial"",""time""
""fullscreenenter"",""1"",""34600""
","
",,1930,run_exp/static/audio/clip_23_q5_ask.m4a,,,,,,,1,,,,,,,,,,,,,,,,,,
quiz_q_5_fb_correct,62,387447,0.0-22.0-0.0,"""event"",""trial"",""time""
""blur"",""1"",""31232""
""focus"",""1"",""32141""
""fullscreenenter"",""1"",""34600""
","""event"",""trial"",""time""
""blur"",""1"",""31232""
","""event"",""trial"",""time""
""focus"",""1"",""32141""
","""event"",""trial"",""time""
""fullscreenenter"",""1"",""34600""
","
",,null,run_exp/static/audio/clip_24_q5_correct.m4a,null,<p> That’s correct. The alien tells you nothing about how much treasure is on the planet.</p>,,,,,,,,,,,,,,,,,,,,,,,
quiz_correct,63,390881,0.0-23.0-0.0,"""event"",""trial"",""time""
""blur"",""1"",""31232""
""focus"",""1"",""32141""
""fullscreenenter"",""1"",""34600""
","""event"",""trial"",""time""
""blur"",""1"",""31232""
","""event"",""trial"",""time""
""focus"",""1"",""32141""
","""event"",""trial"",""time""
""fullscreenenter"",""1"",""34600""
","
",,null,run_exp/static/audio/clip_26_correct_quiz.m4a,null,,,,,,,,,,,,,,,,,,,,,,,,
quiz_correct_continue,64,392164,0.0-23.0-1.0,"""event"",""trial"",""time""
""blur"",""1"",""31232""
""focus"",""1"",""32141""
""fullscreenenter"",""1"",""34600""
","""event"",""trial"",""time""
""blur"",""1"",""31232""
","""event"",""trial"",""time""
""focus"",""1"",""32141""
","""event"",""trial"",""time""
""fullscreenenter"",""1"",""34600""
","
",,1280.7,<p>Good job! You're now ready to move on to the real game!</p>,,,,,,,0,,,,,,,,,,,,,,,,,,
audio-keyboard-response,65,402274,0.0-23.0-2.0,"""event"",""trial"",""time""
""blur"",""1"",""31232""
""focus"",""1"",""32141""
""fullscreenenter"",""1"",""34600""
","""event"",""trial"",""time""
""blur"",""1"",""31232""
","""event"",""trial"",""time""
""focus"",""1"",""32141""
","""event"",""trial"",""time""
""fullscreenenter"",""1"",""34600""
","
",,null,run_exp/static/audio/clip_28_real_game.m4a,null,,,,,,,,,,,,,,,,,,,,,,,,
instruc_begin_exp_contine,66,404162,0.0-23.0-3.0,"""event"",""trial"",""time""
""blur"",""1"",""31232""
""focus"",""1"",""32141""
""fullscreenenter"",""1"",""34600""
","""event"",""trial"",""time""
""blur"",""1"",""31232""
","""event"",""trial"",""time""
""focus"",""1"",""32141""
","""event"",""trial"",""time""
""fullscreenenter"",""1"",""34600""
","
",,1887.1,"<p>Now that you know how  to dig for space treasure and travel to new planets,you can start exploring! </p><p>Do you want to go over the instructions again or get started with the real game?</p>",,,,,,,1,,,,,,1,,,,,,,,,,,,
alien_welcome,67,409169,0.0-24.0-0.0,"""event"",""trial"",""time""
""blur"",""1"",""31232""
""focus"",""1"",""32141""
""fullscreenenter"",""1"",""34600""
","""event"",""trial"",""time""
""blur"",""1"",""31232""
","""event"",""trial"",""time""
""focus"",""1"",""32141""
","""event"",""trial"",""time""
""fullscreenenter"",""1"",""34600""
","
",,null,run_exp/static/images/task_images/aliens/old_aliens/planet/alien_planet-29.jpg,null,,,,,,,,,,,,,29,"29,65,67,43,58,74,2,36,62,73,45,49,40,75,18,72,15,66,9,27,46,33,44,34,7,38,56,39,50,16,24,77,31,28,25,19,57",,,,,,,,,,
land,68,409673,0.0-24.0-1.0,"""event"",""trial"",""time""
""blur"",""1"",""31232""
""focus"",""1"",""32141""
""fullscreenenter"",""1"",""34600""
","""event"",""trial"",""time""
""blur"",""1"",""31232""
","""event"",""trial"",""time""
""focus"",""1"",""32141""
","""event"",""trial"",""time""
""fullscreenenter"",""1"",""34600""
","
",,null,run_exp/static/images/task_images/land.jpg,null,,,,,,,102,,,1,,,,,,,,,,,,,,
dig,69,411681,0.0-24.0-2.0,"""event"",""trial"",""time""
""blur"",""1"",""31232""
""focus"",""1"",""32141""
""fullscreenenter"",""1"",""34600""
","""event"",""trial"",""time""
""blur"",""1"",""31232""
","""event"",""trial"",""time""
""focus"",""1"",""32141""
","""event"",""trial"",""time""
""fullscreenenter"",""1"",""34600""
","
",,,,,,,,,,,,"[{""stimulus"":""run_exp/static/images/task_images/dig.jpg"",""time"":0.19999998807907104},{""stimulus"":""run_exp/static/images/task_images/land.jpg"",""time"":671.0999999940395},{""stimulus"":""run_exp/static/images/task_images/dig.jpg"",""time"":1345.199999988079}]",[],1,,,,,,,,,,,,,,
harvest,70,412693,0.0-24.0-3.0,"""event"",""trial"",""time""
""blur"",""1"",""31232""
""focus"",""1"",""32141""
""fullscreenenter"",""1"",""34600""
","""event"",""trial"",""time""
""blur"",""1"",""31232""
","""event"",""trial"",""time""
""focus"",""1"",""32141""
","""event"",""trial"",""time""
""fullscreenenter"",""1"",""34600""
","
",,null,run_exp/static/images/task_images/gems/102.jpg,null,,,,,,,19,,,1,,,,,102,0.189261777,0.18627451,,,,,,,
decision,71,413117,0.0-24.0-4.0,"""event"",""trial"",""time""
""blur"",""1"",""31232""
""focus"",""1"",""32141""
""fullscreenenter"",""1"",""34600""
","""event"",""trial"",""time""
""blur"",""1"",""31232""
","""event"",""trial"",""time""
""focus"",""1"",""32141""
","""event"",""trial"",""time""
""fullscreenenter"",""1"",""34600""
","
",,421.6,run_exp/static/images/task_images/land.jpg,65,,,,,,,19,,,1,,,,,,,,8953,1,0,FALSE,,,
dig,72,415707,0.0-25.0-0.0,"""event"",""trial"",""time""
""blur"",""1"",""31232""
""focus"",""1"",""32141""
""fullscreenenter"",""1"",""34600""
","""event"",""trial"",""time""
""blur"",""1"",""31232""
","""event"",""trial"",""time""
""focus"",""1"",""32141""
","""event"",""trial"",""time""
""fullscreenenter"",""1"",""34600""
","
",,,,,,,,,,,,"[{""stimulus"":""run_exp/static/images/task_images/dig.jpg"",""time"":0.30000001192092896},{""stimulus"":""run_exp/static/images/task_images/land.jpg"",""time"":865.2000000178814},{""stimulus"":""run_exp/static/images/task_images/dig.jpg"",""time"":1725.0999999940395}]",[],1,,,,,,,,,,,,,,
harvest,73,416716,0.0-25.0-1.0,"""event"",""trial"",""time""
""blur"",""1"",""31232""
""focus"",""1"",""32141""
""fullscreenenter"",""1"",""34600""
","""event"",""trial"",""time""
""blur"",""1"",""31232""
","""event"",""trial"",""time""
""focus"",""1"",""32141""
","""event"",""trial"",""time""
""fullscreenenter"",""1"",""34600""
","
",,null,run_exp/static/images/task_images/gems/19.jpg,null,,,,,,,4,,,1,,,,,19,0.212039795,0.210526316,,,,,,,
decision,74,417708,0.0-25.0-2.0,"""event"",""trial"",""time""
""blur"",""1"",""31232""
""focus"",""1"",""32141""
""fullscreenenter"",""1"",""34600""
","""event"",""trial"",""time""
""blur"",""1"",""31232""
","""event"",""trial"",""time""
""focus"",""1"",""32141""
","""event"",""trial"",""time""
""fullscreenenter"",""1"",""34600""
","
",,989.7,run_exp/static/images/task_images/land.jpg,76,,,,,,,4,,,1,,,,,,,,13544,1,1,TRUE,,,
travel,75,426733,0.0-26.0-0.0,"""event"",""trial"",""time""
""blur"",""1"",""31232""
""focus"",""1"",""32141""
""fullscreenenter"",""1"",""34600""
","""event"",""trial"",""time""
""blur"",""1"",""31232""
","""event"",""trial"",""time""
""focus"",""1"",""32141""
","""event"",""trial"",""time""
""fullscreenenter"",""1"",""34600""
","
",,,,,,,,,,,,"[{""stimulus"":""run_exp/static/images/task_images/rocket-01.jpg"",""time"":0.19999998807907104},{""stimulus"":""run_exp/static/images/task_images/rocket-02.jpg"",""time"":1002.0999999940395},{""stimulus"":""run_exp/static/images/task_images/rocket-03.jpg"",""time"":2009.699999988079},{""stimulus"":""run_exp/static/images/task_images/rocket-04.jpg"",""time"":3009},{""stimulus"":""run_exp/static/images/task_images/rocket-05.jpg"",""time"":4011.699999988079},{""stimulus"":""run_exp/static/images/task_images/rocket-06.jpg"",""time"":5012},{""stimulus"":""run_exp/static/images/task_images/rocket-07.jpg"",""time"":6014.0999999940395},{""stimulus"":""run_exp/static/images/task_images/rocket-08.jpg"",""time"":7012.899999976158},{""stimulus"":""run_exp/static/images/task_images/rocket-09.jpg"",""time"":8021.799999982119}]",[],1,,,,,,,,,,,,,,
alien_welcome,76,431741,0.0-26.0-1.0,"""event"",""trial"",""time""
""blur"",""1"",""31232""
""focus"",""1"",""32141""
""fullscreenenter"",""1"",""34600""
","""event"",""trial"",""time""
""blur"",""1"",""31232""
","""event"",""trial"",""time""
""focus"",""1"",""32141""
","""event"",""trial"",""time""
""fullscreenenter"",""1"",""34600""
","
",,null,run_exp/static/images/task_images/aliens/old_aliens/planet/alien_planet-65.jpg,null,,,,,,,,,,,,,65,"29,65,67,43,58,74,2,36,62,73,45,49,40,75,18,72,15,66,9,27,46,33,44,34,7,38,56,39,50,16,24,77,31,28,25,19,57",,,,,,,,,,
land,77,432246,0.0-26.0-2.0,"""event"",""trial"",""time""
""blur"",""1"",""31232""
""focus"",""1"",""32141""
""fullscreenenter"",""1"",""34600""
","""event"",""trial"",""time""
""blur"",""1"",""31232""
","""event"",""trial"",""time""
""focus"",""1"",""32141""
","""event"",""trial"",""time""
""fullscreenenter"",""1"",""34600""
","
",,null,run_exp/static/images/task_images/land.jpg,null,,,,,,,102,,,2,,,,,,,,,,,,,,
dig,78,434261,0.0-26.0-3.0,"""event"",""trial"",""time""
""blur"",""1"",""31232""
""focus"",""1"",""32141""
""fullscreenenter"",""1"",""34600""
","""event"",""trial"",""time""
""blur"",""1"",""31232""
","""event"",""trial"",""time""
""focus"",""1"",""32141""
","""event"",""trial"",""time""
""fullscreenenter"",""1"",""34600""
","
",,,,,,,,,,,,"[{""stimulus"":""run_exp/static/images/task_images/dig.jpg"",""time"":0.5999999940395355},{""stimulus"":""run_exp/static/images/task_images/land.jpg"",""time"":674.2999999821186},{""stimulus"":""run_exp/static/images/task_images/dig.jpg"",""time"":1337.5999999940395}]",[],2,,,,,,,,,,,,,,
harvest,79,435264,0.0-26.0-4.0,"""event"",""trial"",""time""
""blur"",""1"",""31232""
""focus"",""1"",""32141""
""fullscreenenter"",""1"",""34600""
","""event"",""trial"",""time""
""blur"",""1"",""31232""
","""event"",""trial"",""time""
""focus"",""1"",""32141""
","""event"",""trial"",""time""
""fullscreenenter"",""1"",""34600""
","
",,null,run_exp/static/images/task_images/gems/102.jpg,null,,,,,,,19,,,2,,,,,102,0.186407582,0.18627451,,,,,,,
decision,80,435687,0.0-26.0-5.0,"""event"",""trial"",""time""
""blur"",""1"",""31232""
""focus"",""1"",""32141""
""fullscreenenter"",""1"",""34600""
","""event"",""trial"",""time""
""blur"",""1"",""31232""
","""event"",""trial"",""time""
""focus"",""1"",""32141""
","""event"",""trial"",""time""
""fullscreenenter"",""1"",""34600""
","
",,421.9,run_exp/static/images/task_images/land.jpg,65,,,,,,,19,,,2,,,,,,,,31523,1,0,FALSE,,,
dig,81,438272,0.0-27.0-0.0,"""event"",""trial"",""time""
""blur"",""1"",""31232""
""focus"",""1"",""32141""
""fullscreenenter"",""1"",""34600""
","""event"",""trial"",""time""
""blur"",""1"",""31232""
","""event"",""trial"",""time""
""focus"",""1"",""32141""
","""event"",""trial"",""time""
""fullscreenenter"",""1"",""34600""
","
",,,,,,,,,,,,"[{""stimulus"":""run_exp/static/images/task_images/dig.jpg"",""time"":0.10000002384185791},{""stimulus"":""run_exp/static/images/task_images/land.jpg"",""time"":865.7000000178814},{""stimulus"":""run_exp/static/images/task_images/dig.jpg"",""time"":1730.2000000178814}]",[],2,,,,,,,,,,,,,,
harvest,82,439285,0.0-27.0-1.0,"""event"",""trial"",""time""
""blur"",""1"",""31232""
""focus"",""1"",""32141""
""fullscreenenter"",""1"",""34600""
","""event"",""trial"",""time""
""blur"",""1"",""31232""
","""event"",""trial"",""time""
""focus"",""1"",""32141""
","""event"",""trial"",""time""
""fullscreenenter"",""1"",""34600""
","
",,null,run_exp/static/images/task_images/gems/19.jpg,null,,,,,,,5,,,2,,,,,19,0.253553877,0.263157895,,,,,,,
decision,83,439594,0.0-27.0-2.0,"""event"",""trial"",""time""
""blur"",""1"",""31232""
""focus"",""1"",""32141""
""fullscreenenter"",""1"",""34600""
","""event"",""trial"",""time""
""blur"",""1"",""31232""
","""event"",""trial"",""time""
""focus"",""1"",""32141""
","""event"",""trial"",""time""
""fullscreenenter"",""1"",""34600""
","
",,307.1,run_exp/static/images/task_images/land.jpg,65,,,,,,,5,,,2,,,,,,,,35430,1,1,FALSE,,,
dig,84,442301,0.0-28.0-0.0,"""event"",""trial"",""time""
""blur"",""1"",""31232""
""focus"",""1"",""32141""
""fullscreenenter"",""1"",""34600""
","""event"",""trial"",""time""
""blur"",""1"",""31232""
","""event"",""trial"",""time""
""focus"",""1"",""32141""
","""event"",""trial"",""time""
""fullscreenenter"",""1"",""34600""
","
",,,,,,,,,,,,"[{""stimulus"":""run_exp/static/images/task_images/dig.jpg"",""time"":0.29999998211860657},{""stimulus"":""run_exp/static/images/task_images/land.jpg"",""time"":910.6999999880791},{""stimulus"":""run_exp/static/images/task_images/dig.jpg"",""time"":1802.9000000059605}]",[],2,,,,,,,,,,,,,,
harvest,85,443309,0.0-28.0-1.0,"""event"",""trial"",""time""
""blur"",""1"",""31232""
""focus"",""1"",""32141""
""fullscreenenter"",""1"",""34600""
","""event"",""trial"",""time""
""blur"",""1"",""31232""
","""event"",""trial"",""time""
""focus"",""1"",""32141""
","""event"",""trial"",""time""
""fullscreenenter"",""1"",""34600""
","
",,null,run_exp/static/images/task_images/gems/5.jpg,null,,,,,,,1,,,2,,,,,5,0.191856605,0.2,,,,,,,
decision,86,443382,0.0-28.0-2.0,"""event"",""trial"",""time""
""blur"",""1"",""31232""
""focus"",""1"",""32141""
""fullscreenenter"",""1"",""34600""
","""event"",""trial"",""time""
""blur"",""1"",""31232""
","""event"",""trial"",""time""
""focus"",""1"",""32141""
","""event"",""trial"",""time""
""fullscreenenter"",""1"",""34600""
","
",,69.59999999,run_exp/static/images/task_images/land.jpg,76,,,,,,,1,,,2,,,,,,,,39218,1,2,TRUE,,,
travel,87,453324,0.0-29.0-0.0,"""event"",""trial"",""time""
""blur"",""1"",""31232""
""focus"",""1"",""32141""
""fullscreenenter"",""1"",""34600""
","""event"",""trial"",""time""
""blur"",""1"",""31232""
","""event"",""trial"",""time""
""focus"",""1"",""32141""
","""event"",""trial"",""time""
""fullscreenenter"",""1"",""34600""
","
",,,,,,,,,,,,"[{""stimulus"":""run_exp/static/images/task_images/rocket-01.jpg"",""time"":0.19999998807907104},{""stimulus"":""run_exp/static/images/task_images/rocket-02.jpg"",""time"":1114.7999999821186},{""stimulus"":""run_exp/static/images/task_images/rocket-03.jpg"",""time"":2214.199999988079},{""stimulus"":""run_exp/static/images/task_images/rocket-04.jpg"",""time"":3319},{""stimulus"":""run_exp/static/images/task_images/rocket-05.jpg"",""time"":4415.0999999940395},{""stimulus"":""run_exp/static/images/task_images/rocket-06.jpg"",""time"":5522.4000000059605},{""stimulus"":""run_exp/static/images/task_images/rocket-07.jpg"",""time"":6622.9000000059605},{""stimulus"":""run_exp/static/images/task_images/rocket-08.jpg"",""time"":7726.9000000059605},{""stimulus"":""run_exp/static/images/task_images/rocket-09.jpg"",""time"":8830.90000000596}]",[],2,,,,,,,,,,,,,,
alien_welcome,88,458336,0.0-29.0-1.0,"""event"",""trial"",""time""
""blur"",""1"",""31232""
""focus"",""1"",""32141""
""fullscreenenter"",""1"",""34600""
","""event"",""trial"",""time""
""blur"",""1"",""31232""
","""event"",""trial"",""time""
""focus"",""1"",""32141""
","""event"",""trial"",""time""
""fullscreenenter"",""1"",""34600""
","
",,null,run_exp/static/images/task_images/aliens/old_aliens/planet/alien_planet-67.jpg,null,,,,,,,,,,,,,67,"29,65,67,43,58,74,2,36,62,73,45,49,40,75,18,72,15,66,9,27,46,33,44,34,7,38,56,39,50,16,24,77,31,28,25,19,57",,,,,,,,,,
land,89,458844,0.0-29.0-2.0,"""event"",""trial"",""time""
""blur"",""1"",""31232""
""focus"",""1"",""32141""
""fullscreenenter"",""1"",""34600""
","""event"",""trial"",""time""
""blur"",""1"",""31232""
","""event"",""trial"",""time""
""focus"",""1"",""32141""
","""event"",""trial"",""time""
""fullscreenenter"",""1"",""34600""
","
",,null,run_exp/static/images/task_images/land.jpg,null,,,,,,,102,,,3,,,,,,,,,,,,,,
dig,90,460860,0.0-29.0-3.0,"""event"",""trial"",""time""
""blur"",""1"",""31232""
""focus"",""1"",""32141""
""fullscreenenter"",""1"",""34600""
","""event"",""trial"",""time""
""blur"",""1"",""31232""
","""event"",""trial"",""time""
""focus"",""1"",""32141""
","""event"",""trial"",""time""
""fullscreenenter"",""1"",""34600""
","
",,,,,,,,,,,,"[{""stimulus"":""run_exp/static/images/task_images/dig.jpg"",""time"":0.4000000059604645},{""stimulus"":""run_exp/static/images/task_images/land.jpg"",""time"":678},{""stimulus"":""run_exp/static/images/task_images/dig.jpg"",""time"":1337.4000000059605}]",[],3,,,,,,,,,,,,,,
harvest,91,461868,0.0-29.0-4.0,"""event"",""trial"",""time""
""blur"",""1"",""31232""
""focus"",""1"",""32141""
""fullscreenenter"",""1"",""34600""
","""event"",""trial"",""time""
""blur"",""1"",""31232""
","""event"",""trial"",""time""
""focus"",""1"",""32141""
","""event"",""trial"",""time""
""fullscreenenter"",""1"",""34600""
","
",,null,run_exp/static/images/task_images/gems/102.jpg,null,,,,,,,51,,,3,,,,,102,0.503569302,0.5,,,,,,,
decision,92,462130,0.0-29.0-5.0,"""event"",""trial"",""time""
""blur"",""1"",""31232""
""focus"",""1"",""32141""
""fullscreenenter"",""1"",""34600""
","""event"",""trial"",""time""
""blur"",""1"",""31232""
","""event"",""trial"",""time""
""focus"",""1"",""32141""
","""event"",""trial"",""time""
""fullscreenenter"",""1"",""34600""
","
",,260.1,run_exp/static/images/task_images/land.jpg,65,,,,,,,51,,,3,,,,,,,,57966,1,0,FALSE,,,
dig,93,464884,0.0-30.0-0.0,"""event"",""trial"",""time""
""blur"",""1"",""31232""
""focus"",""1"",""32141""
""fullscreenenter"",""1"",""34600""
","""event"",""trial"",""time""
""blur"",""1"",""31232""
","""event"",""trial"",""time""
""focus"",""1"",""32141""
","""event"",""trial"",""time""
""fullscreenenter"",""1"",""34600""
","
",,,,,,,,,,,,"[{""stimulus"":""run_exp/static/images/task_images/dig.jpg"",""time"":0.19999998807907104},{""stimulus"":""run_exp/static/images/task_images/land.jpg"",""time"":925.8000000119209},{""stimulus"":""run_exp/static/images/task_images/dig.jpg"",""time"":1834.800000011921}]",[],3,,,,,,,,,,,,,,
harvest,94,465889,0.0-30.0-1.0,"""event"",""trial"",""time""
""blur"",""1"",""31232""
""focus"",""1"",""32141""
""fullscreenenter"",""1"",""34600""
","""event"",""trial"",""time""
""blur"",""1"",""31232""
","""event"",""trial"",""time""
""focus"",""1"",""32141""
","""event"",""trial"",""time""
""fullscreenenter"",""1"",""34600""
","
",,null,run_exp/static/images/task_images/gems/51.jpg,null,,,,,,,24,,,3,,,,,51,0.475794754,0.470588235,,,,,,,
decision,95,466212,0.0-30.0-2.0,"""event"",""trial"",""time""
""blur"",""1"",""31232""
""focus"",""1"",""32141""
""fullscreenenter"",""1"",""34600""
","""event"",""trial"",""time""
""blur"",""1"",""31232""
","""event"",""trial"",""time""
""focus"",""1"",""32141""
","""event"",""trial"",""time""
""fullscreenenter"",""1"",""34600""
","
",,320.4,run_exp/static/images/task_images/land.jpg,65,,,,,,,24,,,3,,,,,,,,62048,1,1,FALSE,,,
dig,96,468896,0.0-31.0-0.0,"""event"",""trial"",""time""
""blur"",""1"",""31232""
""focus"",""1"",""32141""
""fullscreenenter"",""1"",""34600""
","""event"",""trial"",""time""
""blur"",""1"",""31232""
","""event"",""trial"",""time""
""focus"",""1"",""32141""
","""event"",""trial"",""time""
""fullscreenenter"",""1"",""34600""
","
",,,,,,,,,,,,"[{""stimulus"":""run_exp/static/images/task_images/dig.jpg"",""time"":0.19999998807907104},{""stimulus"":""run_exp/static/images/task_images/land.jpg"",""time"":897.5},{""stimulus"":""run_exp/static/images/task_images/dig.jpg"",""time"":1796.4000000059605}]",[],3,,,,,,,,,,,,,,
harvest,97,469904,0.0-31.0-1.0,"""event"",""trial"",""time""
""blur"",""1"",""31232""
""focus"",""1"",""32141""
""fullscreenenter"",""1"",""34600""
","""event"",""trial"",""time""
""blur"",""1"",""31232""
","""event"",""trial"",""time""
""focus"",""1"",""32141""
","""event"",""trial"",""time""
""fullscreenenter"",""1"",""34600""
","
",,null,run_exp/static/images/task_images/gems/24.jpg,null,,,,,,,10,,,3,,,,,24,0.412574589,0.416666667,,,,,,,
decision,98,470054,0.0-31.0-2.0,"""event"",""trial"",""time""
""blur"",""1"",""31232""
""focus"",""1"",""32141""
""fullscreenenter"",""1"",""34600""
","""event"",""trial"",""time""
""blur"",""1"",""31232""
","""event"",""trial"",""time""
""focus"",""1"",""32141""
","""event"",""trial"",""time""
""fullscreenenter"",""1"",""34600""
","
",,148.2,run_exp/static/images/task_images/land.jpg,65,,,,,,,10,,,3,,,,,,,,65890,1,2,FALSE,,,
dig,99,472916,0.0-32.0-0.0,"""event"",""trial"",""time""
""blur"",""1"",""31232""
""focus"",""1"",""32141""
""fullscreenenter"",""1"",""34600""
","""event"",""trial"",""time""
""blur"",""1"",""31232""
","""event"",""trial"",""time""
""focus"",""1"",""32141""
","""event"",""trial"",""time""
""fullscreenenter"",""1"",""34600""
","
",,,,,,,,,,,,"[{""stimulus"":""run_exp/static/images/task_images/dig.jpg"",""time"":0.5},{""stimulus"":""run_exp/static/images/task_images/land.jpg"",""time"":962.9000000059605},{""stimulus"":""run_exp/static/images/task_images/dig.jpg"",""time"":1906.800000011921}]",[],3,,,,,,,,,,,,,,
harvest,100,473920,0.0-32.0-1.0,"""event"",""trial"",""time""
""blur"",""1"",""31232""
""focus"",""1"",""32141""
""fullscreenenter"",""1"",""34600""
","""event"",""trial"",""time""
""blur"",""1"",""31232""
","""event"",""trial"",""time""
""focus"",""1"",""32141""
","""event"",""trial"",""time""
""fullscreenenter"",""1"",""34600""
","
",,null,run_exp/static/images/task_images/gems/10.jpg,null,,,,,,,5,,,3,,,,,10,0.46580481,0.5,,,,,,,
decision,101,474218,0.0-32.0-2.0,"""event"",""trial"",""time""
""blur"",""1"",""31232""
""focus"",""1"",""32141""
""fullscreenenter"",""1"",""34600""
","""event"",""trial"",""time""
""blur"",""1"",""31232""
","""event"",""trial"",""time""
""focus"",""1"",""32141""
","""event"",""trial"",""time""
""fullscreenenter"",""1"",""34600""
","
",,295.8,run_exp/static/images/task_images/land.jpg,76,,,,,,,5,,,3,,,,,,,,70054,1,3,TRUE,,,
travel,102,483932,0.0-33.0-0.0,"""event"",""trial"",""time""
""blur"",""1"",""31232""
""focus"",""1"",""32141""
""fullscreenenter"",""1"",""34600""
","""event"",""trial"",""time""
""blur"",""1"",""31232""
","""event"",""trial"",""time""
""focus"",""1"",""32141""
","""event"",""trial"",""time""
""fullscreenenter"",""1"",""34600""
","
",,,,,,,,,,,,"[{""stimulus"":""run_exp/static/images/task_images/rocket-01.jpg"",""time"":0.19999998807907104},{""stimulus"":""run_exp/static/images/task_images/rocket-02.jpg"",""time"":1083.199999988079},{""stimulus"":""run_exp/static/images/task_images/rocket-03.jpg"",""time"":2163.800000011921},{""stimulus"":""run_exp/static/images/task_images/rocket-04.jpg"",""time"":3243.699999988079},{""stimulus"":""run_exp/static/images/task_images/rocket-05.jpg"",""time"":4319.9000000059605},{""stimulus"":""run_exp/static/images/task_images/rocket-06.jpg"",""time"":5399.9000000059605},{""stimulus"":""run_exp/static/images/task_images/rocket-07.jpg"",""time"":6479.699999988079},{""stimulus"":""run_exp/static/images/task_images/rocket-08.jpg"",""time"":7559.9000000059605},{""stimulus"":""run_exp/static/images/task_images/rocket-09.jpg"",""time"":8630}]",[],3,,,,,,,,,,,,,,
alien_welcome,103,488939,0.0-33.0-1.0,"""event"",""trial"",""time""
""blur"",""1"",""31232""
""focus"",""1"",""32141""
""fullscreenenter"",""1"",""34600""
","""event"",""trial"",""time""
""blur"",""1"",""31232""
","""event"",""trial"",""time""
""focus"",""1"",""32141""
","""event"",""trial"",""time""
""fullscreenenter"",""1"",""34600""
","
",,null,run_exp/static/images/task_images/aliens/old_aliens/planet/alien_planet-43.jpg,null,,,,,,,,,,,,,43,"29,65,67,43,58,74,2,36,62,73,45,49,40,75,18,72,15,66,9,27,46,33,44,34,7,38,56,39,50,16,24,77,31,28,25,19,57",,,,,,,,,,
land,104,489448,0.0-33.0-2.0,"""event"",""trial"",""time""
""blur"",""1"",""31232""
""focus"",""1"",""32141""
""fullscreenenter"",""1"",""34600""
","""event"",""trial"",""time""
""blur"",""1"",""31232""
","""event"",""trial"",""time""
""focus"",""1"",""32141""
","""event"",""trial"",""time""
""fullscreenenter"",""1"",""34600""
","
",,null,run_exp/static/images/task_images/land.jpg,null,,,,,,,97,,,4,,,,,,,,,,,,,,
dig,105,491455,0.0-33.0-3.0,"""event"",""trial"",""time""
""blur"",""1"",""31232""
""focus"",""1"",""32141""
""fullscreenenter"",""1"",""34600""
","""event"",""trial"",""time""
""blur"",""1"",""31232""
","""event"",""trial"",""time""
""focus"",""1"",""32141""
","""event"",""trial"",""time""
""fullscreenenter"",""1"",""34600""
","
",,,,,,,,,,,,"[{""stimulus"":""run_exp/static/images/task_images/dig.jpg"",""time"":0.5},{""stimulus"":""run_exp/static/images/task_images/land.jpg"",""time"":669.2000000178814},{""stimulus"":""run_exp/static/images/task_images/dig.jpg"",""time"":1341.800000011921}]",[],4,,,,,,,,,,,,,,
harvest,106,492466,0.0-33.0-4.0,"""event"",""trial"",""time""
""blur"",""1"",""31232""
""focus"",""1"",""32141""
""fullscreenenter"",""1"",""34600""
","""event"",""trial"",""time""
""blur"",""1"",""31232""
","""event"",""trial"",""time""
""focus"",""1"",""32141""
","""event"",""trial"",""time""
""fullscreenenter"",""1"",""34600""
","
",,null,run_exp/static/images/task_images/gems/97.jpg,null,,,,,,,54,,,4,,,,,97,0.556693282,0.556701031,,,,,,,
decision,107,492780,0.0-33.0-5.0,"""event"",""trial"",""time""
""blur"",""1"",""31232""
""focus"",""1"",""32141""
""fullscreenenter"",""1"",""34600""
","""event"",""trial"",""time""
""blur"",""1"",""31232""
","""event"",""trial"",""time""
""focus"",""1"",""32141""
","""event"",""trial"",""time""
""fullscreenenter"",""1"",""34600""
","
",,311.8,run_exp/static/images/task_images/land.jpg,65,,,,,,,54,,,4,,,,,,,,88616,1,0,FALSE,,,
dig,108,495479,0.0-34.0-0.0,"""event"",""trial"",""time""
""blur"",""1"",""31232""
""focus"",""1"",""32141""
""fullscreenenter"",""1"",""34600""
","""event"",""trial"",""time""
""blur"",""1"",""31232""
","""event"",""trial"",""time""
""focus"",""1"",""32141""
","""event"",""trial"",""time""
""fullscreenenter"",""1"",""34600""
","
",,,,,,,,,,,,"[{""stimulus"":""run_exp/static/images/task_images/dig.jpg"",""time"":0.09999999403953552},{""stimulus"":""run_exp/static/images/task_images/land.jpg"",""time"":907.2999999821186},{""stimulus"":""run_exp/static/images/task_images/dig.jpg"",""time"":1804.0999999940395}]",[],4,,,,,,,,,,,,,,
harvest,109,496492,0.0-34.0-1.0,"""event"",""trial"",""time""
""blur"",""1"",""31232""
""focus"",""1"",""32141""
""fullscreenenter"",""1"",""34600""
","""event"",""trial"",""time""
""blur"",""1"",""31232""
","""event"",""trial"",""time""
""focus"",""1"",""32141""
","""event"",""trial"",""time""
""fullscreenenter"",""1"",""34600""
","
",,null,run_exp/static/images/task_images/gems/54.jpg,null,,,,,,,24,,,4,,,,,54,0.446484289,0.444444444,,,,,,,
decision,110,496780,0.0-34.0-2.0,"""event"",""trial"",""time""
""blur"",""1"",""31232""
""focus"",""1"",""32141""
""fullscreenenter"",""1"",""34600""
","""event"",""trial"",""time""
""blur"",""1"",""31232""
","""event"",""trial"",""time""
""focus"",""1"",""32141""
","""event"",""trial"",""time""
""fullscreenenter"",""1"",""34600""
","
",,286.2,run_exp/static/images/task_images/land.jpg,65,,,,,,,24,,,4,,,,,,,,92616,1,1,FALSE,,,
dig,111,499507,0.0-35.0-0.0,"""event"",""trial"",""time""
""blur"",""1"",""31232""
""focus"",""1"",""32141""
""fullscreenenter"",""1"",""34600""
","""event"",""trial"",""time""
""blur"",""1"",""31232""
","""event"",""trial"",""time""
""focus"",""1"",""32141""
","""event"",""trial"",""time""
""fullscreenenter"",""1"",""34600""
","
",,,,,,,,,,,,"[{""stimulus"":""run_exp/static/images/task_images/dig.jpg"",""time"":0},{""stimulus"":""run_exp/static/images/task_images/land.jpg"",""time"":912.2000000178814},{""stimulus"":""run_exp/static/images/task_images/dig.jpg"",""time"":1820.2000000178814}]",[],4,,,,,,,,,,,,,,
harvest,112,500516,0.0-35.0-1.0,"""event"",""trial"",""time""
""blur"",""1"",""31232""
""focus"",""1"",""32141""
""fullscreenenter"",""1"",""34600""
","""event"",""trial"",""time""
""blur"",""1"",""31232""
","""event"",""trial"",""time""
""focus"",""1"",""32141""
","""event"",""trial"",""time""
""fullscreenenter"",""1"",""34600""
","
",,null,run_exp/static/images/task_images/gems/24.jpg,null,,,,,,,12,,,4,,,,,24,0.487072063,0.5,,,,,,,
decision,113,500664,0.0-35.0-2.0,"""event"",""trial"",""time""
""blur"",""1"",""31232""
""focus"",""1"",""32141""
""fullscreenenter"",""1"",""34600""
","""event"",""trial"",""time""
""blur"",""1"",""31232""
","""event"",""trial"",""time""
""focus"",""1"",""32141""
","""event"",""trial"",""time""
""fullscreenenter"",""1"",""34600""
","
",,146.8,run_exp/static/images/task_images/land.jpg,65,,,,,,,12,,,4,,,,,,,,96500,1,2,FALSE,,,
dig,114,503527,0.0-36.0-0.0,"""event"",""trial"",""time""
""blur"",""1"",""31232""
""focus"",""1"",""32141""
""fullscreenenter"",""1"",""34600""
","""event"",""trial"",""time""
""blur"",""1"",""31232""
","""event"",""trial"",""time""
""focus"",""1"",""32141""
","""event"",""trial"",""time""
""fullscreenenter"",""1"",""34600""
","
",,,,,,,,,,,,"[{""stimulus"":""run_exp/static/images/task_images/dig.jpg"",""time"":0.20000001788139343},{""stimulus"":""run_exp/static/images/task_images/land.jpg"",""time"":955.7000000178814},{""stimulus"":""run_exp/static/images/task_images/dig.jpg"",""time"":1911.800000011921}]",[],4,,,,,,,,,,,,,,
harvest,115,504536,0.0-36.0-1.0,"""event"",""trial"",""time""
""blur"",""1"",""31232""
""focus"",""1"",""32141""
""fullscreenenter"",""1"",""34600""
","""event"",""trial"",""time""
""blur"",""1"",""31232""
","""event"",""trial"",""time""
""focus"",""1"",""32141""
","""event"",""trial"",""time""
""fullscreenenter"",""1"",""34600""
","
",,null,run_exp/static/images/task_images/gems/12.jpg,null,,,,,,,6,,,4,,,,,12,0.49799407,0.5,,,,,,,
decision,116,504828,0.0-36.0-2.0,"""event"",""trial"",""time""
""blur"",""1"",""31232""
""focus"",""1"",""32141""
""fullscreenenter"",""1"",""34600""
","""event"",""trial"",""time""
""blur"",""1"",""31232""
","""event"",""trial"",""time""
""focus"",""1"",""32141""
","""event"",""trial"",""time""
""fullscreenenter"",""1"",""34600""
","
",,290.2,run_exp/static/images/task_images/land.jpg,65,,,,,,,6,,,4,,,,,,,,100664,1,3,FALSE,,,
dig,117,507547,0.0-37.0-0.0,"""event"",""trial"",""time""
""blur"",""1"",""31232""
""focus"",""1"",""32141""
""fullscreenenter"",""1"",""34600""
","""event"",""trial"",""time""
""blur"",""1"",""31232""
","""event"",""trial"",""time""
""focus"",""1"",""32141""
","""event"",""trial"",""time""
""fullscreenenter"",""1"",""34600""
","
",,,,,,,,,,,,"[{""stimulus"":""run_exp/static/images/task_images/dig.jpg"",""time"":0.09999999403953552},{""stimulus"":""run_exp/static/images/task_images/land.jpg"",""time"":913.7999999821186},{""stimulus"":""run_exp/static/images/task_images/dig.jpg"",""time"":1812.5}]",[],4,,,,,,,,,,,,,,
harvest,118,508553,0.0-37.0-1.0,"""event"",""trial"",""time""
""blur"",""1"",""31232""
""focus"",""1"",""32141""
""fullscreenenter"",""1"",""34600""
","""event"",""trial"",""time""
""blur"",""1"",""31232""
","""event"",""trial"",""time""
""focus"",""1"",""32141""
","""event"",""trial"",""time""
""fullscreenenter"",""1"",""34600""
","
",,null,run_exp/static/images/task_images/gems/6.jpg,null,,,,,,,3,,,4,,,,,6,0.475419459,0.5,,,,,,,
decision,119,509148,0.0-37.0-2.0,"""event"",""trial"",""time""
""blur"",""1"",""31232""
""focus"",""1"",""32141""
""fullscreenenter"",""1"",""34600""
","""event"",""trial"",""time""
""blur"",""1"",""31232""
","""event"",""trial"",""time""
""focus"",""1"",""32141""
","""event"",""trial"",""time""
""fullscreenenter"",""1"",""34600""
","
",,593.3,run_exp/static/images/task_images/land.jpg,76,,,,,,,3,,,4,,,,,,,,104984,1,4,TRUE,,,
travel,120,518563,0.0-38.0-0.0,"""event"",""trial"",""time""
""blur"",""1"",""31232""
""focus"",""1"",""32141""
""fullscreenenter"",""1"",""34600""
","""event"",""trial"",""time""
""blur"",""1"",""31232""
","""event"",""trial"",""time""
""focus"",""1"",""32141""
","""event"",""trial"",""time""
""fullscreenenter"",""1"",""34600""
","
",,,,,,,,,,,,"[{""stimulus"":""run_exp/static/images/task_images/rocket-01.jpg"",""time"":0.19999998807907104},{""stimulus"":""run_exp/static/images/task_images/rocket-02.jpg"",""time"":1047.2999999821186},{""stimulus"":""run_exp/static/images/task_images/rocket-03.jpg"",""time"":2097.4000000059605},{""stimulus"":""run_exp/static/images/task_images/rocket-04.jpg"",""time"":3139.5},{""stimulus"":""run_exp/static/images/task_images/rocket-05.jpg"",""time"":4187.4000000059605},{""stimulus"":""run_exp/static/images/task_images/rocket-06.jpg"",""time"":5235.4000000059605},{""stimulus"":""run_exp/static/images/task_images/rocket-07.jpg"",""time"":6283.199999988079},{""stimulus"":""run_exp/static/images/task_images/rocket-08.jpg"",""time"":7323.699999988079},{""stimulus"":""run_exp/static/images/task_images/rocket-09.jpg"",""time"":8371.5}]",[],4,,,,,,,,,,,,,,
alien_welcome,121,523576,0.0-38.0-1.0,"""event"",""trial"",""time""
""blur"",""1"",""31232""
""focus"",""1"",""32141""
""fullscreenenter"",""1"",""34600""
","""event"",""trial"",""time""
""blur"",""1"",""31232""
","""event"",""trial"",""time""
""focus"",""1"",""32141""
","""event"",""trial"",""time""
""fullscreenenter"",""1"",""34600""
","
",,null,run_exp/static/images/task_images/aliens/old_aliens/planet/alien_planet-58.jpg,null,,,,,,,,,,,,,58,"29,65,67,43,58,74,2,36,62,73,45,49,40,75,18,72,15,66,9,27,46,33,44,34,7,38,56,39,50,16,24,77,31,28,25,19,57",,,,,,,,,,
land,122,524090,0.0-38.0-2.0,"""event"",""trial"",""time""
""blur"",""1"",""31232""
""focus"",""1"",""32141""
""fullscreenenter"",""1"",""34600""
","""event"",""trial"",""time""
""blur"",""1"",""31232""
","""event"",""trial"",""time""
""focus"",""1"",""32141""
","""event"",""trial"",""time""
""fullscreenenter"",""1"",""34600""
","
",,null,run_exp/static/images/task_images/land.jpg,null,,,,,,,95,,,5,,,,,,,,,,,,,,
dig,123,526107,0.0-38.0-3.0,"""event"",""trial"",""time""
""blur"",""1"",""31232""
""focus"",""1"",""32141""
""fullscreenenter"",""1"",""34600""
","""event"",""trial"",""time""
""blur"",""1"",""31232""
","""event"",""trial"",""time""
""focus"",""1"",""32141""
","""event"",""trial"",""time""
""fullscreenenter"",""1"",""34600""
","
",,,,,,,,,,,,"[{""stimulus"":""run_exp/static/images/task_images/dig.jpg"",""time"":0.4000000059604645},{""stimulus"":""run_exp/static/images/task_images/land.jpg"",""time"":674.9000000059605},{""stimulus"":""run_exp/static/images/task_images/dig.jpg"",""time"":1338.4000000059605}]",[],5,,,,,,,,,,,,,,
harvest,124,527115,0.0-38.0-4.0,"""event"",""trial"",""time""
""blur"",""1"",""31232""
""focus"",""1"",""32141""
""fullscreenenter"",""1"",""34600""
","""event"",""trial"",""time""
""blur"",""1"",""31232""
","""event"",""trial"",""time""
""focus"",""1"",""32141""
","""event"",""trial"",""time""
""fullscreenenter"",""1"",""34600""
","
",,null,run_exp/static/images/task_images/gems/95.jpg,null,,,,,,,44,,,5,,,,,95,0.458063082,0.463157895,,,,,,,
decision,125,527446,0.0-38.0-5.0,"""event"",""trial"",""time""
""blur"",""1"",""31232""
""focus"",""1"",""32141""
""fullscreenenter"",""1"",""34600""
","""event"",""trial"",""time""
""blur"",""1"",""31232""
","""event"",""trial"",""time""
""focus"",""1"",""32141""
","""event"",""trial"",""time""
""fullscreenenter"",""1"",""34600""
","
",,329.6,run_exp/static/images/task_images/land.jpg,65,,,,,,,44,,,5,,,,,,,,123282,1,0,FALSE,,,
dig,126,530127,0.0-39.0-0.0,"""event"",""trial"",""time""
""blur"",""1"",""31232""
""focus"",""1"",""32141""
""fullscreenenter"",""1"",""34600""
","""event"",""trial"",""time""
""blur"",""1"",""31232""
","""event"",""trial"",""time""
""focus"",""1"",""32141""
","""event"",""trial"",""time""
""fullscreenenter"",""1"",""34600""
","
",,,,,,,,,,,,"[{""stimulus"":""run_exp/static/images/task_images/dig.jpg"",""time"":0.19999998807907104},{""stimulus"":""run_exp/static/images/task_images/land.jpg"",""time"":893},{""stimulus"":""run_exp/static/images/task_images/dig.jpg"",""time"":1792.3999999761581}]",[],5,,,,,,,,,,,,,,
harvest,127,531137,0.0-39.0-1.0,"""event"",""trial"",""time""
""blur"",""1"",""31232""
""focus"",""1"",""32141""
""fullscreenenter"",""1"",""34600""
","""event"",""trial"",""time""
""blur"",""1"",""31232""
","""event"",""trial"",""time""
""focus"",""1"",""32141""
","""event"",""trial"",""time""
""fullscreenenter"",""1"",""34600""
","
",,null,run_exp/static/images/task_images/gems/44.jpg,null,,,,,,,23,,,5,,,,,44,0.516960798,0.522727273,,,,,,,
decision,128,531356,0.0-39.0-2.0,"""event"",""trial"",""time""
""blur"",""1"",""31232""
""focus"",""1"",""32141""
""fullscreenenter"",""1"",""34600""
","""event"",""trial"",""time""
""blur"",""1"",""31232""
","""event"",""trial"",""time""
""focus"",""1"",""32141""
","""event"",""trial"",""time""
""fullscreenenter"",""1"",""34600""
","
",,217.7,run_exp/static/images/task_images/land.jpg,65,,,,,,,23,,,5,,,,,,,,127192,1,1,FALSE,,,
dig,129,534147,0.0-40.0-0.0,"""event"",""trial"",""time""
""blur"",""1"",""31232""
""focus"",""1"",""32141""
""fullscreenenter"",""1"",""34600""
","""event"",""trial"",""time""
""blur"",""1"",""31232""
","""event"",""trial"",""time""
""focus"",""1"",""32141""
","""event"",""trial"",""time""
""fullscreenenter"",""1"",""34600""
","
",,,,,,,,,,,,"[{""stimulus"":""run_exp/static/images/task_images/dig.jpg"",""time"":0.09999999403953552},{""stimulus"":""run_exp/static/images/task_images/land.jpg"",""time"":939.1999999880791},{""stimulus"":""run_exp/static/images/task_images/dig.jpg"",""time"":1864.7999999821186}]",[],5,,,,,,,,,,,,,,
harvest,130,535152,0.0-40.0-1.0,"""event"",""trial"",""time""
""blur"",""1"",""31232""
""focus"",""1"",""32141""
""fullscreenenter"",""1"",""34600""
","""event"",""trial"",""time""
""blur"",""1"",""31232""
","""event"",""trial"",""time""
""focus"",""1"",""32141""
","""event"",""trial"",""time""
""fullscreenenter"",""1"",""34600""
","
",,null,run_exp/static/images/task_images/gems/23.jpg,null,,,,,,,11,,,5,,,,,23,0.458175701,0.47826087,,,,,,,
decision,131,535602,0.0-40.0-2.0,"""event"",""trial"",""time""
""blur"",""1"",""31232""
""focus"",""1"",""32141""
""fullscreenenter"",""1"",""34600""
","""event"",""trial"",""time""
""blur"",""1"",""31232""
","""event"",""trial"",""time""
""focus"",""1"",""32141""
","""event"",""trial"",""time""
""fullscreenenter"",""1"",""34600""
","
",,448,run_exp/static/images/task_images/land.jpg,65,,,,,,,11,,,5,,,,,,,,131438,1,2,FALSE,,,
dig,132,538163,0.0-41.0-0.0,"""event"",""trial"",""time""
""blur"",""1"",""31232""
""focus"",""1"",""32141""
""fullscreenenter"",""1"",""34600""
","""event"",""trial"",""time""
""blur"",""1"",""31232""
","""event"",""trial"",""time""
""focus"",""1"",""32141""
","""event"",""trial"",""time""
""fullscreenenter"",""1"",""34600""
","
",,,,,,,,,,,,"[{""stimulus"":""run_exp/static/images/task_images/dig.jpg"",""time"":0.4000000059604645},{""stimulus"":""run_exp/static/images/task_images/land.jpg"",""time"":856.0999999940395},{""stimulus"":""run_exp/static/images/task_images/dig.jpg"",""time"":1706.4000000059605}]",[],5,,,,,,,,,,,,,,
harvest,133,539169,0.0-41.0-1.0,"""event"",""trial"",""time""
""blur"",""1"",""31232""
""focus"",""1"",""32141""
""fullscreenenter"",""1"",""34600""
","""event"",""trial"",""time""
""blur"",""1"",""31232""
","""event"",""trial"",""time""
""focus"",""1"",""32141""
","""event"",""trial"",""time""
""fullscreenenter"",""1"",""34600""
","
",,null,run_exp/static/images/task_images/gems/11.jpg,null,,,,,,,4,,,5,,,,,11,0.400316132,0.363636364,,,,,,,
decision,134,539446,0.0-41.0-2.0,"""event"",""trial"",""time""
""blur"",""1"",""31232""
""focus"",""1"",""32141""
""fullscreenenter"",""1"",""34600""
","""event"",""trial"",""time""
""blur"",""1"",""31232""
","""event"",""trial"",""time""
""focus"",""1"",""32141""
","""event"",""trial"",""time""
""fullscreenenter"",""1"",""34600""
","
",,275.3,run_exp/static/images/task_images/land.jpg,76,,,,,,,4,,,5,,,,,,,,135283,1,3,TRUE,,,
travel,135,549174,0.0-42.0-0.0,"""event"",""trial"",""time""
""blur"",""1"",""31232""
""focus"",""1"",""32141""
""fullscreenenter"",""1"",""34600""
","""event"",""trial"",""time""
""blur"",""1"",""31232""
","""event"",""trial"",""time""
""focus"",""1"",""32141""
","""event"",""trial"",""time""
""fullscreenenter"",""1"",""34600""
","
",,,,,,,,,,,,"[{""stimulus"":""run_exp/static/images/task_images/rocket-01.jpg"",""time"":0.09999999403953552},{""stimulus"":""run_exp/static/images/task_images/rocket-02.jpg"",""time"":1087},{""stimulus"":""run_exp/static/images/task_images/rocket-03.jpg"",""time"":2164.800000011921},{""stimulus"":""run_exp/static/images/task_images/rocket-04.jpg"",""time"":3243.9000000059605},{""stimulus"":""run_exp/static/images/task_images/rocket-05.jpg"",""time"":4324.800000011921},{""stimulus"":""run_exp/static/images/task_images/rocket-06.jpg"",""time"":5403.9000000059605},{""stimulus"":""run_exp/static/images/task_images/rocket-07.jpg"",""time"":6484.5999999940395},{""stimulus"":""run_exp/static/images/task_images/rocket-08.jpg"",""time"":7564.800000011921},{""stimulus"":""run_exp/static/images/task_images/rocket-09.jpg"",""time"":8644.800000011921}]",[],5,,,,,,,,,,,,,,
alien_welcome,136,554182,0.0-42.0-1.0,"""event"",""trial"",""time""
""blur"",""1"",""31232""
""focus"",""1"",""32141""
""fullscreenenter"",""1"",""34600""
","""event"",""trial"",""time""
""blur"",""1"",""31232""
","""event"",""trial"",""time""
""focus"",""1"",""32141""
","""event"",""trial"",""time""
""fullscreenenter"",""1"",""34600""
","
",,null,run_exp/static/images/task_images/aliens/old_aliens/planet/alien_planet-74.jpg,null,,,,,,,,,,,,,74,"29,65,67,43,58,74,2,36,62,73,45,49,40,75,18,72,15,66,9,27,46,33,44,34,7,38,56,39,50,16,24,77,31,28,25,19,57",,,,,,,,,,
land,137,554690,0.0-42.0-2.0,"""event"",""trial"",""time""
""blur"",""1"",""31232""
""focus"",""1"",""32141""
""fullscreenenter"",""1"",""34600""
","""event"",""trial"",""time""
""blur"",""1"",""31232""
","""event"",""trial"",""time""
""focus"",""1"",""32141""
","""event"",""trial"",""time""
""fullscreenenter"",""1"",""34600""
","
",,null,run_exp/static/images/task_images/land.jpg,null,,,,,,,100,,,6,,,,,,,,,,,,,,
dig,138,556706,0.0-42.0-3.0,"""event"",""trial"",""time""
""blur"",""1"",""31232""
""focus"",""1"",""32141""
""fullscreenenter"",""1"",""34600""
","""event"",""trial"",""time""
""blur"",""1"",""31232""
","""event"",""trial"",""time""
""focus"",""1"",""32141""
","""event"",""trial"",""time""
""fullscreenenter"",""1"",""34600""
","
",,,,,,,,,,,,"[{""stimulus"":""run_exp/static/images/task_images/dig.jpg"",""time"":0.5},{""stimulus"":""run_exp/static/images/task_images/land.jpg"",""time"":673.8000000119209},{""stimulus"":""run_exp/static/images/task_images/dig.jpg"",""time"":1337.4000000059605}]",[],6,,,,,,,,,,,,,,
harvest,139,557710,0.0-42.0-4.0,"""event"",""trial"",""time""
""blur"",""1"",""31232""
""focus"",""1"",""32141""
""fullscreenenter"",""1"",""34600""
","""event"",""trial"",""time""
""blur"",""1"",""31232""
","""event"",""trial"",""time""
""focus"",""1"",""32141""
","""event"",""trial"",""time""
""fullscreenenter"",""1"",""34600""
","
",,null,run_exp/static/images/task_images/gems/100.jpg,null,,,,,,,82,,,6,,,,,100,0.821223567,0.82,,,,,,,
decision,140,557893,0.0-42.0-5.0,"""event"",""trial"",""time""
""blur"",""1"",""31232""
""focus"",""1"",""32141""
""fullscreenenter"",""1"",""34600""
","""event"",""trial"",""time""
""blur"",""1"",""31232""
","""event"",""trial"",""time""
""focus"",""1"",""32141""
","""event"",""trial"",""time""
""fullscreenenter"",""1"",""34600""
","
",,181.8,run_exp/static/images/task_images/land.jpg,65,,,,,,,82,,,6,,,,,,,,153729,1,0,FALSE,,,
dig,141,560722,0.0-43.0-0.0,"""event"",""trial"",""time""
""blur"",""1"",""31232""
""focus"",""1"",""32141""
""fullscreenenter"",""1"",""34600""
","""event"",""trial"",""time""
""blur"",""1"",""31232""
","""event"",""trial"",""time""
""focus"",""1"",""32141""
","""event"",""trial"",""time""
""fullscreenenter"",""1"",""34600""
","
",,,,,,,,,,,,"[{""stimulus"":""run_exp/static/images/task_images/dig.jpg"",""time"":0.20000001788139343},{""stimulus"":""run_exp/static/images/task_images/land.jpg"",""time"":947.5},{""stimulus"":""run_exp/static/images/task_images/dig.jpg"",""time"":1891.300000011921}]",[],6,,,,,,,,,,,,,,
harvest,142,561729,0.0-43.0-1.0,"""event"",""trial"",""time""
""blur"",""1"",""31232""
""focus"",""1"",""32141""
""fullscreenenter"",""1"",""34600""
","""event"",""trial"",""time""
""blur"",""1"",""31232""
","""event"",""trial"",""time""
""focus"",""1"",""32141""
","""event"",""trial"",""time""
""fullscreenenter"",""1"",""34600""
","
",,null,run_exp/static/images/task_images/gems/82.jpg,null,,,,,,,62,,,6,,,,,82,0.758689318,0.756097561,,,,,,,
decision,143,561931,0.0-43.0-2.0,"""event"",""trial"",""time""
""blur"",""1"",""31232""
""focus"",""1"",""32141""
""fullscreenenter"",""1"",""34600""
","""event"",""trial"",""time""
""blur"",""1"",""31232""
","""event"",""trial"",""time""
""focus"",""1"",""32141""
","""event"",""trial"",""time""
""fullscreenenter"",""1"",""34600""
","
",,200.4,run_exp/static/images/task_images/land.jpg,65,,,,,,,62,,,6,,,,,,,,157767,1,1,FALSE,,,
dig,144,564746,0.0-44.0-0.0,"""event"",""trial"",""time""
""blur"",""1"",""31232""
""focus"",""1"",""32141""
""fullscreenenter"",""1"",""34600""
","""event"",""trial"",""time""
""blur"",""1"",""31232""
","""event"",""trial"",""time""
""focus"",""1"",""32141""
","""event"",""trial"",""time""
""fullscreenenter"",""1"",""34600""
","
",,,,,,,,,,,,"[{""stimulus"":""run_exp/static/images/task_images/dig.jpg"",""time"":0.09999999403953552},{""stimulus"":""run_exp/static/images/task_images/land.jpg"",""time"":939.0999999940395},{""stimulus"":""run_exp/static/images/task_images/dig.jpg"",""time"":1875.0999999940395}]",[],6,,,,,,,,,,,,,,
harvest,145,565749,0.0-44.0-1.0,"""event"",""trial"",""time""
""blur"",""1"",""31232""
""focus"",""1"",""32141""
""fullscreenenter"",""1"",""34600""
","""event"",""trial"",""time""
""blur"",""1"",""31232""
","""event"",""trial"",""time""
""focus"",""1"",""32141""
","""event"",""trial"",""time""
""fullscreenenter"",""1"",""34600""
","
",,null,run_exp/static/images/task_images/gems/62.jpg,null,,,,,,,52,,,6,,,,,62,0.841874076,0.838709677,,,,,,,
decision,146,565938,0.0-44.0-2.0,"""event"",""trial"",""time""
""blur"",""1"",""31232""
""focus"",""1"",""32141""
""fullscreenenter"",""1"",""34600""
","""event"",""trial"",""time""
""blur"",""1"",""31232""
","""event"",""trial"",""time""
""focus"",""1"",""32141""
","""event"",""trial"",""time""
""fullscreenenter"",""1"",""34600""
","
",,186.8,run_exp/static/images/task_images/land.jpg,65,,,,,,,52,,,6,,,,,,,,161774,1,2,FALSE,,,
dig,147,568762,0.0-45.0-0.0,"""event"",""trial"",""time""
""blur"",""1"",""31232""
""focus"",""1"",""32141""
""fullscreenenter"",""1"",""34600""
","""event"",""trial"",""time""
""blur"",""1"",""31232""
","""event"",""trial"",""time""
""focus"",""1"",""32141""
","""event"",""trial"",""time""
""fullscreenenter"",""1"",""34600""
","
",,,,,,,,,,,,"[{""stimulus"":""run_exp/static/images/task_images/dig.jpg"",""time"":0.09999999403953552},{""stimulus"":""run_exp/static/images/task_images/land.jpg"",""time"":945.9000000059605},{""stimulus"":""run_exp/static/images/task_images/dig.jpg"",""time"":1881.800000011921}]",[],6,,,,,,,,,,,,,,
harvest,148,569766,0.0-45.0-1.0,"""event"",""trial"",""time""
""blur"",""1"",""31232""
""focus"",""1"",""32141""
""fullscreenenter"",""1"",""34600""
","""event"",""trial"",""time""
""blur"",""1"",""31232""
","""event"",""trial"",""time""
""focus"",""1"",""32141""
","""event"",""trial"",""time""
""fullscreenenter"",""1"",""34600""
","
",,null,run_exp/static/images/task_images/gems/52.jpg,null,,,,,,,39,,,6,,,,,52,0.756134541,0.75,,,,,,,
decision,149,569982,0.0-45.0-2.0,"""event"",""trial"",""time""
""blur"",""1"",""31232""
""focus"",""1"",""32141""
""fullscreenenter"",""1"",""34600""
","""event"",""trial"",""time""
""blur"",""1"",""31232""
","""event"",""trial"",""time""
""focus"",""1"",""32141""
","""event"",""trial"",""time""
""fullscreenenter"",""1"",""34600""
","
",,213.7,run_exp/static/images/task_images/land.jpg,65,,,,,,,39,,,6,,,,,,,,165818,1,3,FALSE,,,
dig,150,572775,0.0-46.0-0.0,"""event"",""trial"",""time""
""blur"",""1"",""31232""
""focus"",""1"",""32141""
""fullscreenenter"",""1"",""34600""
","""event"",""trial"",""time""
""blur"",""1"",""31232""
","""event"",""trial"",""time""
""focus"",""1"",""32141""
","""event"",""trial"",""time""
""fullscreenenter"",""1"",""34600""
","
",,,,,,,,,,,,"[{""stimulus"":""run_exp/static/images/task_images/dig.jpg"",""time"":0.20000001788139343},{""stimulus"":""run_exp/static/images/task_images/land.jpg"",""time"":935.1000000238419},{""stimulus"":""run_exp/static/images/task_images/dig.jpg"",""time"":1865.1000000238419}]",[],6,,,,,,,,,,,,,,
harvest,151,573782,0.0-46.0-1.0,"""event"",""trial"",""time""
""blur"",""1"",""31232""
""focus"",""1"",""32141""
""fullscreenenter"",""1"",""34600""
","""event"",""trial"",""time""
""blur"",""1"",""31232""
","""event"",""trial"",""time""
""focus"",""1"",""32141""
","""event"",""trial"",""time""
""fullscreenenter"",""1"",""34600""
","
",,null,run_exp/static/images/task_images/gems/39.jpg,null,,,,,,,35,,,6,,,,,39,0.897117036,0.897435897,,,,,,,
decision,152,573828,0.0-46.0-2.0,"""event"",""trial"",""time""
""blur"",""1"",""31232""
""focus"",""1"",""32141""
""fullscreenenter"",""1"",""34600""
","""event"",""trial"",""time""
""blur"",""1"",""31232""
","""event"",""trial"",""time""
""focus"",""1"",""32141""
","""event"",""trial"",""time""
""fullscreenenter"",""1"",""34600""
","
",,43.40000001,run_exp/static/images/task_images/land.jpg,65,,,,,,,35,,,6,,,,,,,,169664,1,4,FALSE,,,
dig,153,576790,0.0-47.0-0.0,"""event"",""trial"",""time""
""blur"",""1"",""31232""
""focus"",""1"",""32141""
""fullscreenenter"",""1"",""34600""
","""event"",""trial"",""time""
""blur"",""1"",""31232""
","""event"",""trial"",""time""
""focus"",""1"",""32141""
","""event"",""trial"",""time""
""fullscreenenter"",""1"",""34600""
","
",,,,,,,,,,,,"[{""stimulus"":""run_exp/static/images/task_images/dig.jpg"",""time"":0.29999998211860657},{""stimulus"":""run_exp/static/images/task_images/land.jpg"",""time"":994.5999999940395},{""stimulus"":""run_exp/static/images/task_images/dig.jpg"",""time"":1978.4000000059605}]",[],6,,,,,,,,,,,,,,
harvest,154,577802,0.0-47.0-1.0,"""event"",""trial"",""time""
""blur"",""1"",""31232""
""focus"",""1"",""32141""
""fullscreenenter"",""1"",""34600""
","""event"",""trial"",""time""
""blur"",""1"",""31232""
","""event"",""trial"",""time""
""focus"",""1"",""32141""
","""event"",""trial"",""time""
""fullscreenenter"",""1"",""34600""
","
",,null,run_exp/static/images/task_images/gems/35.jpg,null,,,,,,,25,,,6,,,,,35,0.720786795,0.714285714,,,,,,,
decision,155,577835,0.0-47.0-2.0,"""event"",""trial"",""time""
""blur"",""1"",""31232""
""focus"",""1"",""32141""
""fullscreenenter"",""1"",""34600""
","""event"",""trial"",""time""
""blur"",""1"",""31232""
","""event"",""trial"",""time""
""focus"",""1"",""32141""
","""event"",""trial"",""time""
""fullscreenenter"",""1"",""34600""
","
",,31.09999999,run_exp/static/images/task_images/land.jpg,65,,,,,,,25,,,6,,,,,,,,173671,1,5,FALSE,,,
dig,156,580818,0.0-48.0-0.0,"""event"",""trial"",""time""
""blur"",""1"",""31232""
""focus"",""1"",""32141""
""fullscreenenter"",""1"",""34600""
","""event"",""trial"",""time""
""blur"",""1"",""31232""
","""event"",""trial"",""time""
""focus"",""1"",""32141""
","""event"",""trial"",""time""
""fullscreenenter"",""1"",""34600""
","
",,,,,,,,,,,,"[{""stimulus"":""run_exp/static/images/task_images/dig.jpg"",""time"":0.20000001788139343},{""stimulus"":""run_exp/static/images/task_images/land.jpg"",""time"":991.2000000178814},{""stimulus"":""run_exp/static/images/task_images/dig.jpg"",""time"":1987.800000011921}]",[],6,,,,,,,,,,,,,,
harvest,157,581824,0.0-48.0-1.0,"""event"",""trial"",""time""
""blur"",""1"",""31232""
""focus"",""1"",""32141""
""fullscreenenter"",""1"",""34600""
","""event"",""trial"",""time""
""blur"",""1"",""31232""
","""event"",""trial"",""time""
""focus"",""1"",""32141""
","""event"",""trial"",""time""
""fullscreenenter"",""1"",""34600""
","
",,null,run_exp/static/images/task_images/gems/25.jpg,null,,,,,,,21,,,6,,,,,25,0.844804311,0.84,,,,,,,
decision,158,582060,0.0-48.0-2.0,"""event"",""trial"",""time""
""blur"",""1"",""31232""
""focus"",""1"",""32141""
""fullscreenenter"",""1"",""34600""
","""event"",""trial"",""time""
""blur"",""1"",""31232""
","""event"",""trial"",""time""
""focus"",""1"",""32141""
","""event"",""trial"",""time""
""fullscreenenter"",""1"",""34600""
","
",,233.1,run_exp/static/images/task_images/land.jpg,65,,,,,,,21,,,6,,,,,,,,177896,1,6,FALSE,,,
dig,159,584842,0.0-49.0-0.0,"""event"",""trial"",""time""
""blur"",""1"",""31232""
""focus"",""1"",""32141""
""fullscreenenter"",""1"",""34600""
","""event"",""trial"",""time""
""blur"",""1"",""31232""
","""event"",""trial"",""time""
""focus"",""1"",""32141""
","""event"",""trial"",""time""
""fullscreenenter"",""1"",""34600""
","
",,,,,,,,,,,,"[{""stimulus"":""run_exp/static/images/task_images/dig.jpg"",""time"":0.4000000059604645},{""stimulus"":""run_exp/static/images/task_images/land.jpg"",""time"":931.4000000059605},{""stimulus"":""run_exp/static/images/task_images/dig.jpg"",""time"":1851.4000000059605}]",[],6,,,,,,,,,,,,,,
harvest,160,585850,0.0-49.0-1.0,"""event"",""trial"",""time""
""blur"",""1"",""31232""
""focus"",""1"",""32141""
""fullscreenenter"",""1"",""34600""
","""event"",""trial"",""time""
""blur"",""1"",""31232""
","""event"",""trial"",""time""
""focus"",""1"",""32141""
","""event"",""trial"",""time""
""fullscreenenter"",""1"",""34600""
","
",,null,run_exp/static/images/task_images/gems/21.jpg,null,,,,,,,18,,,6,,,,,21,0.863836179,0.857142857,,,,,,,
decision,161,586293,0.0-49.0-2.0,"""event"",""trial"",""time""
""blur"",""1"",""31232""
""focus"",""1"",""32141""
""fullscreenenter"",""1"",""34600""
","""event"",""trial"",""time""
""blur"",""1"",""31232""
","""event"",""trial"",""time""
""focus"",""1"",""32141""
","""event"",""trial"",""time""
""fullscreenenter"",""1"",""34600""
","
",,440.7,run_exp/static/images/task_images/land.jpg,65,,,,,,,18,,,6,,,,,,,,182129,1,7,FALSE,,,
dig,162,588866,0.0-50.0-0.0,"""event"",""trial"",""time""
""blur"",""1"",""31232""
""focus"",""1"",""32141""
""fullscreenenter"",""1"",""34600""
","""event"",""trial"",""time""
""blur"",""1"",""31232""
","""event"",""trial"",""time""
""focus"",""1"",""32141""
","""event"",""trial"",""time""
""fullscreenenter"",""1"",""34600""
","
",,,,,,,,,,,,"[{""stimulus"":""run_exp/static/images/task_images/dig.jpg"",""time"":0.4000000059604645},{""stimulus"":""run_exp/static/images/task_images/land.jpg"",""time"":865.1000000238419},{""stimulus"":""run_exp/static/images/task_images/dig.jpg"",""time"":1713.300000011921}]",[],6,,,,,,,,,,,,,,
harvest,163,589874,0.0-50.0-1.0,"""event"",""trial"",""time""
""blur"",""1"",""31232""
""focus"",""1"",""32141""
""fullscreenenter"",""1"",""34600""
","""event"",""trial"",""time""
""blur"",""1"",""31232""
","""event"",""trial"",""time""
""focus"",""1"",""32141""
","""event"",""trial"",""time""
""fullscreenenter"",""1"",""34600""
","
",,null,run_exp/static/images/task_images/gems/18.jpg,null,,,,,,,16,,,6,,,,,18,0.865476007,0.888888889,,,,,,,
decision,164,590143,0.0-50.0-2.0,"""event"",""trial"",""time""
""blur"",""1"",""31232""
""focus"",""1"",""32141""
""fullscreenenter"",""1"",""34600""
","""event"",""trial"",""time""
""blur"",""1"",""31232""
","""event"",""trial"",""time""
""focus"",""1"",""32141""
","""event"",""trial"",""time""
""fullscreenenter"",""1"",""34600""
","
",,266.4,run_exp/static/images/task_images/land.jpg,65,,,,,,,16,,,6,,,,,,,,185979,1,8,FALSE,,,
dig,165,592889,0.0-51.0-0.0,"""event"",""trial"",""time""
""blur"",""1"",""31232""
""focus"",""1"",""32141""
""fullscreenenter"",""1"",""34600""
","""event"",""trial"",""time""
""blur"",""1"",""31232""
","""event"",""trial"",""time""
""focus"",""1"",""32141""
","""event"",""trial"",""time""
""fullscreenenter"",""1"",""34600""
","
",,,,,,,,,,,,"[{""stimulus"":""run_exp/static/images/task_images/dig.jpg"",""time"":0.19999998807907104},{""stimulus"":""run_exp/static/images/task_images/land.jpg"",""time"":915.5999999940395},{""stimulus"":""run_exp/static/images/task_images/dig.jpg"",""time"":1831.699999988079}]",[],6,,,,,,,,,,,,,,
harvest,166,593897,0.0-51.0-1.0,"""event"",""trial"",""time""
""blur"",""1"",""31232""
""focus"",""1"",""32141""
""fullscreenenter"",""1"",""34600""
","""event"",""trial"",""time""
""blur"",""1"",""31232""
","""event"",""trial"",""time""
""focus"",""1"",""32141""
","""event"",""trial"",""time""
""fullscreenenter"",""1"",""34600""
","
",,null,run_exp/static/images/task_images/gems/16.jpg,null,,,,,,,13,,,6,,,,,16,0.813464828,0.8125,,,,,,,
decision,167,594244,0.0-51.0-2.0,"""event"",""trial"",""time""
""blur"",""1"",""31232""
""focus"",""1"",""32141""
""fullscreenenter"",""1"",""34600""
","""event"",""trial"",""time""
""blur"",""1"",""31232""
","""event"",""trial"",""time""
""focus"",""1"",""32141""
","""event"",""trial"",""time""
""fullscreenenter"",""1"",""34600""
","
",,344,run_exp/static/images/task_images/land.jpg,76,,,,,,,13,,,6,,,,,,,,190080,1,9,TRUE,,,
travel,168,603905,0.0-52.0-0.0,"""event"",""trial"",""time""
""blur"",""1"",""31232""
""focus"",""1"",""32141""
""fullscreenenter"",""1"",""34600""
","""event"",""trial"",""time""
""blur"",""1"",""31232""
","""event"",""trial"",""time""
""focus"",""1"",""32141""
","""event"",""trial"",""time""
""fullscreenenter"",""1"",""34600""
","
",,,,,,,,,,,,"[{""stimulus"":""run_exp/static/images/task_images/rocket-01.jpg"",""time"":0.10000002384185791},{""stimulus"":""run_exp/static/images/task_images/rocket-02.jpg"",""time"":1078.6000000238419},{""stimulus"":""run_exp/static/images/task_images/rocket-03.jpg"",""time"":2154.600000023842},{""stimulus"":""run_exp/static/images/task_images/rocket-04.jpg"",""time"":3226.100000023842},{""stimulus"":""run_exp/static/images/task_images/rocket-05.jpg"",""time"":4295.9000000059605},{""stimulus"":""run_exp/static/images/task_images/rocket-06.jpg"",""time"":5370.600000023842},{""stimulus"":""run_exp/static/images/task_images/rocket-07.jpg"",""time"":6438.9000000059605},{""stimulus"":""run_exp/static/images/task_images/rocket-08.jpg"",""time"":7514.700000017881},{""stimulus"":""run_exp/static/images/task_images/rocket-09.jpg"",""time"":8586.700000017881}]",[],6,,,,,,,,,,,,,,
alien_welcome,169,608918,0.0-52.0-1.0,"""event"",""trial"",""time""
""blur"",""1"",""31232""
""focus"",""1"",""32141""
""fullscreenenter"",""1"",""34600""
","""event"",""trial"",""time""
""blur"",""1"",""31232""
","""event"",""trial"",""time""
""focus"",""1"",""32141""
","""event"",""trial"",""time""
""fullscreenenter"",""1"",""34600""
","
",,null,run_exp/static/images/task_images/aliens/old_aliens/planet/alien_planet-2.jpg,null,,,,,,,,,,,,,2,"29,65,67,43,58,74,2,36,62,73,45,49,40,75,18,72,15,66,9,27,46,33,44,34,7,38,56,39,50,16,24,77,31,28,25,19,57",,,,,,,,,,
land,170,609423,0.0-52.0-2.0,"""event"",""trial"",""time""
""blur"",""1"",""31232""
""focus"",""1"",""32141""
""fullscreenenter"",""1"",""34600""
","""event"",""trial"",""time""
""blur"",""1"",""31232""
","""event"",""trial"",""time""
""focus"",""1"",""32141""
","""event"",""trial"",""time""
""fullscreenenter"",""1"",""34600""
","
",,null,run_exp/static/images/task_images/land.jpg,null,,,,,,,95,,,7,,,,,,,,,,,,,,
dig,171,611433,0.0-52.0-3.0,"""event"",""trial"",""time""
""blur"",""1"",""31232""
""focus"",""1"",""32141""
