trial_type,trial_index,time_elapsed,internal_node_id,interactions,blur_events,focus_events,fullscreenenter_events,fullscreenexit_events,success,rt,stimulus,key_press,prompt,subject_id,participant_id,age,gender,button_pressed,next_reward,animation_sequence,responses,planet,curr_prac_trial,n_prac_rounds,alien,aliens,reward_received,decay_rate_actual,decay_rate_exp,time_in_block,block_num,prt,last_trial_on_planet,button_html,bonus,num_failures
pavlovia,0,3,0.0-0.0,"""event"",""trial"",""time""
""fullscreenenter"",""1"",""9335""
","
","
","""event"",""trial"",""time""
""fullscreenenter"",""1"",""9335""
","
",,,,,,,,,,,,,,,,,,,,,,,,,,,,
fullscreen,1,10323,0.0-1.0,"""event"",""trial"",""time""
""fullscreenenter"",""1"",""9335""
","
","
","""event"",""trial"",""time""
""fullscreenenter"",""1"",""9335""
","
",TRUE,,,,,,,,,,,,,,,,,,,,,,,,,,,
instruc_welcome,2,20112,0.0-2.0,"""event"",""trial"",""time""
""fullscreenenter"",""1"",""9335""
","
","
","""event"",""trial"",""time""
""fullscreenenter"",""1"",""9335""
","
",,null,run_exp/static/audio/clip_1_welcome.m4a,null,"<p>Howdy! In this experiment, you’ll be an explorer traveling through space to collect space treasure.</p><p>Your mission is to collect as much treasure as possible.</p><br><br><p><img src='run_exp/static/images/task_images/opening_img-01.jpg' height='300' width='auto'></p>",12538,4322,22.27,Female,,,,,,,,,,,,,,,,,,,
audio-keyboard-response,3,36687,0.0-3.0,"""event"",""trial"",""time""
""fullscreenenter"",""1"",""9335""
","
","
","""event"",""trial"",""time""
""fullscreenenter"",""1"",""9335""
","
",,null,run_exp/static/audio/clip_2_move.m4a,null,,,,,,,,,,,,,,,,,,,,,,,,
welcome_dec,4,49077,0.0-4.0,"""event"",""trial"",""time""
""fullscreenenter"",""1"",""9335""
","
","
","""event"",""trial"",""time""
""fullscreenenter"",""1"",""9335""
","
",,12384.4,"<p>Howdy! In this experiment, you’ll be an explorer traveling through space to collect space treasure.</p><p>Your mission is to collect as much treasure as possible.</p><br><br><p><img src='run_exp/static/images/task_images/opening_img-01.jpg' height='300' width='auto'></p>",,,,,,,0,,,,,,,,,,,,,,,,,,
html-keyboard-response,5,55246,0.0-5.0,"""event"",""trial"",""time""
""fullscreenenter"",""1"",""9335""
","
","
","""event"",""trial"",""time""
""fullscreenenter"",""1"",""9335""
","
",,6167,"<p>Howdy! In this experiment, you’ll be an explorer traveling through space to collect space treasure.</p><p>Your mission is to collect as much treasure as possible.</p><br><br><p><img src='run_exp/static/images/task_images/opening_img-01.jpg' height='300' width='auto'></p><button class=""jspsych-html-btn-chosen""><img src=""run_exp/static/images/task_images/planet-01.jpg"" height=""50""></button><button class=""jspsych-html-btn-unchosen""><img src=""run_exp/static/images/task_images/planet-02.jpg"" height=""50""></button><p><b>[press the space bar to lock in your answer]<b><br></p>",32,,,,,,,,,,,,,,,,,,,,,,,,
instruc_welcome,6,65000,0.0-6.0-0.0,"""event"",""trial"",""time""
""fullscreenenter"",""1"",""9335""
","
","
","""event"",""trial"",""time""
""fullscreenenter"",""1"",""9335""
","
",,null,run_exp/static/audio/clip_1_welcome.m4a,null,"<p>Howdy! In this experiment, you’ll be an explorer traveling through space to collect space treasure.</p><p>Your mission is to collect as much treasure as possible.</p><br><br><p><img src='run_exp/static/images/task_images/opening_img-01.jpg' height='300' width='auto'></p>",12538,4322,22.27,Female,,,,,,,,,,,,,,,,,,,
audio-keyboard-response,7,81577,0.0-6.0-1.0,"""event"",""trial"",""time""
""fullscreenenter"",""1"",""9335""
","
","
","""event"",""trial"",""time""
""fullscreenenter"",""1"",""9335""
","
",,null,run_exp/static/audio/clip_2_move.m4a,null,,,,,,,,,,,,,,,,,,,,,,,,
welcome_dec,8,82299,0.0-6.0-2.0,"""event"",""trial"",""time""
""fullscreenenter"",""1"",""9335""
","
","
","""event"",""trial"",""time""
""fullscreenenter"",""1"",""9335""
","
",,717,"<p>Howdy! In this experiment, you’ll be an explorer traveling through space to collect space treasure.</p><p>Your mission is to collect as much treasure as possible.</p><br><br><p><img src='run_exp/static/images/task_images/opening_img-01.jpg' height='300' width='auto'></p>",,,,,,,1,,,,,,,,,,,,,,,,,,
html-keyboard-response,9,82920,0.0-6.0-3.0,"""event"",""trial"",""time""
""fullscreenenter"",""1"",""9335""
","
","
","""event"",""trial"",""time""
""fullscreenenter"",""1"",""9335""
","
",,618.6,"<p>Howdy! In this experiment, you’ll be an explorer traveling through space to collect space treasure.</p><p>Your mission is to collect as much treasure as possible.</p><br><br><p><img src='run_exp/static/images/task_images/opening_img-01.jpg' height='300' width='auto'></p><button class=""jspsych-html-btn-unchosen""><img src=""run_exp/static/images/task_images/planet-01.jpg"" height=""50""></button><button class=""jspsych-html-btn-chosen""><img src=""run_exp/static/images/task_images/planet-02.jpg"" height=""50""></button><p><b>[press the space bar to lock in your answer]<b><br></p>",32,,,,,,,,,,,,,,,,,,,,,,,,
instruc_goal,10,92969,0.0-7.0-0.0,"""event"",""trial"",""time""
""fullscreenenter"",""1"",""9335""
","
","
","""event"",""trial"",""time""
""fullscreenenter"",""1"",""9335""
","
",,null,run_exp/static/audio/clip_3_goal.m4a,null,"<p> As a space explorer, you’ll visit different planets to dig for space treasure, these pink gems.</p> <p> The more treasure you dig up, the more bonus money you’ll win! </p><br><br><p><img src='run_exp/static/images/task_images/pink_gem.jpg' height='300' width='auto'></p>",,,,,,,,,,,,,,,,,,,,,,,
instruc_goal,11,111923,0.0-7.0-1.0,"""event"",""trial"",""time""
""fullscreenenter"",""1"",""9335""
","
","
","""event"",""trial"",""time""
""fullscreenenter"",""1"",""9335""
","
",,18950.2,"<p> As a space explorer, you’ll visit different planets to dig for space treasure, these pink gems.</p> <p> The more treasure you dig up, the more bonus money you’ll win! </p><br><br><p><img src='run_exp/static/images/task_images/pink_gem.jpg' height='300' width='auto'></p>",,,,,,,1,,,,,,,,,,,,,,,,,,
html-keyboard-response,12,118702,0.0-7.0-2.0,"""event"",""trial"",""time""
""fullscreenenter"",""1"",""9335""
","
","
","""event"",""trial"",""time""
""fullscreenenter"",""1"",""9335""
","
",,6776.3,"<p> As a space explorer, you’ll visit different planets to dig for space treasure, these pink gems.</p> <p> The more treasure you dig up, the more bonus money you’ll win! </p><br><br><p><img src='run_exp/static/images/task_images/pink_gem.jpg' height='300' width='auto'></p><button class=""jspsych-html-btn-unchosen""><img src=""run_exp/static/images/task_images/planet-01.jpg"" height=""50""></button><button class=""jspsych-html-btn-chosen""><img src=""run_exp/static/images/task_images/planet-02.jpg"" height=""50""></button><p><b>[press the space bar to lock in your answer]<b><br></p>",32,,,,,,,,,,,,,,,,,,,,,,,,
instruc_dig,13,134726,0.0-8.0-0.0,"""event"",""trial"",""time""
""fullscreenenter"",""1"",""9335""
","
","
","""event"",""trial"",""time""
""fullscreenenter"",""1"",""9335""
","
",,null,run_exp/static/audio/clip_4_dig.m4a,null,,,,,,,100,,,,,,,,,,,,,,,,,
instruc_dig_try,14,145302,0.0-8.0-1.0,"""event"",""trial"",""time""
""fullscreenenter"",""1"",""9335""
","
","
","""event"",""trial"",""time""
""fullscreenenter"",""1"",""9335""
","
",,10572.1,"<p> When you’ve arrived at a new planet, you will dig once. </p> <p>Then, you get to decide if you want to stay on the planet and dig again or travel to a new planet and dig there.</p> <p> To stay and dig, press the letter <strong>‘A’</strong> on your keyboard. Try pressing it now! </p><p><img src='run_exp/static/images/task_images/land.jpg'  height='700' width='auto'></p>",65,"<p> When you’ve arrived at a new planet, you will dig once. </p> <p>Then, you get to decide if you want to stay on the planet and dig again or travel to a new planet and dig there.</p> <p> To stay and dig, press the letter <strong>‘A’</strong> on your keyboard. Try pressing it now! </p><p><img src='run_exp/static/images/task_images/land.jpg'  height='700' width='auto'></p>",,,,,,100,,,,,,,,,,,,,,,,,
dig_prac,15,147315,0.0-8.0-2.0,"""event"",""trial"",""time""
""fullscreenenter"",""1"",""9335""
","
","
","""event"",""trial"",""time""
""fullscreenenter"",""1"",""9335""
","
",,,,,,,,,,,,"[{""stimulus"":""run_exp/static/images/task_images/dig.jpg"",""time"":0.5},{""stimulus"":""run_exp/static/images/task_images/land.jpg"",""time"":672.6999999997206},{""stimulus"":""run_exp/static/images/task_images/dig.jpg"",""time"":1336.5}]",[],,,,,,,,,,,,,,,
instruc_travel,16,183522,0.0-8.0-3.0,"""event"",""trial"",""time""
""fullscreenenter"",""1"",""9335""
","
","
","""event"",""trial"",""time""
""fullscreenenter"",""1"",""9335""
","
",,null,run_exp/static/audio/clip_5_travel.m4a,null,"<p>Every time you dig up gems, there are less gems on the planet, so the more you dig on a planet the fewer gems you’ll get with each dig.</p><p>When gems are running low, you may want to travel to a new planet. </p> <p>  Planets are very far apart in this galaxy, so it will take some time to travel between them. </p> <br><p>There are lots and lots of planets for you to visit, so you won’t be able to return to any planets you’ve seen before. </p><br><p>To leave this planet and travel to a new one, press the letter <strong>‘L’</strong> on your keyboard. Try pressing it now! </p><p><img src='run_exp/static/images/task_images/rocket-01.jpg'  height='600' width='auto'></p>",,,,,,,,,,,,,,,,,,,,,,,
instruc_travel_try,17,184922,0.0-8.0-4.0,"""event"",""trial"",""time""
""fullscreenenter"",""1"",""9335""
","
","
","""event"",""trial"",""time""
""fullscreenenter"",""1"",""9335""
","
",,1397,"<p>Every time you dig up gems, there are less gems on the planet, so the more you dig on a planet the fewer gems you’ll get with each dig.</p><p>When gems are running low, you may want to travel to a new planet. </p> <p>  Planets are very far apart in this galaxy, so it will take some time to travel between them. </p> <br><p>There are lots and lots of planets for you to visit, so you won’t be able to return to any planets you’ve seen before. </p><br><p>To leave this planet and travel to a new one, press the letter <strong>‘L’</strong> on your keyboard. Try pressing it now! </p><p><img src='run_exp/static/images/task_images/rocket-01.jpg'  height='600' width='auto'></p>",76,"<p>Every time you dig up gems, there are less gems on the planet, so the more you dig on a planet the fewer gems you’ll get with each dig.</p><p>When gems are running low, you may want to travel to a new planet. </p> <p>  Planets are very far apart in this galaxy, so it will take some time to travel between them. </p> <br><p>There are lots and lots of planets for you to visit, so you won’t be able to return to any planets you’ve seen before. </p><br><p>To leave this planet and travel to a new one, press the letter <strong>‘L’</strong> on your keyboard. Try pressing it now! </p><p><img src='run_exp/static/images/task_images/rocket-01.jpg'  height='600' width='auto'></p>",,,,,,,,,,,,,,,,,,,,,,,
travel_prac,18,194929,0.0-8.0-5.0,"""event"",""trial"",""time""
""fullscreenenter"",""1"",""9335""
","
","
","""event"",""trial"",""time""
""fullscreenenter"",""1"",""9335""
","
",,,,,,,,,,,,"[{""stimulus"":""run_exp/static/images/task_images/rocket-01.jpg"",""time"":0.39999999990686774},{""stimulus"":""run_exp/static/images/task_images/rocket-02.jpg"",""time"":1118.3999999999069},{""stimulus"":""run_exp/static/images/task_images/rocket-03.jpg"",""time"":2228.0999999996275},{""stimulus"":""run_exp/static/images/task_images/rocket-04.jpg"",""time"":3337.2999999998137},{""stimulus"":""run_exp/static/images/task_images/rocket-05.jpg"",""time"":4446.899999999907},{""stimulus"":""run_exp/static/images/task_images/rocket-06.jpg"",""time"":5561.699999999721},{""stimulus"":""run_exp/static/images/task_images/rocket-07.jpg"",""time"":6672.5},{""stimulus"":""run_exp/static/images/task_images/rocket-08.jpg"",""time"":7784.0999999996275},{""stimulus"":""run_exp/static/images/task_images/rocket-09.jpg"",""time"":8894.799999999814}]",[],0,,,,,,,,,,,,,,
instruc_alien_greet,19,222115,0.0-8.0-6.0,"""event"",""trial"",""time""
""fullscreenenter"",""1"",""9335""
","
","
","""event"",""trial"",""time""
""fullscreenenter"",""1"",""9335""
","
",,null,run_exp/static/audio/clip_6_alien.m4a,null,"<p>When you arrive at a new planet, the alien who owns the treasure mine on that planet will greet you!</p><p>The better an alien takes care of their mine the easier it is to dig for gems. Some aliens take better care of their mine than others. So, you won’t get exactly the same amount of gems on each planet.</p><p>What the alien looks like does not tell you anything about how many gems there are on the planet.</p><br><p><img src=""run_exp/static/images/task_images/aliens/instructions_aliens/planet/alien_planet-1.jpg""  height=""600"" width=""auto""></p>",,,,,,,,,,,,,,,,,,,,,,,
instruc_alien_greet,20,224360,0.0-8.0-7.0,"""event"",""trial"",""time""
""fullscreenenter"",""1"",""9335""
","
","
","""event"",""trial"",""time""
""fullscreenenter"",""1"",""9335""
","
",,2243,"<p>When you arrive at a new planet, the alien who owns the treasure mine on that planet will greet you!</p><p>The better an alien takes care of their mine the easier it is to dig for gems. Some aliens take better care of their mine than others. So, you won’t get exactly the same amount of gems on each planet.</p><p>What the alien looks like does not tell you anything about how many gems there are on the planet.</p><br><p><img src=""run_exp/static/images/task_images/aliens/instructions_aliens/planet/alien_planet-1.jpg""  height=""600"" width=""auto""></p>",,,,,,,1,,,,,,,,,,,,,,,,,,
html-keyboard-response,21,224889,0.0-8.0-8.0,"""event"",""trial"",""time""
""fullscreenenter"",""1"",""9335""
","
","
","""event"",""trial"",""time""
""fullscreenenter"",""1"",""9335""
","
",,527.7,"<p>When you arrive at a new planet, the alien who owns the treasure mine on that planet will greet you!</p><p>The better an alien takes care of their mine the easier it is to dig for gems. Some aliens take better care of their mine than others. So, you won’t get exactly the same amount of gems on each planet.</p><p>What the alien looks like does not tell you anything about how many gems there are on the planet.</p><br><p><img src=""run_exp/static/images/task_images/aliens/instructions_aliens/planet/alien_planet-1.jpg""  height=""600"" width=""auto""></p><button class=""jspsych-html-btn-unchosen""><img src=""run_exp/static/images/task_images/planet-01.jpg"" height=""50""></button><button class=""jspsych-html-btn-chosen""><img src=""run_exp/static/images/task_images/planet-02.jpg"" height=""50""></button><p><b>[press the space bar to lock in your answer]<b><br></p>",32,,,,,,,,,,,,,,,,,,,,,,,,
time_out,22,235960,0.0-9.0-0.0,"""event"",""trial"",""time""
""fullscreenenter"",""1"",""9335""
","
","
","""event"",""trial"",""time""
""fullscreenenter"",""1"",""9335""
","
",,null,run_exp/static/audio/clip_7_timeout.m4a,null,"<p>If you don't make your choice fast enough, you’ll have to wait a few seconds before you can make another one.</p><p>You can’t dig for more gems or travel to new planets. You just have to sit and wait.</p><br><p><img src='run_exp/static/images/task_images/time_out.jpg'  height='600' width='auto'></p>",,,,,,,,,,,,,,,,,,,,,,,
time_out,23,239165,0.0-9.0-1.0,"""event"",""trial"",""time""
""fullscreenenter"",""1"",""9335""
","
","
","""event"",""trial"",""time""
""fullscreenenter"",""1"",""9335""
","
",,3202.8,"<p>If you don't make your choice fast enough, you’ll have to wait a few seconds before you can make another one.</p><p>You can’t dig for more gems or travel to new planets. You just have to sit and wait.</p><br><p><img src='run_exp/static/images/task_images/time_out.jpg'  height='600' width='auto'></p>",,,,,,,1,,,,,,,,,,,,,,,,,,
html-keyboard-response,24,239532,0.0-9.0-2.0,"""event"",""trial"",""time""
""fullscreenenter"",""1"",""9335""
","
","
","""event"",""trial"",""time""
""fullscreenenter"",""1"",""9335""
","
",,364.6,"<p>If you don't make your choice fast enough, you’ll have to wait a few seconds before you can make another one.</p><p>You can’t dig for more gems or travel to new planets. You just have to sit and wait.</p><br><p><img src='run_exp/static/images/task_images/time_out.jpg'  height='600' width='auto'></p><button class=""jspsych-html-btn-unchosen""><img src=""run_exp/static/images/task_images/planet-01.jpg"" height=""50""></button><button class=""jspsych-html-btn-chosen""><img src=""run_exp/static/images/task_images/planet-02.jpg"" height=""50""></button><p><b>[press the space bar to lock in your answer]<b><br></p>",32,,,,,,,,,,,,,,,,,,,,,,,,
instruc_break,25,255202,0.0-10.0-0.0,"""event"",""trial"",""time""
""fullscreenenter"",""1"",""9335""
","
","
","""event"",""trial"",""time""
""fullscreenenter"",""1"",""9335""
","
",,null,run_exp/static/audio/clip_8_break.m4a,null,"<p> After digging and traveling for a while, you’ll be able to take a break at home base. </p><p>The game will last 20 minutes no matter what.</p><p>You will visit home base every 5 minutes, so, you will visit home base three times during the game.</p><br><p><img src='run_exp/static/images/task_images/home_base.jpg' height='600' width='auto'></p>",,,,,,,,,,,,,,,,,,,,,,,
instruc_break,26,256779,0.0-10.0-1.0,"""event"",""trial"",""time""
""fullscreenenter"",""1"",""9335""
","
","
","""event"",""trial"",""time""
""fullscreenenter"",""1"",""9335""
","
",,1573.7,"<p> After digging and traveling for a while, you’ll be able to take a break at home base. </p><p>The game will last 20 minutes no matter what.</p><p>You will visit home base every 5 minutes, so, you will visit home base three times during the game.</p><br><p><img src='run_exp/static/images/task_images/home_base.jpg' height='600' width='auto'></p>",,,,,,,1,,,,,,,,,,,,,,,,,,
html-keyboard-response,27,257417,0.0-10.0-2.0,"""event"",""trial"",""time""
""fullscreenenter"",""1"",""9335""
","
","
","""event"",""trial"",""time""
""fullscreenenter"",""1"",""9335""
","
",,635.5,"<p> After digging and traveling for a while, you’ll be able to take a break at home base. </p><p>The game will last 20 minutes no matter what.</p><p>You will visit home base every 5 minutes, so, you will visit home base three times during the game.</p><br><p><img src='run_exp/static/images/task_images/home_base.jpg' height='600' width='auto'></p><button class=""jspsych-html-btn-unchosen""><img src=""run_exp/static/images/task_images/planet-01.jpg"" height=""50""></button><button class=""jspsych-html-btn-chosen""><img src=""run_exp/static/images/task_images/planet-02.jpg"" height=""50""></button><p><b>[press the space bar to lock in your answer]<b><br></p>",32,,,,,,,,,,,,,,,,,,,,,,,,
instruc_prac_game,28,267533,0.0-11.0-0.0,"""event"",""trial"",""time""
""fullscreenenter"",""1"",""9335""
","
","
","""event"",""trial"",""time""
""fullscreenenter"",""1"",""9335""
","
",,null,run_exp/static/audio/clip_9_practice.m4a,null,"<p> Are you ready to play a practice game? </p> <p>In this practice game, you'll be digging up barrels of gems. But, in the real game, you'll be digging up the gems themselves. </p>",,,,,,,,,,,,,,,,,,,,,,,
html-button-response,29,269865,0.0-11.0-1.0,"""event"",""trial"",""time""
""fullscreenenter"",""1"",""9335""
","
","
","""event"",""trial"",""time""
""fullscreenenter"",""1"",""9335""
","
",,2329.7,"<p> Are you ready to play a practice game? </p> <p>In this practice game, you'll be digging up barrels of gems. But, in the real game, you'll be digging up the gems themselves. </p>",,,,,,,0,,,,,,,,,,,,,,,,,,
alien_welcome_prac,30,274875,0.0-12.0-0.0,"""event"",""trial"",""time""
""fullscreenenter"",""1"",""9335""
","
","
","""event"",""trial"",""time""
""fullscreenenter"",""1"",""9335""
","
",,null,run_exp/static/images/task_images/aliens/practice_aliens/planet/alien_planet-5.jpg,null,,,,,,,,,,,,,,,,,,,,,,,,
land_prac,31,275381,0.0-12.0-1.0,"""event"",""trial"",""time""
""fullscreenenter"",""1"",""9335""
","
","
","""event"",""trial"",""time""
""fullscreenenter"",""1"",""9335""
","
",,null,run_exp/static/images/task_images/land.jpg,null,,,,,,,100,,,0,,,,,,,,,,,,,,
dig_prac,32,277389,0.0-12.0-2.0,"""event"",""trial"",""time""
""fullscreenenter"",""1"",""9335""
","
","
","""event"",""trial"",""time""
""fullscreenenter"",""1"",""9335""
","
",,,,,,,,,,,,"[{""stimulus"":""run_exp/static/images/task_images/dig.jpg"",""time"":0.5},{""stimulus"":""run_exp/static/images/task_images/land.jpg"",""time"":669.2000000001863},{""stimulus"":""run_exp/static/images/task_images/dig.jpg"",""time"":1341.9000000003725}]",[],,,,,,,,,,,,,,,
harvest_prac,33,278396,0.0-12.0-3.0,"""event"",""trial"",""time""
""fullscreenenter"",""1"",""9335""
","
","
","""event"",""trial"",""time""
""fullscreenenter"",""1"",""9335""
","
",,null,run_exp/static/images/task_images/barrel_text.jpg,null,,,,,,,,,,,,,,,,,,,,,,,,
decision_prac,34,281402,0.0-12.0-4.0,"""event"",""trial"",""time""
""fullscreenenter"",""1"",""9335""
","
","
","""event"",""trial"",""time""
""fullscreenenter"",""1"",""9335""
","
",,null,run_exp/static/images/task_images/land.jpg,null,,,,,,,,,,,1,,,,,,,,,,,,,
time_out,35,283412,0.0-13.0-0.0,"""event"",""trial"",""time""
""fullscreenenter"",""1"",""9335""
","
","
","""event"",""trial"",""time""
""fullscreenenter"",""1"",""9335""
","
",,null,run_exp/static/images/task_images/time_out.jpg,null,,,,,,,,,,,,,,,,,,,,,,,,
decision_prac,36,283588,0.0-13.0-1.0,"""event"",""trial"",""time""
""fullscreenenter"",""1"",""9335""
","
","
","""event"",""trial"",""time""
""fullscreenenter"",""1"",""9335""
","
",,173.3,run_exp/static/images/task_images/land.jpg,65,,,,,,,,,,,2,,,,,,,,,,,,,
dig_prac,37,285599,0.0-14.0-0.0,"""event"",""trial"",""time""
""fullscreenenter"",""1"",""9335""
","
","
","""event"",""trial"",""time""
""fullscreenenter"",""1"",""9335""
","
",,,,,,,,,,,,"[{""stimulus"":""run_exp/static/images/task_images/dig.jpg"",""time"":0.10000000009313226},{""stimulus"":""run_exp/static/images/task_images/land.jpg"",""time"":669.3999999999069},{""stimulus"":""run_exp/static/images/task_images/dig.jpg"",""time"":1338.1000000000931}]",[],,,,,,,,,,,,,,,
harvest_prac,38,286606,0.0-14.0-1.0,"""event"",""trial"",""time""
""fullscreenenter"",""1"",""9335""
","
","
","""event"",""trial"",""time""
""fullscreenenter"",""1"",""9335""
","
",,null,run_exp/static/images/task_images/barrel_text.jpg,null,,,,,,,,,,,,,,,,,,,,,,,,
decision_prac,39,287886,0.0-14.0-2.0,"""event"",""trial"",""time""
""fullscreenenter"",""1"",""9335""
","
","
","""event"",""trial"",""time""
""fullscreenenter"",""1"",""9335""
","
",,1277.4,run_exp/static/images/task_images/land.jpg,65,,,,,,,,,,,3,,,,,,,,,,,,,
dig_prac,40,289890,0.0-15.0-0.0,"""event"",""trial"",""time""
""fullscreenenter"",""1"",""9335""
","
","
","""event"",""trial"",""time""
""fullscreenenter"",""1"",""9335""
","
",,,,,,,,,,,,"[{""stimulus"":""run_exp/static/images/task_images/dig.jpg"",""time"":0},{""stimulus"":""run_exp/static/images/task_images/land.jpg"",""time"":670.5},{""stimulus"":""run_exp/static/images/task_images/dig.jpg"",""time"":1336.7999999998137}]",[],,,,,,,,,,,,,,,
harvest_prac,41,290893,0.0-15.0-1.0,"""event"",""trial"",""time""
""fullscreenenter"",""1"",""9335""
","
","
","""event"",""trial"",""time""
""fullscreenenter"",""1"",""9335""
","
",,null,run_exp/static/images/task_images/barrel_text.jpg,null,,,,,,,,,,,,,,,,,,,,,,,,
decision_prac,42,291608,0.0-15.0-2.0,"""event"",""trial"",""time""
""fullscreenenter"",""1"",""9335""
","
","
","""event"",""trial"",""time""
""fullscreenenter"",""1"",""9335""
","
",,713.3,run_exp/static/images/task_images/land.jpg,65,,,,,,,,,,,4,,,,,,,,,,,,,
dig_prac,43,293615,0.0-16.0-0.0,"""event"",""trial"",""time""
""fullscreenenter"",""1"",""9335""
","
","
","""event"",""trial"",""time""
""fullscreenenter"",""1"",""9335""
","
",,,,,,,,,,,,"[{""stimulus"":""run_exp/static/images/task_images/dig.jpg"",""time"":0.10000000009313226},{""stimulus"":""run_exp/static/images/task_images/land.jpg"",""time"":669.7999999998137},{""stimulus"":""run_exp/static/images/task_images/dig.jpg"",""time"":1336.6999999997206}]",[],,,,,,,,,,,,,,,
harvest_prac,44,294623,0.0-16.0-1.0,"""event"",""trial"",""time""
""fullscreenenter"",""1"",""9335""
","
","
","""event"",""trial"",""time""
""fullscreenenter"",""1"",""9335""
","
",,null,run_exp/static/images/task_images/barrel_text.jpg,null,,,,,,,,,,,,,,,,,,,,,,,,
decision_prac,45,295099,0.0-16.0-2.0,"""event"",""trial"",""time""
""fullscreenenter"",""1"",""9335""
","
","
","""event"",""trial"",""time""
""fullscreenenter"",""1"",""9335""
","
",,474.1,run_exp/static/images/task_images/land.jpg,76,,,,,,,,,,,,1,,,,,,,,,,,,
quiz_instruc,46,305944,0.0-17.0-0.0,"""event"",""trial"",""time""
""fullscreenenter"",""1"",""9335""
","
","
","""event"",""trial"",""time""
""fullscreenenter"",""1"",""9335""
","
",,10841,run_exp/static/audio/clip_10_quiz.m4a,,,,,,,0,,,,,,,,,,,,,,,,,,
instruc_repeat,47,348686,0.0-17.0-1.0,"""event"",""trial"",""time""
""fullscreenenter"",""1"",""9335""
","
","
","""event"",""trial"",""time""
""fullscreenenter"",""1"",""9335""
","
",,null,"<p> Are you ready to play a practice game? </p> <p>In this practice game, you'll be digging up barrels of gems. But, in the real game, you'll be digging up the gems themselves. </p>",null,"<p>In this game, your goal is to collect as many gems as you can. That’s how you will win bonus money. </p> <p>The entire game will last 20 minutes no matter how many gems you collect or how many planets you visit. </p><p>To stay on a planet and dig again, press the letter A on your keyboard. To leave for a new planet, press the letter L.</p><p>The more you dig on a planet, the fewer gems you’ll get with each dig which is why you might consider leaving for a new planet. </p><p>When you arrive at a new planet, you’ll be greeted by an alien. What the alien looks like does not tell you anything about how much treasure is on the planet. </p>",,,,,,,,,,,,,,,,,,,,,,,
instruc_repeat_continue,48,351252,0.0-17.0-2.0,"""event"",""trial"",""time""
""fullscreenenter"",""1"",""9335""
","
","
","""event"",""trial"",""time""
""fullscreenenter"",""1"",""9335""
","
",,2564.3,"<p> Are you ready to play a practice game? </p> <p>In this practice game, you'll be digging up barrels of gems. But, in the real game, you'll be digging up the gems themselves. </p>",,,,,,,0,,,,,,,,,,,,,,,,,,
quiz_q_1_ask,49,357809,0.0-17.0-3.0,"""event"",""trial"",""time""
""fullscreenenter"",""1"",""9335""
","
","
","""event"",""trial"",""time""
""fullscreenenter"",""1"",""9335""
","
",,6555.2,run_exp/static/audio/clip_11_q1_ask.m4a,,,,,,,2,,,,,,,,,,,,,,,,,,
quiz_q_1_fb_correct,50,361656,0.0-18.0-0.0,"""event"",""trial"",""time""
""fullscreenenter"",""1"",""9335""
","
","
","""event"",""trial"",""time""
""fullscreenenter"",""1"",""9335""
","
",,null,run_exp/static/audio/clip_12_q1_correct.m4a,null,<p>That’s correct. You win extra money by collecting more gems.</p>,,,,,,,,,,,,,,,,,,,,,,,
quiz_q_2_ask,51,372779,0.0-18.0-1.0,"""event"",""trial"",""time""
""fullscreenenter"",""1"",""9335""
","
","
","""event"",""trial"",""time""
""fullscreenenter"",""1"",""9335""
","
",,11120.9,run_exp/static/audio/clip_14_q2_ask.m4a,,,,,,,2,,,,,,,,,,,,,,,,,,
quiz_q_2_fb_incorrect,52,376846,0.0-19.0-0.0,"""event"",""trial"",""time""
""fullscreenenter"",""1"",""9335""
","
","
","""event"",""trial"",""time""
""fullscreenenter"",""1"",""9335""
","
",,null,run_exp/static/audio/clip_16_q2_incorrect.m4a,null,<p>That’s incorrect. The experiment is 20 minutes no matter what.</p>,,,,,,,,,,,,,,,,,,,,,,,
quiz_q_3_ask,53,379463,0.0-19.0-1.0,"""event"",""trial"",""time""
""fullscreenenter"",""1"",""9335""
","
","
","""event"",""trial"",""time""
""fullscreenenter"",""1"",""9335""
","
",,2614.5,run_exp/static/audio/clip_17_q3_ask.m4a,,,,,,,1,,,,,,,,,,,,,,,,,,
quiz_q_3_fb_correct,54,383437,0.0-20.0-0.0,"""event"",""trial"",""time""
""fullscreenenter"",""1"",""9335""
","
","
","""event"",""trial"",""time""
""fullscreenenter"",""1"",""9335""
","
",,null,run_exp/static/audio/clip_18_q3_correct.m4a,null,<p> That’s correct. You press the letter L to travel to a new planet.</p>,,,,,,,,,,,,,,,,,,,,,,,
quiz_q_4_ask,55,387819,0.0-20.0-1.0,"""event"",""trial"",""time""
""fullscreenenter"",""1"",""9335""
","
","
","""event"",""trial"",""time""
""fullscreenenter"",""1"",""9335""
","
",,4379.8,run_exp/static/audio/clip_20_q4_ask.m4a,,,,,,,0,,,,,,,,,,,,,,,,,,
quiz_q_4_fb_correct,56,393123,0.0-21.0-0.0,"""event"",""trial"",""time""
""fullscreenenter"",""1"",""9335""
","
","
","""event"",""trial"",""time""
""fullscreenenter"",""1"",""9335""
","
",,null,run_exp/static/audio/clip_21_q4_correct.m4a,null,<p> That’s correct. The more you dig on a planet the fewer gems you’ll get with each dig. </p>,,,,,,,,,,,,,,,,,,,,,,,
quiz_q_5_ask,57,395579,0.0-21.0-1.0,"""event"",""trial"",""time""
""fullscreenenter"",""1"",""9335""
","
","
","""event"",""trial"",""time""
""fullscreenenter"",""1"",""9335""
","
",,2453.1,run_exp/static/audio/clip_23_q5_ask.m4a,,,,,,,1,,,,,,,,,,,,,,,,,,
quiz_q_5_fb_correct,58,400568,0.0-22.0-0.0,"""event"",""trial"",""time""
""fullscreenenter"",""1"",""9335""
","
","
","""event"",""trial"",""time""
""fullscreenenter"",""1"",""9335""
","
",,null,run_exp/static/audio/clip_24_q5_correct.m4a,null,<p> That’s correct. The alien tells you nothing about how much treasure is on the planet.</p>,,,,,,,,,,,,,,,,,,,,,,,
quiz_incorrect,59,406115,0.0-23.0-0.0,"""event"",""trial"",""time""
""fullscreenenter"",""1"",""9335""
","
","
","""event"",""trial"",""time""
""fullscreenenter"",""1"",""9335""
","
",,null,run_exp/static/audio/clip_27_incorrect_quiz.m4a,null,,,,,,,,,,,,,,,,,,,,,,,,
quiz_incorrect_continue,60,407626,0.0-23.0-1.0,"""event"",""trial"",""time""
""fullscreenenter"",""1"",""9335""
","
","
","""event"",""trial"",""time""
""fullscreenenter"",""1"",""9335""
","
",,1509,"<p>Oops, you missed some questions.</p><p>Now that you’ve heard the correct answers. Try the quiz again!</p>",,,,,,,0,,,,,,,,,,,,,,,,,,
quiz_q_1_ask,61,409633,0.0-23.0-2.0,"""event"",""trial"",""time""
""fullscreenenter"",""1"",""9335""
","
","
","""event"",""trial"",""time""
""fullscreenenter"",""1"",""9335""
","
",,2003.7,run_exp/static/audio/clip_11_q1_ask.m4a,,,,,,,2,,,,,,,,,,,,,,,,,,
quiz_q_1_fb_correct,62,413475,0.0-24.0-0.0,"""event"",""trial"",""time""
""fullscreenenter"",""1"",""9335""
","
","
","""event"",""trial"",""time""
""fullscreenenter"",""1"",""9335""
","
",,null,run_exp/static/audio/clip_12_q1_correct.m4a,null,<p>That’s correct. You win extra money by collecting more gems.</p>,,,,,,,,,,,,,,,,,,,,,,,
quiz_q_2_ask,63,414447,0.0-24.0-1.0,"""event"",""trial"",""time""
""fullscreenenter"",""1"",""9335""
","
","
","""event"",""trial"",""time""
""fullscreenenter"",""1"",""9335""
","
",,968.8,run_exp/static/audio/clip_14_q2_ask.m4a,,,,,,,1,,,,,,,,,,,,,,,,,,
quiz_q_2_fb_correct,64,418446,0.0-25.0-0.0,"""event"",""trial"",""time""
""fullscreenenter"",""1"",""9335""
","
","
","""event"",""trial"",""time""
""fullscreenenter"",""1"",""9335""
","
",,null,run_exp/static/audio/clip_15_q2_correct.m4a,null,<p>That’s correct. The experiment is 20 minutes no matter what.</p>,,,,,,,,,,,,,,,,,,,,,,,
quiz_q_3_ask,65,419595,0.0-25.0-1.0,"""event"",""trial"",""time""
""fullscreenenter"",""1"",""9335""
","
","
","""event"",""trial"",""time""
""fullscreenenter"",""1"",""9335""
","
",,1147.4,run_exp/static/audio/clip_17_q3_ask.m4a,,,,,,,1,,,,,,,,,,,,,,,,,,
quiz_q_3_fb_correct,66,423566,0.0-26.0-0.0,"""event"",""trial"",""time""
""fullscreenenter"",""1"",""9335""
","
","
","""event"",""trial"",""time""
""fullscreenenter"",""1"",""9335""
","
",,null,run_exp/static/audio/clip_18_q3_correct.m4a,null,<p> That’s correct. You press the letter L to travel to a new planet.</p>,,,,,,,,,,,,,,,,,,,,,,,
quiz_q_4_ask,67,424887,0.0-26.0-1.0,"""event"",""trial"",""time""
""fullscreenenter"",""1"",""9335""
","
","
","""event"",""trial"",""time""
""fullscreenenter"",""1"",""9335""
","
",,1318.8,run_exp/static/audio/clip_20_q4_ask.m4a,,,,,,,0,,,,,,,,,,,,,,,,,,
quiz_q_4_fb_correct,68,430201,0.0-27.0-0.0,"""event"",""trial"",""time""
""fullscreenenter"",""1"",""9335""
","
","
","""event"",""trial"",""time""
""fullscreenenter"",""1"",""9335""
","
",,null,run_exp/static/audio/clip_21_q4_correct.m4a,null,<p> That’s correct. The more you dig on a planet the fewer gems you’ll get with each dig. </p>,,,,,,,,,,,,,,,,,,,,,,,
quiz_q_5_ask,69,432251,0.0-27.0-1.0,"""event"",""trial"",""time""
""fullscreenenter"",""1"",""9335""
","
","
","""event"",""trial"",""time""
""fullscreenenter"",""1"",""9335""
","
",,2047.6,run_exp/static/audio/clip_23_q5_ask.m4a,,,,,,,1,,,,,,,,,,,,,,,,,,
quiz_q_5_fb_correct,70,437241,0.0-28.0-0.0,"""event"",""trial"",""time""
""fullscreenenter"",""1"",""9335""
","
","
","""event"",""trial"",""time""
""fullscreenenter"",""1"",""9335""
","
",,null,run_exp/static/audio/clip_24_q5_correct.m4a,null,<p> That’s correct. The alien tells you nothing about how much treasure is on the planet.</p>,,,,,,,,,,,,,,,,,,,,,,,
quiz_correct,71,440675,0.0-29.0-0.0,"""event"",""trial"",""time""
""fullscreenenter"",""1"",""9335""
","
","
","""event"",""trial"",""time""
""fullscreenenter"",""1"",""9335""
","
",,null,run_exp/static/audio/clip_26_correct_quiz.m4a,null,,,,,,,,,,,,,,,,,,,,,,,,
quiz_correct_continue,72,441655,0.0-29.0-1.0,"""event"",""trial"",""time""
""fullscreenenter"",""1"",""9335""
","
","
","""event"",""trial"",""time""
""fullscreenenter"",""1"",""9335""
","
",,977.7,<p>Good job! You're now ready to move on to the real game!</p>,,,,,,,0,,,,,,,,,,,,,,,,,,
audio-keyboard-response,73,451769,0.0-29.0-2.0,"""event"",""trial"",""time""
""fullscreenenter"",""1"",""9335""
","
","
","""event"",""trial"",""time""
""fullscreenenter"",""1"",""9335""
","
",,null,run_exp/static/audio/clip_28_real_game.m4a,null,,,,,,,,,,,,,,,,,,,,,,,,
instruc_begin_exp_contine,74,452964,0.0-29.0-3.0,"""event"",""trial"",""time""
""fullscreenenter"",""1"",""9335""
","
","
","""event"",""trial"",""time""
""fullscreenenter"",""1"",""9335""
","
",,1193.1,"<p>Now that you know how  to dig for space treasure and travel to new planets,you can start exploring! </p><p>Do you want to go over the instructions again or get started with the real game?</p>",,,,,,,1,,,,,,1,,,,,,,,,,,,
alien_welcome,75,457974,0.0-30.0-0.0,"""event"",""trial"",""time""
""fullscreenenter"",""1"",""9335""
","
","
","""event"",""trial"",""time""
""fullscreenenter"",""1"",""9335""
","
",,null,run_exp/static/images/task_images/aliens/old_aliens/planet/alien_planet-56.jpg,null,,,,,,,,,,,,,56,"56,13,11,59,12,50,10,19,68,47,3,29,34,9,5,37,38,54,64,55,30,74,40,17,16,35,58,57",,,,,,,,,,
land,76,458481,0.0-30.0-1.0,"""event"",""trial"",""time""
""fullscreenenter"",""1"",""9335""
","
","
","""event"",""trial"",""time""
""fullscreenenter"",""1"",""9335""
","
",,null,run_exp/static/images/task_images/land.jpg,null,,,,,,,95,,,1,,,,,,,,,,,,,,
dig,77,460489,0.0-30.0-2.0,"""event"",""trial"",""time""
""fullscreenenter"",""1"",""9335""
","
","
","""event"",""trial"",""time""
""fullscreenenter"",""1"",""9335""
","
",,,,,,,,,,,,"[{""stimulus"":""run_exp/static/images/task_images/dig.jpg"",""time"":0.5},{""stimulus"":""run_exp/static/images/task_images/land.jpg"",""time"":674.3999999999069},{""stimulus"":""run_exp/static/images/task_images/dig.jpg"",""time"":1340}]",[],1,,,,,,,,,,,,,,
harvest,78,461497,0.0-30.0-3.0,"""event"",""trial"",""time""
""fullscreenenter"",""1"",""9335""
","
","
","""event"",""trial"",""time""
""fullscreenenter"",""1"",""9335""
","
",,null,run_exp/static/images/task_images/gems/95.jpg,null,,,,,,,26,,,1,,,,,95,0.278370758,0.273684211,,,,,,,
decision,79,461913,0.0-30.0-4.0,"""event"",""trial"",""time""
""fullscreenenter"",""1"",""9335""
","
","
","""event"",""trial"",""time""
""fullscreenenter"",""1"",""9335""
","
",,412.3,run_exp/static/images/task_images/land.jpg,65,,,,,,,26,,,1,,,,,,,,8948,1,0,FALSE,,,
dig,80,464510,0.0-31.0-0.0,"""event"",""trial"",""time""
""fullscreenenter"",""1"",""9335""
","
","
","""event"",""trial"",""time""
""fullscreenenter"",""1"",""9335""
","
",,,,,,,,,,,,"[{""stimulus"":""run_exp/static/images/task_images/dig.jpg"",""time"":0.19999999972060323},{""stimulus"":""run_exp/static/images/task_images/land.jpg"",""time"":869},{""stimulus"":""run_exp/static/images/task_images/dig.jpg"",""time"":1731.3999999999069}]",[],1,,,,,,,,,,,,,,
harvest,81,465518,0.0-31.0-1.0,"""event"",""trial"",""time""
""fullscreenenter"",""1"",""9335""
","
","
","""event"",""trial"",""time""
""fullscreenenter"",""1"",""9335""
","
",,null,run_exp/static/images/task_images/gems/26.jpg,null,,,,,,,5,,,1,,,,,26,0.205475828,0.192307692,,,,,,,
decision,82,465881,0.0-31.0-2.0,"""event"",""trial"",""time""
""fullscreenenter"",""1"",""9335""
","
","
","""event"",""trial"",""time""
""fullscreenenter"",""1"",""9335""
","
",,361,run_exp/static/images/task_images/land.jpg,76,,,,,,,5,,,1,,,,,,,,12915,1,1,TRUE,,,
travel,83,475527,0.0-32.0-0.0,"""event"",""trial"",""time""
""fullscreenenter"",""1"",""9335""
","
","
","""event"",""trial"",""time""
""fullscreenenter"",""1"",""9335""
","
",,,,,,,,,,,,"[{""stimulus"":""run_exp/static/images/task_images/rocket-01.jpg"",""time"":0.19999999972060323},{""stimulus"":""run_exp/static/images/task_images/rocket-02.jpg"",""time"":1074.2999999998137},{""stimulus"":""run_exp/static/images/task_images/rocket-03.jpg"",""time"":2144.600000000093},{""stimulus"":""run_exp/static/images/task_images/rocket-04.jpg"",""time"":3219.7999999998137},{""stimulus"":""run_exp/static/images/task_images/rocket-05.jpg"",""time"":4289.899999999907},{""stimulus"":""run_exp/static/images/task_images/rocket-06.jpg"",""time"":5362.299999999814},{""stimulus"":""run_exp/static/images/task_images/rocket-07.jpg"",""time"":6432.5},{""stimulus"":""run_exp/static/images/task_images/rocket-08.jpg"",""time"":7503.799999999814},{""stimulus"":""run_exp/static/images/task_images/rocket-09.jpg"",""time"":8574.600000000093}]",[],1,,,,,,,,,,,,,,
alien_welcome,84,480536,0.0-32.0-1.0,"""event"",""trial"",""time""
""fullscreenenter"",""1"",""9335""
","
","
","""event"",""trial"",""time""
""fullscreenenter"",""1"",""9335""
","
",,null,run_exp/static/images/task_images/aliens/old_aliens/planet/alien_planet-13.jpg,null,,,,,,,,,,,,,13,"56,13,11,59,12,50,10,19,68,47,3,29,34,9,5,37,38,54,64,55,30,74,40,17,16,35,58,57",,,,,,,,,,
land,85,481039,0.0-32.0-2.0,"""event"",""trial"",""time""
""fullscreenenter"",""1"",""9335""
","
","
","""event"",""trial"",""time""
""fullscreenenter"",""1"",""9335""
","
",,null,run_exp/static/images/task_images/land.jpg,null,,,,,,,106,,,2,,,,,,,,,,,,,,
dig,86,483047,0.0-32.0-3.0,"""event"",""trial"",""time""
""fullscreenenter"",""1"",""9335""
","
","
","""event"",""trial"",""time""
""fullscreenenter"",""1"",""9335""
","
",,,,,,,,,,,,"[{""stimulus"":""run_exp/static/images/task_images/dig.jpg"",""time"":0.5},{""stimulus"":""run_exp/static/images/task_images/land.jpg"",""time"":673.8999999999069},{""stimulus"":""run_exp/static/images/task_images/dig.jpg"",""time"":1339.1000000000931}]",[],2,,,,,,,,,,,,,,
harvest,87,484051,0.0-32.0-4.0,"""event"",""trial"",""time""
""fullscreenenter"",""1"",""9335""
","
","
","""event"",""trial"",""time""
""fullscreenenter"",""1"",""9335""
","
",,null,run_exp/static/images/task_images/gems/106.jpg,null,,,,,,,23,,,2,,,,,106,0.212615525,0.216981132,,,,,,,
decision,88,484551,0.0-32.0-5.0,"""event"",""trial"",""time""
""fullscreenenter"",""1"",""9335""
","
","
","""event"",""trial"",""time""
""fullscreenenter"",""1"",""9335""
","
",,498,run_exp/static/images/task_images/land.jpg,65,,,,,,,23,,,2,,,,,,,,31585,1,0,FALSE,,,
dig,89,487062,0.0-33.0-0.0,"""event"",""trial"",""time""
""fullscreenenter"",""1"",""9335""
","
","
","""event"",""trial"",""time""
""fullscreenenter"",""1"",""9335""
","
",,,,,,,,,,,,"[{""stimulus"":""run_exp/static/images/task_images/dig.jpg"",""time"":0.19999999972060323},{""stimulus"":""run_exp/static/images/task_images/land.jpg"",""time"":838.3999999999069},{""stimulus"":""run_exp/static/images/task_images/dig.jpg"",""time"":1674.2999999998137}]",[],2,,,,,,,,,,,,,,
harvest,90,488069,0.0-33.0-1.0,"""event"",""trial"",""time""
""fullscreenenter"",""1"",""9335""
","
","
","""event"",""trial"",""time""
""fullscreenenter"",""1"",""9335""
","
",,null,run_exp/static/images/task_images/gems/23.jpg,null,,,,,,,4,,,2,,,,,23,0.173603071,0.173913043,,,,,,,
decision,91,488317,0.0-33.0-2.0,"""event"",""trial"",""time""
""fullscreenenter"",""1"",""9335""
","
","
","""event"",""trial"",""time""
""fullscreenenter"",""1"",""9335""
","
",,245,run_exp/static/images/task_images/land.jpg,76,,,,,,,4,,,2,,,,,,,,35352,1,1,TRUE,,,
travel,92,498074,0.0-34.0-0.0,"""event"",""trial"",""time""
""fullscreenenter"",""1"",""9335""
","
","
","""event"",""trial"",""time""
""fullscreenenter"",""1"",""9335""
","
",,,,,,,,,,,,"[{""stimulus"":""run_exp/static/images/task_images/rocket-01.jpg"",""time"":0.10000000009313226},{""stimulus"":""run_exp/static/images/task_images/rocket-02.jpg"",""time"":1089.5},{""stimulus"":""run_exp/static/images/task_images/rocket-03.jpg"",""time"":2171.5},{""stimulus"":""run_exp/static/images/task_images/rocket-04.jpg"",""time"":3255.4000000003725},{""stimulus"":""run_exp/static/images/task_images/rocket-05.jpg"",""time"":4338.5},{""stimulus"":""run_exp/static/images/task_images/rocket-06.jpg"",""time"":5418.800000000279},{""stimulus"":""run_exp/static/images/task_images/rocket-07.jpg"",""time"":6504.5},{""stimulus"":""run_exp/static/images/task_images/rocket-08.jpg"",""time"":7587.4000000003725},{""stimulus"":""run_exp/static/images/task_images/rocket-09.jpg"",""time"":8667.600000000093}]",[],2,,,,,,,,,,,,,,
alien_welcome,93,503083,0.0-34.0-1.0,"""event"",""trial"",""time""
""fullscreenenter"",""1"",""9335""
","
","
","""event"",""trial"",""time""
""fullscreenenter"",""1"",""9335""
","
",,null,run_exp/static/images/task_images/aliens/old_aliens/planet/alien_planet-11.jpg,null,,,,,,,,,,,,,11,"56,13,11,59,12,50,10,19,68,47,3,29,34,9,5,37,38,54,64,55,30,74,40,17,16,35,58,57",,,,,,,,,,
land,94,503587,0.0-34.0-2.0,"""event"",""trial"",""time""
""fullscreenenter"",""1"",""9335""
","
","
","""event"",""trial"",""time""
""fullscreenenter"",""1"",""9335""
","
",,null,run_exp/static/images/task_images/land.jpg,null,,,,,,,105,,,3,,,,,,,,,,,,,,
dig,95,505598,0.0-34.0-3.0,"""event"",""trial"",""time""
""fullscreenenter"",""1"",""9335""
","
","
","""event"",""trial"",""time""
""fullscreenenter"",""1"",""9335""
","
",,,,,,,,,,,,"[{""stimulus"":""run_exp/static/images/task_images/dig.jpg"",""time"":0.39999999990686774},{""stimulus"":""run_exp/static/images/task_images/land.jpg"",""time"":673.8999999999069},{""stimulus"":""run_exp/static/images/task_images/dig.jpg"",""time"":1338.1000000000931}]",[],3,,,,,,,,,,,,,,
harvest,96,506605,0.0-34.0-4.0,"""event"",""trial"",""time""
""fullscreenenter"",""1"",""9335""
","
","
","""event"",""trial"",""time""
""fullscreenenter"",""1"",""9335""
","
",,null,run_exp/static/images/task_images/gems/105.jpg,null,,,,,,,49,,,3,,,,,105,0.471341006,0.466666667,,,,,,,
decision,97,506895,0.0-34.0-5.0,"""event"",""trial"",""time""
""fullscreenenter"",""1"",""9335""
","
","
","""event"",""trial"",""time""
""fullscreenenter"",""1"",""9335""
","
",,286.3,run_exp/static/images/task_images/land.jpg,65,,,,,,,49,,,3,,,,,,,,53929,1,0,FALSE,,,
dig,98,509613,0.0-35.0-0.0,"""event"",""trial"",""time""
""fullscreenenter"",""1"",""9335""
","
","
","""event"",""trial"",""time""
""fullscreenenter"",""1"",""9335""
","
",,,,,,,,,,,,"[{""stimulus"":""run_exp/static/images/task_images/dig.jpg"",""time"":0.19999999972060323},{""stimulus"":""run_exp/static/images/task_images/land.jpg"",""time"":908.8999999999069},{""stimulus"":""run_exp/static/images/task_images/dig.jpg"",""time"":1814.3999999999069}]",[],3,,,,,,,,,,,,,,
harvest,99,510618,0.0-35.0-1.0,"""event"",""trial"",""time""
""fullscreenenter"",""1"",""9335""
","
","
","""event"",""trial"",""time""
""fullscreenenter"",""1"",""9335""
","
",,null,run_exp/static/images/task_images/gems/49.jpg,null,,,,,,,26,,,3,,,,,49,0.524426142,0.530612245,,,,,,,
decision,100,510672,0.0-35.0-2.0,"""event"",""trial"",""time""
""fullscreenenter"",""1"",""9335""
","
","
","""event"",""trial"",""time""
""fullscreenenter"",""1"",""9335""
","
",,50.2,run_exp/static/images/task_images/land.jpg,76,,,,,,,26,,,3,,,,,,,,57706,1,1,TRUE,,,
travel,101,520628,0.0-36.0-0.0,"""event"",""trial"",""time""
""fullscreenenter"",""1"",""9335""
","
","
","""event"",""trial"",""time""
""fullscreenenter"",""1"",""9335""
","
",,,,,,,,,,,,"[{""stimulus"":""run_exp/static/images/task_images/rocket-01.jpg"",""time"":0.19999999972060323},{""stimulus"":""run_exp/static/images/task_images/rocket-02.jpg"",""time"":1107.5},{""stimulus"":""run_exp/static/images/task_images/rocket-03.jpg"",""time"":2216.899999999907},{""stimulus"":""run_exp/static/images/task_images/rocket-04.jpg"",""time"":3317.2999999998137},{""stimulus"":""run_exp/static/images/task_images/rocket-05.jpg"",""time"":4424.799999999814},{""stimulus"":""run_exp/static/images/task_images/rocket-06.jpg"",""time"":5528.699999999721},{""stimulus"":""run_exp/static/images/task_images/rocket-07.jpg"",""time"":6634},{""stimulus"":""run_exp/static/images/task_images/rocket-08.jpg"",""time"":7741.399999999907},{""stimulus"":""run_exp/static/images/task_images/rocket-09.jpg"",""time"":8847.099999999627}]",[],3,,,,,,,,,,,,,,
alien_welcome,102,525634,0.0-36.0-1.0,"""event"",""trial"",""time""
""fullscreenenter"",""1"",""9335""
","
","
","""event"",""trial"",""time""
""fullscreenenter"",""1"",""9335""
","
",,null,run_exp/static/images/task_images/aliens/old_aliens/planet/alien_planet-59.jpg,null,,,,,,,,,,,,,59,"56,13,11,59,12,50,10,19,68,47,3,29,34,9,5,37,38,54,64,55,30,74,40,17,16,35,58,57",,,,,,,,,,
land,103,526141,0.0-36.0-2.0,"""event"",""trial"",""time""
""fullscreenenter"",""1"",""9335""
","
","
","""event"",""trial"",""time""
""fullscreenenter"",""1"",""9335""
","
",,null,run_exp/static/images/task_images/land.jpg,null,,,,,,,111,,,4,,,,,,,,,,,,,,
dig,104,528146,0.0-36.0-3.0,"""event"",""trial"",""time""
""fullscreenenter"",""1"",""9335""
","
","
","""event"",""trial"",""time""
""fullscreenenter"",""1"",""9335""
","
",,,,,,,,,,,,"[{""stimulus"":""run_exp/static/images/task_images/dig.jpg"",""time"":0.599999999627471},{""stimulus"":""run_exp/static/images/task_images/land.jpg"",""time"":673.2999999998137},{""stimulus"":""run_exp/static/images/task_images/dig.jpg"",""time"":1337.6999999997206}]",[],4,,,,,,,,,,,,,,
harvest,105,529154,0.0-36.0-4.0,"""event"",""trial"",""time""
""fullscreenenter"",""1"",""9335""
","
","
","""event"",""trial"",""time""
""fullscreenenter"",""1"",""9335""
","
",,null,run_exp/static/images/task_images/gems/111.jpg,null,,,,,,,53,,,4,,,,,111,0.476690536,0.477477477,,,,,,,
decision,106,529554,0.0-36.0-5.0,"""event"",""trial"",""time""
""fullscreenenter"",""1"",""9335""
","
","
","""event"",""trial"",""time""
""fullscreenenter"",""1"",""9335""
","
",,396.8,run_exp/static/images/task_images/land.jpg,65,,,,,,,53,,,4,,,,,,,,76589,1,0,FALSE,,,
dig,107,532166,0.0-37.0-0.0,"""event"",""trial"",""time""
""fullscreenenter"",""1"",""9335""
","
","
","""event"",""trial"",""time""
""fullscreenenter"",""1"",""9335""
","
",,,,,,,,,,,,"[{""stimulus"":""run_exp/static/images/task_images/dig.jpg"",""time"":0.19999999972060323},{""stimulus"":""run_exp/static/images/task_images/land.jpg"",""time"":873.5},{""stimulus"":""run_exp/static/images/task_images/dig.jpg"",""time"":1740.7999999998137}]",[],4,,,,,,,,,,,,,,
harvest,108,533174,0.0-37.0-1.0,"""event"",""trial"",""time""
""fullscreenenter"",""1"",""9335""
","
","
","""event"",""trial"",""time""
""fullscreenenter"",""1"",""9335""
","
",,null,run_exp/static/images/task_images/gems/53.jpg,null,,,,,,,29,,,4,,,,,53,0.538747061,0.547169811,,,,,,,
decision,109,533560,0.0-37.0-2.0,"""event"",""trial"",""time""
""fullscreenenter"",""1"",""9335""
","
","
","""event"",""trial"",""time""
""fullscreenenter"",""1"",""9335""
","
",,381.9,run_exp/static/images/task_images/land.jpg,65,,,,,,,29,,,4,,,,,,,,80594,1,1,FALSE,,,
dig,110,536187,0.0-38.0-0.0,"""event"",""trial"",""time""
""fullscreenenter"",""1"",""9335""
","
","
","""event"",""trial"",""time""
""fullscreenenter"",""1"",""9335""
","
",,,,,,,,,,,,"[{""stimulus"":""run_exp/static/images/task_images/dig.jpg"",""time"":0.19999999972060323},{""stimulus"":""run_exp/static/images/task_images/land.jpg"",""time"":875.5999999996275},{""stimulus"":""run_exp/static/images/task_images/dig.jpg"",""time"":1750.6999999997206}]",[],4,,,,,,,,,,,,,,
harvest,111,537195,0.0-38.0-1.0,"""event"",""trial"",""time""
""fullscreenenter"",""1"",""9335""
","
","
","""event"",""trial"",""time""
""fullscreenenter"",""1"",""9335""
","
",,null,run_exp/static/images/task_images/gems/29.jpg,null,,,,,,,16,,,4,,,,,29,0.557952256,0.551724138,,,,,,,
decision,112,537590,0.0-38.0-2.0,"""event"",""trial"",""time""
""fullscreenenter"",""1"",""9335""
","
","
","""event"",""trial"",""time""
""fullscreenenter"",""1"",""9335""
","
",,391,run_exp/static/images/task_images/land.jpg,65,,,,,,,16,,,4,,,,,,,,84624,1,2,FALSE,,,
dig,113,540207,0.0-39.0-0.0,"""event"",""trial"",""time""
""fullscreenenter"",""1"",""9335""
","
","
","""event"",""trial"",""time""
""fullscreenenter"",""1"",""9335""
","
",,,,,,,,,,,,"[{""stimulus"":""run_exp/static/images/task_images/dig.jpg"",""time"":0.20000000018626451},{""stimulus"":""run_exp/static/images/task_images/land.jpg"",""time"":872.3000000002794},{""stimulus"":""run_exp/static/images/task_images/dig.jpg"",""time"":1743}]",[],4,,,,,,,,,,,,,,
harvest,114,541215,0.0-39.0-1.0,"""event"",""trial"",""time""
""fullscreenenter"",""1"",""9335""
","
","
","""event"",""trial"",""time""
""fullscreenenter"",""1"",""9335""
","
",,null,run_exp/static/images/task_images/gems/16.jpg,null,,,,,,,10,,,4,,,,,16,0.605020237,0.625,,,,,,,
decision,115,541832,0.0-39.0-2.0,"""event"",""trial"",""time""
""fullscreenenter"",""1"",""9335""
","
","
","""event"",""trial"",""time""
""fullscreenenter"",""1"",""9335""
","
",,613.9,run_exp/static/images/task_images/land.jpg,65,,,,,,,10,,,4,,,,,,,,88866,1,3,FALSE,,,
dig,116,544224,0.0-40.0-0.0,"""event"",""trial"",""time""
""fullscreenenter"",""1"",""9335""
","
","
","""event"",""trial"",""time""
""fullscreenenter"",""1"",""9335""
","
",,,,,,,,,,,,"[{""stimulus"":""run_exp/static/images/task_images/dig.jpg"",""time"":0.19999999972060323},{""stimulus"":""run_exp/static/images/task_images/land.jpg"",""time"":797.2999999998137},{""stimulus"":""run_exp/static/images/task_images/dig.jpg"",""time"":1594.1000000000931}]",[],4,,,,,,,,,,,,,,
harvest,117,545230,0.0-40.0-1.0,"""event"",""trial"",""time""
""fullscreenenter"",""1"",""9335""
","
","
","""event"",""trial"",""time""
""fullscreenenter"",""1"",""9335""
","
",,null,run_exp/static/images/task_images/gems/10.jpg,null,,,,,,,5,,,4,,,,,10,0.512055915,0.5,,,,,,,
decision,118,545596,0.0-40.0-2.0,"""event"",""trial"",""time""
""fullscreenenter"",""1"",""9335""
","
","
","""event"",""trial"",""time""
""fullscreenenter"",""1"",""9335""
","
",,361.8,run_exp/static/images/task_images/land.jpg,76,,,,,,,5,,,4,,,,,,,,92630,1,4,TRUE,,,
travel,119,555235,0.0-41.0-0.0,"""event"",""trial"",""time""
""fullscreenenter"",""1"",""9335""
","
","
","""event"",""trial"",""time""
""fullscreenenter"",""1"",""9335""
","
",,,,,,,,,,,,"[{""stimulus"":""run_exp/static/images/task_images/rocket-01.jpg"",""time"":0.19999999972060323},{""stimulus"":""run_exp/static/images/task_images/rocket-02.jpg"",""time"":1074.1999999997206},{""stimulus"":""run_exp/static/images/task_images/rocket-03.jpg"",""time"":2145.6999999997206},{""stimulus"":""run_exp/static/images/task_images/rocket-04.jpg"",""time"":3216.899999999907},{""stimulus"":""run_exp/static/images/task_images/rocket-05.jpg"",""time"":4286.399999999907},{""stimulus"":""run_exp/static/images/task_images/rocket-06.jpg"",""time"":5356.399999999907},{""stimulus"":""run_exp/static/images/task_images/rocket-07.jpg"",""time"":6427},{""stimulus"":""run_exp/static/images/task_images/rocket-08.jpg"",""time"":7496.699999999721},{""stimulus"":""run_exp/static/images/task_images/rocket-09.jpg"",""time"":8561.799999999814}]",[],4,,,,,,,,,,,,,,
alien_welcome,120,560242,0.0-41.0-1.0,"""event"",""trial"",""time""
""fullscreenenter"",""1"",""9335""
","
","
","""event"",""trial"",""time""
""fullscreenenter"",""1"",""9335""
","
",,null,run_exp/static/images/task_images/aliens/old_aliens/planet/alien_planet-12.jpg,null,,,,,,,,,,,,,12,"56,13,11,59,12,50,10,19,68,47,3,29,34,9,5,37,38,54,64,55,30,74,40,17,16,35,58,57",,,,,,,,,,
land,121,560747,0.0-41.0-2.0,"""event"",""trial"",""time""
""fullscreenenter"",""1"",""9335""
","
","
","""event"",""trial"",""time""
""fullscreenenter"",""1"",""9335""
","
",,null,run_exp/static/images/task_images/land.jpg,null,,,,,,,104,,,5,,,,,,,,,,,,,,
dig,122,562757,0.0-41.0-3.0,"""event"",""trial"",""time""
""fullscreenenter"",""1"",""9335""
","
","
","""event"",""trial"",""time""
""fullscreenenter"",""1"",""9335""
","
",,,,,,,,,,,,"[{""stimulus"":""run_exp/static/images/task_images/dig.jpg"",""time"":0.5},{""stimulus"":""run_exp/static/images/task_images/land.jpg"",""time"":672.8999999999069},{""stimulus"":""run_exp/static/images/task_images/dig.jpg"",""time"":1337.5}]",[],5,,,,,,,,,,,,,,
harvest,123,563763,0.0-41.0-4.0,"""event"",""trial"",""time""
""fullscreenenter"",""1"",""9335""
","
","
","""event"",""trial"",""time""
""fullscreenenter"",""1"",""9335""
","
",,null,run_exp/static/images/task_images/gems/104.jpg,null,,,,,,,48,,,5,,,,,104,0.460523367,0.461538462,,,,,,,
decision,124,564259,0.0-41.0-5.0,"""event"",""trial"",""time""
""fullscreenenter"",""1"",""9335""
","
","
","""event"",""trial"",""time""
""fullscreenenter"",""1"",""9335""
","
",,492.7,run_exp/static/images/task_images/land.jpg,65,,,,,,,48,,,5,,,,,,,,111293,1,0,FALSE,,,
dig,125,566774,0.0-42.0-0.0,"""event"",""trial"",""time""
""fullscreenenter"",""1"",""9335""
","
","
","""event"",""trial"",""time""
""fullscreenenter"",""1"",""9335""
","
",,,,,,,,,,,,"[{""stimulus"":""run_exp/static/images/task_images/dig.jpg"",""time"":0.20000000018626451},{""stimulus"":""run_exp/static/images/task_images/land.jpg"",""time"":837},{""stimulus"":""run_exp/static/images/task_images/dig.jpg"",""time"":1676.3000000002794}]",[],5,,,,,,,,,,,,,,
harvest,126,567782,0.0-42.0-1.0,"""event"",""trial"",""time""
""fullscreenenter"",""1"",""9335""
","
","
","""event"",""trial"",""time""
""fullscreenenter"",""1"",""9335""
","
",,null,run_exp/static/images/task_images/gems/48.jpg,null,,,,,,,27,,,5,,,,,48,0.554111728,0.5625,,,,,,,
decision,127,570431,0.0-42.0-2.0,"""event"",""trial"",""time""
""fullscreenenter"",""1"",""9335""
","
","
","""event"",""trial"",""time""
""fullscreenenter"",""1"",""9335""
","
",,2647.4,run_exp/static/images/task_images/land.jpg,65,,,,,,,27,,,5,,,,,,,,117466,1,1,FALSE,,,
dig,128,570788,0.0-43.0-0.0,"""event"",""trial"",""time""
""fullscreenenter"",""1"",""9335""
","
","
","""event"",""trial"",""time""
""fullscreenenter"",""1"",""9335""
","
",,,,,,,,,,,,"[{""stimulus"":""run_exp/static/images/task_images/dig.jpg"",""time"":0.2999999998137355},{""stimulus"":""run_exp/static/images/task_images/land.jpg"",""time"":120.5},{""stimulus"":""run_exp/static/images/task_images/dig.jpg"",""time"":236.1999999997206}]",[],5,,,,,,,,,,,,,,
harvest,129,571794,0.0-43.0-1.0,"""event"",""trial"",""time""
""fullscreenenter"",""1"",""9335""
","
","
","""event"",""trial"",""time""
""fullscreenenter"",""1"",""9335""
","
",,null,run_exp/static/images/task_images/gems/27.jpg,null,,,,,,,12,,,5,,,,,27,0.454962351,0.444444444,,,,,,,
decision,130,572208,0.0-43.0-2.0,"""event"",""trial"",""time""
""fullscreenenter"",""1"",""9335""
","
","
","""event"",""trial"",""time""
""fullscreenenter"",""1"",""9335""
","
",,409.5,run_exp/static/images/task_images/land.jpg,76,,,,,,,12,,,5,,,,,,,,119242,1,2,TRUE,,,
travel,131,581802,0.0-44.0-0.0,"""event"",""trial"",""time""
""fullscreenenter"",""1"",""9335""
","
","
","""event"",""trial"",""time""
""fullscreenenter"",""1"",""9335""
","
",,,,,,,,,,,,"[{""stimulus"":""run_exp/static/images/task_images/rocket-01.jpg"",""time"":0.19999999972060323},{""stimulus"":""run_exp/static/images/task_images/rocket-02.jpg"",""time"":1067.3999999999069},{""stimulus"":""run_exp/static/images/task_images/rocket-03.jpg"",""time"":2134.6999999997206},{""stimulus"":""run_exp/static/images/task_images/rocket-04.jpg"",""time"":3199.100000000093},{""stimulus"":""run_exp/static/images/task_images/rocket-05.jpg"",""time"":4263.699999999721},{""stimulus"":""run_exp/static/images/task_images/rocket-06.jpg"",""time"":5330.899999999907},{""stimulus"":""run_exp/static/images/task_images/rocket-07.jpg"",""time"":6395.199999999721},{""stimulus"":""run_exp/static/images/task_images/rocket-08.jpg"",""time"":7461.399999999907},{""stimulus"":""run_exp/static/images/task_images/rocket-09.jpg"",""time"":8522}]",[],5,,,,,,,,,,,,,,
alien_welcome,132,586809,0.0-44.0-1.0,"""event"",""trial"",""time""
""fullscreenenter"",""1"",""9335""
","
","
","""event"",""trial"",""time""
""fullscreenenter"",""1"",""9335""
","
",,null,run_exp/static/images/task_images/aliens/old_aliens/planet/alien_planet-50.jpg,null,,,,,,,,,,,,,50,"56,13,11,59,12,50,10,19,68,47,3,29,34,9,5,37,38,54,64,55,30,74,40,17,16,35,58,57",,,,,,,,,,
land,133,587313,0.0-44.0-2.0,"""event"",""trial"",""time""
""fullscreenenter"",""1"",""9335""
","
","
","""event"",""trial"",""time""
""fullscreenenter"",""1"",""9335""
","
",,null,run_exp/static/images/task_images/land.jpg,null,,,,,,,103,,,6,,,,,,,,,,,,,,
dig,134,589323,0.0-44.0-3.0,"""event"",""trial"",""time""
""fullscreenenter"",""1"",""9335""
","
","
","""event"",""trial"",""time""
""fullscreenenter"",""1"",""9335""
","
",,,,,,,,,,,,"[{""stimulus"":""run_exp/static/images/task_images/dig.jpg"",""time"":0.39999999990686774},{""stimulus"":""run_exp/static/images/task_images/land.jpg"",""time"":673.5},{""stimulus"":""run_exp/static/images/task_images/dig.jpg"",""time"":1338.1999999997206}]",[],6,,,,,,,,,,,,,,
harvest,135,590332,0.0-44.0-4.0,"""event"",""trial"",""time""
""fullscreenenter"",""1"",""9335""
","
","
","""event"",""trial"",""time""
""fullscreenenter"",""1"",""9335""
","
",,null,run_exp/static/images/task_images/gems/103.jpg,null,,,,,,,79,,,6,,,,,103,0.76831486,0.766990291,,,,,,,
decision,136,591794,0.0-44.0-5.0,"""event"",""trial"",""time""
""fullscreenenter"",""1"",""9335""
","
","
","""event"",""trial"",""time""
""fullscreenenter"",""1"",""9335""
","
",,1459.5,run_exp/static/images/task_images/land.jpg,65,,,,,,,79,,,6,,,,,,,,138828,1,0,FALSE,,,
dig,137,593341,0.0-45.0-0.0,"""event"",""trial"",""time""
""fullscreenenter"",""1"",""9335""
","
","
","""event"",""trial"",""time""
""fullscreenenter"",""1"",""9335""
","
",,,,,,,,,,,,"[{""stimulus"":""run_exp/static/images/task_images/dig.jpg"",""time"":0.10000000009313226},{""stimulus"":""run_exp/static/images/task_images/land.jpg"",""time"":517.6000000000931},{""stimulus"":""run_exp/static/images/task_images/dig.jpg"",""time"":1028}]",[],6,,,,,,,,,,,,,,
harvest,138,594349,0.0-45.0-1.0,"""event"",""trial"",""time""
""fullscreenenter"",""1"",""9335""
","
","
","""event"",""trial"",""time""
""fullscreenenter"",""1"",""9335""
","
",,null,run_exp/static/images/task_images/gems/79.jpg,null,,,,,,,66,,,6,,,,,79,0.83805799,0.835443038,,,,,,,
decision,139,594884,0.0-45.0-2.0,"""event"",""trial"",""time""
""fullscreenenter"",""1"",""9335""
","
","
","""event"",""trial"",""time""
""fullscreenenter"",""1"",""9335""
","
",,532,run_exp/static/images/task_images/land.jpg,65,,,,,,,66,,,6,,,,,,,,141919,1,1,FALSE,,,
dig,140,597361,0.0-46.0-0.0,"""event"",""trial"",""time""
""fullscreenenter"",""1"",""9335""
","
","
","""event"",""trial"",""time""
""fullscreenenter"",""1"",""9335""
","
",,,,,,,,,,,,"[{""stimulus"":""run_exp/static/images/task_images/dig.jpg"",""time"":0.10000000009313226},{""stimulus"":""run_exp/static/images/task_images/land.jpg"",""time"":828.8999999999069},{""stimulus"":""run_exp/static/images/task_images/dig.jpg"",""time"":1648.7000000001863}]",[],6,,,,,,,,,,,,,,
harvest,141,598370,0.0-46.0-1.0,"""event"",""trial"",""time""
""fullscreenenter"",""1"",""9335""
","
","
","""event"",""trial"",""time""
""fullscreenenter"",""1"",""9335""
","
",,null,run_exp/static/images/task_images/gems/66.jpg,null,,,,,,,51,,,6,,,,,66,0.766268463,0.772727273,,,,,,,
decision,142,598925,0.0-46.0-2.0,"""event"",""trial"",""time""
""fullscreenenter"",""1"",""9335""
","
","
","""event"",""trial"",""time""
""fullscreenenter"",""1"",""9335""
","
",,551.7,run_exp/static/images/task_images/land.jpg,65,,,,,,,51,,,6,,,,,,,,145959,1,2,FALSE,,,
dig,143,601380,0.0-47.0-0.0,"""event"",""trial"",""time""
""fullscreenenter"",""1"",""9335""
","
","
","""event"",""trial"",""time""
""fullscreenenter"",""1"",""9335""
","
",,,,,,,,,,,,"[{""stimulus"":""run_exp/static/images/task_images/dig.jpg"",""time"":0.2999999998137355},{""stimulus"":""run_exp/static/images/task_images/land.jpg"",""time"":822.6000000000931},{""stimulus"":""run_exp/static/images/task_images/dig.jpg"",""time"":1639.2999999998137}]",[],6,,,,,,,,,,,,,,
harvest,144,602383,0.0-47.0-1.0,"""event"",""trial"",""time""
""fullscreenenter"",""1"",""9335""
","
","
","""event"",""trial"",""time""
""fullscreenenter"",""1"",""9335""
","
",,null,run_exp/static/images/task_images/gems/51.jpg,null,,,,,,,42,,,6,,,,,51,0.826741958,0.823529412,,,,,,,
decision,145,602816,0.0-47.0-2.0,"""event"",""trial"",""time""
""fullscreenenter"",""1"",""9335""
","
","
","""event"",""trial"",""time""
""fullscreenenter"",""1"",""9335""
","
",,430.2,run_exp/static/images/task_images/land.jpg,65,,,,,,,42,,,6,,,,,,,,149850,1,3,FALSE,,,
dig,146,605394,0.0-48.0-0.0,"""event"",""trial"",""time""
""fullscreenenter"",""1"",""9335""
","
","
","""event"",""trial"",""time""
""fullscreenenter"",""1"",""9335""
","
",,,,,,,,,,,,"[{""stimulus"":""run_exp/static/images/task_images/dig.jpg"",""time"":0.3000000002793968},{""stimulus"":""run_exp/static/images/task_images/land.jpg"",""time"":863.1000000000931},{""stimulus"":""run_exp/static/images/task_images/dig.jpg"",""time"":1717.8000000002794}]",[],6,,,,,,,,,,,,,,
harvest,147,606397,0.0-48.0-1.0,"""event"",""trial"",""time""
""fullscreenenter"",""1"",""9335""
","
","
","""event"",""trial"",""time""
""fullscreenenter"",""1"",""9335""
","
",,null,run_exp/static/images/task_images/gems/42.jpg,null,,,,,,,31,,,6,,,,,42,0.748958039,0.738095238,,,,,,,
decision,148,607254,0.0-48.0-2.0,"""event"",""trial"",""time""
""fullscreenenter"",""1"",""9335""
","
","
","""event"",""trial"",""time""
""fullscreenenter"",""1"",""9335""
","
",,854.2,run_exp/static/images/task_images/land.jpg,65,,,,,,,31,,,6,,,,,,,,154288,1,4,FALSE,,,
dig,149,609409,0.0-49.0-0.0,"""event"",""trial"",""time""
""fullscreenenter"",""1"",""9335""
","
","
","""event"",""trial"",""time""
""fullscreenenter"",""1"",""9335""
","
",,,,,,,,,,,,"[{""stimulus"":""run_exp/static/images/task_images/dig.jpg"",""time"":0.10000000009313226},{""stimulus"":""run_exp/static/images/task_images/land.jpg"",""time"":721.5},{""stimulus"":""run_exp/static/images/task_images/dig.jpg"",""time"":1437.1000000000931}]",[],6,,,,,,,,,,,,,,
harvest,150,610418,0.0-49.0-1.0,"""event"",""trial"",""time""
""fullscreenenter"",""1"",""9335""
","
","
","""event"",""trial"",""time""
""fullscreenenter"",""1"",""9335""
","
",,null,run_exp/static/images/task_images/gems/31.jpg,null,,,,,,,25,,,6,,,,,31,0.791152969,0.806451613,,,,,,,
decision,151,613427,0.0-49.0-2.0,"""event"",""trial"",""time""
""fullscreenenter"",""1"",""9335""
","
","
","""event"",""trial"",""time""
""fullscreenenter"",""1"",""9335""
","
",,null,run_exp/static/images/task_images/land.jpg,null,,,,,,,25,,,6,,,,,,,,160461,1,5,FALSE,,,
time_out,152,615438,0.0-50.0-0.0,"""event"",""trial"",""time""
""fullscreenenter"",""1"",""9335""
","
","
","""event"",""trial"",""time""
""fullscreenenter"",""1"",""9335""
","
",,null,run_exp/static/images/task_images/time_out.jpg,null,,,,,,,25,,,,,,,,,,,,,,,,,
decision,153,615763,0.0-50.0-1.0,"""event"",""trial"",""time""
""fullscreenenter"",""1"",""9335""
","
","
","""event"",""trial"",""time""
""fullscreenenter"",""1"",""9335""
","
",,320.8,run_exp/static/images/task_images/land.jpg,65,,,,,,,25,,,6,,,,,,,,162797,1,5,FALSE,,,
dig,154,618451,0.0-51.0-0.0,"""event"",""trial"",""time""
""fullscreenenter"",""1"",""9335""
","
","
","""event"",""trial"",""time""
""fullscreenenter"",""1"",""9335""
","
",,,,,,,,,,,,"[{""stimulus"":""run_exp/static/images/task_images/dig.jpg"",""time"":0.10000000009313226},{""stimulus"":""run_exp/static/images/task_images/land.jpg"",""time"":895.3000000002794},{""stimulus"":""run_exp/static/images/task_images/dig.jpg"",""time"":1788.2000000001863}]",[],6,,,,,,,,,,,,,,
harvest,155,619458,0.0-51.0-1.0,"""event"",""trial"",""time""
""fullscreenenter"",""1"",""9335""
","
","
","""event"",""trial"",""time""
""fullscreenenter"",""1"",""9335""
","
",,null,run_exp/static/images/task_images/gems/25.jpg,null,,,,,,,18,,,6,,,,,25,0.733840354,0.72,,,,,,,
decision,156,619773,0.0-51.0-2.0,"""event"",""trial"",""time""
""fullscreenenter"",""1"",""9335""
","
","
","""event"",""trial"",""time""
""fullscreenenter"",""1"",""9335""
","
",,311,run_exp/static/images/task_images/land.jpg,76,,,,,,,18,,,6,,,,,,,,166808,1,6,TRUE,,,
travel,157,629464,0.0-52.0-0.0,"""event"",""trial"",""time""
""fullscreenenter"",""1"",""9335""
","
","
","""event"",""trial"",""time""
""fullscreenenter"",""1"",""9335""
","
",,,,,,,,,,,,"[{""stimulus"":""run_exp/static/images/task_images/rocket-01.jpg"",""time"":0.19999999972060323},{""stimulus"":""run_exp/static/images/task_images/rocket-02.jpg"",""time"":1078.2999999998137},{""stimulus"":""run_exp/static/images/task_images/rocket-03.jpg"",""time"":2157.7999999998137},{""stimulus"":""run_exp/static/images/task_images/rocket-04.jpg"",""time"":3234.399999999907},{""stimulus"":""run_exp/static/images/task_images/rocket-05.jpg"",""time"":4311.0999999996275},{""stimulus"":""run_exp/static/images/task_images/rocket-06.jpg"",""time"":5384},{""stimulus"":""run_exp/static/images/task_images/rocket-07.jpg"",""time"":6462.299999999814},{""stimulus"":""run_exp/static/images/task_images/rocket-08.jpg"",""time"":7535.5999999996275},{""stimulus"":""run_exp/static/images/task_images/rocket-09.jpg"",""time"":8614.5}]",[],6,,,,,,,,,,,,,,
alien_welcome,158,634468,0.0-52.0-1.0,"""event"",""trial"",""time""
""fullscreenenter"",""1"",""9335""
","
","
","""event"",""trial"",""time""
""fullscreenenter"",""1"",""9335""
","
",,null,run_exp/static/images/task_images/aliens/old_aliens/planet/alien_planet-10.jpg,null,,,,,,,,,,,,,10,"56,13,11,59,12,50,10,19,68,47,3,29,34,9,5,37,38,54,64,55,30,74,40,17,16,35,58,57",,,,,,,,,,
land,159,634972,0.0-52.0-2.0,"""event"",""trial"",""time""
""fullscreenenter"",""1"",""9335""
","
","
","""event"",""trial"",""time""
""fullscreenenter"",""1"",""9335""
","
",,null,run_exp/static/images/task_images/land.jpg,null,,,,,,,93,,,7,,,,,,,,,,,,,,
dig,160,636982,0.0-52.0-3.0,"""event"",""trial"",""time""
""fullscreenenter"",""1"",""9335""
","
","
","""event"",""trial"",""time""
""fullscreenenter"",""1"",""9335""
","
",,,,,,,,,,,,"[{""stimulus"":""run_exp/static/images/task_images/dig.jpg"",""time"":0.5},{""stimulus"":""run_exp/static/images/task_images/land.jpg"",""time"":670.8999999999069},{""stimulus"":""run_exp/static/images/task_images/dig.jpg"",""time"":1338.2999999998137}]",[],7,,,,,,,,,,,,,,
harvest,161,637988,0.0-52.0-4.0,"""event"",""trial"",""time""
""fullscreenenter"",""1"",""9335""
","
","
","""event"",""trial"",""time""
""fullscreenenter"",""1"",""9335""
","
",,null,run_exp/static/images/task_images/gems/93.jpg,null,,,,,,,79,,,7,,,,,93,0.845751052,0.849462366,,,,,,,
decision,162,639306,0.0-52.0-5.0,"""event"",""trial"",""time""
""fullscreenenter"",""1"",""9335""
","
","
","""event"",""trial"",""time""
""fullscreenenter"",""1"",""9335""
","
",,1314.3,run_exp/static/images/task_images/land.jpg,65,,,,,,,79,,,7,,,,,,,,186340,1,0,FALSE,,,
dig,163,641000,0.0-53.0-0.0,"""event"",""trial"",""time""
""fullscreenenter"",""1"",""9335""
","
","
","""event"",""trial"",""time""
""fullscreenenter"",""1"",""9335""
","
",,,,,,,,,,,,"[{""stimulus"":""run_exp/static/images/task_images/dig.jpg"",""time"":0.3000000002793968},{""stimulus"":""run_exp/static/images/task_images/land.jpg"",""time"":567.6000000000931},{""stimulus"":""run_exp/static/images/task_images/dig.jpg"",""time"":1124.8000000002794}]",[],7,,,,,,,,,,,,,,
harvest,164,642006,0.0-53.0-1.0,"""event"",""trial"",""time""
""fullscreenenter"",""1"",""9335""
","
","
","""event"",""trial"",""time""
""fullscreenenter"",""1"",""9335""
","
",,null,run_exp/static/images/task_images/gems/79.jpg,null,,,,,,,62,,,7,,,,,79,0.779359045,0.784810127,,,,,,,
decision,165,642427,0.0-53.0-2.0,"""event"",""trial"",""time""
""fullscreenenter"",""1"",""9335""
","
","
","""event"",""trial"",""time""
""fullscreenenter"",""1"",""9335""
","
",,417.3,run_exp/static/images/task_images/land.jpg,65,,,,,,,62,,,7,,,,,,,,189461,1,1,FALSE,,,
dig,166,645018,0.0-54.0-0.0,"""event"",""trial"",""time""
""fullscreenenter"",""1"",""9335""
","
","
","""event"",""trial"",""time""
""fullscreenenter"",""1"",""9335""
","
",,,,,,,,,,,,"[{""stimulus"":""run_exp/static/images/task_images/dig.jpg"",""time"":0.19999999972060323},{""stimulus"":""run_exp/static/images/task_images/land.jpg"",""time"":866.1999999997206},{""stimulus"":""run_exp/static/images/task_images/dig.jpg"",""time"":1726.3999999999069}]",[],7,,,,,,,,,,,,,,
harvest,167,646023,0.0-54.0-1.0,"""event"",""trial"",""time""
""fullscreenenter"",""1"",""9335""
","
","
","""event"",""trial"",""time""
""fullscreenenter"",""1"",""9335""
","
",,null,run_exp/static/images/task_images/gems/62.jpg,null,,,,,,,49,,,7,,,,,62,0.786614777,0.790322581,,,,,,,
decision,168,647551,0.0-54.0-2.0,"""event"",""trial"",""time""
""fullscreenenter"",""1"",""9335""
","
","
","""event"",""trial"",""time""
""fullscreenenter"",""1"",""9335""
","
",,1524.4,run_exp/static/images/task_images/land.jpg,65,,,,,,,49,,,7,,,,,,,,194585,1,2,FALSE,,,
dig,169,649030,0.0-55.0-0.0,"""event"",""trial"",""time""
""fullscreenenter"",""1"",""9335""
","
","
","""event"",""trial"",""time""
""fullscreenenter"",""1"",""9335""
","
",,,,,,,,,,,,"[{""stimulus"":""run_exp/static/images/task_images/dig.jpg"",""time"":0.10000000009313226},{""stimulus"":""run_exp/static/images/task_images/land.jpg"",""time"":492.60000000009313},{""stimulus"":""run_exp/static/images/task_images/dig.jpg"",""time"":984.5}]",[],7,,,,,,,,,,,,,,
harvest,170,650037,0.0-55.0-1.0,"""event"",""trial"",""time""
""fullscreenenter"",""1"",""9335""
","
","
","""event"",""trial"",""time""
""fullscreenenter"",""1"",""9335""
","
",,null,run_exp/static/images/task_images/gems/49.jpg,null,,,,,,,40,,,7,,,,,49,0.811292219,0.816326531,,,,,,,
decision,171,651723,0.0-55.0-2.0,"""event"",""trial"",""time""
""fullscreenenter"",""1"",""9335""
","
","
","""event"",""trial"",""time""
""fullscreenenter"",""1"",""9335""
","
",,1682.7,run_exp/static/images/task_images/land.jpg,65,,,,,,,40,,,7,,,,,,,,198757,1,3,FALSE,,,
dig,172,653047,0.0-56.0-0.0,"""event"",""trial"",""time""
""fullscreenenter"",""1"",""9335""
","
","
","""event"",""trial"",""time""
""fullscreenenter"",""1"",""9335""
","
",,,,,,,,,,,,"[{""stimulus"":""run_exp/static/images/task_images/dig.jpg"",""time"":0.10000000009313226},{""stimulus"":""run_exp/static/images/task_images/land.jpg"",""time"":440.60000000009313},{""stimulus"":""run_exp/static/images/task_images/dig.jpg"",""time"":880.2000000001863}]",[],7,,,,,,,,,,,,,,
harvest,173,654051,0.0-56.0-1.0,"""event"",""trial"",""time""
""fullscreenenter"",""1"",""9335""
","
","
","""event"",""trial"",""time""
""fullscreenenter"",""1"",""9335""
","
",,null,run_exp/static/images/task_images/gems/40.jpg,null,,,,,,,33,,,7,,,,,40,0.824012156,0.825,,,,,,,
decision,174,655975,0.0-56.0-2.0,"""event"",""trial"",""time""
""fullscreenenter"",""1"",""9335""
","
","
","""event"",""trial"",""time""
""fullscreenenter"",""1"",""9335""
","
",,1919.6,run_exp/static/images/task_images/land.jpg,65,,,,,,,33,,,7,,,,,,,,203009,1,4,FALSE,,,
dig,175,657064,0.0-57.0-0.0,"""event"",""trial"",""time""
""fullscreenenter"",""1"",""9335""
","
","
","""event"",""trial"",""time""
""fullscreenenter"",""1"",""9335""
","
",,,,,,,,,,,,"[{""stimulus"":""run_exp/static/images/task_images/dig.jpg"",""time"":0.10000000009313226},{""stimulus"":""run_exp/static/images/task_images/land.jpg"",""time"":366.60000000009313},{""stimulus"":""run_exp/static/images/task_images/dig.jpg"",""time"":726.2000000001863}]",[],7,,,,,,,,,,,,,,
harvest,176,658071,0.0-57.0-1.0,"""event"",""trial"",""time""
""fullscreenenter"",""1"",""9335""
","
","
","""event"",""trial"",""time""
""fullscreenenter"",""1"",""9335""
","
",,null,run_exp/static/images/task_images/gems/33.jpg,null,,,,,,,29,,,7,,,,,33,0.875800214,0.878787879,,,,,,,
decision,177,659647,0.0-57.0-2.0,"""event"",""trial"",""time""
""fullscreenenter"",""1"",""9335""
","
","
","""event"",""trial"",""time""
""fullscreenenter"",""1"",""9335""
","
",,1572.4,run_exp/static/images/task_images/land.jpg,65,,,,,,,29,,,7,,,,,,,,206681,1,5,FALSE,,,
dig,178,661081,0.0-58.0-0.0,"""event"",""trial"",""time""
""fullscreenenter"",""1"",""9335""
","
","
","""event"",""trial"",""time""
""fullscreenenter"",""1"",""9335""
","
",,,,,,,,,,,,"[{""stimulus"":""run_exp/static/images/task_images/dig.jpg"",""time"":0.2999999998137355},{""stimulus"":""run_exp/static/images/task_images/land.jpg"",""time"":477.60000000009313},{""stimulus"":""run_exp/static/images/task_images/dig.jpg"",""time"":957.1000000000931}]",[],7,,,,,,,,,,,,,,
harvest,179,662087,0.0-58.0-1.0,"""event"",""trial"",""time""
""fullscreenenter"",""1"",""9335""
","
","
","""event"",""trial"",""time""
""fullscreenenter"",""1"",""9335""
","
",,null,run_exp/static/images/task_images/gems/29.jpg,null,,,,,,,23,,,7,,,,,29,0.802111495,0.793103448,,,,,,,
decision,180,662489,0.0-58.0-2.0,"""event"",""trial"",""time""
""fullscreenenter"",""1"",""9335""
","
","
","""event"",""trial"",""time""
""fullscreenenter"",""1"",""9335""
","
",,399,run_exp/static/images/task_images/land.jpg,65,,,,,,,23,,,7,,,,,,,,209523,1,6,FALSE,,,
dig,181,665101,0.0-59.0-0.0,"""event"",""trial"",""time""
""fullscreenenter"",""1"",""9335""
","
","
","""event"",""trial"",""time""
""fullscreenenter"",""1"",""9335""
","
",,,,,,,,,,,,"[{""stimulus"":""run_exp/static/images/task_images/dig.jpg"",""time"":0.20000000018626451},{""stimulus"":""run_exp/static/images/task_images/land.jpg"",""time"":870.1000000000931},{""stimulus"":""run_exp/static/images/task_images/dig.jpg"",""time"":1740.3999999999069}]",[],7,,,,,,,,,,,,,,
harvest,182,666110,0.0-59.0-1.0,"""event"",""trial"",""time""
""fullscreenenter"",""1"",""9335""
","
","
","""event"",""trial"",""time""
""fullscreenenter"",""1"",""9335""
","
",,null,run_exp/static/images/task_images/gems/23.jpg,null,,,,,,,17,,,7,,,,,23,0.72307164,0.739130435,,,,,,,
decision,183,666459,0.0-59.0-2.0,"""event"",""trial"",""time""
""fullscreenenter"",""1"",""9335""
","
","
","""event"",""trial"",""time""
""fullscreenenter"",""1"",""9335""
","
",,346,run_exp/static/images/task_images/land.jpg,65,,,,,,,17,,,7,,,,,,,,213493,1,7,FALSE,,,
dig,184,669117,0.0-60.0-0.0,"""event"",""trial"",""time""
""fullscreenenter"",""1"",""9335""
","
","
","""event"",""trial"",""time""
""fullscreenenter"",""1"",""9335""
","
",,,,,,,,,,,,"[{""stimulus"":""run_exp/static/images/task_images/dig.jpg"",""time"":0.09999999962747097},{""stimulus"":""run_exp/static/images/task_images/land.jpg"",""time"":886.3999999999069},{""stimulus"":""run_exp/static/images/task_images/dig.jpg"",""time"":1774.5999999996275}]",[],7,,,,,,,,,,,,,,
harvest,185,670125,0.0-60.0-1.0,"""event"",""trial"",""time""
""fullscreenenter"",""1"",""9335""
","
","
","""event"",""trial"",""time""
""fullscreenenter"",""1"",""9335""
","
",,null,run_exp/static/images/task_images/gems/17.jpg,null,,,,,,,14,,,7,,,,,17,0.832303391,0.823529412,,,,,,,
decision,186,670530,0.0-60.0-2.0,"""event"",""trial"",""time""
""fullscreenenter"",""1"",""9335""
","
","
","""event"",""trial"",""time""
""fullscreenenter"",""1"",""9335""
","
",,401.4,run_exp/static/images/task_images/land.jpg,65,,,,,,,14,,,7,,,,,,,,217564,1,8,FALSE,,,
dig,187,673139,0.0-61.0-0.0,"""event"",""trial"",""time""
""fullscreenenter"",""1"",""9335""
","
","
","""event"",""trial"",""time""
""fullscreenenter"",""1"",""9335""
","
",,,,,,,,,,,,"[{""stimulus"":""run_exp/static/images/task_images/dig.jpg"",""time"":0.20000000018626451},{""stimulus"":""run_exp/static/images/task_images/land.jpg"",""time"":872},{""stimulus"":""run_exp/static/images/task_images/dig.jpg"",""time"":1738.8999999999069}]",[],7,,,,,,,,,,,,,,
harvest,188,674147,0.0-61.0-1.0,"""event"",""trial"",""time""
""fullscreenenter"",""1"",""9335""
","
","
","""event"",""trial"",""time""
""fullscreenenter"",""1"",""9335""
","
",,null,run_exp/static/images/task_images/gems/14.jpg,null,,,,,,,11,,,7,,,,,14,0.810438628,0.785714286,,,,,,,
decision,189,675417,0.0-61.0-2.0,"""event"",""trial"",""time""
""fullscreenenter"",""1"",""9335""
","
","
","""event"",""trial"",""time""
""fullscreenenter"",""1"",""9335""
","
",,1266.3,run_exp/static/images/task_images/land.jpg,65,,,,,,,11,,,7,,,,,,,,222451,1,9,FALSE,,,
dig,190,677156,0.0-62.0-0.0,"""event"",""trial"",""time""
""fullscreenenter"",""1"",""9335""
","
","
","""event"",""trial"",""time""
""fullscreenenter"",""1"",""9335""
","
",,,,,,,,,,,,"[{""stimulus"":""run_exp/static/images/task_images/dig.jpg"",""time"":0.2999999998137355},{""stimulus"":""run_exp/static/images/task_images/land.jpg"",""time"":583.2999999998137},{""stimulus"":""run_exp/static/images/task_images/dig.jpg"",""time"":1158.1999999997206}]",[],7,,,,,,,,,,,,,,
harvest,191,678163,0.0-62.0-1.0,"""event"",""trial"",""time""
""fullscreenenter"",""1"",""9335""
","
","
","""event"",""trial"",""time""
""fullscreenenter"",""1"",""9335""
","
",,null,run_exp/static/images/task_images/gems/11.jpg,null,,,,,,,7,,,7,,,,,11,0.674420853,0.636363636,,,,,,,
decision,192,678907,0.0-62.0-2.0,"""event"",""trial"",""time""
""fullscreenenter"",""1"",""9335""
","
","
","""event"",""trial"",""time""
""fullscreenenter"",""1"",""9335""
","
",,740.1,run_exp/static/images/task_images/land.jpg,65,,,,,,,7,,,7,,,,,,,,225941,1,10,FALSE,,,
dig,193,681172,0.0-63.0-0.0,"""event"",""trial"",""time""
""fullscreenenter"",""1"",""9335""
","
","
","""event"",""trial"",""time""
""fullscreenenter"",""1"",""9335""
","
",,,,,,,,,,,,"[{""stimulus"":""run_exp/static/images/task_images/dig.jpg"",""time"":0.19999999972060323},{""stimulus"":""run_exp/static/images/task_images/land.jpg"",""time"":760},{""stimulus"":""run_exp/static/images/task_images/dig.jpg"",""time"":1508.8999999999069}]",[],7,,,,,,,,,,,,,,
harvest,194,682179,0.0-63.0-1.0,"""event"",""trial"",""time""
""fullscreenenter"",""1"",""9335""
","
","
","""event"",""trial"",""time""
""fullscreenenter"",""1"",""9335""
","
",,null,run_exp/static/images/task_images/gems/7.jpg,null,,,,,,,6,,,7,,,,,7,0.873152153,0.857142857,,,,,,,
decision,195,682676,0.0-63.0-2.0,"""event"",""trial"",""time""
""fullscreenenter"",""1"",""9335""
","
","
","""event"",""trial"",""time""
""fullscreenenter"",""1"",""9335""
","
",,492.5,run_exp/static/images/task_images/land.jpg,65,,,,,,,6,,,7,,,,,,,,229710,1,11,FALSE,,,
dig,196,685188,0.0-64.0-0.0,"""event"",""trial"",""time""
""fullscreenenter"",""1"",""9335""
","
","
","""event"",""trial"",""time""
""fullscreenenter"",""1"",""9335""
","
",,,,,,,,,,,,"[{""stimulus"":""run_exp/static/images/task_images/dig.jpg"",""time"":0.10000000009313226},{""stimulus"":""run_exp/static/images/task_images/land.jpg"",""time"":841.7999999998137},{""stimulus"":""run_exp/static/images/task_images/dig.jpg"",""time"":1676.8999999999069}]",[],7,,,,,,,,,,,,,,
harvest,197,686192,0.0-64.0-1.0,"""event"",""trial"",""time""
""fullscreenenter"",""1"",""9335""
","
","
","""event"",""trial"",""time""
""fullscreenenter"",""1"",""9335""
","
",,null,run_exp/static/images/task_images/gems/6.jpg,null,,,,,,,5,,,7,,,,,6,0.82004571,0.833333333,,,,,,,
decision,198,687550,0.0-64.0-2.0,"""event"",""trial"",""time""
""fullscreenenter"",""1"",""9335""
","
","
","""event"",""trial"",""time""
""fullscreenenter"",""1"",""9335""
","
",,1353.5,run_exp/static/images/task_images/land.jpg,65,,,,,,,5,,,7,,,,,,,,234584,1,12,FALSE,,,
dig,199,689203,0.0-65.0-0.0,"""event"",""trial"",""time""
""fullscreenenter"",""1"",""9335""
","
","
","""event"",""trial"",""time""
""fullscreenenter"",""1"",""9335""
","
",,,,,,,,,,,,"[{""stimulus"":""run_exp/static/images/task_images/dig.jpg"",""time"":0.19999999972060323},{""stimulus"":""run_exp/static/images/task_images/land.jpg"",""time"":552.5},{""stimulus"":""run_exp/static/images/task_images/dig.jpg"",""time"":1097.6999999997206}]",[],7,,,,,,,,,,,,,,
harvest,200,690209,0.0-65.0-1.0,"""event"",""trial"",""time""
""fullscreenenter"",""1"",""9335""
","
","
","""event"",""trial"",""time""
""fullscreenenter"",""1"",""9335""
","
",,null,run_exp/static/images/task_images/gems/5.jpg,null,,,,,,,4,,,7,,,,,5,0.833152384,0.8,,,,,,,
decision,201,692549,0.0-65.0-2.0,"""event"",""trial"",""time""
""fullscreenenter"",""1"",""9335""
","
","
","""event"",""trial"",""time""
""fullscreenenter"",""1"",""9335""
","
",,2336.8,run_exp/static/images/task_images/land.jpg,65,,,,,,,4,,,7,,,,,,,,239583,1,13,FALSE,,,
dig,202,693218,0.0-66.0-0.0,"""event"",""trial"",""time""
""fullscreenenter"",""1"",""9335""
","
","
","""event"",""trial"",""time""
""fullscreenenter"",""1"",""9335""
","
",,,,,,,,,,,,"[{""stimulus"":""run_exp/static/images/task_images/dig.jpg"",""time"":0.20000000018626451},{""stimulus"":""run_exp/static/images/task_images/land.jpg"",""time"":224.60000000009313},{""stimulus"":""run_exp/static/images/task_images/dig.jpg"",""time"":444.89999999990687}]",[],7,,,,,,,,,,,,,,
harvest,203,694226,0.0-66.0-1.0,"""event"",""trial"",""time""
""fullscreenenter"",""1"",""9335""
","
","
","""event"",""trial"",""time""
""fullscreenenter"",""1"",""9335""
","
",,null,run_exp/static/images/task_images/gems/4.jpg,null,,,,,,,3,,,7,,,,,4,0.802143092,0.75,,,,,,,
decision,204,695016,0.0-66.0-2.0,"""event"",""trial"",""time""
""fullscreenenter"",""1"",""9335""
","
","
","""event"",""trial"",""time""
""fullscreenenter"",""1"",""9335""
","
",,785.4,run_exp/static/images/task_images/land.jpg,65,,,,,,,3,,,7,,,,,,,,242050,1,14,FALSE,,,
dig,205,697238,0.0-67.0-0.0,"""event"",""trial"",""time""
""fullscreenenter"",""1"",""9335""
","
","
","""event"",""trial"",""time""
""fullscreenenter"",""1"",""9335""
","
",,,,,,,,,,,,"[{""stimulus"":""run_exp/static/images/task_images/dig.jpg"",""time"":0.2999999998137355},{""stimulus"":""run_exp/static/images/task_images/land.jpg"",""time"":744.5999999996275},{""stimulus"":""run_exp/static/images/task_images/dig.jpg"",""time"":1482.8999999999069}]",[],7,,,,,,,,,,,,,,
harvest,206,698243,0.0-67.0-1.0,"""event"",""trial"",""time""
""fullscreenenter"",""1"",""9335""
","
","
","""event"",""trial"",""time""
""fullscreenenter"",""1"",""9335""
","
",,null,run_exp/static/images/task_images/gems/3.jpg,null,,,,,,,2,,,7,,,,,3,0.72954731,0.666666667,,,,,,,
decision,207,699014,0.0-67.0-2.0,"""event"",""trial"",""time""
""fullscreenenter"",""1"",""9335""
","
","
","""event"",""trial"",""time""
""fullscreenenter"",""1"",""9335""
","
",,767.6,run_exp/static/images/task_images/land.jpg,65,,,,,,,2,,,7,,,,,,,,246048,1,15,FALSE,,,
dig,208,701256,0.0-68.0-0.0,"""event"",""trial"",""time""
""fullscreenenter"",""1"",""9335""
","
","
","""event"",""trial"",""time""
""fullscreenenter"",""1"",""9335""
","
",,,,,,,,,,,,"[{""stimulus"":""run_exp/static/images/task_images/dig.jpg"",""time"":0.19999999972060323},{""stimulus"":""run_exp/static/images/task_images/land.jpg"",""time"":749.8999999999069},{""stimulus"":""run_exp/static/images/task_images/dig.jpg"",""time"":1494.3999999999069}]",[],7,,,,,,,,,,,,,,
harvest,209,702263,0.0-68.0-1.0,"""event"",""trial"",""time""
""fullscreenenter"",""1"",""9335""
","
","
","""event"",""trial"",""time""
""fullscreenenter"",""1"",""9335""
","
",,null,run_exp/static/images/task_images/gems/2.jpg,null,,,,,,,2,,,7,,,,,2,0.823952239,1,,,,,,,
decision,210,703366,0.0-68.0-2.0,"""event"",""trial"",""time""
""fullscreenenter"",""1"",""9335""
","
","
","""event"",""trial"",""time""
""fullscreenenter"",""1"",""9335""
","
",,1099.5,run_exp/static/images/task_images/land.jpg,65,,,,,,,2,,,7,,,,,,,,250400,1,16,FALSE,,,
dig,211,705271,0.0-69.0-0.0,"""event"",""trial"",""time""
""fullscreenenter"",""1"",""9335""
","
","
","""event"",""trial"",""time""
""fullscreenenter"",""1"",""9335""
","
",,,,,,,,,,,,"[{""stimulus"":""run_exp/static/images/task_images/dig.jpg"",""time"":0.20000000018626451},{""stimulus"":""run_exp/static/images/task_images/land.jpg"",""time"":639.2999999998137},{""stimulus"":""run_exp/static/images/task_images/dig.jpg"",""time"":1271.2000000001863}]",[],7,,,,,,,,,,,,,,
harvest,212,706279,0.0-69.0-1.0,"""event"",""trial"",""time""
""fullscreenenter"",""1"",""9335""
","
","
","""event"",""trial"",""time""
""fullscreenenter"",""1"",""9335""
","
",,null,run_exp/static/images/task_images/gems/2.jpg,null,,,,,,,2,,,7,,,,,2,0.762423887,1,,,,,,,
decision,213,707304,0.0-69.0-2.0,"""event"",""trial"",""time""
""fullscreenenter"",""1"",""9335""
","
","
","""event"",""trial"",""time""
""fullscreenenter"",""1"",""9335""
","
",,1021.3,run_exp/static/images/task_images/land.jpg,65,,,,,,,0,,,7,,,,,,,,254339,1,17,FALSE,,,
dig,214,709292,0.0-70.0-0.0,"""event"",""trial"",""time""
""fullscreenenter"",""1"",""9335""
","
","
","""event"",""trial"",""time""
""fullscreenenter"",""1"",""9335""
","
",,,,,,,,,,,,"[{""stimulus"":""run_exp/static/images/task_images/dig.jpg"",""time"":0.10000000009313226},{""stimulus"":""run_exp/static/images/task_images/land.jpg"",""time"":665},{""stimulus"":""run_exp/static/images/task_images/dig.jpg"",""time"":1321.1000000000931}]",[],7,,,,,,,,,,,,,,
harvest,215,710300,0.0-70.0-1.0,"""event"",""trial"",""time""
""fullscreenenter"",""1"",""9335""
","
","
","""event"",""trial"",""time""
""fullscreenenter"",""1"",""9335""
","
",,null,run_exp/static/images/task_images/gems/0.jpg,null,,,,,,,0,,,7,,,,,0,0.829857551,NaN,,,,,,,
decision,216,710554,0.0-70.0-2.0,"""event"",""trial"",""time""
""fullscreenenter"",""1"",""9335""
","
","
","""event"",""trial"",""time""
""fullscreenenter"",""1"",""9335""
","
",,250.7,run_exp/static/images/task_images/land.jpg,76,,,,,,,0,,,7,,,,,,,,257588,1,18,TRUE,,,
travel,217,720310,0.0-71.0-0.0,"""event"",""trial"",""time""
""fullscreenenter"",""1"",""9335""
","
","
","""event"",""trial"",""time""
""fullscreenenter"",""1"",""9335""
","
",,,,,,,,,,,,"[{""stimulus"":""run_exp/static/images/task_images/rocket-01.jpg"",""time"":0.20000000018626451},{""stimulus"":""run_exp/static/images/task_images/rocket-02.jpg"",""time"":1089.6000000000931},{""stimulus"":""run_exp/static/images/task_images/rocket-03.jpg"",""time"":2173.100000000093},{""stimulus"":""run_exp/static/images/task_images/rocket-04.jpg"",""time"":3253.600000000093},{""stimulus"":""run_exp/static/images/task_images/rocket-05.jpg"",""time"":4337.100000000093},{""stimulus"":""run_exp/static/images/task_images/rocket-06.jpg"",""time"":5418.5},{""stimulus"":""run_exp/static/images/task_images/rocket-07.jpg"",""time"":6500.200000000186},{""stimulus"":""run_exp/static/images/task_images/rocket-08.jpg"",""time"":7587.200000000186},{""stimulus"":""run_exp/static/images/task_images/rocket-09.jpg"",""time"":8670.700000000186}]",[],7,,,,,,,,,,,,,,
alien_welcome,218,725318,0.0-71.0-1.0,"""event"",""trial"",""time""
""fullscreenenter"",""1"",""9335""
","
","
","""event"",""trial"",""time""
""fullscreenenter"",""1"",""9335""
","
",,null,run_exp/static/images/task_images/aliens/old_aliens/planet/alien_planet-19.jpg,null,,,,,,,,,,,,,19,"56,13,11,59,12,50,10,19,68,47,3,29,34,9,5,37,38,54,64,55,30,74,40,17,16,35,58,57",,,,,,,,,,
land,219,725823,0.0-71.0-2.0,"""event"",""trial"",""time""
""fullscreenenter"",""1"",""9335""
","
","
","""event"",""trial"",""time""
""fullscreenenter"",""1"",""9335""
","
",,null,run_exp/static/images/task_images/land.jpg,null,,,,,,,106,,,8,,,,,,,,,,,,,,
dig,220,727834,0.0-71.0-3.0,"""event"",""trial"",""time""
""fullscreenenter"",""1"",""9335""
","
","
","""event"",""trial"",""time""
""fullscreenenter"",""1"",""9335""
","
",,,,,,,,,,,,"[{""stimulus"":""run_exp/static/images/task_images/dig.jpg"",""time"":0.39999999990686774},{""stimulus"":""run_exp/static/images/task_images/land.jpg"",""time"":671.6000000000931},{""stimulus"":""run_exp/static/images/task_images/dig.jpg"",""time"":1336.1999999997206}]",[],8,,,,,,,,,,,,,,
harvest,221,728842,0.0-71.0-4.0,"""event"",""trial"",""time""
""fullscreenenter"",""1"",""9335""
","
","
","""event"",""trial"",""time""
""fullscreenenter"",""1"",""9335""
","
",,null,run_exp/static/images/task_images/gems/106.jpg,null,,,,,,,78,,,8,,,,,106,0.733103351,0.735849057,,,,,,,
decision,222,729466,0.0-71.0-5.0,"""event"",""trial"",""time""
""fullscreenenter"",""1"",""9335""
","
","
","""event"",""trial"",""time""
""fullscreenenter"",""1"",""9335""
","
",,620.2,run_exp/static/images/task_images/land.jpg,65,,,,,,,78,,,8,,,,,,,,276500,1,0,FALSE,,,
dig,223,731855,0.0-72.0-0.0,"""event"",""trial"",""time""
""fullscreenenter"",""1"",""9335""
","
","
","""event"",""trial"",""time""
""fullscreenenter"",""1"",""9335""
","
",,,,,,,,,,,,"[{""stimulus"":""run_exp/static/images/task_images/dig.jpg"",""time"":0.20000000018626451},{""stimulus"":""run_exp/static/images/task_images/land.jpg"",""time"":794.9000000003725},{""stimulus"":""run_exp/static/images/task_images/dig.jpg"",""time"":1589.3000000002794}]",[],8,,,,,,,,,,,,,,
harvest,224,732859,0.0-72.0-1.0,"""event"",""trial"",""time""
""fullscreenenter"",""1"",""9335""
","
","
","""event"",""trial"",""time""
""fullscreenenter"",""1"",""9335""
","
",,null,run_exp/static/images/task_images/gems/78.jpg,null,,,,,,,65,,,8,,,,,78,0.833147234,0.833333333,,,,,,,
decision,225,733994,0.0-72.0-2.0,"""event"",""trial"",""time""
""fullscreenenter"",""1"",""9335""
","
","
","""event"",""trial"",""time""
""fullscreenenter"",""1"",""9335""
","
",,1131.5,run_exp/static/images/task_images/land.jpg,65,,,,,,,65,,,8,,,,,,,,281028,1,1,FALSE,,,
dig,226,735866,0.0-73.0-0.0,"""event"",""trial"",""time""
""fullscreenenter"",""1"",""9335""
","
","
","""event"",""trial"",""time""
""fullscreenenter"",""1"",""9335""
","
",,,,,,,,,,,,"[{""stimulus"":""run_exp/static/images/task_images/dig.jpg"",""time"":0.20000000018626451},{""stimulus"":""run_exp/static/images/task_images/land.jpg"",""time"":623.1000000000931},{""stimulus"":""run_exp/static/images/task_images/dig.jpg"",""time"":1249.2000000001863}]",[],8,,,,,,,,,,,,,,
harvest,227,736875,0.0-73.0-1.0,"""event"",""trial"",""time""
""fullscreenenter"",""1"",""9335""
","
","
","""event"",""trial"",""time""
""fullscreenenter"",""1"",""9335""
","
",,null,run_exp/static/images/task_images/gems/65.jpg,null,,,,,,,52,,,8,,,,,65,0.797531587,0.8,,,,,,,
decision,228,738433,0.0-73.0-2.0,"""event"",""trial"",""time""
""fullscreenenter"",""1"",""9335""
","
","
","""event"",""trial"",""time""
""fullscreenenter"",""1"",""9335""
","
",,1554.4,run_exp/static/images/task_images/land.jpg,65,,,,,,,52,,,8,,,,,,,,285467,1,2,FALSE,,,
dig,229,739886,0.0-74.0-0.0,"""event"",""trial"",""time""
""fullscreenenter"",""1"",""9335""
","
","
","""event"",""trial"",""time""
""fullscreenenter"",""1"",""9335""
","
",,,,,,,,,,,,"[{""stimulus"":""run_exp/static/images/task_images/dig.jpg"",""time"":0.20000000018626451},{""stimulus"":""run_exp/static/images/task_images/land.jpg"",""time"":482.70000000018626},{""stimulus"":""run_exp/static/images/task_images/dig.jpg"",""time"":966.2000000001863}]",[],8,,,,,,,,,,,,,,
harvest,230,740894,0.0-74.0-1.0,"""event"",""trial"",""time""
""fullscreenenter"",""1"",""9335""
","
","
","""event"",""trial"",""time""
""fullscreenenter"",""1"",""9335""
","
",,null,run_exp/static/images/task_images/gems/52.jpg,null,,,,,,,43,,,8,,,,,52,0.826650501,0.826923077,,,,,,,
decision,231,741402,0.0-74.0-2.0,"""event"",""trial"",""time""
""fullscreenenter"",""1"",""9335""
","
","
","""event"",""trial"",""time""
""fullscreenenter"",""1"",""9335""
","
",,504.1,run_exp/static/images/task_images/land.jpg,65,,,,,,,43,,,8,,,,,,,,288437,1,3,FALSE,,,
dig,232,743906,0.0-75.0-0.0,"""event"",""trial"",""time""
""fullscreenenter"",""1"",""9335""
","
","
","""event"",""trial"",""time""
""fullscreenenter"",""1"",""9335""
","
",,,,,,,,,,,,"[{""stimulus"":""run_exp/static/images/task_images/dig.jpg"",""time"":0.10000000009313226},{""stimulus"":""run_exp/static/images/task_images/land.jpg"",""time"":836.7000000001863},{""stimulus"":""run_exp/static/images/task_images/dig.jpg"",""time"":1668.2000000001863}]",[],8,,,,,,,,,,,,,,
harvest,233,744913,0.0-75.0-1.0,"""event"",""trial"",""time""
""fullscreenenter"",""1"",""9335""
","
","
","""event"",""trial"",""time""
""fullscreenenter"",""1"",""9335""
","
",,null,run_exp/static/images/task_images/gems/43.jpg,null,,,,,,,34,,,8,,,,,43,0.787172934,0.790697674,,,,,,,
decision,234,747282,0.0-75.0-2.0,"""event"",""trial"",""time""
""fullscreenenter"",""1"",""9335""
","
","
","""event"",""trial"",""time""
""fullscreenenter"",""1"",""9335""
","
",,2365.7,run_exp/static/images/task_images/land.jpg,65,,,,,,,34,,,8,,,,,,,,294316,1,4,FALSE,,,
dig,235,747926,0.0-76.0-0.0,"""event"",""trial"",""time""
""fullscreenenter"",""1"",""9335""
","
","
","""event"",""trial"",""time""
""fullscreenenter"",""1"",""9335""
","
",,,,,,,,,,,,"[{""stimulus"":""run_exp/static/images/task_images/dig.jpg"",""time"":0.3000000002793968},{""stimulus"":""run_exp/static/images/task_images/land.jpg"",""time"":212.5},{""stimulus"":""run_exp/static/images/task_images/dig.jpg"",""time"":428.40000000037253}]",[],8,,,,,,,,,,,,,,
harvest,236,748929,0.0-76.0-1.0,"""event"",""trial"",""time""
""fullscreenenter"",""1"",""9335""
","
","
","""event"",""trial"",""time""
""fullscreenenter"",""1"",""9335""
","
",,null,run_exp/static/images/task_images/gems/34.jpg,null,,,,,,,28,,,8,,,,,34,0.810915236,0.823529412,,,,,,,
decision,237,751938,0.0-76.0-2.0,"""event"",""trial"",""time""
""fullscreenenter"",""1"",""9335""
","
","
","""event"",""trial"",""time""
""fullscreenenter"",""1"",""9335""
","
",,null,run_exp/static/images/task_images/land.jpg,null,,,,,,,28,,,8,,,,,,,,298972,1,5,FALSE,,,
time_out,238,753944,0.0-77.0-0.0,"""event"",""trial"",""time""
""fullscreenenter"",""1"",""9335""
","
","
","""event"",""trial"",""time""
""fullscreenenter"",""1"",""9335""
","
",,null,run_exp/static/images/task_images/time_out.jpg,null,,,,,,,28,,,,,,,,,,,,,,,,,
decision,239,755707,0.0-77.0-1.0,"""event"",""trial"",""time""
""fullscreenenter"",""1"",""9335""
","
","
","""event"",""trial"",""time""
""fullscreenenter"",""1"",""9335""
","
",,1760.5,run_exp/static/images/task_images/land.jpg,65,,,,,,,28,,,8,,,,,,,,302741,1,5,TRUE,,,
end_of_block_continue,240,764539,0.0-78.0-0.0,"""event"",""trial"",""time""
""fullscreenenter"",""1"",""9335""
","
","
","""event"",""trial"",""time""
""fullscreenenter"",""1"",""9335""
","
",,null,run_exp/static/audio/clip_32_block_end.m4a,,,,,,,null,,,,,,,,,,,,,,,,,,
alien_welcome,241,769548,0.0-79.0-0.0,"""event"",""trial"",""time""
""fullscreenenter"",""1"",""9335""
","
","
","""event"",""trial"",""time""
""fullscreenenter"",""1"",""9335""
","
",,null,run_exp/static/images/task_images/aliens/old_aliens/planet/alien_planet-68.jpg,null,,,,,,,,,,,,,68,"56,13,11,59,12,50,10,19,68,47,3,29,34,9,5,37,38,54,64,55,30,74,40,17,16,35,58,57",,,,,,,,,,
land,242,770052,0.0-79.0-1.0,"""event"",""trial"",""time""
""fullscreenenter"",""1"",""9335""
","
","
","""event"",""trial"",""time""
""fullscreenenter"",""1"",""9335""
","
",,null,run_exp/static/images/task_images/land.jpg,null,,,,,,,104,,,9,,,,,,,,,,,,,,
dig,243,772060,0.0-79.0-2.0,"""event"",""trial"",""time""
""fullscreenenter"",""1"",""9335""
","
","
","""event"",""trial"",""time""
""fullscreenenter"",""1"",""9335""
","
",,,,,,,,,,,,"[{""stimulus"":""run_exp/static/images/task_images/dig.jpg"",""time"":0.5},{""stimulus"":""run_exp/static/images/task_images/land.jpg"",""time"":671.3000000002794},{""stimulus"":""run_exp/static/images/task_images/dig.jpg"",""time"":1338.5}]",[],9,,,,,,,,,,,,,,
harvest,244,773066,0.0-79.0-3.0,"""event"",""trial"",""time""
""fullscreenenter"",""1"",""9335""
","
","
","""event"",""trial"",""time""
""fullscreenenter"",""1"",""9335""
","
",,null,run_exp/static/images/task_images/gems/104.jpg,null,,,,,,,21,,,9,,,,,104,0.202866649,0.201923077,,,,,,,
decision,245,773879,0.0-79.0-4.0,"""event"",""trial"",""time""
""fullscreenenter"",""1"",""9335""
","
","
","""event"",""trial"",""time""
""fullscreenenter"",""1"",""9335""
","
",,809,run_exp/static/images/task_images/land.jpg,65,,,,,,,21,,,9,,,,,,,,9334,2,0,FALSE,,,
dig,246,776080,0.0-80.0-0.0,"""event"",""trial"",""time""
""fullscreenenter"",""1"",""9335""
","
","
","""event"",""trial"",""time""
""fullscreenenter"",""1"",""9335""
","
",,,,,,,,,,,,"[{""stimulus"":""run_exp/static/images/task_images/dig.jpg"",""time"":0.09999999962747097},{""stimulus"":""run_exp/static/images/task_images/land.jpg"",""time"":733.3999999999069},{""stimulus"":""run_exp/static/images/task_images/dig.jpg"",""time"":1464.2999999998137}]",[],9,,,,,,,,,,,,,,
harvest,247,777088,0.0-80.0-1.0,"""event"",""trial"",""time""
""fullscreenenter"",""1"",""9335""
","
","
","""event"",""trial"",""time""
""fullscreenenter"",""1"",""9335""
","
",,null,run_exp/static/images/task_images/gems/21.jpg,null,,,,,,,5,,,9,,,,,21,0.235552543,0.238095238,,,,,,,
decision,248,780097,0.0-80.0-2.0,"""event"",""trial"",""time""
""fullscreenenter"",""1"",""9335""
","
","
","""event"",""trial"",""time""
""fullscreenenter"",""1"",""9335""
","
",,null,run_exp/static/images/task_images/land.jpg,null,,,,,,,5,,,9,,,,,,,,15552,2,1,FALSE,,,
time_out,249,782107,0.0-81.0-0.0,"""event"",""trial"",""time""
""fullscreenenter"",""1"",""9335""
","
","
","""event"",""trial"",""time""
""fullscreenenter"",""1"",""9335""
","
",,null,run_exp/static/images/task_images/time_out.jpg,null,,,,,,,5,,,,,,,,,,,,,,,,,
decision,250,785116,0.0-81.0-1.0,"""event"",""trial"",""time""
""fullscreenenter"",""1"",""9335""
","
","
","""event"",""trial"",""time""
""fullscreenenter"",""1"",""9335""
","
",,null,run_exp/static/images/task_images/land.jpg,null,,,,,,,5,,,9,,,,,,,,20571,2,1,FALSE,,,
time_out,251,787125,0.0-82.0-0.0,"""event"",""trial"",""time""
""fullscreenenter"",""1"",""9335""
","
","
","""event"",""trial"",""time""
""fullscreenenter"",""1"",""9335""
","
",,null,run_exp/static/images/task_images/time_out.jpg,null,,,,,,,5,,,,,,,,,,,,,,,,,
decision,252,787623,0.0-82.0-1.0,"""event"",""trial"",""time""
""fullscreenenter"",""1"",""9335""
","
","
","""event"",""trial"",""time""
""fullscreenenter"",""1"",""9335""
","
",,495.8,run_exp/static/images/task_images/land.jpg,65,,,,,,,5,,,9,,,,,,,,23078,2,1,FALSE,,,
dig,253,790133,0.0-83.0-0.0,"""event"",""trial"",""time""
""fullscreenenter"",""1"",""9335""
","
","
","""event"",""trial"",""time""
""fullscreenenter"",""1"",""9335""
","
",,,,,,,,,,,,"[{""stimulus"":""run_exp/static/images/task_images/dig.jpg"",""time"":0.19999999972060323},{""stimulus"":""run_exp/static/images/task_images/land.jpg"",""time"":840.2999999998137},{""stimulus"":""run_exp/static/images/task_images/dig.jpg"",""time"":1675}]",[],9,,,,,,,,,,,,,,
harvest,254,791138,0.0-83.0-1.0,"""event"",""trial"",""time""
""fullscreenenter"",""1"",""9335""
","
","
","""event"",""trial"",""time""
""fullscreenenter"",""1"",""9335""
","
",,null,run_exp/static/images/task_images/gems/5.jpg,null,,,,,,,1,,,9,,,,,5,0.231844149,0.2,,,,,,,
decision,255,792921,0.0-83.0-2.0,"""event"",""trial"",""time""
""fullscreenenter"",""1"",""9335""
","
","
","""event"",""trial"",""time""
""fullscreenenter"",""1"",""9335""
","
",,1779.7,run_exp/static/images/task_images/land.jpg,65,,,,,,,1,,,9,,,,,,,,28376,2,2,FALSE,,,
